Timestamp,IMU_Linear_Acc_X,IMU_Linear_Acc_Y,IMU_Linear_Acc_Z,Filtered_X,Filtered_Y,Filtered_Z,Pose_X,Pose_Y,Pose_Z
1731474136.2091148,-0.33983662724494934,0.4336758553981781,-9.985615730285645,-4.5913826667886e-05,-0.00019096172391929706,9.763419319544091e-05,1.5348503424511428,0.10342739831538296,0.2264451312786159
1731474136.25901,-0.34130141139030457,0.4240894317626953,-9.983531951904297,-6.838878527964988e-05,-0.00030548857865081257,0.00015353643149275381,1.535101576746539,0.1282386417146945,0.22651234562404912
1731474136.3090398,-0.34130141139030457,0.4240894317626953,-9.983531951904297,-8.125604087930679e-05,-0.00037558315171440165,0.00018793153049385247,1.53535886204975,0.12826480415463354,0.22655875032893688
1731474136.3588867,-0.27416113018989563,0.43637028336524963,-9.988398551940918,-0.00011035078557152577,-0.0005410698747626114,0.00027068098766667244,1.5355677554051652,0.15604693041842435,0.22661963650581468
1731474136.408835,-0.46316227316856384,0.3740302622318268,-9.99268913269043,-0.00012694134729489525,-0.0006358273151273992,0.0003193215325934961,1.5357395098876605,0.15606818644927628,0.22665061690190197
1731474136.4588637,-0.7430660724639893,0.23497319221496582,-10.004386901855469,-0.00014479806577640133,-0.0007376640163595672,0.00037283847176843347,1.537361676510314,0.1562689216876493,0.22694322868381508
1731474136.5088224,-0.1835746020078659,0.5284029841423035,-9.957141876220703,-0.00016206163660990478,-0.0008449195605867888,0.00043110184339838155,1.5483947705825258,0.15763304952156754,0.22893406376519201
1731474136.5587819,-0.1835746020078659,0.5284029841423035,-9.957141876220703,-0.00017535065213569072,-0.0009553127213307413,0.00049396269449499,1.5594199908546695,0.15899400684322357,0.23092470987238164
1731474136.5587819,-0.32869449257850647,0.37620213627815247,-10.047292709350586,-0.0001817452781999577,-0.0010669490719032448,0.0005613819773566376,1.5595102321181722,0.15900513662644816,0.23094100870417383
1731474136.6086814,-0.3212164640426636,0.5026140809059143,-9.98022747039795,-0.00018000116463271965,-0.0011787792690688473,0.0006333062964807969,1.570452157539248,0.1863105853065838,0.2329450277163289
1731474136.6586556,-0.3097893297672272,0.373074471950531,-9.942727088928223,-0.00017007308192116703,-0.0012902631494201718,0.0007094982431909371,1.5814781517635754,0.1878869110003695,0.23493923901903044
1731474136.7085814,-0.3097893297672272,0.373074471950531,-9.942727088928223,-0.00015249861588224816,-0.0014009666868677467,0.0007897358794326488,1.5925128636455317,0.21618533559137712,0.23696576946712128
1731474136.7085814,-0.36415764689445496,0.45885133743286133,-10.01577377319336,-0.00012821733514457157,-0.0015102463476819594,0.0008741061337018739,1.5926050437299875,0.21620034268223712,0.23698246854795324
1731474136.7586725,-0.3174515664577484,0.43460458517074585,-9.97563648223877,-9.839713030247054e-05,-0.001617222399728858,0.0009629219154573832,1.6035730400604655,0.21798395786934918,0.23897062136417754
1731474136.808501,-0.3174515664577484,0.43460458517074585,-9.97563648223877,-6.427415684267913e-05,-0.001721084047661644,0.0010564643814759999,1.6145750115571111,0.24723404273300137,0.24099890705726262
1731474136.808501,-0.37348827719688416,0.42250683903694153,-9.971975326538086,-2.713654287411997e-05,-0.001821255849029914,0.0011549373721124856,1.6146259149056208,0.24724333652270175,0.24100815366485936
1731474136.858473,-0.3333224654197693,0.4560640752315521,-10.020543098449707,1.174311257380545e-05,-0.0019173463653915754,0.001258520495921012,1.6256174881014929,0.24924775290259188,0.24300634286010678
1731474136.9084017,-0.3716474175453186,0.4254069924354553,-9.993083000183105,5.1269458081562543e-05,-0.002009132099069812,0.001367272072836401,1.6370628598402661,0.2796919063955986,0.2451248103169384
1731474136.9583972,-0.30855798721313477,0.4505065679550171,-9.975634574890137,9.0575806024651e-05,-0.0020965857600931813,0.0014810079172637488,1.6476961010351,0.281842937000728,0.247064843642921
1731474137.0092394,-0.33945232629776,0.44332513213157654,-10.006049156188965,0.0001289132007656447,-0.0021798763699898377,0.0015993479126997351,1.6589230512419653,0.31335627245351294,0.2491541461640397
1731474137.0592687,-0.30693483352661133,0.45724576711654663,-9.974886894226074,0.00016548504530849268,-0.0022593806902427393,0.0017218137154635291,1.6699730559905297,0.3158145568420253,0.2511786058642066
1731474137.1091747,-0.3404017686843872,0.42924872040748596,-9.97957992553711,0.00019935193218243238,-0.0023356970778074327,0.0018478764646389927,1.6810152957955327,0.34827071592802583,0.2532462154198424
1731474137.159192,-0.33027854561805725,0.4503231644630432,-9.993732452392578,0.0002294559910030132,-0.00240959553068904,0.001977011718462802,1.692056228147972,0.350951206557487,0.25527865781361103
1731474137.2090607,-0.3312438130378723,0.4298307001590729,-9.984983444213867,0.00025470922049271723,-0.002481932675771628,0.002108717865466729,1.7030562199903125,0.3536155199770433,0.2573085405744778
1731474137.2591295,-0.32849225401878357,0.44427555799484253,-9.991825103759766,0.0002740512037975513,-0.0025535929549081425,0.0022424754934997704,1.714149262586158,0.38750488784319315,0.2594064173981307
1731474137.308942,-0.3466336131095886,0.43178790807724,-9.988767623901367,0.0002864662685551666,-0.0026254538527119156,0.0023777235116521113,1.7251489593803067,0.39039517451715605,0.26144788620425924
1731474137.3589773,-0.3226473927497864,0.4400995373725891,-9.986501693725586,0.00029101608343279757,-0.0026983608990892244,0.002513864325301329,1.7362397726941288,0.4253801754474607,0.2635617603898514
1731474137.4088914,-0.3401765823364258,0.42628738284111023,-10.006254196166992,0.0002868621737618365,-0.002773104235088545,0.0026502642881767883,1.7472536164681878,0.42850273050534443,0.2656189430493651
1731474137.4588525,-0.32638588547706604,0.4399968981742859,-9.992179870605469,0.00027325013577718756,-0.002850390852572047,0.002786223450942109,1.7583332048400926,0.4642124834294812,0.26774897800499176
1731474137.50879,-0.3352645933628082,0.4304140508174896,-9.980989456176758,0.0002494947776622013,-0.002930830866883119,0.0029209574407392178,1.769326366336486,0.46755663632130934,0.2698168181758355
1731474137.5588923,-0.33292460441589355,0.43939563632011414,-9.997173309326172,0.00021498111952614137,-0.0030149471542724976,0.0030536511377775737,1.7804122158013,0.4709213407336427,0.2719094870117323
1731474137.6086698,-0.3363683819770813,0.4308415949344635,-9.980420112609863,0.00016917672867519657,-0.0031031886606783404,0.003183522554211273,1.7915441135549734,0.5080367651157783,0.27407986544366325
1731474137.6586838,-0.3302421271800995,0.4421899914741516,-9.979595184326172,0.00011164669917040497,-0.0031959382264622692,0.0033098536521923407,1.8024952398696128,0.5115892316973557,0.2761638241826992
1731474137.7086177,-0.3302421271800995,0.4421899914741516,-9.979595184326172,4.204794056362053e-05,-0.0032935323305137813,0.0034320347901954994,1.8135510149666192,0.5495948322364437,0.2783427647637159
1731474137.7086177,-0.3371421694755554,0.43059173226356506,-9.996553421020508,-3.988907632692055e-05,-0.00339628788462773,0.003549591247404127,1.8140180442394622,0.5497562871245254,0.27843223095301567
1731474137.758543,-0.3301190137863159,0.4375700056552887,-9.977168083190918,-0.00013436024989350667,-0.003504494550116417,0.003662144045848596,1.8245962115515473,0.5534090844974793,0.2804630440479118
1731474137.8085432,-0.34019094705581665,0.43010377883911133,-9.982741355895996,-0.00024147245070226268,-0.003618376657474592,0.0037693753324686222,1.8356297733896125,0.5572105824296422,0.2825904640985654
1731474137.8584952,-0.33192288875579834,0.43809831142425537,-9.991263389587402,-0.00036123108784174093,-0.0037380717164951748,0.00387104041190126,1.846658403185468,0.5610014594491542,0.28472661337340066
1731474137.9083514,-0.34595686197280884,0.4304082989692688,-9.981121063232422,-0.0004935281605785716,-0.003863633016319258,0.00396696429436239,1.8579391986406448,0.6009470898159631,0.2870014219466756
1731474137.9583144,-0.3420066237449646,0.443705290555954,-9.989968299865723,-0.0006381193249095768,-0.00399504335097841,0.004057015179841127,1.8687517488231797,0.6048928384271887,0.2891170887139795
1731474138.0092392,-0.34163692593574524,0.42966023087501526,-9.989768028259277,-0.0007945977952675344,-0.004132236340065248,0.004141089072238355,1.8800455055656156,0.645777808780866,0.29142285524472744
1731474138.0592258,-0.33824580907821655,0.44014066457748413,-9.97556209564209,-0.0009623973597063598,-0.004275109503814429,0.004219103691083149,1.8910789130763026,0.6500386601250893,0.29360482685238287
1731474138.1091983,-0.341629296541214,0.4363786280155182,-9.98953914642334,-0.001140827105985654,-0.004423525055805908,0.004291015487059797,1.902130536610284,0.6542966610261726,0.2958015890568693
1731474138.1591976,-0.3402191698551178,0.43175989389419556,-9.978646278381348,-0.0013291021897175073,-0.004577311853912891,0.004356845738789399,1.9132001906787381,0.6585514811508998,0.29801343383641987
1731474138.209059,-0.3476492762565613,0.432100772857666,-9.985774040222168,-0.0015263518043634077,-0.004736255657156574,0.004416681708215779,1.9241405250692756,0.6627464239361994,0.30021100649382
1731474138.2590916,-0.33999305963516235,0.4344528317451477,-9.983550071716309,-0.001731613358782618,-0.004900077294216078,0.0044706658604581895,1.9352939846412132,0.7059429708345162,0.30256826941074205
1731474138.3088815,-0.34422069787979126,0.4327370822429657,-9.9750337600708,-0.0019438361225277408,-0.005068429453167069,0.004518992222064599,1.9461973160205346,0.7103599609253938,0.30478408030205834
1731474138.3589008,-0.3437175154685974,0.44072937965393066,-9.988846778869629,-0.0021619013067422604,-0.005240916921604118,0.004561913179632642,1.9572139414197356,0.7148120879349679,0.3070352534864299
1731474138.4087975,-0.34332624077796936,0.4315757751464844,-9.98684024810791,-0.002384639611737402,-0.005417123753587983,0.004599729774322394,1.9683626941288148,0.7594031543764416,0.30944372105152945
1731474138.458818,-0.33988749980926514,0.436118483543396,-9.992659568786621,-0.002610846029121902,-0.005596626970370842,0.004632743238006177,1.9792905718645921,0.7640579758662841,0.3117041398238878
1731474138.5087607,-0.33988749980926514,0.436118483543396,-9.992659568786621,-0.0028393070728207088,-0.005778992416303847,0.004661201547988931,1.9902606728332504,0.7687195402430704,0.31398623249526747
1731474138.5087607,-0.3460216820240021,0.428290456533432,-9.99396800994873,-0.0030688270712988614,-0.0059637691672402866,0.00468526898483461,1.990354581323285,0.7687593959631251,0.3140058245812795
1731474138.5588555,-0.32766076922416687,0.4385663866996765,-9.993430137634277,-0.003298243220566446,-0.0061504826792930425,0.004705015699113597,2.001376761504418,0.8147349880134828,0.3164438233727462
1731474138.6086557,-0.3306537866592407,0.4353063106536865,-9.987985610961914,-0.003526464796882268,-0.0063386361928728695,0.004720427894765272,2.012451589112718,0.8196846695490054,0.3187772265717954
1731474138.6586676,-0.3333236277103424,0.4373985528945923,-9.995209693908691,-0.003752536670768739,-0.006527734005892703,0.004731434290226752,2.0233868023693002,0.8664881930294093,0.3212358295261762
1731474138.7086084,-0.3319365978240967,0.4339129328727722,-9.97912311553955,-0.003975664356903852,-0.00671730076918863,0.004737936699880117,2.0344270232712365,0.9137217637797904,0.3237400930455571
1731474138.758562,-0.333381712436676,0.4398839473724365,-9.9823637008667,-0.004195192868454581,-0.0069068828058881,0.004739853842309983,2.0453309166801525,0.9190871782743149,0.3260837640171807
1731474138.8085184,-0.333381712436676,0.4398839473724365,-9.9823637008667,-0.004410582480454688,-0.00709605485841089,0.004737176417280202,2.056248241112026,0.9244470602043762,0.3284444002577153
1731474138.8085184,-0.3302189111709595,0.438150554895401,-9.991358757019043,-0.004621394777629012,-0.0072844384482830486,0.004729984807849075,2.05631811729211,0.9244813265081845,0.3284595551147104
1731474138.8586066,-0.3308621346950531,0.44120118021965027,-9.983616828918457,-0.004827289111791755,-0.007471711974412413,0.004718414694997196,2.067221969521003,0.9298220342297073,0.33083161694618124
1731474138.8586066,-0.3308621346950531,0.44120118021965027,-9.983616828918457,-0.005028025277668482,-0.00765761094064502,0.004702626178071276,2.07072668003316,0.97488141051705,0.3317662965980913
1731474139.2399957,-0.3376094102859497,0.43933042883872986,-9.987139701843262,-0.005223453175855597,-0.007841929181089499,0.0046828070650105115,2.1504455412519263,1.1047653854658672,0.34998826708582814
1731474139.2900891,-0.3423849642276764,0.43753117322921753,-9.985186576843262,-0.0054134732647776445,-0.00802451186640631,0.004659177869367365,2.1613453835841954,1.1107905920993941,0.35249462831767586
1731474139.3398674,-0.34360605478286743,0.4366273581981659,-9.992426872253418,-0.005597975322297779,-0.008205233372683075,0.004631975222540937,2.172112934072203,1.1631758928664873,0.35521224749103825
1731474139.389985,-0.3389294445514679,0.4368346929550171,-9.979833602905273,-0.005776791786246145,-0.008383973385248768,0.004601432199080884,2.1829529516427377,1.1694150165718424,0.3577381357943826
1731474139.4397805,-0.3331068754196167,0.42958614230155945,-9.990646362304688,-0.005949701447793196,-0.008560597353426024,0.004567778781782978,2.193929812902213,1.1757197803125177,0.36031122862186665
1731474139.4898527,-0.335146963596344,0.4248596131801605,-9.98840618133545,-0.006116476844461655,-0.008734924929400405,0.004531248612904238,2.2044792392251154,1.1817663557042033,0.3627987231843128
1731474139.539713,-0.3328384459018707,0.4296468496322632,-9.984148025512695,-0.006276930989112562,-0.008906686096575595,0.004492070148901711,2.215250158638259,1.235856270872809,0.3656114782965332
1731474139.5897124,-0.3308675289154053,0.4361976087093353,-9.986226081848145,-0.00643093908687397,-0.009075508799122563,0.004450464749483198,2.2263088843388537,1.2903495711956046,0.3685206375189757
1731474139.639718,-0.3300713300704956,0.44613346457481384,-9.986385345458984,-0.00657845031992656,-0.009240972974623656,0.00440666076023181,2.2368010876525273,1.2968586016721861,0.3710463396370717
1731474139.6895943,-0.3355879783630371,0.4400116503238678,-9.9830961227417,-0.0067194939233516365,-0.009402700982763648,0.004360900092989624,2.247525793813102,1.3034989739203748,0.373642858056364
1731474139.7396622,-0.3371192514896393,0.4425605237483978,-9.980547904968262,-0.0068541606993061804,-0.009560417313310445,0.0043134446451710395,2.258256780753812,1.3101299390484558,0.3762559581614921
1731474139.789675,-0.33719924092292786,0.4419511556625366,-9.980554580688477,-0.006982563692432201,-0.009713953740056817,0.004264596210898894,2.2689126297851514,1.3167010648120536,0.3788657008233895
1731474139.8395355,-0.3354564905166626,0.445912629365921,-9.973817825317383,-0.007104809169858735,-0.009863237381127375,0.004214719736363089,2.2794911554637287,1.323211042024497,0.3814712575175201
1731474139.8896139,-0.3405797779560089,0.44538143277168274,-9.989174842834473,-0.007220988961619151,-0.01000829161364768,0.004164253135625599,2.2901597671242087,1.3800740369115474,0.3844339093769841
1731474139.9394777,-0.33414551615715027,0.4462050497531891,-9.99086856842041,-0.007331178500877306,-0.010149241881017217,0.004113673865455197,2.3007801656388094,1.3868589050758342,0.3870841008444724
1731474139.9894018,-0.3440423011779785,0.44702938199043274,-9.984944343566895,-0.007435433106520456,-0.010286313608055514,0.004063428589582131,2.311355063708453,1.444292329997765,0.3900769620397253
1731474140.0392613,-0.32870543003082275,0.43953606486320496,-9.982325553894043,-0.007533788372372187,-0.010419816936495374,0.004013898324501263,2.3218997742124294,1.451276413619484,0.3927425036301893
1731474140.089296,-0.34796392917633057,0.4402678906917572,-9.993621826171875,-0.007626267734563458,-0.010550110948118835,0.003965415367551633,2.332490486581212,1.4582772653753764,0.3954344800976694
1731474140.1402464,-0.33399584889411926,0.432169646024704,-9.98773193359375,-0.007712882354918663,-0.010677550556095667,0.0039182653105656745,2.3432256583318325,1.4653593414960286,0.3981783372774587
1731474140.1902158,-0.339699923992157,0.42898687720298767,-9.98838996887207,-0.007793622502426263,-0.010802428454135348,0.0038726649625138044,2.353742363048175,1.5243665391978114,0.40126161286000644
1731474140.2401154,-0.34191736578941345,0.42445263266563416,-9.988052368164062,-0.007868460475578393,-0.010924917414988423,0.0038287613324275416,2.364295354987578,1.5315789235690302,0.40399381957457525
1731474140.2900033,-0.32970547676086426,0.4250764548778534,-9.985917091369629,-0.007937361176569013,-0.011045024647669127,0.003786650660823893,2.374677991927919,1.5910630973464512,0.40709846369494607
1731474140.3400288,-0.32910072803497314,0.4251329004764557,-9.99003791809082,-0.008000310658152397,-0.011162575580369656,0.0037463932187430334,2.3851513338548376,1.650704539303775,0.41025775043820994
1731474140.3900661,-0.3384392559528351,0.42610400915145874,-9.983735084533691,-0.008057362177940525,-0.011277228592197753,0.0037080205077576625,2.3956140246409237,1.658364896593957,0.41302143881823594
1731474140.439955,-0.3377346694469452,0.435489296913147,-9.978569030761719,-0.008108640222186636,-0.011388514893694827,0.003671551743024101,2.406050360347164,1.665992373605027,0.4157927784968666
1731474140.4899478,-0.33423569798469543,0.4322376847267151,-9.991771697998047,-0.008154299317244205,-0.011495900644660849,0.0036370226851824812,2.4165788346205934,1.7267926920857002,0.41905110128851253
1731474140.5398195,-0.3368098735809326,0.4413033127784729,-9.979137420654297,-0.00819450126833555,-0.011598854609478394,0.0036044927670728995,2.4267240913415824,1.7344490220561186,0.4217793639999923
1731474140.5896668,-0.32903242111206055,0.43979355692863464,-9.979314804077148,-0.00822942544016629,-0.01169690361149661,0.0035740383917270344,2.4369660256138426,1.7421650635797135,0.4245477163578336
1731474140.6397073,-0.33598414063453674,0.4474576413631439,-9.982017517089844,-0.008259287534658592,-0.011789678011431765,0.0035457708989411994,2.447379864682964,1.7499967066270907,0.4273770843590809
1731474140.6897366,-0.341476172208786,0.44930747151374817,-9.990230560302734,-0.008284339895599466,-0.01187695298221016,0.003519844549714043,2.457559894903112,1.8121046374389118,0.43065450991136883
1731474140.7397206,-0.3397352695465088,0.44789478182792664,-9.97748851776123,-0.008304835332060749,-0.011958680673710328,0.0034964252370275994,2.4678859824438764,1.8201193711382173,0.4334953655947118
1731474140.7895658,-0.3330007493495941,0.44037196040153503,-9.997563362121582,-0.008320991048428438,-0.012034990375875416,0.0034756591944301806,2.4781033573070848,1.8280359566753677,0.436320649799279
1731474140.8395772,-0.03880907967686653,0.5903394818305969,-9.978856086730957,-0.008333265631966087,-0.012106275812298267,0.003457654356053469,2.488404191844172,1.8360031004500859,0.4391834974006094
1731474140.8895676,-0.0758434385061264,0.5316457748413086,-10.008713722229004,-0.008343380681446074,-0.012173594491756062,0.0034424540948104153,2.4984322904468774,1.8995554091609255,0.4425367587293643
1731474140.9393978,0.48951706290245056,0.8079436421394348,-9.981762886047363,-0.008356096357763354,-0.012239373161908231,0.00343000211446633,2.5086086265592518,1.9076751308653903,0.4454004849481718
1731474140.9892786,0.7771492004394531,0.6103816628456116,-10.015816688537598,-0.008381845776284204,-0.012308202251203408,0.003420111301737772,2.518612351965439,1.9718064785107057,0.44880970897722877
1731474141.0394018,0.1431780755519867,0.499295175075531,-10.044015884399414,-0.008439384475306552,-0.01238705319312874,0.003412391523393385,2.5288167460321787,1.9801989642388746,0.4517174708951003
1731474141.0892773,0.413790225982666,0.48516714572906494,-9.909783363342285,-0.008555796992828681,-0.012484289566101446,0.0034061896620453218,2.5388898821125054,1.988469994653914,0.4546022855446875
1731474141.1401522,0.038903508335351944,0.3011943995952606,-9.996171951293945,-0.008763630615387126,-0.012608065958534745,0.0034007911846450083,2.54893505081107,2.053533822796677,0.45811854139969044
1731474141.1902132,0.22217567265033722,0.33590275049209595,-10.001534461975098,-0.009097873043857535,-0.012764960509714667,0.003395714120984299,2.5590635265867725,2.062101014952938,0.4610566038571326
1731474141.2402446,0.017560504376888275,0.20069876313209534,-9.97430419921875,-0.009593936563278383,-0.01295897316317757,0.0033906761439970357,2.568892274500657,2.1271173822238842,0.46457946712717846
1731474141.2901216,-0.7728275656700134,-0.02461777999997139,-9.977519989013672,-0.010285500866327188,-0.013190668017031976,0.0033854440061661414,2.5788909910591604,2.13582380819447,0.46751844902014217
1731474141.3400016,-1.2074174880981445,-0.021463442593812943,-10.009428024291992,-0.011200230529697397,-0.013456085135494475,0.003379838803401134,2.5885943079386764,2.2009626826579787,0.47107451538124095
1731474141.3900766,-0.23980385065078735,0.27316224575042725,-9.937684059143066,-0.012354682866727171,-0.013746056905970321,0.0033737557089519752,2.598554246501502,2.2098883526698763,0.47404340845680665
1731474141.4400213,-0.7082184553146362,0.12128511071205139,-10.163931846618652,-0.0137533221349136,-0.014047097607253303,0.003367049851295569,2.6085296164721594,2.2188223447274993,0.47703510431733626
1731474141.4898539,-0.29287877678871155,0.4290388226509094,-9.929959297180176,-0.015391768251633705,-0.014343338065940887,0.0033592108958159323,2.6180030244925883,2.2840947519479573,0.48063039746793523
1731474141.5398967,-0.5628702044487,0.09986446797847748,-10.001678466796875,-0.01725983794141615,-0.014618130931154053,0.0033492112949941636,2.6279023666381596,2.2932278801968597,0.4836477046718691
1731474141.5897396,-0.3513105511665344,0.46714502573013306,-10.08678913116455,-0.0193430310928743,-0.014854903979457853,0.0033357769283118236,2.637704650614784,2.302276819857571,0.48665769430858585
1731474141.6397777,-0.5107159614562988,0.16161222755908966,-9.946783065795898,-0.02162343846676687,-0.015037609085393686,0.003317512981809466,2.64700313312891,2.367796652461612,0.49033033320175384
1731474141.6896517,-0.4068586826324463,0.43703973293304443,-9.962201118469238,-0.024080391221552207,-0.015151089326747198,0.003292925192016665,2.656664910428313,2.3770058245493364,0.4933555123436008
1731474141.7396317,-0.49801453948020935,0.2526971399784088,-10.004266738891602,-0.02669094107257645,-0.015181368027931155,0.0032607483111112274,2.6663763411914903,2.3862850961484092,0.49642452907310064
1731474141.789641,-0.37864023447036743,0.4197238087654114,-9.953781127929688,-0.02943031352616956,-0.015115891980593325,0.0032201694291239353,2.675869463117307,2.395384632291433,0.4994545338278525
1731474141.8394883,-0.42949461936950684,0.29616859555244446,-9.941106796264648,-0.03227249246085114,-0.014943735819337146,0.0031708112570386273,2.6847682509196242,2.4614674818878526,0.5031972589992714
1731474141.8893626,-0.41107162833213806,0.3372349739074707,-10.000696182250977,-0.035190866013375455,-0.01465563097618279,0.0031127757026625123,2.693493812234943,2.5266135324890935,0.5069506978971466
1731474141.9393225,-0.3805420398712158,0.7001015543937683,-9.957939147949219,-0.03815871988975242,-0.014244141197463915,0.003046612187611036,2.702805533788148,2.5361954533769104,0.5100459001320357
1731474141.9893405,-0.4000968039035797,0.667378306388855,-9.877378463745117,-0.04114962142616738,-0.013704755286697222,0.0029732446193554488,2.711326314924677,2.6011110479845923,0.5138575024032852
1731474142.0393183,-0.4872780740261078,1.1421082019805908,-9.997286796569824,-0.044137677690910655,-0.013037882905958038,0.002894118245931721,2.7204577908537906,2.610908952808046,0.5169865790136987
1731474142.0892508,-0.4453103244304657,0.9864438772201538,-9.849359512329102,-0.04709747184154614,-0.012250919223618572,0.0028113440526442114,2.7293881345492057,2.6205811997674955,0.5200926445873225
1731474142.139246,-0.5104879140853882,0.7967690229415894,-10.028023719787598,-0.050003852770334596,-0.011359216425677528,0.00272762829229625,2.7374765726749155,2.6858650271191307,0.5239596717582532
1731474142.1901712,-0.3782177269458771,0.7711344957351685,-9.996058464050293,-0.05283196933640465,-0.010384899187160868,0.0026459767673597053,2.7463539093981897,2.695958359875148,0.5271607865898708
1731474142.2401364,-0.4499201774597168,0.7072227597236633,-10.010408401489258,-0.05555766352623153,-0.00935432779647905,0.002569175696698674,2.7541023718579876,2.760853680835671,0.5310634614211063
1731474142.2900872,-0.3696022629737854,0.713841438293457,-10.044113159179688,-0.05815801013721997,-0.008296001017013761,0.0024993707076503995,2.7625081164341543,2.7709306657808472,0.5342184321258235
1731474142.3400176,-0.42195576429367065,0.5679761171340942,-9.984193801879883,-0.06061171584393621,-0.007239203499886496,0.002437944438406797,2.7708147812484483,2.7810478270930683,0.5373982609030211
1731474142.3899982,-0.30900314450263977,0.6061761379241943,-10.027217864990234,-0.06289938813594935,-0.0062128388056047635,0.002385583446843306,2.7789005564118803,2.7910659807450475,0.5405582099598595
1731474142.4399173,-0.36433690786361694,0.5541598200798035,-9.993165969848633,-0.0650038449267401,-0.005244404008994963,0.002342435725845622,2.7859002086397155,2.8565106322978133,0.5445252298904633
1731474142.4898849,-0.3449501693248749,0.5600143671035767,-10.049895286560059,-0.06691037636130226,-0.004359355182853004,0.0023082102508842754,2.793666905632905,2.866758114169047,0.5477101000764754
1731474142.5398262,-0.3187732696533203,0.5636372566223145,-10.002037048339844,-0.06860679072708775,-0.003580821837597722,0.0022821641846294434,2.800231375626097,2.931723397332343,0.5517046209158779
1731474142.5898345,-0.30297085642814636,0.5662887096405029,-10.012564659118652,-0.07008339459949725,-0.0029295220435852235,0.0022631163593284506,2.8065405728706923,2.9958328522507505,0.5557036897187381
1731474142.6396751,-0.3056734502315521,0.5174658894538879,-10.006267547607422,-0.07133305452893976,-0.0024237709067427694,0.0022495767170243068,2.813811924134111,3.006581051564431,0.5589404738792181
1731474142.689624,-0.32618317008018494,0.5069574117660522,-9.982719421386719,-0.07235117885499592,-0.002079392307598492,0.0022399162143732143,2.8208495298351797,3.017241853988692,0.5621581976198632
1731474142.7396877,-0.273434042930603,0.514680802822113,-9.964303016662598,-0.07313554832340954,-0.001909533773169228,0.0022325458011912412,2.8277875456883423,3.0280242627695864,0.5654197720020407
1731474142.7895157,-0.2996521592140198,0.5227103233337402,-9.985552787780762,-0.07368616873937435,-0.0019246181594276875,0.0022261156269213172,2.833165434911442,3.0925693302357353,0.5694526653138913
1731474142.8395174,-0.3358599841594696,0.5379204750061035,-9.958097457885742,-0.07400514382490805,-0.0021325242597039053,0.0022196326042844853,2.839718774357858,3.103565548944809,0.5727321638820764
1731474142.8894358,-0.336078017950058,0.4931144118309021,-9.98670482635498,-0.07409636199743042,-0.002538837042481301,0.0022124643116181743,2.855512289504834,3.1146643142199464,0.5767962745035531
1731474142.939421,-0.33337661623954773,0.5128029584884644,-10.005820274353027,-0.07396507006944467,-0.0031469801567029793,0.0022042607455588135,2.8618058790826755,3.125632957684864,0.5800899179391912
1731474142.989331,-0.3498041331768036,0.4721747934818268,-9.94282341003418,-0.073617575635765,-0.003958229829999197,0.0021948297811230175,2.8678476738869056,3.1364732901968653,0.5833531412774954
1731474143.0392566,-0.32534632086753845,0.5132566094398499,-9.986802101135254,-0.07306108518576976,-0.004971744134248798,0.0021841221426483755,2.873746628822265,3.1473743813356236,0.5866434687488271
1731474143.0892653,-0.3674081265926361,0.5218324065208435,-10.014200210571289,-0.07230358150625693,-0.006184728260423409,0.002172273800465349,2.88886808500669,3.1584429186645755,0.5907804664234717
1731474143.1392438,-0.40713658928871155,0.5078936219215393,-9.99518871307373,-0.07135362577844913,-0.007592741830549308,0.0021594678635979995,2.89451773860823,3.1693344529425524,0.5940956900188079
1731474143.1901145,-0.3748840391635895,0.5032426118850708,-9.95654582977295,-0.07022002461221674,-0.009189971079777863,0.002145779852199336,2.9180906890739546,3.1803151549891546,0.5983104181973122
1731474143.2401328,-0.41319382190704346,0.513997495174408,-10.000679969787598,-0.06891154757378211,-0.01096935959013121,0.0021312575206037863,2.949790849222002,3.190931130062542,0.6025010036308105
1731474143.2901106,-0.4174082279205322,0.5009680390357971,-9.988465309143066,-0.06743679903996651,-0.01292270974488215,0.0021160295674020114,2.9553846822700285,3.2017145633705,0.6058383241599957
1731474143.3401623,-0.4119400978088379,0.5024043917655945,-9.968817710876465,-0.06580412046795509,-0.015040808665389756,0.002100272036329732,2.960834165872909,3.212507337599305,0.6091947104009066
1731474143.3899338,-0.3861069083213806,0.4877097010612488,-9.973749160766602,-0.06402155603881551,-0.01731352338828957,0.002084207679863844,2.966059492752423,3.2231343026502532,0.6125171536800228
1731474143.4400024,-0.3813762664794922,0.4656544327735901,-10.00214672088623,-0.06209699013931523,-0.01972983823863786,0.002068163518064848,9.637365108104156,3.2336105811419404,0.616772712959322
1731474143.489819,-0.3586125075817108,0.4547431170940399,-9.964475631713867,-0.06003837898425779,-0.022277828831471218,0.0020525380888232504,9.800460567573099,3.244146155902705,0.6201154317672709
1731474143.5397732,-0.3363964855670929,0.4302753210067749,-9.970362663269043,-0.05785397602196971,-0.02494459931188649,0.0020377627011622336,9.964959705544103,3.2547229033389593,0.6234950486035009
1731474143.5897393,-0.3230259418487549,0.4246014356613159,-10.018203735351562,-0.05555254634658803,-0.027716233994944665,0.0020243234052519828,9.317269000153749,3.2649598578963466,0.6277431612544269
1731474143.6397502,-0.3195480704307556,0.4174511432647705,-9.99730110168457,-0.053143541219124034,-0.030577801885624756,0.00201267119796403,9.436314970995559,3.2754278997688875,0.631150626735518
1731474143.6896462,-0.29733991622924805,0.400546669960022,-9.969202995300293,-0.050637181690681154,-0.03351342878698347,0.002003076135440682,9.553986508988638,3.28570678118873,0.6345274363110257
1731474143.7396011,-0.2849956750869751,0.3818894624710083,-10.001726150512695,-0.04804448849944813,-0.0365063889004444,0.0019956576151615936,9.269982570936014,3.295755134156228,0.6388261942711516
1731474143.789569,-0.2620607912540436,0.3989132344722748,-10.011852264404297,-0.04537732408754364,-0.039539186573691945,0.0019904622090632625,9.360088170026371,3.3058939669137746,0.642234590675055
1731474143.8395295,-0.3114404082298279,0.37750130891799927,-9.98075008392334,-0.04264839053386045,-0.04259369251155877,0.0019874088917429464,9.20932276466584,3.3157421841566017,0.6465546874012356
1731474143.8895874,-0.29066282510757446,0.38888999819755554,-10.001361846923828,-0.03987105270442145,-0.04565134593436564,0.0019862551722103156,9.280869001860113,3.3256814478992,0.6499853266874893
1731474143.939539,-0.31284046173095703,0.36997202038764954,-10.00731372833252,-0.03705902594871685,-0.048693352247514886,0.0019866460272692163,9.352350596970684,3.33550706410761,0.6534224521316111
1731474143.9893997,-0.27976566553115845,0.3753986358642578,-10.026233673095703,-0.03422612243641186,-0.05170084850122986,0.001988087519685529,9.423400425482443,3.345160784544385,0.6568480137105868
1731474144.0392823,-0.2954639196395874,0.3394887149333954,-9.958551406860352,-0.031386137330324096,-0.054655026442441336,0.0019898877907435653,9.260822813693789,3.3544918766417644,0.6611863542445486
1731474144.089266,-0.5322554707527161,-0.19363191723823547,-10.011695861816406,-0.02855257704014498,-0.0575367044969497,0.001991248784070717,9.317373519440764,3.363894405300147,0.6646368038028599
1731474144.139285,-0.4975226819515228,-0.47324222326278687,-10.109478950500488,-0.025737770575023036,-0.06032425958162347,0.001991304917522602,9.210818254316345,3.3729701822467284,0.6689955054179406
1731474144.1902807,-0.6517626047134399,-0.1517183631658554,-10.05496883392334,-0.022951610814826346,-0.06299055982268006,0.0019887818710453134,9.258126089989728,3.3822745224899737,0.6725413152971158
1731474144.2401178,-0.7958483099937439,-0.4603233337402344,-10.047149658203125,-0.02020046509510679,-0.06550158304749812,0.001981621093949071,9.178920029912138,3.390980459936126,0.676890388193318
1731474144.2899477,-0.3774668574333191,0.1904527246952057,-9.920002937316895,-0.01748658965526449,-0.06781765254545483,0.0019671633802236773,9.217275625291931,3.3997056394138485,0.6803565984226858
1731474144.3399312,-0.7103548049926758,-0.2533815801143646,-10.023809432983398,-0.014808646806774219,-0.0698960359479261,0.0019427904536022719,9.154273860037694,3.408128287336265,0.6847359552711577
1731474144.389945,-0.5084047317504883,0.20593859255313873,-9.930323600769043,-0.012162867089423945,-0.07169354084883028,0.0019064301065355193,9.18682934621641,3.4165679035871297,0.6882443310949997
1731474144.4399543,-0.6116470098495483,0.06604569405317307,-9.929553985595703,-0.009543695201923257,-0.07316844049696525,0.0018567472039095231,9.134298937457835,3.424600002203044,0.6926168356523741
1731474144.489831,-0.5259138345718384,0.24936124682426453,-9.96333122253418,-0.006944124198432224,-0.07428205276046655,0.0017932742987826567,9.098728434629319,3.432417553667864,0.6969776413232553
1731474144.5398407,-0.5633005499839783,0.1612505167722702,-9.892698287963867,-0.004356170943171676,-0.0750000205916753,0.0017164837862195387,9.122714147010527,3.4403106990369676,0.7005160198484485
1731474144.5897121,-0.5227437615394592,0.1753193736076355,-9.91405963897705,-0.00177132588997487,-0.07529288846534522,0.0016277880399142466,9.146580477628728,3.4479801524946887,0.704042071940291
1731474144.6397834,-0.530639111995697,0.1455938071012497,-9.948212623596191,0.0008190761306121417,-0.07513604319352118,0.0015295407582505151,9.170563246031973,3.455499372082562,0.7075894476898372
1731474144.6897333,-0.4877649247646332,0.19532594084739685,-9.93302059173584,0.0034235152811142393,-0.07450940552047243,0.0014248720843603243,9.116157158036748,3.4625737672717594,0.711955939046403
1731474144.7396362,-0.4850020408630371,0.15887004137039185,-9.961091995239258,0.006049940044531209,-0.0733972272712199,0.0013173702440663962,9.136075188615466,3.4697030576415826,0.7155083051143173
1731474144.7895703,-0.042006008327007294,0.42955347895622253,-9.968608856201172,0.008705053574732592,-0.07178821180615874,0.0012108041561844636,9.155966790902678,3.4766358652895075,0.7190558300462517
1731474144.8395107,0.20982344448566437,0.5299987196922302,-9.996824264526367,0.01139238580605819,-0.0696763084263231,0.0011088715427377185,9.102885598866264,3.483155723158704,0.7234101332927917
1731474144.8894217,-0.2961362600326538,0.27400559186935425,-10.028383255004883,0.014109786695044941,-0.06706181889939143,0.0010149060903355852,9.119460177325468,3.4897653200435363,0.7269819014262059
1731474144.9395008,-0.07620701938867569,0.45252323150634766,-9.962984085083008,0.016848924511565465,-0.06395148443013678,0.0009316298329334266,9.076711109071237,3.4713228988336478,0.7313419097725354
1731474144.989377,-0.3626199960708618,0.24273060262203217,-10.05359172821045,0.019597162473139113,-0.06035743984784262,0.0008610830602050349,9.090568833625651,3.4775010926569716,0.734910483396308
1731474145.0394049,-0.1496284306049347,0.48473837971687317,-10.041500091552734,0.02233956371035552,-0.056296179417361376,0.0008045954126328818,9.054749623872125,3.458972375858835,0.739245957153857
1731474145.0892012,-0.3409866988658905,0.2217046469449997,-10.007319450378418,0.025059999473103424,-0.05178794145235675,0.0007626623790433223,9.066447736176857,3.4647748357104167,0.7428178009377219
1731474145.1393504,-0.19522902369499207,0.4383619427680969,-10.02239990234375,0.027741739323406945,-0.04685618167931098,0.0007349653254236012,9.03610036084018,3.446250302702189,0.7471634882305564
1731474145.1891997,-0.3174585700035095,0.26658883690834045,-9.997493743896484,0.030367838694813742,-0.0415270069289283,0.0007206052405980524,9.046078687088649,3.4517344996141577,0.7507435931359249
1731474145.2401588,-0.2567730247974396,0.41878947615623474,-9.975645065307617,0.032921466963280945,-0.035828724819486846,0.0007183555174179238,9.056383456874277,3.457254391747307,0.7544135369003511
1731474145.290124,-0.31867489218711853,0.322895348072052,-10.004502296447754,0.03538624449039187,-0.029791541378663994,0.0007268827903433772,9.066557031101896,3.4625754580510697,0.7580080039989782
1731474145.3400424,-0.2900391221046448,0.4151308536529541,-9.99188232421875,0.037746567366025705,-0.023447327585359393,0.0007448742457002304,9.030901011265946,3.4436468994037983,0.7622905109674575
1731474145.390102,-0.331870973110199,0.35072141885757446,-9.961592674255371,0.03998786634399068,-0.01682940016044214,0.0007710625623148487,9.039431281420462,3.4487876496482492,0.7659072256873464
1731474145.4399805,-0.31109046936035156,0.4003080129623413,-9.982954025268555,0.04209680936463511,-0.009972255604521293,0.0008043028594434542,9.0112534432527,3.4303204567864483,0.7701573551304707
1731474145.4899025,-0.3297779858112335,0.40445318818092346,-9.977746963500977,0.044061443152548056,-0.002911291141902074,0.0008436740767854557,9.018504022434579,3.4353157766619598,0.7737718037461223
1731474145.5398126,-0.3312694728374481,0.4171616733074188,-9.975252151489258,0.045871266456006664,0.0043173957378413366,0.0008884781074267336,9.025868639315007,3.440314198230549,0.7773893865351561
1731474145.589731,-0.3365127444267273,0.42672958970069885,-9.98169231414795,0.047517275555629464,0.011677152585424278,0.000938192383761396,8.99953014165975,3.422235417959954,0.7815945550341051
1731474145.6397784,-0.6444383859634399,0.252627432346344,-9.986760139465332,0.048992270645456845,0.019131112558307618,0.0009924313258428531,9.005870788262012,3.4272443395860277,0.7852429981087882
1731474145.6896195,-0.5891392230987549,0.3251998722553253,-9.954066276550293,0.050291855942773064,0.0266429716112729,0.0010509169424026917,9.012279074102311,3.4322659990461557,0.7888617823215501
1731474145.739691,-0.7718563675880432,0.09749940782785416,-9.974160194396973,0.05141579761577958,0.03417803850114775,0.0011135138136827132,9.01886909982702,3.4374064107637246,0.7925138153568501
1731474145.7895942,-0.46285444498062134,0.407083123922348,-9.982929229736328,0.052368674921161575,0.04170405565013351,0.0011802779995939016,8.99107025268962,3.4197589687012977,0.7966594393167267
1731474145.839546,0.17480438947677612,0.5993920564651489,-9.956948280334473,0.05315856129018775,0.049190956749919884,0.0012514204205221777,8.996616632115709,3.4250240817310584,0.8003156314912224
1731474145.8895202,-0.4296962022781372,0.3416212499141693,-10.036373138427734,0.05379367353286807,0.056609439534748826,0.0013272091663891407,9.00211678277203,3.408450113037089,0.8044317951168716
1731474145.9394314,-0.10667605698108673,0.5735830664634705,-9.944799423217773,0.05427982996134756,0.06392991208893418,0.0014078411070293357,9.007928203315126,3.4139321466431487,0.8081022436644167
1731474145.9893925,-0.4261827766895294,0.25164923071861267,-9.998679161071777,0.05462063855728739,0.07112272358891909,0.0014933843283504037,9.013550783180554,3.398018194304787,0.8121792633042421
1731474146.0393891,-0.4261827766895294,0.25164923071861267,-9.998679161071777,0.05481887434966307,0.07815916418697019,0.0015838306357716567,9.019615159799544,3.403783422836725,0.8158589100437965
1731474146.0393891,-0.1757666915655136,0.5858380794525146,-10.030649185180664,0.0548775318628945,0.08501249409387596,0.0016790416085524858,9.019669553096927,3.403835427022195,0.815891557127461
1731474146.0892906,-0.36952340602874756,0.26452311873435974,-9.984543800354004,0.05479996828357847,0.09165801417940166,0.0017785810166854295,9.025762356445968,3.409708680777469,0.8195103383561202
1731474146.1392066,-0.2180897742509842,0.5275964140892029,-9.984308242797852,0.054589385768826625,0.09807248836692141,0.0018817064131554392,9.03206138359516,3.4158849751289355,0.8231758068137207
1731474146.1892066,-0.35027265548706055,0.3020928204059601,-9.998504638671875,0.05424861575653584,0.10423403480499835,0.001987542685500652,9.038497042872086,3.4223141388213256,0.8268468177646799
1731474146.2392662,-0.24522694945335388,0.4789474606513977,-9.97572135925293,0.05378025725839754,0.11012233308644653,0.002095217356845481,9.044823940209332,3.407305083038018,0.830876016686034
1731474146.2900531,-0.32880857586860657,0.3587845265865326,-9.992473602294922,0.05318680168123102,0.11571874031425197,0.002203900722297429,9.051634013452125,3.414335764707926,0.8346236344637408
1731474146.3401139,-0.28920209407806396,0.4533703923225403,-9.996732711791992,0.05247073790260353,0.12100632059739377,0.002312815267195226,9.057925933991903,3.4001472165656828,0.8386092039815171
1731474146.3900425,-0.32036682963371277,0.38436904549598694,-9.975886344909668,0.05163468174398493,0.1259698329963665,0.002421217735842341,9.064856440689269,3.40759587118329,0.8423066997323214
1731474146.4399643,-0.3222068250179291,0.4288286566734314,-9.992498397827148,0.0506815131676408,0.13059574851739886,0.002528398999585884,9.071955325187607,3.415409531498002,0.8460317221489382
1731474146.4898868,-0.3282969295978546,0.4256960153579712,-9.982223510742188,0.049614496191538335,0.13487226845162145,0.002633718215116907,9.079123989056136,3.4234929218552543,0.8497342963300532
1731474146.5398424,-0.3342430889606476,0.41899538040161133,-9.977553367614746,0.048437376440051624,0.13878928841446056,0.0027366224935437104,9.085843823889537,3.410444388249253,0.8536352773938621
1731474146.5898244,-0.3272224962711334,0.4375999867916107,-9.990431785583496,0.04715442641562195,0.14233834419730232,0.0028366598492078664,9.09282440852573,3.3982980068030537,0.8574911516582268
1731474146.6398294,-0.348007470369339,0.42216381430625916,-9.980985641479492,0.045770443082940246,0.1455125841217981,0.002933479017448691,9.100388245842003,3.4073732720788095,0.8612485754684173
1731474146.6897447,-0.3311549723148346,0.43346843123435974,-9.981561660766602,0.0442907376237172,0.14830675288149922,0.0030268089691325947,9.107982463114354,3.416715457497707,0.8649729673253048
1731474146.7396312,-0.3635404109954834,0.40990909934043884,-9.988479614257812,0.04272113092118763,0.1507171979824422,0.00311645129063458,9.115727049578751,3.426481544374054,0.8687256493494319
1731474146.789546,-0.32311975955963135,0.4552238881587982,-9.978585243225098,0.041067938365305076,0.15274188227216784,0.003202275756076825,9.123531447138374,3.4365677699183563,0.872464894486644
1731474146.8395026,-0.3543110489845276,0.4205108880996704,-9.987153053283691,0.03933790631200916,0.15438032850959682,0.003284209558582835,9.130917140063948,3.425898092914779,0.8762259688105926
1731474146.8894835,-0.33690303564071655,0.44204410910606384,-9.983466148376465,0.03753811445962443,0.15563352629145502,0.003362231069286264,9.138956444846709,3.4367524159814127,0.8800051844485225
1731474146.939377,-0.3456494212150574,0.4204249382019043,-9.974058151245117,0.03567590330736544,0.1565038920825098,0.0034363683688550225,9.146403205739352,3.4273073018819864,0.8837041579549483
1731474146.9893372,-0.32335811853408813,0.44455331563949585,-9.994388580322266,0.03375880212096616,0.15699525857914653,0.003506706097210581,9.154615057587604,3.4388903829421507,0.8875036820628512
1731474147.0392928,-0.3419918715953827,0.4153200089931488,-9.980100631713867,0.03179441781264292,0.1571128376333197,0.0035733731074905307,9.162891379991624,3.4508410470256616,0.891304013853053
1731474147.0892532,-0.33232659101486206,0.44813141226768494,-9.970808982849121,0.029790340616193695,0.15686316835409708,0.003636522612945318,9.17124607433509,3.4631855612027893,0.895114055708775
1731474147.1392598,-0.3414287269115448,0.42118310928344727,-9.989472389221191,0.02775410812490417,0.1562540511648811,0.003696356819317959,9.178864963229879,3.4550844345439526,0.8987207851286989
1731474147.1892078,-0.32821929454803467,0.43675288558006287,-9.983247756958008,0.025693185520049268,0.15529446993003324,0.003753139817064031,9.187331835071335,3.4681303979151847,0.902543466602981
1731474147.239118,-0.3308393657207489,0.41653814911842346,-9.989508628845215,0.023614915947763115,0.15399453777775396,0.003807148332615566,9.195858425440342,3.481558675911343,0.9063748176412365
1731474147.2890556,-0.3233639597892761,0.44228991866111755,-9.99915599822998,0.021526445420412967,0.15236545354304695,0.0038586109596215465,9.203496428601834,3.474508214113505,0.9099605361509022
1731474147.34003,-0.3317860960960388,0.42187803983688354,-9.981391906738281,0.01943465747373301,0.15041941990728602,0.003907666559116564,9.212306437380608,3.488956289878878,0.9138966843653662
1731474147.389953,-0.3199501931667328,0.43816444277763367,-9.984302520751953,0.017346138289971044,0.14816953473485706,0.003954369174401208,9.220980528324255,3.503481925363154,0.9177612855318921
1731474147.4399762,-0.3348630368709564,0.410004585981369,-9.995926856994629,0.015267161691349476,0.14562970859117827,0.003998735484035966,9.229713605405522,3.5184057538933136,0.9216439348705456
1731474147.4898822,-0.31965500116348267,0.4335654675960541,-9.987404823303223,0.013203684324394865,0.1428146209847976,0.004040756347090449,9.237285346519934,3.5125853413701873,0.9251358852816393
1731474147.5398347,-0.33629316091537476,0.42236918210983276,-9.98745346069336,0.01116134776275675,0.13973966384068454,0.004080375006673208,9.246066646491066,3.528170419705712,0.9290386743936637
1731474147.5897639,-0.32917505502700806,0.4344494938850403,-9.999245643615723,0.009145489181180147,0.13642083159213741,0.004117486600664721,9.253520404739584,3.523218776859324,0.9325232650397823
1731474147.6397233,-0.3516184091567993,0.42074695229530334,-9.990751266479492,0.007161179254993218,0.13287459572039684,0.004151932820948894,9.262274235517726,3.539335321585962,0.9364228740460404
1731474147.6896822,-0.3454195261001587,0.43337929248809814,-9.982441902160645,0.005213293971850342,0.12911780813116427,0.004183494893359769,9.271061960565957,3.5558121208883757,0.9403410982246556
1731474147.739603,-0.3505779504776001,0.42843934893608093,-9.977140426635742,0.0033065844261087945,0.12516761545521343,0.004211944612873882,9.27838012914258,3.5518496665941726,0.9436882204992123
1731474147.7895708,-0.3442579209804535,0.44717955589294434,-10.014467239379883,0.001445695189255977,0.1210413471872818,0.004237100190965816,9.28718371969257,3.568943750448003,0.9476362234484969
1731474147.839557,-0.2940550446510315,0.5944892764091492,-9.976007461547852,-0.00036491801004577714,0.11675623359693586,0.004258789471934423,9.294339959690031,3.5659057700591488,0.9509191874445395
1731474147.889536,-0.20518560707569122,0.54371577501297,-9.946371078491211,-0.002121298420066542,0.11232878753493965,0.004276842416405826,9.303098789209905,3.583500490568135,0.9548788700421547
1731474147.939503,-0.43645983934402466,0.24578015506267548,-9.995434761047363,-0.0038203674039689515,0.10777445252734977,0.00429123508019527,9.310079536983128,3.581260549054771,0.9579955612089364
1731474147.9893682,-0.2412494719028473,0.5809628963470459,-10.00178050994873,-0.005459847211169439,0.10310821389444828,0.004302152125969197,9.318763045167424,3.5992875536362603,0.961960679356657
1731474148.0393229,-0.4226839542388916,0.305077463388443,-9.972904205322266,-0.007037834790334523,0.09834531820300109,0.004309834568471888,9.327413159103736,3.617527341843959,0.9659283115681463
1731474148.0892675,-0.17636924982070923,0.6643232107162476,-9.994385719299316,-0.008552651585543691,0.09350115175038981,0.004314470657794866,9.336060857504288,3.6360413530556417,0.9699144447572905
1731474148.1391916,-0.017241640016436577,0.4965020716190338,-10.021503448486328,-0.010003388870172646,0.08859055978290299,0.004316190508748701,9.342586668924092,3.633994832640825,0.9728558189225575
1731474148.1891968,0.08745230734348297,0.6030604839324951,-10.011589050292969,-0.011391335860938805,0.08362711875504204,0.004314968724327515,9.348969524307297,3.6329390266624735,0.9757010753792402
1731474148.2391913,-0.9778934717178345,0.07814757525920868,-9.990920066833496,-0.012720647018399131,0.07862321608242535,0.0043105067433679865,9.35749136328114,3.652049144075829,0.9797204814522816
1731474148.289004,-0.13256236910820007,0.6477596163749695,-9.916261672973633,-0.013996161137593603,0.07359125609166303,0.004302357836115959,9.36594141439799,3.67126236130251,0.9837324359298742
1731474148.3390393,-0.5607509613037109,0.18505153059959412,-10.030675888061523,-0.01522068144448976,0.06854456182913751,0.004290245441499977,9.374390740274507,3.6907346299080457,0.9877721276685194
1731474148.3899746,-0.24053697288036346,0.6703055500984192,-9.993346214294434,-0.016394833205111124,0.06349710241425008,0.0042741512477765834,9.380351179823872,3.6898551487741753,0.9905702061807011
1731474148.4399455,-0.4149532914161682,0.18424800038337708,-9.922703742980957,-0.01751816514543582,0.05846291035239705,0.004254146581822308,9.388724820294339,3.7097119436950656,0.9946489025055342
1731474148.4898977,-0.32263457775115967,0.564312756061554,-10.011099815368652,-0.018589734440503585,0.053455906889375154,0.004230412121920968,9.394175443643501,3.708971732866422,0.9972862520476115
1731474148.539939,-0.4096713662147522,0.33358514308929443,-9.978320121765137,-0.019608286817612997,0.04848993950842137,0.00420334561222392,9.402355615090705,3.72891240282822,1.0013519862066247
1731474148.5898108,-0.33266475796699524,0.4822407364845276,-9.983787536621094,-0.020572250155286458,0.04357863017542317,0.0041734502818360705,9.40744860815944,3.7285109729534853,1.0039133517348802
1731474148.6398258,-0.36633315682411194,0.4079146981239319,-10.017582893371582,-0.021479772054567303,0.03873513008012205,0.00414118732307153,9.415514132196908,3.7487094335712023,1.0080108441904636
1731474148.6896837,-0.37975364923477173,0.41329842805862427,-9.984230041503906,-0.02232885685374856,0.03397201008336316,0.004106895926795522,9.42018556719373,3.748459915125104,1.0104703473124381
1731474148.7397082,-0.3236582279205322,0.45023560523986816,-9.957239151000977,-0.0231174526389943,0.0293012388671652,0.004070781053444603,9.428058429381949,3.768702303869521,1.014565018308541
1731474148.7895982,-0.4094269871711731,0.40006208419799805,-10.010847091674805,-0.023843508985684495,0.024734159061714098,0.004033035126690962,9.432372413870397,3.76891778037383,1.0169723511282132
1731474148.8395123,-0.3341081142425537,0.49790847301483154,-9.974881172180176,-0.02450501099959431,0.02028139032526573,0.003993913751655275,9.43647305335734,3.7695535134379465,1.019367630997659
1731474148.8895173,-0.40162166953086853,0.3858509361743927,-9.979796409606934,-0.02509996373283938,0.015952689243354603,0.00395368722809733,9.443973072418075,3.7896496098987504,1.023431286948795
1731474148.9394271,-0.33520281314849854,0.49349677562713623,-9.995915412902832,-0.02562640885998944,0.011756877182561274,0.003912629596903143,9.451469570404106,3.809940034471803,1.0275370606031655
1731474148.989394,-0.39363962411880493,0.3769837021827698,-9.9759521484375,-0.0260824911553555,0.007701873030207996,0.0038710304254658753,9.458922624413669,3.830313040532655,1.0316643755602815
1731474149.0393794,-0.32641667127609253,0.49767252802848816,-9.984671592712402,-0.026466533346366117,0.0037947547607488355,0.0038291815230847067,9.462134363505653,3.8302569418916717,1.0338291648353997
1731474149.0893095,-0.39658495783805847,0.40310895442962646,-9.991823196411133,-0.02677710758206219,4.176395321355301e-05,0.0037873813186694097,9.469350872297186,3.850482062809395,1.0379419389374511
1731474149.139286,-0.31508591771125793,0.49019932746887207,-9.974615097045898,-0.02701308646887015,-0.0035517462139414108,0.003745930827110223,9.476532680098455,3.870794304362016,1.0420827581717813
1731474149.1892076,-0.3865351676940918,0.38851404190063477,-9.984769821166992,-0.027173690892347252,-0.006981323649452826,0.0037051307642862077,9.47907708805356,3.891139823619255,1.0441146464082354
1731474149.2392628,-0.3284973204135895,0.4553205966949463,-9.989445686340332,-0.027258531316735776,-0.010243313872532465,0.003665296684914426,9.486038425837442,3.9113744568464317,1.0482532853668265
1731474149.2891707,-0.36882221698760986,0.4021817743778229,-9.976908683776855,-0.02726761351987315,-0.013334706630830315,0.003626748051512739,9.492885625426148,3.931444250970226,1.052373194975992
1731474149.3390863,-0.339903861284256,0.46282950043678284,-9.997218132019043,-0.027201333090388424,-0.01625306638767449,0.003589784139036316,9.499750079379208,3.9517279938854077,1.0565537244859018
1731474149.3890233,-0.36403632164001465,0.4146801829338074,-9.983406066894531,-0.02706046575456989,-0.018996570784225748,0.0035546641443134344,9.5012432699131,3.9719229678569765,1.058312928947489
1731474149.4399798,-0.3282560706138611,0.4430561661720276,-9.990992546081543,-0.0268461544615826,-0.021564050884637517,0.0035215837331667313,9.508014978850461,3.9924773858076557,1.0625738962711926
1731474149.489963,-0.34830936789512634,0.4099680185317993,-9.985173225402832,-0.026559934001849313,-0.023954955071314916,0.0034906722698709743,9.5145560245165,4.012478996223719,1.0667410376497535
1731474149.5398574,-0.3367198407649994,0.4484230577945709,-9.979958534240723,-0.02620376958631986,-0.026169280926920876,0.0034620165613998494,9.515304150811893,4.032879848942878,1.0683617635697227
1731474149.5898209,-0.3511849343776703,0.42940324544906616,-9.9827299118042,-0.025780041196492246,-0.028207564717904383,0.003435698112724447,9.521636269027338,4.052763557582062,1.0725344515288682
1731474149.639785,-0.3449540138244629,0.44740235805511475,-9.993281364440918,-0.025291473563358476,-0.030070928394064812,0.0034118147253268064,9.527892468029068,4.072536043776963,1.0767075620311601
1731474149.689714,-0.348348468542099,0.4309273660182953,-9.968509674072266,-0.02474106074127128,-0.03176110834941335,0.003390469130856011,9.527833516898717,4.092963634909923,1.0781676071768898
1731474149.7397473,-0.3465837836265564,0.4344233572483063,-9.99363899230957,-0.024132014384251357,-0.03328042517997135,0.0033717701175015684,9.533906939941014,4.112670512257298,1.0823620628997621
1731474149.7896135,-0.35121646523475647,0.43669408559799194,-9.989757537841797,-0.023467728059710567,-0.03463171826655138,0.0033558353227130353,9.533241477889083,4.1331619749411095,1.0837197806707692
1731474149.839714,-0.3436480164527893,0.4485608637332916,-9.986307144165039,-0.02275174335944253,-0.0358183059728023,0.003342748210003326,9.532251093657658,4.153535363567694,1.0850789932882832
1731474149.8895714,-0.3596985638141632,0.44395580887794495,-9.989258766174316,-0.021987716058901523,-0.0368440003745496,0.003332523375587739,9.537930546652628,4.172864710829865,1.089242427275752
1731474149.9394937,-0.3440133035182953,0.440993994474411,-9.989282608032227,-0.02117937562204467,-0.03771312140693588,0.0033251146210264656,9.543595651333975,4.192235929762019,1.093443363057711
1731474149.9894161,-0.3629949986934662,0.4327376186847687,-9.978323936462402,-0.020330482089650454,-0.038430448175475834,0.0033204329211364704,9.549178095386258,4.211406617459272,1.0976297095656575
1731474150.0394707,-0.35161831974983215,0.4358040392398834,-9.977865219116211,-0.019444787363140714,-0.03900112089088528,0.003318384627212477,9.547057633530995,4.231346808674089,1.098720246941273
1731474150.0892787,-0.3588835597038269,0.44195646047592163,-9.983288764953613,-0.01852599909655965,-0.03943055841373329,0.00331892491205257,9.552423211138853,4.250258735048536,1.1028917151896216
1731474150.1392915,-0.3525645434856415,0.4376795291900635,-9.988021850585938,-0.017577761696574268,-0.039724428983794344,0.0033220674942250313,9.557809019153314,4.269302470518962,1.1071225872752908
1731474150.1892414,-0.3610277473926544,0.4366692900657654,-9.989734649658203,-0.01660365226577629,-0.039888639024520965,0.0033278377496703017,9.554765900194008,4.288880459398119,1.1080186795843978
1731474150.239233,-0.35390523076057434,0.44004589319229126,-9.980785369873047,-0.01560717064954761,-0.039929299894255754,0.003336226312351391,9.559959557031469,4.307724990185862,1.1122485613108892
1731474150.2891834,-0.34808841347694397,0.4356316924095154,-9.990507125854492,-0.014591737430656074,-0.03985268706449427,0.0033471851128583138,9.565041861712366,4.326202439926272,1.116426518781896
1731474150.3391497,-0.3495331108570099,0.4318283796310425,-9.987534523010254,-0.013560723349564652,-0.03966520008253719,0.0033606377341414695,9.561115837938768,4.345602621966575,1.1171682866479486
1731474150.3889644,-0.34229859709739685,0.43807172775268555,-9.979005813598633,-0.012517490526104777,-0.03937331287704442,0.0033764795451020598,9.566033402581423,4.363943825223324,1.121357880333599
1731474150.4399717,-0.35194361209869385,0.43843650817871094,-9.987793922424316,-0.011465411948783123,-0.03898353847200188,0.003394593503664502,9.561535352935731,4.383544267009737,1.1220967435280407
1731474150.4899325,-0.3497510850429535,0.43838438391685486,-9.9824857711792,-0.010407855530416043,-0.03850242403279236,0.003414872982028353,9.556538666719327,4.40261615427942,1.1227299124941585
1731474150.5399475,-0.3440338671207428,0.4448617100715637,-9.980924606323242,-0.009348148136707432,-0.03793655307580772,0.0034372263549632552,9.561162722098967,4.420776327825863,1.126932362601451
1731474150.5898569,-0.3435697555541992,0.4436219334602356,-9.993441581726074,-0.008289562547809983,-0.0372925464654497,0.003461573367533383,9.565749616203968,4.438783136157788,1.1311296170115739
1731474150.6397717,-0.3434273302555084,0.4445556402206421,-9.981748580932617,-0.0072353323358926806,-0.03657706270587199,0.0034878279919442687,9.559810516016514,4.457564692530709,1.1315784214403555
1731474150.6896904,-0.34205594658851624,0.4357181191444397,-9.985618591308594,-0.006188657948953494,-0.035796775397175504,0.0035158803043270886,9.564247401646032,4.475443254358489,1.1357858272994634
1731474150.7397027,-0.3368449807167053,0.4365089237689972,-9.985532760620117,-0.0051527007196553246,-0.03495831434394739,0.003545605607343585,9.5576243657589,4.494095545825965,1.1361549490127278
1731474150.7896504,-0.3370206654071808,0.44003918766975403,-9.988101959228516,-0.004130585966639672,-0.03406819834984476,0.0035768746921222287,9.56191274206411,4.511838980010823,1.1403692739835756
1731474150.839731,-0.34878137707710266,0.4350849390029907,-9.995030403137207,-0.0031253990994425645,-0.03313279744026233,0.0036095363405873756,9.554606218623132,4.530381455604457,1.1406621903704486
1731474150.8894904,-0.34958556294441223,0.43955448269844055,-9.992443084716797,-0.002140134827225081,-0.03215831811341788,0.003643381616701462,9.558705890553139,4.547806293154226,1.1448374186629258
1731474150.9395454,-0.33814793825149536,0.4347154200077057,-9.992836952209473,-0.0011776251395684122,-0.03115078801262921,0.003678116403200769,9.562816989425508,4.565218585608974,1.1490375699808875
1731474150.9894862,-0.3534073531627655,0.43426117300987244,-9.98823356628418,-0.00024051078877143238,-0.030116035305529053,0.0037133663117719104,9.566947042938578,4.582641877147483,1.1532681656054888
1731474151.0393903,-0.35689619183540344,0.43784937262535095,-9.982269287109375,0.0006687729034554104,-0.029059666052432244,0.003748715428170636,9.558306938108682,4.600722671595339,1.153246739975555
1731474151.089344,-0.34376397728919983,0.4424741268157959,-9.984296798706055,0.0015480402622440347,-0.027987058847988532,0.0037837624204312952,9.562289539826892,4.617981842816516,1.1574695404071549
1731474151.1394033,-0.34501925110816956,0.4349685609340668,-9.980411529541016,0.0023953661432490054,-0.026903382144209734,0.003818167419601487,9.552924717281211,4.636009843078321,1.1573832863682154
1731474151.1892505,-0.35001081228256226,0.4367660880088806,-9.98748779296875,0.003209040735473117,-0.02581359746300054,0.0038516689617091792,9.556744624100777,4.6530299766043495,1.1615771729742679
1731474151.2393665,-0.35077399015426636,0.4410512447357178,-9.983784675598145,0.003987546957221886,-0.02472243946029289,0.0038840722441850772,9.56060777707507,4.6701391386396685,1.1658183274983809
1731474151.2891529,-0.3346041738986969,0.4414082169532776,-9.978825569152832,0.004729566832885002,-0.023634411918674932,0.0039152333273769924,9.550191730286626,4.774070338986311,1.165558676808099
1731474151.339152,-0.3532467186450958,0.44168803095817566,-9.982125282287598,0.005433959763870536,-0.022553806235445634,0.0039450663350367315,9.55388563292794,4.791115277983356,1.1697576227928934
1731474151.38902,-0.3444956839084625,0.44681721925735474,-9.989038467407227,0.006099740521440645,-0.021484717280082014,0.003973551663300514,9.54269109959764,4.892025630601997,1.16941253663863
1731474151.4390323,-0.3412024676799774,0.45108357071876526,-9.988518714904785,0.006726089285026471,-0.02043106103510425,0.00400070554145234,9.546325561862814,4.909513510182852,1.1736935010391667
1731474151.4888942,-0.35135704278945923,0.44728460907936096,-9.988907814025879,0.007312353119387645,-0.0193966012179581,0.004026531641242609,9.534251335175977,5.007202966862304,1.1731805427049853
1731474151.5399947,-0.3428148031234741,0.43845781683921814,-9.985496520996094,0.00785803994224542,-0.018384950451065123,0.0040509999955221365,9.537781765773271,5.024939344776985,1.177494451123185
1731474151.589838,-0.35130253434181213,0.43799132108688354,-9.989453315734863,0.008362827928395778,-0.017399517871262805,0.00407405516029638,9.541252158479931,5.04222578414223,1.1817202131758553
1731474151.6397727,-0.34227749705314636,0.4340595602989197,-9.994230270385742,0.008826570110817982,-0.016443434843651968,0.0040956201846727,9.528133540258883,5.137492111982152,1.1810872525778795
1731474151.6898038,-0.345090389251709,0.4354267120361328,-9.992863655090332,0.00924928123004072,-0.015519505107692979,0.004115576000191775,9.531478691622159,5.154914558249555,1.1853168584120095
1731474151.7628806,-0.3515869379043579,0.4293767511844635,-9.992466926574707,0.009631121045026392,-0.014630183578598886,0.004133738256017781,9.519009364529792,5.255717677877984,1.1865881035152162
1731474151.7896523,-0.3438718020915985,0.40278133749961853,-9.977875709533691,0.009972395554836826,-0.013777539168995299,0.00414987140724596,9.52071820744336,5.265021870470018,1.1888335952917213
1731474151.839626,-0.3230764865875244,0.15276339650154114,-9.979936599731445,0.010273540505455318,-0.012962927554435844,0.004163753623997294,9.50597278687636,5.35530686363688,1.1880919570593738
1731474151.8895721,-0.22208143770694733,0.187400683760643,-10.070066452026367,0.010534934336204718,-0.012186040948717898,0.004175171445780043,9.509024956977662,5.372795049513172,1.1922787269664867
1731474151.939552,-0.3626958727836609,-0.3957504630088806,-10.0033597946167,0.010756551069228302,-0.011443304609747178,0.004183700076923393,9.512122962714828,5.3903645529632485,1.19650241433188
1731474151.989412,-0.49128592014312744,-0.6028002500534058,-10.101073265075684,0.010938036659272083,-0.0107253881655988,0.004188413875216311,9.496138785795111,5.47798723232878,1.1955372669224786
1731474152.039409,-0.33004650473594666,0.15001556277275085,-9.991525650024414,0.011079477432699299,-0.010014874713103578,0.0041877566770535495,9.479680415311641,5.563359423926501,1.1946381335330456
1731474152.0893848,-0.42409035563468933,-0.23452405631542206,-9.928579330444336,0.01118196652113818,-0.009286881880721243,0.0041797415679438845,9.482489708101527,5.5812794565654595,1.1988674840374156
1731474152.139399,-0.3635537326335907,0.16380023956298828,-9.96257495880127,0.01124746222588584,-0.008512281146064522,0.004162539632346475,9.485304034147509,5.599030849475034,1.2030726863254035
1731474152.1892323,-0.3265819549560547,0.03705446049571037,-9.926668167114258,0.011278446119909078,-0.007660496823910425,0.0041350391570985825,9.48815550147391,5.616818899345048,1.2073017172402125
1731474152.2392316,-0.34383344650268555,0.2610261142253876,-9.951214790344238,0.0112775827734026,-0.006701340896725956,0.004097005283323655,9.491036315908731,5.634595961662238,1.2115427106829086
1731474152.2891235,-0.35642221570014954,0.23940710723400116,-9.95168685913086,0.011247419232155057,-0.0056065852815015025,0.004048996057716291,9.47251532269461,5.717533592545646,1.210222451937569
1731474152.3392637,-0.3735845685005188,0.305618554353714,-9.976515769958496,0.01119035583672805,-0.004351193905050768,0.003992184258522636,9.475243473172414,5.735432041931244,1.214456321653442
1731474152.389072,-0.3662432134151459,0.2762035131454468,-9.98367977142334,0.01110880756014151,-0.002914040844571184,0.003928101847552947,9.455777752077983,5.816086512657249,1.2131688736079356
1731474152.4390504,-0.3853393793106079,0.2848801612854004,-9.992253303527832,0.01100533198360434,-0.0012780837157105331,0.0038583810970391915,9.458351205499957,5.834140131190386,1.2174017134471065
1731474152.4890246,-0.3745778203010559,0.2969180941581726,-9.987142562866211,0.010882683322823595,0.000569806540735825,0.003784569386102285,9.437952889585338,5.912716922379441,1.2161197672943518
1731474152.539969,-0.36941108107566833,0.32635197043418884,-10.017279624938965,0.010743810842382639,0.0026390585713451766,0.003708023746003374,9.440405342785704,5.931238256740681,1.220420888525308
1731474152.5898287,-0.3613957464694977,0.32036691904067993,-9.987659454345703,0.010591783242957141,0.004935517695137079,0.0036298345221467214,9.442832426856537,5.949374742669018,1.2246396660644605
1731474152.6398501,-0.3558109700679779,0.3377763330936432,-10.017905235290527,0.010429660003745019,0.007461548245499935,0.0035507820918333505,1.7020203890869712,6.0259273930193435,1.22314142044519
1731474152.6896672,0.11172740161418915,0.9410831928253174,-9.988750457763672,0.010259952282285354,0.01021567286889959,0.003471349433257574,1.653287979348407,6.0441141466516894,1.2273230934588666
1731474152.7397246,0.6022413969039917,1.6053311824798584,-9.950591087341309,0.010082497767903327,0.013190135751004542,0.0033918180579937886,1.4990648149365198,6.118692013888409,1.2257748144726262
1731474152.7897217,0.45707929134368896,1.1785728931427002,-9.883322715759277,0.009890694413977852,0.0163664628647941,0.0033125689722943927,1.4604167327952513,6.137220407283055,1.2299801212042962
1731474152.8396256,0.18722468614578247,0.8254978060722351,-10.014012336730957,0.009669001445718077,0.019713232089832944,0.0032344716163794614,1.4217271093006516,6.155825606116486,1.2342008046073911
1731474152.889567,-0.2138817459344864,0.33085402846336365,-10.020838737487793,0.009394432082497493,0.023189352476920687,0.0031588499475622067,1.383120011829692,6.174456185921188,1.2384230735903832
1731474152.939633,-0.84199458360672,-0.42900434136390686,-10.077438354492188,0.009041536527721496,0.02675120242954699,0.0030868933060264666,1.363868325393484,6.246980332751395,1.2365494552691214
1731474152.9894435,-1.1347620487213135,-0.6553553342819214,-10.159132957458496,0.00858891756604529,0.030360694209901878,0.0030189383989174747,1.333324127313139,6.265721848399564,1.2407265786046056
1731474153.0395005,-0.5375619530677795,0.026560742408037186,-10.053828239440918,0.008024526840834994,0.03399121038979766,0.0029539469125858947,1.302316464326005,6.336578361902945,1.2387304333685216
1731474153.0893981,-0.6419805884361267,-0.14039817452430725,-10.018117904663086,0.007346612107192308,0.037628220029849405,0.0028894861410285553,1.2715575311595855,6.3557638192271515,1.2429282136705793
1731474153.13939,-0.6419805884361267,-0.14039817452430725,-10.018117904663086,0.006561027531260534,0.04126598858476542,0.002822321860931532,1.2408718856078538,6.375012751735453,1.2471254811572496
1731474153.13939,-0.48468977212905884,0.17504572868347168,-9.904268264770508,0.005678623147324429,0.04490463182407374,0.002749181360903268,1.240597099569649,6.375185634717413,1.2471631090121202
1731474153.1893013,-0.5061772465705872,0.20886747539043427,-9.975037574768066,0.004713718493667882,0.04854799888656708,0.0026673720545993865,1.2101423901589126,6.394410172033998,1.251337535839905
1731474153.2392278,-0.504601240158081,0.35937514901161194,-9.961531639099121,0.0036827871210115617,0.05220119774738144,0.002575136158548062,1.1795813855321529,6.413832817808475,1.2555344297630058
1731474153.2890863,-0.5235366225242615,0.4285810589790344,-9.942535400390625,0.0026035457362460906,0.055868365233421466,0.0024716311217707013,1.1491101448026433,6.482631577450128,1.253031074127644
1731474153.3391986,-0.5182399153709412,0.41647854447364807,-9.95583724975586,0.0014945853741435513,0.0595512488422988,0.002356786383726002,1.11834138805766,6.502584291942085,1.2572399008155117
1731474153.3890479,-0.5484158992767334,0.4480695128440857,-9.937871932983398,0.0003751704999452194,0.06324855600211579,0.002231251279528687,1.0877046256071656,6.56979788683202,1.2547346511520983
1731474153.4390175,-0.5478430390357971,0.4370619058609009,-9.939542770385742,-0.0007349284998113534,0.06695594623562971,0.0020963579405255707,1.0569870907721253,6.59014075047026,1.2589173788495822
1731474153.4889638,-0.5263280868530273,0.4694240391254425,-9.992203712463379,-0.0018156020175960957,0.07066630772588937,0.0019540219155986666,1.026338366874901,6.655798729425995,1.256372907279898
1731474153.5389593,-0.5467596054077148,0.46723413467407227,-9.985711097717285,-0.0028466565743299793,0.07437005057135625,0.0018064971431897177,0.9955481330930451,6.676639294082599,1.2605435686117576
1731474153.5898702,-0.551529049873352,0.4757702946662903,-9.996859550476074,-0.0038080998614032284,0.0780553859614826,0.001656042068396148,0.9644440446002207,6.741126809034978,1.2580132428249324
1731474153.6398945,-0.5152885317802429,0.4587487578392029,-9.976001739501953,-0.004680362734053988,0.081708649980092,0.001504718344366016,0.9336097013154875,6.762475800909522,1.2621651235318598
1731474153.6898081,-0.5710768699645996,0.47691261768341064,-10.003650665283203,-0.005444512344544688,0.08531469717922693,0.0013543643419894065,0.9030612750830079,6.8251294617610565,1.2595136863577447
1731474153.7397523,-0.525538980960846,0.48766395449638367,-9.994609832763672,-0.006082437850578925,0.0888572725176301,0.0012065952196070268,0.8724436660552669,6.886583278504981,1.2569489705404326
1731474153.789613,-0.5084438323974609,0.5185731053352356,-9.965476989746094,-0.006577014350000752,0.09231925189077737,0.001062792307110314,0.8417595259556515,6.908627809831934,1.2610243458330521
1731474153.8396065,-0.5292466878890991,0.4623800218105316,-9.98769760131836,-0.006912358145237425,0.09568281020867951,0.0009241743592940819,0.8109522996314358,6.930983696633047,1.265116312892262
1731474153.88953,-0.48913973569869995,0.46731847524642944,-9.979022026062012,-0.007074086509375549,0.0989297288088154,0.0007918989963724154,0.7801367198222485,6.953576550892816,1.269209212185867
1731474153.9395475,-0.4685397744178772,0.5056860446929932,-9.99309253692627,-0.007049516679946563,0.10204182742809778,0.0006670676919915226,0.7494294788185873,7.013782062671759,1.2663404478981737
1731474153.9894257,-0.45702219009399414,0.4998912811279297,-9.956080436706543,-0.006827912500640783,0.10500122774306254,0.0005506941360865394,0.7188184193485487,7.072544974937489,1.2635387099855906
1731474154.0394197,-0.4022035002708435,0.5028836131095886,-9.970311164855957,-0.00640076514680226,0.10779041512387712,0.0004437575648359521,0.6879695978327228,7.096061000473972,1.2675725268740683
1731474154.089314,-0.42270535230636597,0.48164358735084534,-9.983999252319336,-0.0057620358356342575,0.11039235248610688,0.00034728544267992496,0.6569309882598374,7.119985168047715,1.2716301524725844
1731474154.1392968,-0.38456615805625916,0.5007065534591675,-9.960416793823242,-0.004908303629688381,0.11279071592498406,0.0002623446302326129,0.6262936605598889,7.143866432226244,1.2756343456367614
1731474154.1892097,-0.3837924003601074,0.4896668791770935,-10.00211238861084,-0.0038387827758939183,0.11497011939339266,0.00018997257901393018,0.5955112591108036,7.168134578398359,1.2796566434656367
1731474154.2391903,-0.3806689977645874,0.47306615114212036,-10.001392364501953,-0.0025552611654613665,0.11691628120571117,0.00013107885310881712,0.5645875827247688,7.192797663543729,1.2836967587531816
1731474154.2891269,-0.5227342247962952,0.9770021438598633,-9.972333908081055,-0.0010618385605172687,0.11861575510791345,8.632282044154693e-05,0.5338416773349978,7.250278657322945,1.280333299453574
1731474154.3391964,-0.6536251306533813,1.1910713911056519,-9.957026481628418,0.0006359036529090638,0.12005419494482009,5.612934677902839e-05,0.5029511196286912,7.275576252737855,1.2843365407331515
1731474154.389024,-0.5680765509605408,0.5152410864830017,-9.884139060974121,0.0025321984704753013,0.1212139873623003,4.095337343771482e-05,0.47212746655233423,7.301122916792977,1.2883317438128712
1731474154.438984,-0.8518714904785156,1.0223649740219116,-10.114818572998047,0.004622209191928986,0.12207412918809984,4.150359469319673e-05,0.441513613005811,7.3570102073146515,1.2847872299008345
1731474154.4890203,-0.5428992509841919,0.5303182005882263,-9.948053359985352,0.006902683382884216,0.12261219878315996,5.848108845583829e-05,0.41053812882621116,7.383380917680756,1.288772539871077
1731474154.4890203,-0.5428992509841919,0.5303182005882263,-9.948053359985352,0.009371838159167914,0.12280629411221877,9.219361525490752e-05,0.40067164589007004,7.391848944984445,1.2900425087039713
1731474154.8706543,-0.253031849861145,0.3442539572715759,-9.981415748596191,0.012028030702905283,0.12263702204535694,0.00014270668425412123,0.1763725443566711,7.673782793467015,1.2966018264910264
1731474154.9205117,-0.23775433003902435,1.9156547784805298,-9.855184555053711,0.014867698760154488,0.12208813764689941,0.00021025451695413154,0.1457607679874947,7.724595355549063,1.2927668275381707
1731474154.9705315,-0.23775433003902435,1.9156547784805298,-9.855184555053711,0.017883651538587574,0.12114229144331692,0.00029562439774092226,0.11576403616613501,7.753502932250762,1.2965420324146628
1731474154.9705315,-0.4001409411430359,0.5899046659469604,-9.77047061920166,0.02106458206271345,0.11977504092453828,0.00040068845453715055,0.11559812951941291,7.753663743380121,1.2965629295104102
1731474155.020408,-0.1947299689054489,1.112312912940979,-10.022409439086914,0.024395769470701885,0.1179553017042019,0.0005287054394867719,0.08487072573952258,7.803576687388051,1.2927401029862433
1731474155.0704117,-0.21322882175445557,0.8714746236801147,-10.088143348693848,0.027859779169407514,0.11565109464117393,0.0006836615540283599,0.05515572878820742,7.832948664928505,1.2964650040881505
1731474155.1203022,-0.2239534556865692,0.9041865468025208,-9.905142784118652,0.031436510443866625,0.11283316963892498,0.0008689684314329223,0.024447247755271514,7.863663767379608,1.3003257583857692
1731474155.1704328,-1.3943976163864136,-0.5810168385505676,-10.084527969360352,0.03510432449752255,0.10947711626773242,0.0010868012043301334,-0.005411354710336895,7.893884783184381,1.304092372568872
1731474155.2202253,-0.5982986688613892,0.3721615672111511,-10.063822746276855,0.038843865035628235,0.10556799028779804,0.0013381351070985677,-0.036341673146337745,7.9255641906981245,1.3080093500102055
1731474155.2702136,-0.46314603090286255,0.03619835898280144,-10.011496543884277,0.042641234206096036,0.10110442179413867,0.0016226452165249191,-0.06506855872625668,7.972570498365662,1.3035786184297689
1731474155.320184,-0.5183843374252319,0.10595713555812836,-10.015792846679688,0.04648673459272087,0.09609827825961363,0.0019386993937042128,-0.09575503666413104,8.004783947116781,1.3074659440184182
1731474155.3702235,-0.11161405593156815,0.15249505639076233,-10.028287887573242,0.05037156232542453,0.09057233167289364,0.0022837217703048545,-0.12428180267174098,8.050641070165641,1.303049344755223
1731474155.4200754,-0.11161405593156815,0.15249505639076233,-10.028287887573242,0.05428533464652033,0.08455852116780024,0.002654483659253735,-0.1538933850338796,8.082475966586449,1.3068099085115714
1731474155.4200754,0.01588253118097782,0.03391246125102043,-10.020575523376465,0.058214151520381056,0.07809645504203289,0.0030471923926178594,-0.15470982805424702,8.083358755028987,1.3069139318514063
1731474155.469965,-0.25383296608924866,0.3448643088340759,-9.974748611450195,0.06213960353574841,0.07123203997771117,0.0034576244275364688,-0.18333643609362635,8.114478770656882,1.3105749590371563
1731474155.5198517,-0.10165785253047943,0.2227284014225006,-9.922452926635742,0.06603940352658817,0.06401589323544761,0.0038814676410151446,-0.21263100618414965,8.146661213683828,1.3143504954203975
1731474155.5699394,-0.1839110553264618,0.4192267656326294,-9.99095344543457,0.06988872593290921,0.05650133630422742,0.004314774314919797,-0.24132098825025472,8.191508248447427,1.309796224860448
1731474155.6198208,-0.19280876219272614,0.3612631559371948,-9.950533866882324,0.07366120456827777,0.04874261381695334,0.004754185776523032,-0.27133304270126124,8.225212572341304,1.3136984632477176
1731474155.6698928,-0.00384950777515769,0.6912849545478821,-9.922014236450195,0.07732947747203094,0.04079336162366889,0.0051969047955650605,-0.29850300818386655,8.256612830932694,1.3090303298953168
1731474155.7207956,0.744889497756958,1.6483407020568848,-9.939879417419434,0.08086453275161434,0.03270394367851763,0.005640741346412971,-0.32732191219862045,8.289916701354546,1.3047732229081943
1731474155.770732,0.3141680657863617,1.1341841220855713,-10.00156307220459,0.08423312062533857,0.02451680954915141,0.0060841580268368,-0.35525700642044505,8.322242282101518,1.3084558951029046
1731474155.8206358,-0.22723086178302765,1.8611536026000977,-9.893811225891113,0.08739617423663955,0.016262253936315963,0.006526101376124441,-0.3840846649867294,8.355907577694111,1.3123014417920533
1731474155.8706558,-0.4820658564567566,1.1263463497161865,-9.909140586853027,0.0903118750255115,0.007957131065709276,0.006965938240081337,-0.41143157258664365,8.388127135764115,1.3159949199829997
1731474155.9206085,-0.49431735277175903,1.4234706163406372,-9.892594337463379,0.09294139996395136,-0.00039372262118083073,0.0074036976214687964,-0.43821522355254705,8.420313701230082,1.3113854013674053
1731474155.970523,-0.07631285488605499,0.5004467964172363,-10.070384979248047,0.0952524430672023,-0.008794008364892324,0.007840113883913934,-0.464691918538377,8.452152053335823,1.3069412661314104
1731474156.0204434,-0.24069371819496155,-0.35270124673843384,-10.206377029418945,0.0972188866948594,-0.01725000785587317,0.008275875292425895,-0.4918637598527606,8.484986208160159,1.3106964031431374
1731474156.0704284,-0.6625279188156128,-0.9579870700836182,-10.202309608459473,0.09881934333736059,-0.025761783848416445,0.008710218906900343,-0.518860635510305,8.517851091054792,1.3144824175143481
1731474156.1203353,-0.7205891013145447,-0.26662561297416687,-10.021163940429688,0.10003785233228535,-0.03431476255213399,0.009139974347970621,-0.545554985971245,8.550574636512705,1.318283034300763
1731474156.170457,-0.539745032787323,-0.3440362215042114,-10.02015209197998,0.10086599238321697,-0.04287723670589452,0.009559988726416434,-0.5710172037414094,8.582148911267963,1.313666718073765
1731474156.220292,-0.7099660634994507,-0.18074804544448853,-9.97559928894043,0.10130353748387566,-0.051403870074850824,0.009964401684177622,-0.5971731447190767,8.614633958328035,1.3174770645505998
1731474156.270222,-0.4648881256580353,-0.01231425255537033,-9.95477294921875,0.10135744440975583,-0.059840471604101275,0.01034766589460697,-0.6219035951101917,8.645844286686588,1.3128957893008213
1731474156.320121,-0.4648881256580353,-0.01231425255537033,-9.95477294921875,0.10104034260133116,-0.06812775373334204,0.010705055209232709,-0.6479155160787421,8.67850598310801,1.3167795126602813
1731474156.320121,-0.6345815658569336,0.11943099647760391,-9.89240837097168,0.1003690233638997,-0.07620433519756489,0.011032936927968785,-0.6481519270285085,8.678803523723662,1.3168151147224327
1731474156.370157,-0.4727819561958313,0.4156271815299988,-9.890789985656738,0.09936355875912062,-0.08400930129403371,0.011329003243742624,-0.671645766751306,8.708883190636381,1.3121952297014967
1731474156.419992,-0.4746846556663513,0.4383656084537506,-9.960733413696289,0.09804688540192179,-0.09148486502677142,0.011592410785013633,-0.6967103449436638,8.740591234352978,1.3160347077783812
1731474156.4700122,-0.4082532823085785,0.4868992269039154,-9.922954559326172,0.09644397758500091,-0.09857887480735124,0.011823599761951025,-0.7217164157317704,8.772295327372955,1.3199318619973877
1731474156.5199811,-0.42095184326171875,0.46034306287765503,-9.94420051574707,0.09458077956656681,-0.10524617036183667,0.012023911181225809,-0.7448804170386171,8.80237427660912,1.3153467828650738
1731474156.5699735,-0.3570947051048279,0.568742036819458,-9.979055404663086,0.09248341411296394,-0.11144883635761749,0.012195295357565012,-0.7693110357578306,8.833447715278222,1.3192559926828848
1731474156.6198468,-0.35170891880989075,0.5658196806907654,-10.006991386413574,0.09017760234282375,-0.11715618572063233,0.01234001841466693,-0.7918777340720632,8.862964208804891,1.3147348037640143
1731474156.6698449,-0.35522300004959106,0.5524300336837769,-9.985919952392578,0.08768819272395242,-0.12234475415333845,0.01246028865369438,-0.8158595588569126,8.893482170037249,1.3186745880159738
1731474156.7197773,-0.3219449818134308,0.549161434173584,-9.999293327331543,0.0850388702364779,-0.12699801790014426,0.012558019809264652,-0.8395162467314631,8.923549690301407,1.3226273183983088
1731474156.7707493,-0.28970977663993835,0.5290778875350952,-9.999696731567383,0.082251970226344,-0.13110577339214158,0.012634797634777813,-0.8634950683506564,8.953968207026751,1.3267020238720333
1731474156.8206139,-0.3143123984336853,0.5126650929450989,-10.002466201782227,0.0793482667678573,-0.1346634077417121,0.012691896048618544,-0.8852113513233875,8.982546466150524,1.3220657004941478
1731474156.870688,-0.2599155902862549,0.5240530371665955,-9.9974946975708,0.07634681626301529,-0.13767119697783395,0.01273028276979396,-0.9066689442253038,9.010813725896023,1.317623816546182
1731474156.9205627,-0.2969132363796234,0.4891177713871002,-9.995007514953613,0.07326491115211904,-0.14013368573064638,0.01275065601806926,-0.9288767530517916,9.038774182207682,1.3215271138010212
1731474156.9705002,-0.2292598932981491,0.49995648860931396,-10.004132270812988,0.07011806687496472,-0.142059136857484,0.012753504296644187,-0.9494109534687342,9.065840431492644,1.3170853803619018
1731474157.0204966,-0.2579132318496704,0.4924958348274231,-10.007848739624023,0.06691999451865874,-0.1434590237631787,0.012739135061127338,-0.9719726630187397,9.094013396602103,1.321145306888035
1731474157.0704823,-0.24598565697669983,0.4703907370567322,-10.037233352661133,0.06368259521968817,-0.14434758784996243,0.012707633113812511,-0.9943630154419097,9.121816051670262,1.3252357538368946
1731474157.1203732,-0.2604096531867981,0.4892358183860779,-9.96359920501709,0.060416074015940784,-0.14474143684887378,0.01265881369900142,-1.0165210806603262,9.149161976391845,1.329343657613881
1731474157.1703653,-0.2412901222705841,0.49372807145118713,-10.008519172668457,0.057129149393687094,-0.14465920338611196,0.012592320682539796,-1.036116318582785,9.174813704786079,1.3247379291329382
1731474157.2202988,-0.25269076228141785,0.49582356214523315,-9.967084884643555,0.05382923395588061,-0.14412132461465793,0.012507831889895403,-1.055454074998936,9.200094895057376,1.3203247719751292
1731474157.2702527,-0.29472479224205017,0.49913355708122253,-9.967273712158203,0.05052261406207992,-0.14314987707193774,0.0124052144021016,-1.077145328646811,9.226372693840924,1.3244579158093843
1731474157.3201697,-0.2970694601535797,0.489962100982666,-10.00029182434082,0.047214754445975976,-0.14176837545216175,0.01228460729980716,-1.0987151288591557,9.252295870504541,1.3286218882528484
1731474157.370167,-0.34497785568237305,0.48454904556274414,-9.985206604003906,0.04391070648772291,-0.14000152014003808,0.012146393433584791,-1.120204047654596,9.277906708357243,1.3328227290572434
1731474157.4200604,-0.34497785568237305,0.48454904556274414,-9.985206604003906,0.04061550093279954,-0.13787491302116128,0.011991082885479934,-1.1386421277842138,9.301697180548071,1.3282106935351232
1731474157.4200604,-0.33604687452316284,0.4833928644657135,-9.957088470458984,0.037334428632833754,-0.13541479054172573,0.011819287469134644,-1.139725699269274,9.302973447054477,1.3284249518655065
1731474157.4700716,-0.3997398614883423,0.48361581563949585,-10.031452178955078,0.034073175301918876,-0.1326478075447512,0.011631768774920526,-1.1599193820296836,9.326648299767905,1.3324398101619626
1731474157.5199513,-0.34380197525024414,0.5006750226020813,-9.992836952209473,0.03083790160461687,-0.12960087431205225,0.011429350686711399,-1.1784620518071656,9.350349735306184,1.3279889863017178
1731474157.570007,-0.40116724371910095,0.47793707251548767,-9.987176895141602,0.02763528960750463,-0.1263010364081227,0.011212755585617355,-1.1990492647906454,9.374074090348149,1.332139576017243
1731474157.6199002,-0.3695700168609619,0.49243950843811035,-9.979872703552246,0.024472506838390754,-0.12277534405125237,0.010982615421548114,-1.2169528341626,9.256085955225092,1.3276935132185095
1731474157.6698487,-0.41193339228630066,0.5345649719238281,-9.984530448913574,0.02135715798421482,-0.11905073454278692,0.010739613495568378,-1.2375618007410427,9.279154356280507,1.331899413168525
1731474157.7197323,-0.39578092098236084,0.5249258279800415,-9.9964017868042,0.018297266846095662,-0.11515404664274609,0.01048454639595469,-1.254859807469943,9.163241179165578,1.3274536906361274
1731474157.7697887,-0.4148857295513153,0.5152393579483032,-10.009360313415527,0.015301252630555349,-0.11111208169699421,0.010218259799993487,-1.2756381804781254,9.185815520675849,1.3317380436534811
1731474157.8206913,-0.38384121656417847,0.5252273082733154,-9.947656631469727,0.012377851283597547,-0.10695151360014238,0.009941575845107123,-1.293433215720854,9.073138335034496,1.3275214351657023
1731474157.8705866,-0.37471675872802734,0.512197732925415,-9.963825225830078,0.009535924435669063,-0.1026986886388707,0.009655387285552998,-1.3135949273559315,9.094380871440755,1.3317149311933816
1731474157.9205194,-0.39332878589630127,0.548274040222168,-9.980907440185547,0.006784196902090504,-0.09837946636146816,0.009360847568396214,-1.3344795213838294,9.116153868982778,1.3360869401396431
1731474157.970504,-0.3940364420413971,0.5331264734268188,-9.951216697692871,0.00413108242156098,-0.09401915336330376,0.009059414701333555,-1.354842133174755,9.137159325276652,1.3403752345760058
1731474158.0204077,-0.3720216453075409,0.5273372530937195,-10.012054443359375,0.0015846317172850607,-0.08964246362999975,0.00875275308035137,-1.3757238819905249,9.158475251493766,1.3447969214969102
1731474158.070431,-0.36154696345329285,0.5203379988670349,-9.981355667114258,-0.0008475618384040497,-0.08527339010147089,0.008442582573638453,-1.3916680335141243,9.043950714200726,1.339983100594782
1731474158.1203873,-0.33269548416137695,0.5211107134819031,-9.980409622192383,-0.0031585797538304676,-0.08093500343989808,0.008130530326794835,-1.4128522077332126,9.06492674474367,1.3444842970331619
1731474158.170318,-0.3207956552505493,0.5135068893432617,-9.99845027923584,-0.005342446946218979,-0.07664928005657429,0.007818091361473888,-1.428179702108897,8.952912758507901,1.3396478758058767
1731474158.2202368,-0.30687013268470764,0.5224953889846802,-9.994780540466309,-0.00739437237578793,-0.07243698664408592,0.007506634391089313,-1.4446813405181045,8.845830738913849,1.3352753958870176
1731474158.2701979,-0.3119085729122162,0.5182780623435974,-9.960308074951172,-0.00931089809591486,-0.06831761315797594,0.00719738613642424,-1.4643443651523493,8.86436417168964,1.3394506222224796
1731474158.3202002,-0.3232634663581848,0.5220323204994202,-9.994431495666504,-0.0110899061976118,-0.06430934476130369,0.006891490132215706,-1.4853506790256035,8.883971474512432,1.3439234117129741
1731474158.3702445,-0.28144803643226624,0.5371149778366089,-9.997028350830078,-0.012730526544307244,-0.060429061386101206,0.006590065739871182,-1.5003157635691031,8.777067659812218,1.339203454371707
1731474158.4200966,-0.28144803643226624,0.5371149778366089,-9.997028350830078,-0.014233098971445299,-0.05669237909449494,0.006294133852171391,-1.5207824376362626,8.795637863420952,1.3435564458752642
1731474158.4200966,-0.31811031699180603,0.5085797905921936,-9.998974800109863,-0.015599191990789131,-0.05311368734682563,0.006004513056997328,-1.5212852645414021,8.796091927671792,1.343663492019483
1731474158.4701083,-0.2963423728942871,0.5248386859893799,-9.973089218139648,-0.01683148553087594,-0.04970608910277493,0.005721817095715599,-1.5358935133874476,8.691460762367901,1.3389523845774614
1731474158.5199509,-0.2880183458328247,0.5108221173286438,-10.006240844726562,-0.017933556074380727,-0.046481291426744946,0.005446528882939096,-1.5563745912312197,8.70954966759473,1.3432963794395025
1731474158.5699735,-0.2980497181415558,0.49068212509155273,-9.973512649536133,-0.018909764094253365,-0.04344953120538533,0.0051790569091782895,-1.5770436711539062,8.727651223164777,1.347683768307345
1731474158.6198955,-0.2980497181415558,0.49068212509155273,-9.973512649536133,-0.019765195915045386,-0.04061948943053952,0.0049197710298166525,-1.5977586794350522,8.74564479350711,1.3520832805967458
1731474158.6198955,-0.31672346591949463,0.5230117440223694,-9.992152214050293,-0.020505528845484088,-0.037998229234715714,0.004669066581563352,-1.5979359889570397,8.7457981830447,1.352120945881332
1731474158.6698563,-0.3087119460105896,0.5085582733154297,-10.039146423339844,-0.021136840803427058,-0.03559128933908316,0.004427332949245549,-1.6122339897130222,8.64167928226223,1.347195305947454
1731474158.719787,-0.37044280767440796,0.5171928405761719,-9.983965873718262,-0.021665394067769662,-0.033402869307836466,0.004194757591119584,-1.632951143516816,8.659239066363932,1.3515720026976707
1731474158.769825,-0.35450124740600586,0.50801682472229,-9.950888633728027,-0.02209735226347263,-0.03143594646075688,0.0039712600502798765,-1.6472141366361692,8.557415329078932,1.3467319429597517
1731474158.8206687,-0.3457523584365845,0.5308553576469421,-10.02107048034668,-0.022438515037567212,-0.029692335120366106,0.0037566990749205494,-1.6682846805529732,8.574859177196357,1.351156653213965
1731474158.8708599,-0.3598632216453552,0.5240755081176758,-9.973990440368652,-0.02269424091767205,-0.02817278010286874,0.0035510058908162436,-1.6892295139489333,8.59207772524236,1.3555522041421804
1731474158.9206185,-0.37419551610946655,0.5006221532821655,-9.971975326538086,-0.022869480664785526,-0.026877053265162834,0.0033541329696589227,-1.7099394722858814,8.608988369673124,1.3598951680060725
1731474158.970634,-0.3892771303653717,0.5268489718437195,-10.022506713867188,-0.022968728025033462,-0.025803968249464744,0.003166042208256303,-1.7236161086604251,8.508032850008396,1.3547790931924313
1731474159.0204418,-0.3892771303653717,0.5268489718437195,-10.022506713867188,-0.022995903000548747,-0.024951389527792852,0.002986636946673067,-1.744416660602824,8.524646526061648,1.3591103502308246
1731474159.0204418,-0.42074161767959595,0.5047159194946289,-9.953629493713379,-0.022954259066503304,-0.02431631681085494,0.0028156085395413862,-1.744546707163248,8.524750059012373,1.3591374155398739
1731474159.0705018,-0.4061630666255951,0.5313308238983154,-9.978107452392578,-0.022846318317116886,-0.023894952223615422,0.0026525155284699217,-1.7578288610626598,8.426443300980106,1.3540492770336423
1731474159.1203768,-0.4061630666255951,0.5313308238983154,-9.978107452392578,-0.02267386107331514,-0.023682748473655677,0.002497044764923107,-1.7709760355341608,8.331318329636137,1.3491458165100128
1731474159.1203768,-0.40526318550109863,0.5140536427497864,-10.022367477416992,-0.022438023050238495,-0.02367450697383304,0.0023490693819994677,-1.7711637054929619,8.331463341110242,1.3491843944127895
1731474159.170345,-0.3965300917625427,0.502784788608551,-9.966509819030762,-0.022139454764975617,-0.023864424244753386,0.0022084849096716975,-1.7919783775229017,8.34749553538022,1.353460184735984
1731474159.2203305,-0.38581791520118713,0.508468508720398,-9.955740928649902,-0.021778486968121548,-0.02424603099767251,0.0020751546900909176,-1.8128437774016608,8.363465390958153,1.3577405315490927
1731474159.2702694,-0.3934820294380188,0.535594642162323,-9.982986450195312,-0.02135529857105418,-0.024812176115284346,0.0019490703745536227,-1.8338564328176528,8.379445699487926,1.362045075880998
1731474159.3201983,-0.35386738181114197,0.5342658758163452,-9.970437049865723,-0.020870077839648973,-0.02555517180611098,0.0018304625722062639,-1.8462880915934612,8.285413485240156,1.3568541229555993
1731474159.3701587,-0.3599652647972107,0.5136325359344482,-9.988588333129883,-0.02032320377548886,-0.026466987538492633,0.001719730012336808,-1.8673050040342576,8.301060564373017,1.3611266830322948
1731474159.4200087,-0.32312655448913574,0.5253065824508667,-10.006949424743652,-0.01971546327938068,-0.027539319564825235,0.0016173039217817335,-1.8794545696604934,8.2097138039278,1.3559876827685626
1731474159.4701254,-0.32851725816726685,0.5242536067962646,-9.958294868469238,-0.019048254236956788,-0.028763573374634845,0.0015235349954068331,-1.900450828347975,8.22501191372795,1.3602242393633188
1731474159.5200732,-0.2989529073238373,0.5134327411651611,-9.978981018066406,-0.018323739769825487,-0.03013087986602045,0.0014387009687241087,-1.9215619347854602,8.240286129807766,1.3644782509353537
1731474159.5699933,-0.2976040542125702,0.528435468673706,-10.035711288452148,-0.01754495526361918,-0.03163213376911048,0.001363064984241646,-1.9426190239062648,8.2554122981783,1.3687158790505538
1731474159.6201284,-0.2584826648235321,0.5214108228683472,-9.999695777893066,-0.01671589539463976,-0.03325803614835435,0.0012967456521723192,-1.9539477883070058,8.16480656471713,1.3632890102416406
1731474159.6698892,-0.29298895597457886,0.5123870372772217,-9.98195743560791,-0.015841579906148217,-0.034999148161168975,0.0012395419366593558,-1.9749477888636344,8.179550516841369,1.3674852650036207
1731474159.7198591,-0.29298895597457886,0.5123870372772217,-9.98195743560791,-0.014927994728786515,-0.036845908429572256,0.0011910149441232117,-1.9961782681674527,8.194339389111986,1.3717229246395475
1731474159.7198591,-0.2805013358592987,0.5189118385314941,-9.997715950012207,-0.013981876082447674,-0.03878862487931464,0.001150684840336006,-1.9963552996866738,8.194462208124701,1.3717582417299168
1731474159.7697053,-0.25231388211250305,0.526025652885437,-9.983038902282715,-0.013010529040697561,-0.040817519324004896,0.001118091332806968,1.1443711170410737,8.105054250599471,1.3661124569582945
1731474159.8196115,-0.2625800669193268,0.5331252813339233,-9.989421844482422,-0.012021809826586429,-0.042922838720383154,0.001092770250020545,1.1500922348728202,8.119879489228873,1.3704393407289002
1731474159.870672,-0.25197145342826843,0.5226522088050842,-10.016423225402832,-0.011024140845055633,-0.04509497275294959,0.0010742311697632654,1.1555382041012616,8.13395659590917,1.374582571558063
1731474159.9206076,-0.2829984724521637,0.5082409381866455,-9.991646766662598,-0.010026409742996241,-0.04732449773376915,0.0010618930549762206,1.1610274537908103,8.148098329095555,1.3787812700434219
1731474159.9705005,-0.28480449318885803,0.5353925824165344,-9.947487831115723,-0.009037737986712811,-0.049602145196747376,0.0010550749931374577,1.2084990768962318,8.059759218689106,1.3729123563184318
1731474160.0204332,-0.2747306227684021,0.5366898775100708,-10.02096939086914,-0.008067207910374243,-0.051918819825862675,0.0010531399352871383,1.2284657059094395,7.975309817658213,1.3676385648224254
1731474160.0705328,-0.2890772521495819,0.5572153329849243,-9.990310668945312,-0.007123673419277185,-0.05426573578863969,0.0010555592616548835,1.23216117589615,7.987494600587964,1.371389723749752
1731474160.120394,-0.2890772521495819,0.5572153329849243,-9.990310668945312,-0.00621565335727608,-0.05663459047876836,0.0010617952184635803,1.236205069475074,8.000748288133014,1.3755131368113551
1731474160.120394,-0.30816128849983215,0.5108066201210022,-9.969518661499023,-0.005351211324371663,-0.059017643228215316,0.0010712660572529684,1.2362392075511393,8.00085978840583,1.3755480247347125
1731474160.1703773,-0.3075338900089264,0.5318730473518372,-9.989680290222168,-0.0045378032615382285,-0.06140760865132446,0.0010834585067263664,1.2402454504004434,8.013887023619079,1.379649375568354
1731474160.220353,-0.3376113772392273,0.514896035194397,-9.994827270507812,-0.0037821204007163454,-0.06379746641148044,0.0010979844170521317,1.2474616667912335,7.927558867810409,1.3737351537241909
1731474160.2703774,-0.34983736276626587,0.5286862254142761,-9.962014198303223,-0.0030899167979163396,-0.06618037011681413,0.0011145419701516653,1.250881942130381,7.940193499860083,1.3778322812272217
1731474160.3201654,-0.3544542193412781,0.5517596006393433,-9.99022388458252,-0.002465829248596281,-0.06854968662791792,0.0011329159010333271,1.256214217378457,7.951853250182431,1.3719253826156699
1731474160.370143,-0.3516252934932709,0.5374683141708374,-9.990341186523438,-0.0019132719788405859,-0.07089912044428287,0.0011530044681635188,1.2598579661598437,7.963597224516895,1.3662477252548706
1731474160.4202018,-0.35329899191856384,0.519231379032135,-9.9598970413208,-0.0014344594020131987,-0.07322280772204284,0.001174790366348494,1.2626452152110812,7.9757520715801,1.3702899826002697
1731474160.4702244,-0.3345542550086975,0.5284436941146851,-9.966591835021973,-0.0010305233235073587,-0.0755152646663348,0.0011983577111351713,1.2654203107060662,7.987681168602066,1.3743220619661378
1731474160.5200076,-0.3611922562122345,0.5078816413879395,-10.020652770996094,-0.0007016657241033905,-0.07777126745881127,0.0012239400013159933,1.2681879650240828,7.999396512152365,1.3783494861180967
1731474160.570008,-0.3498118817806244,0.5143244862556458,-10.008946418762207,-0.0004472701272073903,-0.07998576826695819,0.0012517825637388892,1.2687402042659943,8.010513011493945,1.3724092754439916
1731474160.6198819,-0.33152875304222107,0.5191381573677063,-9.96742057800293,-0.00026597284007105564,-0.08215385556429439,0.001281927304124273,1.2711295008048982,8.021837728155365,1.3764066165028137
1731474160.6699362,-0.3189314603805542,0.520063042640686,-9.994635581970215,-0.0001558121123769395,-0.0842707762255345,0.001314228819367562,1.271897766797443,8.032789793820363,1.3705315652994468
1731474160.7198498,-0.31146132946014404,0.49782794713974,-9.991044998168945,-0.00011447011449002414,-0.08633198259631078,0.0013485055842734114,1.274049500467911,8.043736088970757,1.3745121217238037
1731474160.7696915,-0.27925825119018555,0.5191643238067627,-9.976333618164062,-0.00013951506316985996,-0.08833312675205975,0.0013845851475793856,1.2745354613163629,8.054314322114744,1.3686387095918173
1731474160.8196826,-0.26903486251831055,0.5131709575653076,-9.989280700683594,-0.00022863579321827414,-0.09027004834735283,0.0014223033766495028,1.2764746353687293,8.06480270596879,1.3725808404745745
1731474160.8696597,-0.2614664137363434,0.5186227560043335,-10.001703262329102,-0.0003798681868702206,-0.09213882560173167,0.0014615137582683162,1.276798110061275,8.074990685756974,1.3668100787746396
1731474160.9207711,-0.2740640342235565,0.5009732246398926,-9.956851959228516,-0.0005917214847755223,-0.09393582776603392,0.0015020670274436424,1.278597187348424,8.085288474150268,1.3708281901213395
1731474160.9705622,-0.274027019739151,0.5083372592926025,-10.000702857971191,-0.0008631475150543323,-0.09565770133780319,0.0015438335403982022,1.279118761530095,8.094908991561708,1.365070462927064
1731474161.02048,-0.274027019739151,0.5083372592926025,-10.000702857971191,-0.001193416338775156,-0.09730133335809514,0.0015867284810512031,1.28080635985551,8.104380490189754,1.3595386534410783
1731474161.02048,-0.2422710508108139,0.5382094979286194,-10.02502155303955,-0.001582028097369971,-0.09886388276722533,0.0016305966113598414,1.2808138426197169,8.104422979946918,1.3595559980444154
1731474161.070523,-0.2966766655445099,0.5066756010055542,-9.966814994812012,-0.00202869867546547,-0.10034288816466695,0.0016750712197854058,1.2824572164729415,8.113644621792313,1.3633731333554335
1731474161.1204453,-0.24885393679141998,0.5543649792671204,-9.974495887756348,-0.002533308852111868,-0.10173636481772695,0.0017196413942769829,1.28411092277351,8.122703479864688,1.367231778182135
1731474161.1704516,-0.2737577557563782,0.5325854420661926,-10.017370223999023,-0.003095810053946781,-0.10304287559729787,0.0017638396228554813,1.285748449655837,8.131456860644406,1.3710733828319344
1731474161.2202854,-0.2737577557563782,0.5325854420661926,-10.017370223999023,-0.0037161736978273624,-0.10426158975216417,0.0018072323208162813,1.2851004141891573,8.139899020394648,1.3652909785849618
1731474161.2202854,-0.2906055152416229,0.5151991844177246,-9.989680290222168,-0.004394319438240555,-0.10539224487545765,0.001849238239421574,1.2851132587740337,8.139973600853018,1.3653249553738669
1731474161.2703397,-0.3137006163597107,0.5183002948760986,-9.986680030822754,-0.00512995269235935,-0.10643500400207656,0.0018890993085558542,1.2865345723703734,8.148131809884307,1.3691036705896902
1731474161.3202085,-0.3137006163597107,0.5183002948760986,-9.986680030822754,-0.005922360347959649,-0.10739032332840981,0.0019260388257261445,1.2864495528131572,8.156050057927859,1.3633757096456294
1731474161.3202085,-0.3133438229560852,0.5345419645309448,-10.003192901611328,-0.006770253557867716,-0.108258908375926,0.001959375728154039,1.286460955182447,8.15611800933244,1.3634085289195337
1731474161.370244,-0.3098906874656677,0.528404951095581,-10.000290870666504,-0.007671732259660795,-0.10904175415990644,0.0019884989169558663,1.2864209882111557,8.163665407122059,1.3578218760490801
1731474161.4202275,-0.3098906874656677,0.528404951095581,-10.000290870666504,-0.008624350160661924,-0.1097401963208349,0.002012790220983553,1.2875993585737942,8.171152392993191,1.361606996701203
1731474161.4202275,-0.33454248309135437,0.49304723739624023,-9.936529159545898,-0.009625181365777974,-0.11035587604520355,0.0020316490245430585,1.2876107303781084,8.171223963083596,1.361643894804711
1731474161.470167,-0.3619610667228699,0.5299280881881714,-10.047443389892578,-0.010670785497426472,-0.11089061190517674,0.002044624887865077,1.2887388687928472,8.178270621793986,1.3653490745986232
1731474161.5199888,-0.36124423146247864,0.5293492674827576,-9.995766639709473,-0.011757058514547369,-0.11134632636109312,0.0020513976667212515,1.2898570370950255,8.185153445192919,1.3691177335667783
1731474161.570011,-0.3769206404685974,0.5511707663536072,-9.91990852355957,-0.012879095758248704,-0.11172513551973291,0.002051650292611267,1.2888139617666399,8.19165623909731,1.3633297707078458
1731474161.6198852,-0.3783719837665558,0.543317973613739,-9.976374626159668,-0.014031161246195245,-0.11202950257557738,0.002045235103823183,1.2897228046186708,8.197989837830814,1.367075746914545
1731474161.6698837,-0.24439649283885956,0.7247949242591858,-9.980547904968262,-0.015206857677416571,-0.11226247793456134,0.0020324422905270666,1.2905935115779554,8.204032067446548,1.3708198174050585
1731474161.7198694,0.5133981704711914,1.6614665985107422,-9.919093132019043,-0.016400372364841834,-0.11242914094448819,0.0020139888422987164,1.2892152022512706,8.209695250330086,1.364949443938977
1731474161.769799,0.2999531030654907,1.1952157020568848,-10.016883850097656,-0.017609666316146733,-0.1125401844188261,0.001990924505057728,1.2898688458693561,8.215196706316313,1.3686795329644301
1731474161.8197489,0.4892212450504303,1.505788803100586,-9.938413619995117,-0.018839869229886327,-0.11261526367162433,0.0019645562869230306,1.2904730113288634,8.220383099082417,1.3723905893722028
1731474161.8706505,-0.516516387462616,-0.022402653470635414,-9.965340614318848,-0.020103571481774014,-0.11268217963022292,0.0019363437038985712,1.2891610387388113,8.225277795376345,1.3665026040819634
1731474161.9206002,-0.9550522565841675,-0.21024510264396667,-10.16689682006836,-0.02141642928999013,-0.11277049089937713,0.001907708375633327,1.2882379838929254,8.229774569007498,1.3607367011798872
1731474161.9705899,-0.7593311667442322,-0.04050649330019951,-10.03207015991211,-0.02279012928517316,-0.1129028115158968,0.0018794689255621265,1.2885194974749135,8.234126897726966,1.3643973401583187
1731474162.0203743,-0.5015047788619995,0.2697582244873047,-10.028075218200684,-0.024227919095065765,-0.11309022368453579,0.0018512978504173338,1.287575251597455,8.238013045707632,1.3586524926791186
1731474162.0706327,-0.6376875638961792,0.10086476802825928,-9.939265251159668,-0.025725167581492358,-0.11333368513579405,0.0018219718489406633,1.287676642180483,8.241851068446405,1.362332612134369
1731474162.1203902,-0.4812456965446472,0.29825708270072937,-9.977543830871582,-0.027271908454579045,-0.11362719883228359,0.0017901332082275602,1.2877103139495545,8.245356054006322,1.3659707922774886
1731474162.1703827,-0.5795964598655701,0.24074093997478485,-9.958183288574219,-0.028854560256489158,-0.11395992040312858,0.0017548226444538783,1.2876745165359016,8.248557872893556,1.3695901770773369
1731474162.2203078,-0.508014976978302,0.46040502190589905,-9.957934379577637,-0.030456891371817587,-0.11431772271832129,0.0017156193499811088,1.2867023287791124,8.235554681791731,1.3636641489868884
1731474162.2702415,-0.508804440498352,0.4490143060684204,-9.982624053955078,-0.03206075003368537,-0.11468487150084011,0.0016725926898992986,1.2864986112489634,8.238173249999427,1.3672662047486597
1731474162.320172,-0.48865872621536255,0.4541880786418915,-9.978496551513672,-0.03364673964962202,-0.11504556743623114,0.0016261814804173478,1.2862124799095114,8.240514520949814,1.3708840789410461
1731474162.370213,-0.5410983562469482,0.4174778163433075,-9.919493675231934,-0.03519482020420202,-0.1153848082776753,0.0015770883921117193,1.2854578372340693,8.226344212785309,1.3648604266464008
1731474162.4201007,-0.47556886076927185,0.47924375534057617,-9.938119888305664,-0.036684689194092804,-0.1156885656719169,0.0015263627945380645,1.2850181664373612,8.228088406709587,1.3684582489699462
1731474162.47022,-0.47460830211639404,0.529241681098938,-10.030539512634277,-0.038096105611083945,-0.11594390156641661,0.0014754979514090525,1.2844859321119315,8.229539757475633,1.3720527285443274
1731474162.5199964,-0.4850676357746124,0.5224998593330383,-9.974165916442871,-0.03940932863442744,-0.11613936395949814,0.0014261803395857879,1.2837012903954692,8.214331285281238,1.3659332705453884
1731474162.5699408,-0.48955443501472473,0.4771479666233063,-9.996931076049805,-0.04060547173928904,-0.1162653264625976,0.001379909727504658,1.2830067281172683,8.215176019244868,1.3694889242675343
1731474162.6199024,-0.4665283262729645,0.4885329604148865,-9.979948997497559,-0.04166666407000423,-0.1163139134238228,0.00133789660294608,1.2823652373611156,8.199306212583231,1.3634491787283944
1731474162.669962,-0.46965348720550537,0.5105751752853394,-9.998185157775879,-0.04257619593960128,-0.11627871170404028,0.001301130905291591,1.2809701019922053,8.183095929311673,1.357588468786098
1731474162.7198188,-0.4509274959564209,0.5246589779853821,-10.004263877868652,-0.04331872530405108,-0.11615466057618758,0.0012703902649801198,1.2799794291619515,8.183019610892103,1.361091844107348
1731474162.7698064,-0.4414564073085785,0.5083518624305725,-9.974061965942383,-0.043880481207009533,-0.11593811688227637,0.0012462072073442406,1.278882981907228,8.182654288421228,1.3645881380351421
1731474162.8197534,-0.41812509298324585,0.5166147947311401,-9.975350379943848,-0.04424945570694712,-0.11562685580663172,0.0012289206687928092,1.2785908476955947,8.164744761907892,1.3586537455782186
1731474162.8696876,-0.38708367943763733,0.5227304100990295,-9.974908828735352,-0.044415617006633545,-0.11521996049539188,0.0012188177789038944,1.277391501043249,8.163776815142327,1.362117410472497
1731474162.9196005,-0.36882284283638,0.5231413841247559,-9.979649543762207,-0.044371152413682884,-0.11471771767129077,0.0012162276416243186,1.2758040264428578,8.144362720535199,1.3562352708958691
1731474162.970591,-0.3273898661136627,0.5379171371459961,-10.020581245422363,-0.04411071311651127,-0.11412155748362976,0.0012214777120136988,1.274331337842046,8.142759728179987,1.359740067041741
1731474163.0204976,-0.3707225024700165,0.505232036113739,-9.976547241210938,-0.04363157660403558,-0.11343398169915407,0.0012347527544795528,1.2727743636761526,8.14089846616632,1.3631852048947788
1731474163.070438,-0.3476724922657013,0.5362069010734558,-9.949875831604004,-0.042933598270342495,-0.11265843125491998,0.0012560542579957493,1.271116227792253,8.138763986474306,1.3666193693940554
1731474163.1203568,-0.3835640251636505,0.5246970653533936,-9.991329193115234,-0.04201894275099408,-0.11179914299396504,0.0012853678141247428,1.271316108988211,8.117739548580976,1.3605141536054581
1731474163.1703653,-0.3614824414253235,0.5287243723869324,-9.99287223815918,-0.040891744077247626,-0.11086106396608558,0.0013227754995955724,1.2696240294403676,8.115011449569588,1.363928875022249
1731474163.2202575,-0.377625972032547,0.5039097666740417,-9.963214874267578,-0.03955781272101037,-0.10984975537905946,0.0013683680582756404,1.2684844731768863,8.092614665310268,1.3578810657796838
1731474163.2702463,-0.377625972032547,0.5039097666740417,-9.963214874267578,-0.038024403714161804,-0.10877120836201783,0.0014222103092101375,1.2666352942616168,8.08930069786845,1.3612732967909438
1731474163.2702463,-0.3766827881336212,0.5053097605705261,-10.006082534790039,-0.03630000918602796,-0.10763163250971422,0.0014844172737338542,1.2666237818610344,8.089279755092479,1.361293892845319
1731474163.3201778,-0.37935033440589905,0.516689121723175,-9.970401763916016,-0.034394166985540355,-0.10643732913012492,0.0015551225988582706,1.2654547736205473,8.065623308934468,1.3552966823030246
1731474163.3702471,-0.40080633759498596,0.4964871406555176,-10.002296447753906,-0.032317281544830344,-0.10519465799177717,0.0016343632699565625,1.2634746860389858,8.061741095479103,1.3586614900957217
1731474163.4201424,-0.38300633430480957,0.5083088278770447,-10.015450477600098,-0.030080423923471104,-0.10391000177959615,0.001721999524635048,1.2614232823820983,8.057610707674478,1.362019251394592
1731474163.470025,-0.38300633430480957,0.5083088278770447,-10.015450477600098,-0.027695161563221896,-0.10258970387662496,0.0018176076610775787,1.2618659603767712,8.033655610010669,1.3559446857987525
1731474163.470025,-0.443865567445755,0.4779611825942993,-10.014248847961426,-0.025173425392593207,-0.10124001120565942,0.001920369753490043,1.2618528154731639,8.033624796655497,1.355967242729588
1731474163.5200374,-0.443865567445755,0.4779611825942993,-10.014248847961426,-0.02252725185094895,-0.09986696486156077,0.0020290660152537435,1.259895685184022,8.028978600430086,1.3592801714691234
1731474163.5200374,-0.3783123791217804,0.5307408571243286,-9.943964958190918,-0.019768478304373976,-0.09847628579010466,0.0021422032419891827,1.259883894385525,8.02895026700095,1.359299864320331
1731474163.569949,-0.4149475693702698,0.529784619808197,-9.995633125305176,-0.01690871886720014,-0.09707346389932003,0.0022582806107458797,1.260185547249609,8.004476764764716,1.3532822105458435
1731474163.6199312,-0.4006003737449646,0.5575022101402283,-9.984058380126953,-0.013959537253987162,-0.0956640324216567,0.002376010340714779,1.2599286405523076,7.98003264500725,1.3474901418405447
1731474163.6698508,-0.4396592080593109,0.5405032634735107,-9.956144332885742,-0.010932463235884817,-0.09425378721075055,0.0024943391343353136,1.2581946109862923,7.97458203971615,1.3507642618631917
1731474163.719805,-0.4295702874660492,0.5543187260627747,-9.9859037399292,-0.007838820112333103,-0.09284884212533712,0.002612436833319901,1.2564325694812706,7.968883087480122,1.3540533242658568
1731474163.7697442,-0.42668965458869934,0.5741111636161804,-9.961564064025879,-0.004689548831584982,-0.09145559834843356,0.002729731708099015,1.2546623333522886,7.9629786453745,1.35733520323477
1731474163.8196783,-0.4360142648220062,0.5671287775039673,-9.956544876098633,-0.0014951397515849624,-0.09008073956115861,0.0028459193150108726,1.2559067543383649,7.9375807720970135,1.3513431816868515
1731474163.8696399,-0.4315682351589203,0.557338535785675,-9.982433319091797,0.001734366969805013,-0.08873122429645558,0.0029609688049591952,1.2543528851087857,7.931185902838446,1.3546092941512995
1731474163.9195507,-0.42473089694976807,0.5397765636444092,-10.009066581726074,0.0049893768389991135,-0.08741415944512358,0.0030750516971950193,1.2528052307368744,7.9245618280650145,1.3578875607106895
1731474163.9695463,-0.42673540115356445,0.5290296673774719,-9.97465991973877,0.008260712455721212,-0.08613655870479045,0.0031883436151696207,1.2540042468508774,7.89843190910922,1.3518311017919509
1731474164.0205133,-0.41879597306251526,0.5388911366462708,-9.974834442138672,0.011539560753548669,-0.08490510104708056,0.0033009117560637903,1.2526349443822211,7.891184606783451,1.3551626565585113
1731474164.070491,-0.38974595069885254,0.5596628785133362,-10.005626678466797,0.014817400836037846,-0.08372601541899277,0.0034127675108911286,1.25133344844717,7.883908466187818,1.3584183039233035
1731474164.1204576,-0.38974595069885254,0.5596628785133362,-10.005626678466797,0.018085870433931346,-0.08260513313534185,0.003523861704919362,1.252449957106674,7.857124752572187,1.3523158496275143
1731474164.1204576,-0.38453778624534607,0.5208667516708374,-9.979079246520996,0.02133661380006817,-0.08154796241758737,0.00363398135457025,1.2524428062792081,7.857075869137161,1.352336593257301
1731474164.1704335,-0.3518224358558655,0.524154782295227,-9.996140480041504,0.024561186058123963,-0.08055959556476537,0.0037427453030899295,1.2529737885315746,7.829932456677152,1.3464007764757109
1731474164.2203336,-0.34355854988098145,0.5191760063171387,-10.006608963012695,0.027750958890522044,-0.07964450109371307,0.0038496782667644487,1.2520406277102063,7.821972502865732,1.3496171304025233
1731474164.270315,-0.3270731568336487,0.5440074801445007,-9.949302673339844,0.030896987852735123,-0.07880641711836134,0.003954247687239486,1.2522161529160956,7.794350253784665,1.3437782038452588
1731474164.3202639,-0.3096349239349365,0.5479848384857178,-10.00139331817627,0.03398990733701755,-0.07804842667429793,0.004055943995789272,1.2514663983643373,7.785951333820493,1.3469847802288153
1731474164.3701947,-0.3083556592464447,0.5252760648727417,-10.021833419799805,0.03701988271469834,-0.07737309651455353,0.004154333933070675,1.2508088326397155,7.777403312530046,1.3501847302060208
1731474164.4201214,-0.32990550994873047,0.5256478190422058,-9.975671768188477,0.03997664792927837,-0.07678251057906252,0.0042489385118719206,1.250244967301944,7.768633968304406,1.353406095756812
1731474164.4701505,-0.3092363774776459,0.5399481058120728,-9.969268798828125,0.0428496700850817,-0.07627820525697658,0.004339172344296524,1.25129036399405,7.740493124054349,1.347403134170635
1731474164.520042,-0.2887982428073883,0.5596032738685608,-9.972800254821777,0.04562832845824939,-0.07586118360914554,0.004424516539449015,1.2509998087584449,7.731320656271363,1.350607356888729
1731474164.5699935,-0.3595009446144104,0.7189980745315552,-9.982955932617188,0.048302026699989155,-0.07553221092743226,0.004504676792261863,1.2510308407096524,7.702759450229706,1.344669736463237
1731474164.6199439,-0.6427477598190308,1.415651559829712,-9.925313949584961,0.05086068398866512,-0.0752931513055802,0.0045796155548240205,1.2509182996295127,7.693165243362402,1.3478658319353283
1731474164.6699345,-0.6165494918823242,0.5551245808601379,-9.866538047790527,0.053296093148406276,-0.07514940294036765,0.004649713860159751,1.2509359360449686,7.683392935757202,1.351070200155812
1731474164.719879,-1.4786083698272705,0.4926488995552063,-10.089213371276855,0.055604216443912294,-0.07511044118598777,0.0047159873612831835,1.251300329992345,7.654583490077951,1.345101353950227
1731474164.7698503,-0.5003513693809509,0.51936936378479,-9.853687286376953,0.057787803705534636,-0.0751868329607064,0.004779905404916823,1.2515537279549807,7.644421563284154,1.3482886698769971
1731474164.8198128,0.04512631148099899,0.05102386325597763,-10.057523727416992,0.059856174002142014,-0.07538674652147795,0.0048430308772971255,1.2510734261424876,7.615335153322777,1.342386937324803
1731474164.869673,0.020476045086979866,0.24266284704208374,-10.213884353637695,0.061820007857548535,-0.07571377601772461,0.0049066357942331735,1.2514803056432553,7.60478539994996,1.3455578804598474
1731474164.9197352,-0.06659018248319626,0.2546806335449219,-9.995284080505371,0.06368552916800219,-0.07616572638123403,0.004970910714154547,1.2509633337789174,7.575386805076129,1.3397471192635775
1731474164.9696233,-0.22866807878017426,0.2495405673980713,-9.991610527038574,0.06545288720292759,-0.07673484981967615,0.005034549942339249,1.2515329185877495,7.564434701897339,1.3429060527061953
1731474165.0195842,-0.17199070751667023,0.28089892864227295,-9.977840423583984,0.06711770604108855,-0.07740904664320329,0.0050954523621725605,1.2522718831758657,7.553223030570937,1.346096890761943
1731474165.0705101,-0.17834487557411194,0.4154818058013916,-9.964560508728027,0.06867286967554392,-0.07817302144181758,0.005151594484317035,1.2517759481310742,7.523423689921502,1.3402762892111864
1731474165.1204085,-0.16542883217334747,0.4964807629585266,-9.969206809997559,0.07010943134123226,-0.07900960711806948,0.005201372608679549,1.2527030779068784,7.511812587305918,1.343451189517708
1731474165.1703877,-0.23587629199028015,0.5165247917175293,-9.943984985351562,0.0714170409115209,-0.07990134496874347,0.005243692047189236,1.2520500642847197,7.481791605990729,1.3376573326835426
1731474165.220306,-0.22092512249946594,0.4952094256877899,-9.973434448242188,0.07258448145934841,-0.08083169708210919,0.005278006298505369,1.253148810788269,7.46975296833945,1.340823337091264
1731474165.2703137,-0.2323492467403412,0.5198451280593872,-9.967941284179688,0.07360029719652535,-0.08178553725288325,0.005304275132997624,1.2544284891716726,7.457528172922225,1.343998126758375
1731474165.3203123,-0.25136658549308777,0.5174309611320496,-9.953958511352539,0.07445326160200458,-0.0827492095722249,0.00532285274137408,1.2558949184325738,7.44508141282004,1.3471904378310295
1731474165.37022,-0.22930991649627686,0.5732638835906982,-9.989588737487793,0.07513268131807385,-0.0837105675563859,0.005334392598988405,1.257548598135058,7.43242523331494,1.3503963883237733
1731474165.4201612,-0.27895158529281616,0.5520592331886292,-10.02342414855957,0.07562863208536678,-0.0846591184351831,0.005339708360213902,1.2554283952016154,7.40182280132055,1.3443155651425993
1731474165.4701998,-0.257144570350647,0.5125899314880371,-9.987648010253906,0.0759321810870731,-0.08558609662587977,0.005339516933556295,1.2542983044728195,7.370656940597582,1.3384529308577258
1731474165.520094,-0.27159884572029114,0.5109673142433167,-10.002777099609375,0.07603559309010356,-0.08648424863973793,0.005334264740824497,1.2559619015709609,7.357285808052937,1.3416321321713294
1731474165.5700138,-0.2805241048336029,0.5076335072517395,-10.030702590942383,0.07593245918134993,-0.08734744834629758,0.00532412607840824,1.257800326396904,7.343808669775421,1.34479850109804
1731474165.6199641,-0.29612553119659424,0.549163281917572,-9.971040725708008,0.07561778586969142,-0.08817046422982958,0.005309015070230034,1.2598484314536817,7.329968173405878,1.3480118370406002
1731474165.6699429,-0.11691132932901382,0.7504041194915771,-9.982314109802246,0.07508794474838547,-0.0889491697873532,0.005288660748555474,1.2620612899686248,7.316058325035838,1.3512033985391616
1731474165.7198658,0.6160908341407776,1.6543776988983154,-9.985828399658203,0.07433946940075994,-0.0896821867992478,0.0052628057264155585,1.2587409900312194,7.2838953303517515,1.3450582313750632
1731474165.7698388,0.2742922902107239,1.1484307050704956,-9.935419082641602,0.07336598190841633,-0.09037452733004689,0.005231372062773548,1.2609250602413697,7.269470659144729,1.3482488620532467
