Timestamp,IMU_Linear_Acc_X,IMU_Linear_Acc_Y,IMU_Linear_Acc_Z,Filtered_X,Filtered_Y,Filtered_Z,Pose_X,Pose_Y,Pose_Z
1731474136.25901,-0.34130141139030457,0.4240894317626953,-9.983531951904297,-2.635860978351382e-05,-0.0001454826207717232,6.952735655833342e-05,1.837090675347057,5.411195958899945,0.3000555214325695
1731474136.3090398,-0.34130141139030457,0.4240894317626953,-9.983531951904297,-3.1565891257494944e-05,-0.00018707717158700395,8.967119383159356e-05,1.8372418898108451,5.411973305408286,0.30009873857039837
1731474136.3588867,-0.27416113018989563,0.43637028336524963,-9.988398551940918,-4.351364403779929e-05,-0.00028946670846314784,0.00014097145319422563,1.946658191333511,5.412593567519288,0.3001574428193016
1731474136.408835,-0.27416113018989563,0.43637028336524963,-9.988398551940918,-5.0881635060153895e-05,-0.00035005993400702754,0.0001725991985295699,1.9467478779535816,5.4130960691166505,0.30018538087254665
1731474136.408835,-0.46316227316856384,0.3740302622318268,-9.99268913269043,-6.028510691689122e-05,-0.00041668180038257317,0.0002084098304147006,1.9467863211936625,5.413311461208791,0.3001973562557532
1731474136.4588637,-0.7430660724639893,0.23497319221496582,-10.004386901855469,-7.234138486466456e-05,-0.0004887983500545852,0.0002484294004957593,1.949366241398064,5.427766377909783,0.30100107113323915
1731474136.5088224,-0.1835746020078659,0.5284029841423035,-9.957141876220703,-8.591298141021914e-05,-0.0005650280385968516,0.0002925698167797129,1.956210224671341,5.466112074462159,0.30313368307733685
1731474136.5587819,-0.32869449257850647,0.37620213627815247,-10.047292709350586,-9.807826944222613e-05,-0.0006432274919120837,0.0003406544754620984,1.9630632121992908,5.504507998451281,0.305269964654818
1731474136.6086814,-0.3212164640426636,0.5026140809059143,-9.98022747039795,-0.00010576333676651502,-0.0007212232712338986,0.0003923758741900058,2.0616517134915755,5.542815278648297,0.30743133846025655
1731474136.6586556,-0.3097893297672272,0.373074471950531,-9.942727088928223,-0.00010681895184712174,-0.0007972888490665086,0.0004472643142558849,2.0678889605450954,5.581162932622053,0.30956723701467564
1731474136.7085814,-0.3097893297672272,0.373074471950531,-9.942727088928223,-9.997297883975896e-05,-0.0008700304664222443,0.0005049302959231425,2.1382540719932632,5.6194592507901735,0.31173238407349396
1731474136.7085814,-0.36415764689445496,0.45885133743286133,-10.01577377319336,-8.462692966178686e-05,-0.0009380508395916245,0.0005653512088245155,2.1383042845469276,5.619799512188118,0.31175135557056405
1731474136.7586725,-0.3174515664577484,0.43460458517074585,-9.97563648223877,-6.066073958712484e-05,-0.0009999029360870707,0.000628782136078788,2.143935804578992,5.65796032982482,0.31387989049728415
1731474136.808501,-0.3174515664577484,0.43460458517074585,-9.97563648223877,-2.8252173425735476e-05,-0.0010543766590566865,0.0006954921929570965,2.1981100564558407,5.696154461010682,0.3160454713670977
1731474136.808501,-0.37348827719688416,0.42250683903694153,-9.971975326538086,1.2159001709429605e-05,-0.0011006478627948383,0.0007657134055031615,2.1981512285431504,5.696466861606568,0.31606292088364285
1731474136.858473,-0.3333224654197693,0.4560640752315521,-10.020543098449707,5.995707629889622e-05,-0.0011382106212394112,0.0008396885950823504,2.2031735551024285,5.734572687478286,0.3181924910315129
1731474136.9084017,-0.3716474175453186,0.4254069924354553,-9.993083000183105,0.00011452972337977073,-0.001166845768054446,0.000917569466657448,2.2462117582750314,5.774104293019036,0.32044043114660153
1731474136.9583972,-0.30855798721313477,0.4505065679550171,-9.975634574890137,0.00017533609439778045,-0.0011866347209560269,0.0009992908698277139,2.250651143477207,5.811272778747653,0.3225227321526908
1731474137.0092394,-0.33945232629776,0.44332513213157654,-10.006049156188965,0.00024181166528548852,-0.0011979460652488136,0.001084613172037601,2.2825771623451736,5.850199891583621,0.3247451103556282
1731474137.0592687,-0.30693483352661133,0.45724576711654663,-9.974886894226074,0.0003132177641940368,-0.0012014343528673616,0.0011732160694184366,2.2866551348237123,5.888630390094181,0.3269043057476417
1731474137.1091747,-0.3404017686843872,0.42924872040748596,-9.97957992553711,0.0003885604516007691,-0.00119804218801732,0.0012647427003599585,2.3115396144495386,5.926964615601481,0.3291029527335653
1731474137.159192,-0.33027854561805725,0.4503231644630432,-9.993732452392578,0.0004666280901729826,-0.0011889393313293008,0.0013588512701590769,2.3152062163356004,5.965286971875077,0.33126322797583213
1731474137.2090607,-0.3312438130378723,0.4298307001590729,-9.984983444213867,0.0005460920970739321,-0.0011754275438748828,0.0014552304232924216,2.318889778263632,6.003770312135073,0.3334362828789531
1731474137.2591295,-0.32849225401878357,0.44427555799484253,-9.991825103759766,0.0006255763024135053,-0.0011588723964677775,0.0015535558348104548,2.3387060934039456,6.04196162890995,0.3356433304032631
1731474137.308942,-0.3466336131095886,0.43178790807724,-9.988767623901367,0.0007036850001175215,-0.0011406598573838664,0.001653463804389369,2.3420203677332654,6.080177754622931,0.3378099785430517
1731474137.3589773,-0.3226473927497864,0.4400995373725891,-9.986501693725586,0.0007790457076930592,-0.0011221633615302853,0.0017545541419260232,2.357310986500445,6.118583898772415,0.34004204806395816
1731474137.4088914,-0.3401765823364258,0.42628738284111023,-10.006254196166992,0.0008503411422033456,-0.0011047131199486476,0.001856388557395907,2.360297090476713,6.1568393204594045,0.34222071341420707
1731474137.4588525,-0.32638588547706604,0.4399968981742859,-9.992179870605469,0.0009163022165600992,-0.00108956175080754,0.0019584585634658085,2.372198804147349,6.19521385920633,0.34446541288687865
1731474137.50879,-0.3352645933628082,0.4304140508174896,-9.980989456176758,0.00097570130883103,-0.0010778645620696066,0.002060165714472809,2.3748887463338217,6.233654222588113,0.3466655716657626
1731474137.5588923,-0.33292460441589355,0.43939563632011414,-9.997173309326172,0.0010273607610663585,-0.001070683788991394,0.002160873837206131,2.377570760697838,6.271942813768344,0.3488624756669842
1731474137.6086698,-0.3363683819770813,0.4308415949344635,-9.980420112609863,0.0010701721082440486,-0.0010689970648532687,0.0022599716482806396,2.3871613385821204,6.310373537478574,0.3511343135414238
1731474137.6586838,-0.3302421271800995,0.4421899914741516,-9.979595184326172,0.0011031173704083136,-0.0010737009417522139,0.002356902484737807,2.389570243408894,6.348334196483163,0.35332484244022505
1731474137.7086177,-0.3302421271800995,0.4421899914741516,-9.979595184326172,0.0011252690967961227,-0.0010856268375517126,0.0024512078269263264,2.3965117277522543,6.386581532651709,0.35560404024214876
1731474137.7086177,-0.3371421694755554,0.43059173226356506,-9.996553421020508,0.0011357773335184153,-0.001105564513048469,0.0025425530536261004,2.3966121926835626,6.3883783956496565,0.3557082207323383
1731474137.758543,-0.3371421694755554,0.43059173226356506,-9.996553421020508,0.0011338807151973023,-0.0011342452550855133,0.002630670222047938,2.398656085299823,6.424908846272791,0.35782943398505296
1731474137.758543,-0.3301190137863159,0.4375700056552887,-9.977168083190918,0.0011189349323093816,-0.0011722902883701382,0.002715278575063432,2.398670904984578,6.425173540663485,0.3578448263678285
1731474137.8085432,-0.34019094705581665,0.43010377883911133,-9.982741355895996,0.0010904192545669815,-0.001220190585107782,0.0027960944339793297,2.4008013418696845,6.463199597564049,0.3600596553206972
1731474137.8584952,-0.33192288875579834,0.43809831142425537,-9.991263389587402,0.0010479295663833683,-0.0012783217450693862,0.0028728977142314137,2.4029591525438945,6.501663283384346,0.3623072623337715
1731474137.9083514,-0.34595686197280884,0.4304082989692688,-9.981121063232422,0.0009911863217561536,-0.0013469567598535666,0.0029455443109236033,2.407976422882369,6.540487615477449,0.36466170020173144
1731474137.9583144,-0.3420066237449646,0.443705290555954,-9.989968299865723,0.0009200604039473811,-0.0014262779707258743,0.003013937668504964,2.409761518368695,6.577953320860577,0.36686707485610026
1731474138.0092392,-0.34163692593574524,0.42966023087501526,-9.989768028259277,0.0008346017838137187,-0.001516396947898456,0.003078011673595772,2.412807975890308,6.6169538608162926,0.3692536738429207
1731474138.0592258,-0.33824580907821655,0.44014066457748413,-9.97556209564209,0.0007350387182786521,-0.001617366428641527,0.0031377230281374544,2.414305038662121,6.655236350974472,0.3715243749090506
1731474138.1091983,-0.341629296541214,0.4363786280155182,-9.98953914642334,0.0006217449109832958,-0.0017291802561595745,0.0031930668988885756,2.4158065651814304,6.693585319354893,0.37380720109759247
1731474138.1591976,-0.3402191698551178,0.43175989389419556,-9.978646278381348,0.0004952103230306087,-0.001851774739200126,0.003244101810753911,2.4173069126936446,6.7318640041259235,0.37609416325240164
1731474138.209059,-0.3476492762565613,0.432100772857666,-9.985774040222168,0.0003560344927167324,-0.0019850185600384495,0.003290949751597923,2.4188030363667643,6.770003143535141,0.3783811986756406
1731474138.2590916,-0.33999305963516235,0.4344528317451477,-9.983550071716309,0.00020493337681699343,-0.002128690817213831,0.003333784484969642,2.420103140794121,6.808365810012623,0.3807905963135928
1731474138.3088815,-0.33999305963516235,0.4344528317451477,-9.983550071716309,4.273267259692962e-05,-0.002282479435450237,0.003372819483716182,2.4213361146361367,6.846392214369821,0.3830897224515594
1731474138.3088815,-0.34422069787979126,0.4327370822429657,-9.9750337600708,-0.00012966205266888586,-0.0024459988613820365,0.0034083047928002087,2.4213445415981,6.846652081779894,0.38310546420161096
1731474138.3589008,-0.3437175154685974,0.44072937965393066,-9.988846778869629,-0.00031128611842626177,-0.0026188076165645923,0.003440539802323772,2.4225763766831396,6.884647557535028,0.3854115487868992
1731474138.4087975,-0.34332624077796936,0.4315757751464844,-9.98684024810791,-0.0005011146410678792,-0.002800427583900665,0.00346986364312931,2.4224854884555724,7.232741259621189,0.3878636252806308
1731474138.458818,-0.33988749980926514,0.436118483543396,-9.992659568786621,-0.000698068585978372,-0.0029903557102007538,0.0034966044553456847,2.423438378183829,7.272897990884817,0.3902074308311989
1731474138.5087607,-0.3460216820240021,0.428290456533432,-9.99396800994873,-0.0009010360388416615,-0.003188053438330555,0.0035210249295587496,2.4243877079509355,7.312981182686654,0.39255616440825764
1731474138.5588555,-0.32766076922416687,0.4385663866996765,-9.993430137634277,-0.0011088990975664514,-0.003392931116232395,0.003543289243871684,2.4237990804172824,7.538451178167757,0.3950358416528604
1731474138.6086557,-0.3306537866592407,0.4353063106536865,-9.987985610961914,-0.001320585438786309,-0.003604355659292318,0.0035634575884654776,2.4245211750146463,7.580079851498797,0.3974337529615933
1731474138.6586676,-0.3333236277103424,0.4373985528945923,-9.995209693908691,-0.0015351360225539887,-0.0038216794588758238,0.0035815081614942977,2.423879774577605,7.73912882097799,0.39991862665466466
1731474138.7086084,-0.3319365978240967,0.4339129328727722,-9.97912311553955,-0.001751730809492639,-0.004044260584506132,0.003597369425689466,2.4232410597758065,7.863878132357605,0.4024447095397272
1731474138.758562,-0.333381712436676,0.4398839473724365,-9.9823637008667,-0.0019696683871266232,-0.00427146507904341,0.0036109655662698763,2.4235861361515063,7.905698003785985,0.4048295670058936
1731474138.8085184,-0.3302189111709595,0.438150554895401,-9.991358757019043,-0.002188345439341544,-0.004502673181406623,0.003622265106258642,2.423928727256179,7.947834581804118,0.4072421343938402
1731474138.8586066,-0.3308621346950531,0.44120118021965027,-9.983616828918457,-0.00240725121979349,-0.004737297090166898,0.003631284232958047,2.4242662162171977,7.9900421101668035,0.40966854083725834
1731474138.8586066,-0.3308621346950531,0.44120118021965027,-9.983616828918457,-0.002625967240439961,-0.004974797836675355,0.003638062723146103,2.4236778247230477,8.045617959271707,0.41058196735838104
1731474139.2399957,-0.3376094102859497,0.43933042883872986,-9.987139701843262,-0.0028441558820897998,-0.005214693236468833,0.003642664429000412,2.423824489205095,8.412059165540454,0.42894013029800665
1731474139.2900891,-0.3423849642276764,0.43753117322921753,-9.985186576843262,-0.003061521404470402,-0.005456551360753894,0.0036451828968669378,2.423921227588877,8.454228449878798,0.4314532962131927
1731474139.3398674,-0.34360605478286743,0.4366273581981659,-9.992426872253418,-0.003277749335260048,-0.00569996892160779,0.0036457253928543713,2.4231085313023413,8.484294334561861,0.43415439260176647
1731474139.389985,-0.3389294445514679,0.4368346929550171,-9.979833602905273,-0.003492460496873625,-0.0059445479335621535,0.003644393830198961,2.4231344961080534,8.52617214343915,0.4366888258696904
1731474139.4397805,-0.3331068754196167,0.42958614230155945,-9.990646362304688,-0.0037052154350305584,-0.006189876758520664,0.0036412858224607564,2.4231515714293965,8.568592136252263,0.4392663605296767
1731474139.4898527,-0.335146963596344,0.4248596131801605,-9.98840618133545,-0.003915562586572246,-0.006435499158766065,0.003636502006465556,2.423158725743725,8.60955155782507,0.4417650111999831
1731474139.539713,-0.3328384459018707,0.4296468496322632,-9.984148025512695,-0.004123085814102042,-0.006680871055611482,0.0036301377502229275,2.422342258268895,8.625313017999746,0.4445331389221258
1731474139.5897124,-0.3308675289154053,0.4361976087093353,-9.986226081848145,-0.004327426951209406,-0.006925348798183379,0.003622281774667531,2.4212017941082635,8.643458464780567,0.4473587566083329
1731474139.639718,-0.3300713300704956,0.44613346457481384,-9.986385345458984,-0.004528298430531205,-0.007168243837593282,0.003613030746770031,2.4210604090589762,8.684098115687672,0.44991780758959454
1731474139.6895943,-0.3355879783630371,0.4400116503238678,-9.9830961227417,-0.004725490210729567,-0.007408913793365831,0.003602496346704839,2.420906707835492,8.724957118036553,0.45250076936018935
1731474139.7396622,-0.3371192514896393,0.4425605237483978,-9.980547904968262,-0.004918852143048636,-0.007646822789822979,0.0035908121489569953,2.420739346649477,8.766189494923463,0.455117623411835
1731474139.789675,-0.33719924092292786,0.4419511556625366,-9.980554580688477,-0.0051082554942667325,-0.007881547224076182,0.0035781539691744297,2.420562154807525,8.80676223919871,0.4577027232827039
1731474139.8395355,-0.3354564905166626,0.445912629365921,-9.973817825317383,-0.00529356476381015,-0.00811276442151551,0.0035647635282717045,2.420370607875427,8.847637022731744,0.460317227664717
1731474139.8896139,-0.3405797779560089,0.44538143277168274,-9.989174842834473,-0.005474630845744131,-0.00834025412276275,0.003550958649299974,2.4197182304029194,8.844596068493816,0.46320607410175635
1731474139.9394777,-0.33414551615715027,0.4462050497531891,-9.99086856842041,-0.005651289870398247,-0.008563904836766091,0.003537100185133299,2.4194880319084993,8.885119759064555,0.46585606884961445
1731474139.9894018,-0.3440423011779785,0.44702938199043274,-9.984944343566895,-0.005823360264003746,-0.008783712272187692,0.0035235220069954522,2.4187885497956985,8.881584385280032,0.46875744255185525
1731474140.0392613,-0.32870543003082275,0.43953606486320496,-9.982325553894043,-0.0059906438868564255,-0.008999764556866253,0.0035104964457478524,2.4185151617550247,8.921228430187988,0.4714078083755356
1731474140.089296,-0.34796392917633057,0.4402678906917572,-9.993621826171875,-0.006152934318228442,-0.00921220691036468,0.0034982514866081166,2.4182242470479403,8.96117506186363,0.4740887550933137
1731474140.1402464,-0.33399584889411926,0.432169646024704,-9.98773193359375,-0.006310017422979978,-0.009421188948262996,0.003486973020674358,2.417913388445506,9.00163032397001,0.47681445273940903
1731474140.1902158,-0.339699923992157,0.42898687720298767,-9.98838996887207,-0.0064616633794267525,-0.009626807006274014,0.0034767829768944498,2.417491472177345,8.989837055263559,0.47979219646561727
1731474140.2401154,-0.34191736578941345,0.42445263266563416,-9.988052368164062,-0.006607630209109797,-0.009829046774530021,0.003467738486099516,2.417164039974795,9.029032468914338,0.4824976052847221
1731474140.2900033,-0.32970547676086426,0.4250764548778534,-9.985917091369629,-0.00674767491767775,-0.01002773795055082,0.0034598510657743993,2.416643507323473,9.01795945034133,0.48550370107643065
1731474140.3400288,-0.32910072803497314,0.4251329004764557,-9.99003791809082,-0.006881582566245714,-0.010222538277308043,0.0034531015452322774,2.415910059378106,9.012171413202203,0.4885569883835192
1731474140.3900661,-0.3384392559528351,0.42610400915145874,-9.983735084533691,-0.0070092128068958166,-0.010412948489248548,0.0034474473652035087,2.415499513766215,9.050324418747438,0.49130547392538554
1731474140.439955,-0.3377346694469452,0.435489296913147,-9.978569030761719,-0.007130504343560381,-0.010598352366232489,0.0034428391346485445,2.4150736564397794,9.088225650475056,0.4940463644239111
1731474140.4899478,-0.33423569798469543,0.4322376847267151,-9.991771697998047,-0.007245434135960415,-0.010778078984158628,0.003439249511421808,2.415075028550332,9.079529080946722,0.4971559987990208
1731474140.5398195,-0.3368098735809326,0.4413033127784729,-9.979137420654297,-0.007353994985989597,-0.01095147046294502,0.0034366803536445825,2.4146721374007734,9.116176093950314,0.4998696866866087
1731474140.5896668,-0.32903242111206055,0.43979355692863464,-9.979314804077148,-0.007456206121091413,-0.011117937474112438,0.003435156019201223,2.4142466349637055,9.153199834412007,0.5026217074972785
1731474140.6397073,-0.33598414063453674,0.4474576413631439,-9.982017517089844,-0.007552132230152151,-0.011277004733806618,0.0034347413116754552,2.413798584293518,9.190524891858248,0.5054067952703925
1731474140.6897366,-0.341476172208786,0.44930747151374817,-9.990230560302734,-0.007641883982177429,-0.011428352254739925,0.0034355494230691053,2.4139690772573776,9.17558518455347,0.5085708170833836
1731474140.7397206,-0.3397352695465088,0.44789478182792664,-9.97748851776123,-0.007725582020285185,-0.011571847451722237,0.0034377105828822833,2.4135360539961725,9.21228112390811,0.5113800415512794
1731474140.7895658,-0.3330007493495941,0.44037196040153503,-9.997563362121582,-0.007803321019717793,-0.011707545210606407,0.0034413406861478557,2.41308691295984,9.24867721863346,0.5141770843308665
1731474140.8395772,-0.03880907967686653,0.5903394818305969,-9.978856086730957,-0.007875446761835483,-0.011835775054230616,0.003446522555214274,2.4126145634666902,9.285331333594605,0.5170048615080135
1731474140.8895676,-0.0758434385061264,0.5316457748413086,-10.008713722229004,-0.007943577808819251,-0.011957540334424168,0.003453279563205841,2.4121026670511254,9.264777510328647,0.5202175157618665
1731474140.9393978,0.48951706290245056,0.8079436421394348,-9.981762886047363,-0.00801238106133365,-0.012075223495974868,0.003461540396049908,2.4115830374226412,9.300476254926311,0.5230480863836072
1731474140.9892786,0.7771492004394531,0.6103816628456116,-10.015816688537598,-0.008092206120364284,-0.012193380300368525,0.003471107760431321,2.4107905342727936,9.28308558257083,0.5262995047606789
1731474141.0394018,0.1431780755519867,0.499295175075531,-10.044015884399414,-0.008201734689180866,-0.01231895690526518,0.0034815860238570297,2.410200022885288,9.318536181141228,0.5291859009870825
1731474141.0892773,0.413790225982666,0.48516714572906494,-9.909783363342285,-0.008367987049294697,-0.01246030073489646,0.0034923210817259026,2.409597767065875,9.353424881686747,0.5320377216402119
1731474141.1401522,0.038903508335351944,0.3011943995952606,-9.996171951293945,-0.008623455675927705,-0.012625559052841295,0.0035026017466165335,2.4085670181638914,9.334038737112362,0.5354213963920226
1731474141.1902132,0.22217567265033722,0.33590275049209595,-10.001534461975098,-0.009003082739714102,-0.01282131118977022,0.003511953538281028,2.4078890163240905,9.368270855163779,0.5383000151888395
1731474141.2402446,0.017560504376888275,0.20069876313209534,-9.97430419921875,-0.009542244083580363,-0.013051566464818982,0.0035201055673101437,2.406222109467685,9.346179021240317,0.5416621883655153
1731474141.2901216,-0.7728275656700134,-0.02461777999997139,-9.977519989013672,-0.010274591826365139,-0.01331690618701257,0.003526839767924631,2.405402490256866,9.379688651462304,0.54456700853202
1731474141.3400016,-1.2074174880981445,-0.021463442593812943,-10.009428024291992,-0.011227771594393983,-0.013613395102983105,0.0035319959523828696,2.40411322931058,9.357593724490846,0.547954443641073
1731474141.3900766,-0.23980385065078735,0.27316224575042725,-9.937684059143066,-0.012418330106350486,-0.013931897377272988,0.003535491330667932,2.4031984514734113,9.390388005023258,0.5508861455171696
1731474141.4400213,-0.23980385065078735,0.27316224575042725,-9.937684059143066,-0.013851149956113896,-0.014259102232238422,0.0035374094509590527,2.4022471176377804,9.423279182323428,0.5538385116043876
1731474141.4400213,-0.7082184553146362,0.12128511071205139,-10.163931846618652,-0.015523518340852081,-0.014579568670448184,0.0035380408076821483,2.402242486065651,9.423436341801194,0.5538526475074885
1731474141.4898539,-0.29287877678871155,0.4290388226509094,-9.929959297180176,-0.017427923278368958,-0.014877027126449551,0.003537474991727492,2.402490819754072,9.394235940326901,0.5572598685411836
1731474141.5398967,-0.5628702044487,0.09986446797847748,-10.001678466796875,-0.01955230315745416,-0.015134967739196389,0.0035352519591882363,2.401581035248092,9.426341643336409,0.5602434220081395
1731474141.5897396,-0.3513105511665344,0.46714502573013306,-10.08678913116455,-0.021880498595508488,-0.015337156595474724,0.003530565829564376,2.4006260552176006,9.458181195452894,0.5632145855431006
1731474141.6397777,-0.5107159614562988,0.16161222755908966,-9.946783065795898,-0.024393150176018098,-0.015468061023044,0.003522399424603174,2.3988368512917333,9.4240593753526,0.5667025826676363
1731474141.6896517,-0.4068586826324463,0.43703973293304443,-9.962201118469238,-0.027068338005919644,-0.01551319440191026,0.003509553719722924,2.3976735540036027,9.454908969465727,0.5696915364167701
1731474141.7396317,-0.49801453948020935,0.2526971399784088,-10.004266738891602,-0.02988205193140935,-0.015459384258131415,0.0034909840775367677,2.3964287846248333,9.485985338029414,0.5727150078543894
1731474141.789641,-0.37864023447036743,0.4197238087654114,-9.953781127929688,-0.032808634875267625,-0.015294995840172129,0.0034660309119042072,2.3951179151386133,9.516730245449116,0.5757185883300157
1731474141.8394883,-0.42949461936950684,0.29616859555244446,-9.941106796264648,-0.03582135758902792,-0.015010118116502784,0.003434409898921132,2.3945492514066355,9.475255118328473,0.5792643295239428
1731474141.8893626,-0.41107162833213806,0.3372349739074707,-10.000696182250977,-0.03889305479812159,-0.014596575578792542,0.003396262079231032,2.3912702526087575,9.433453523880136,0.5828173186320009
1731474141.9393225,-0.3805420398712158,0.7001015543937683,-9.957939147949219,-0.041996608879764905,-0.014048087795049896,0.003352128312452958,2.38952425173468,9.462492316347339,0.5858887734166517
1731474141.9893405,-0.4000968039035797,0.667378306388855,-9.877378463745117,-0.045105324417321485,-0.013361347336865902,0.0033028820100652143,2.386456854048271,9.42060241925576,0.5894802188805507
1731474142.0393183,-0.4872780740261078,1.1421082019805908,-9.997286796569824,-0.048193176940201435,-0.012538001873898112,0.003249881386669566,2.3843391988267877,9.448586197162916,0.5925719476041524
1731474142.0892508,-0.4453103244304657,0.9864438772201538,-9.849359512329102,-0.051234740080579544,-0.01158670618407398,0.003195118901225917,2.382105561986455,9.476426606733929,0.5956592493768386
1731474142.139246,-0.5104879140853882,0.7967690229415894,-10.028023719787598,-0.05420496619607076,-0.010524082057414742,0.0031411554919712945,2.381328656514137,9.435250408756973,0.5993133810540436
1731474142.1901712,-0.3782177269458771,0.7711344957351685,-9.996058464050293,-0.05707921177201955,-0.009373523150717789,0.003090829235536069,2.378946410172108,9.46266182309652,0.6024805297011808
1731474142.2401364,-0.4499201774597168,0.7072227597236633,-10.010408401489258,-0.05983362195914354,-0.008162648446864684,0.0030467402748863576,2.378858898968779,9.419585291268067,0.6061368465085214
1731474142.2900872,-0.3696022629737854,0.713841438293457,-10.044113159179688,-0.062445661854504696,-0.0069211963640730765,0.003010833568815586,2.3764692521162005,9.445429991073452,0.6092548772357935
1731474142.3400176,-0.42195576429367065,0.5679761171340942,-9.984193801879883,-0.06489450739751139,-0.005679664290294805,0.002984279959747408,2.373886521642829,9.4716034199264,0.6124220793039548
1731474142.3899982,-0.30900314450263977,0.6061761379241943,-10.027217864990234,-0.06716130638103938,-0.004468134561953177,0.002967546267706813,2.3711948048195373,9.49721693461497,0.6155303930363126
1731474142.4399173,-0.36433690786361694,0.5541598200798035,-9.993165969848633,-0.06922948038722053,-0.0033152428232166124,0.002960555722103497,2.3731971349958827,9.450411882652547,0.6192887811110974
1731474142.4898849,-0.36433690786361694,0.5541598200798035,-9.993165969848633,-0.07108496176585917,-0.0022475327631337107,0.002962841139051353,2.370556669288938,9.475086917021125,0.6224168184526389
1731474142.4898849,-0.3449501693248749,0.5600143671035767,-10.049895286560059,-0.07271615948954893,-0.0012891476186679654,0.0029736360828379427,2.3705399037585217,9.475238556310742,0.6224360661820173
1731474142.5398262,-0.3187732696533203,0.5636372566223145,-10.002037048339844,-0.07411382790563531,-0.0004617224664985967,0.0029918472080247543,2.371462097275464,9.426692810918327,0.6261758056798186
1731474142.5898345,-0.30297085642814636,0.5662887096405029,-10.012564659118652,-0.07527110291711225,0.00021556269122060222,0.00301599975865951,2.3710605258388675,9.380221222505353,0.6299337007334878
1731474142.6396751,-0.3056734502315521,0.5174658894538879,-10.006267547607422,-0.07618361333380967,0.0007259154339399219,0.003044331350606666,2.368301709508734,9.403355715733914,0.6331473973014771
1731474142.689624,-0.32618317008018494,0.5069574117660522,-9.982719421386719,-0.07684945457140074,0.0010550154460069797,0.003074962133795301,2.365386341101781,9.42621492864431,0.6363301305892485
1731474142.7396877,-0.273434042930603,0.514680802822113,-9.964303016662598,-0.07726901194458541,0.0011911961138925016,0.0031060738971288243,2.36223725664934,9.449390228248237,0.6395642510717061
1731474142.7895157,-0.2996521592140198,0.5227103233337402,-9.985552787780762,-0.07744480676761413,0.001125489523073057,0.0031361092792321667,2.3639889815037027,9.400399803761488,0.6433508623412261
1731474142.8395174,-0.3358599841594696,0.5379204750061035,-9.958097457885742,-0.0773813634084635,0.0008514427418991775,0.0031638892230916957,2.3608190120908934,9.422724257695544,0.6466178981954774
1731474142.8894358,-0.336078017950058,0.4931144118309021,-9.98670482635498,-0.07708489099120786,0.00036486469091301637,0.0031886166646789994,2.3576538656787696,9.444526040545288,0.650419949592547
1731474142.939421,-0.33337661623954773,0.5128029584884644,-10.005820274353027,-0.07656285272290958,-0.0003363090393266285,0.003209797975591999,2.3541073466152813,9.466851520676748,0.6537086976609983
1731474142.989331,-0.3498041331768036,0.4721747934818268,-9.94282341003418,-0.07582366458697933,-0.00125203254688849,0.003227118024922629,2.350433828304163,9.488783557452491,0.6569477678125334
1731474143.0392566,-0.32534632086753845,0.5132566094398499,-9.986802101135254,-0.07487653041517525,-0.002380181128283896,0.003240424671737789,2.346556622651994,9.510812414672497,0.6602098155466046
1731474143.0892653,-0.3674081265926361,0.5218324065208435,-10.014200210571289,-0.07373131687777874,-0.0037167185823945084,0.003249770610733556,2.3426140848988184,9.532914184450174,0.6641017383396546
1731474143.1392438,-0.40713658928871155,0.5078936219215393,-9.99518871307373,-0.0723983537688227,-0.005256006338022378,0.00325527464880464,2.3383705034975706,9.554958600487117,0.6673906315728809
1731474143.1901145,-0.3748840391635895,0.5032426118850708,-9.95654582977295,-0.07088809980223286,-0.006991077240384539,0.0032569663034283866,2.3341935493857173,9.577246782695486,0.6713414855752171
1731474143.2401328,-0.41319382190704346,0.513997495174408,-10.000679969787598,-0.06921085944749311,-0.008913767681079111,0.003254864900682754,2.330076435604067,9.599247825055315,0.6752683472536817
1731474143.2901106,-0.4174082279205322,0.5009680390357971,-9.988465309143066,-0.06737665460989674,-0.011014820244041455,0.003249087515978712,2.32534629929273,9.62125604092853,0.678596527567576
1731474143.3401623,-0.4119400978088379,0.5024043917655945,-9.968817710876465,-0.0653951272161021,-0.013284010633438809,0.003239814567707764,2.32043209382447,9.643314466867762,0.6819450640514797
1731474143.3899338,-0.3861069083213806,0.4877097010612488,-9.973749160766602,-0.06327550563480791,-0.015710243646063573,0.0032272883418370184,2.315410297532596,9.665104741409994,0.6852663495329783
1731474143.4400024,-0.3813762664794922,0.4656544327735901,-10.00214672088623,-0.06102674336859665,-0.018281591148985407,0.003211869685857042,2.3106167715165586,9.687067256917327,0.6892492196713006
1731474143.489819,-0.3586125075817108,0.4547431170940399,-9.964475631713867,-0.05865775229068299,-0.020985266500548126,0.0031940043738311313,2.3053167866395987,9.708734319036099,0.6925868685340708
1731474143.5397732,-0.3363964855670929,0.4302753210067749,-9.970362663269043,-0.05617763004081115,-0.02380756203086809,0.0031741834595124616,2.2998072367853344,9.730614774108163,0.6959739922488828
1731474143.5897393,-0.3230259418487549,0.4246014356613159,-10.018203735351562,-0.05359587677574288,-0.026733800749579838,0.0031529643362209854,2.2945718846506042,9.752170411787949,0.6999455885258222
1731474143.6397502,-0.3195480704307556,0.4174511432647705,-9.99730110168457,-0.05092257234836015,-0.029748340767849435,0.0031308800270670647,2.2887951808800446,9.773938363247307,0.7033572553936553
1731474143.6896462,-0.29733991622924805,0.400546669960022,-9.969202995300293,-0.04816846288114196,-0.03283464714992068,0.003108292381478212,2.2829530587226676,9.795411026124233,0.7067425802252372
1731474143.7396011,-0.2849956750869751,0.3818894624710083,-10.001726150512695,-0.045344993878422085,-0.03597538310550443,0.0030854214447162184,2.2773871381546993,9.816868949618923,0.7107623356034379
1731474143.789569,-0.2620607912540436,0.3989132344722748,-10.011852264404297,-0.0424643556967627,-0.03915249118611237,0.0030624223858714025,2.2713119823381867,9.83822140230913,0.7141775343185364
1731474143.8395295,-0.3114404082298279,0.37750130891799927,-9.98075008392334,-0.03953948514338708,-0.0423473288085528,0.0030393298320247493,2.265573027829774,9.859555817162663,0.7182260757448251
1731474143.8895874,-0.29066282510757446,0.38888999819755554,-10.001361846923828,-0.03658389247857653,-0.045540869598041975,0.0030160231204319383,2.259321576461467,9.880659398716986,0.7216554698405214
1731474143.939539,-0.31284046173095703,0.36997202038764954,-10.00731372833252,-0.0336113531255465,-0.04871390012285713,0.002992274369937483,2.2529355423519526,9.901802357231263,0.7251179827427545
1731474143.9893997,-0.27976566553115845,0.3753986358642578,-10.026233673095703,-0.030635658157942038,-0.051847184307643665,0.0029677212576402884,2.2465154030660757,9.922668482540821,0.7285630592268271
1731474144.0392823,-0.2954639196395874,0.3394887149333954,-9.958551406860352,-0.027670504737355904,-0.0549215853356586,0.0029418071930227127,2.240633777766946,9.943306815993363,0.7325947197751563
1731474144.089266,-0.5322554707527161,-0.19363191723823547,-10.011695861816406,-0.024729228722643538,-0.05791763638638811,0.002913872248782178,2.234068735723936,9.963963328827711,0.736069814585069
1731474144.139285,-0.4975226819515228,-0.47324222326278687,-10.109478950500488,-0.021823920447288182,-0.06081347111660559,0.0028831910672724474,2.2280841965480755,9.984504253438358,0.7401368807347778
1731474144.1902807,-0.6517626047134399,-0.1517183631658554,-10.05496883392334,-0.018964170463639258,-0.06358175496918683,0.00284863091234785,2.221307224115752,10.005209770994973,0.7436920258368885
1731474144.2401178,-0.7958483099937439,-0.4603233337402344,-10.047149658203125,-0.016155984628952656,-0.06618830218533982,0.0028082754716900237,2.2153703226159633,10.025263584540218,0.7477344606209999
1731474144.2899477,-0.3774668574333191,0.1904527246952057,-9.920002937316895,-0.013401203063564803,-0.06859331002385857,0.002759607759668453,2.2086721486831156,10.045199226194827,0.7512324408486745
1731474144.3399312,-0.7103548049926758,-0.2533815801143646,-10.023809432983398,-0.010698021819844637,-0.07075395604553802,0.0027001510636453,2.2027409358560672,10.06497875507841,0.7552882236505604
1731474144.389945,-0.5084047317504883,0.20593859255313873,-9.930323600769043,-0.008042159512622955,-0.07262699209198653,0.0026279734788815226,2.195975604094274,10.08465232529459,0.7588199320782472
1731474144.4399543,-0.6116470098495483,0.06604569405317307,-9.929553985595703,-0.005427507681187681,-0.07417066829777713,0.0025418783436713527,2.1901086007481956,10.104065787886345,0.7628741747364499
1731474144.489831,-0.5259138345718384,0.24936124682426453,-9.96333122253418,-0.002846469359117146,-0.07534631034376825,0.0024415343225813258,2.1843266910516044,10.12320209404862,0.7669099187510505
1731474144.5398407,-0.5633005499839783,0.1612505167722702,-9.892698287963867,-0.00029043882983165897,-0.07611959818717878,0.002327547064288815,2.177530639040861,10.142421430164212,0.7704880381412956
1731474144.5897121,-0.5227437615394592,0.1753193736076355,-9.91405963897705,0.0022497443785575236,-0.07646114074841745,0.0022014588789532894,2.1707951035616486,10.161286315022439,0.7740412199204388
1731474144.6397834,-0.530639111995697,0.1455938071012497,-9.948212623596191,0.004783420588776198,-0.07634641496482668,0.002065749661842449,2.164035031563396,10.180053518086916,0.7776173232205448
1731474144.6897333,-0.4877649247646332,0.19532594084739685,-9.93302059173584,0.007319765336011998,-0.07575545562129458,0.0019236716276912174,2.158505901783835,10.198388235766231,0.7816312343656662
1731474144.7396362,-0.4850020408630371,0.15887004137039185,-9.961091995239258,0.009867438806672036,-0.07467265073757405,0.0017789305994469313,2.151822457936477,10.216729501617218,0.7852112068910251
1731474144.7895703,-0.042006008327007294,0.42955347895622253,-9.968608856201172,0.012433868428967548,-0.07308686027082598,0.001635408305504695,2.1451812934705483,10.234847142307899,0.788787622419637
1731474144.8395107,0.20982344448566437,0.5299987196922302,-9.996824264526367,0.01502331735990112,-0.07099220878365756,0.001496910212482833,2.139897442399153,10.2527097372527,0.7927976810170673
1731474144.8894217,-0.2961362600326538,0.27400559186935425,-10.028383255004883,0.017634374248991693,-0.06838919025317479,0.001366872444166558,2.133325121053205,10.270559098722794,0.7964019900141457
1731474144.9395008,-0.2961362600326538,0.27400559186935425,-10.028383255004883,0.020259645805885653,-0.06528459295423955,0.001248055195851822,2.1282834076195116,9.06766874341041,0.8003906502512311
1731474144.9395008,-0.07620701938867569,0.45252323150634766,-9.962984085083008,0.02288793329505299,-0.06169018562725943,0.0011423872438771218,2.128240911552867,9.067699946625071,0.8004143683526521
1731474144.989377,-0.3626199960708618,0.24273060262203217,-10.05359172821045,0.025505964226974005,-0.05762178112011522,0.0010510771655002794,2.1218384786633004,9.07235243979098,0.8040067811343914
1731474145.0394049,-0.1496284306049347,0.48473837971687317,-10.041500091552734,0.028098942754302653,-0.053098962874769326,0.0009747101144624962,2.1170698164824575,8.132826279365531,0.8079827044850656
1731474145.0892012,-0.3409866988658905,0.2217046469449997,-10.007319450378418,0.030651097295018463,-0.048144750410721054,0.0009131482669245315,2.1108599574924782,8.127525184331116,0.811568958177129
1731474145.1393504,-0.3409866988658905,0.2217046469449997,-10.007319450378418,0.033146378038483054,-0.042784888243495155,0.0008655553830657579,2.106407135457448,7.3732556619741745,0.8155233557046017
1731474145.1393504,-0.19522902369499207,0.4383619427680969,-10.02239990234375,0.03556908360690372,-0.03704689245468983,0.0008306380223104888,2.1063673945493457,7.373170243685255,0.8155469186015312
1731474145.1891997,-0.3174585700035095,0.26658883690834045,-9.997493743896484,0.03790408863134173,-0.03095964803813918,0.0008068254719697172,2.1003805856630815,7.360164245329746,0.8191251529537016
1731474145.2401588,-0.2567730247974396,0.41878947615623474,-9.975645065307617,0.04013672854631956,-0.02455359341476428,0.0007923832158440094,2.0943055408647235,7.3466789604094815,0.822817808286437
1731474145.290124,-0.31867489218711853,0.322895348072052,-10.004502296447754,0.04225290794171687,-0.017860707409094748,0.0007855861915058516,2.0884494083768956,7.3333954418719225,0.8264425345931536
1731474145.3400424,-0.2900391221046448,0.4151308536529541,-9.99188232421875,0.04423940081158523,-0.010914287553568595,0.0007848353003639403,2.0847742003826446,6.695995935612285,0.8303197953385568
1731474145.390102,-0.2900391221046448,0.4151308536529541,-9.99188232421875,0.04608404895917209,-0.003748801331109012,0.000788644906087431,2.0791673602532743,6.676412175220694,0.83395518739511
1731474145.390102,-0.331870973110199,0.35072141885757446,-9.961592674255371,0.047775855175784754,0.0036002469264052933,0.0007956521288967439,2.0791261280821467,6.676266613644687,0.8339822093906659
1731474145.4399805,-0.31109046936035156,0.4003080129623413,-9.982954025268555,0.04930509004812388,0.01109663270935339,0.0008047219185238496,2.0759352240751783,6.152526004107724,0.8377986895962323
1731474145.4899025,-0.31109046936035156,0.4003080129623413,-9.982954025268555,0.050663415946957766,0.018703852334007388,0.0008150228449666857,2.0706290669578014,6.128149475809811,0.8414272529497204
1731474145.4899025,-0.3297779858112335,0.40445318818092346,-9.977746963500977,0.051843912679225,0.02638539454564683,0.0008259887188944313,2.070602309008264,6.128025183511773,0.8414457774646136
1731474145.5398126,-0.3312694728374481,0.4171616733074188,-9.975252151489258,0.052841064948331684,0.034104884210838085,0.0008372561452434418,2.0654420382090306,6.103792790041024,0.8450647203382143
1731474145.589731,-0.3365127444267273,0.42672958970069885,-9.98169231414795,0.053650801260873765,0.041826248756125506,0.000848649940137357,2.062917879089101,5.66052205025571,0.848849939623606
1731474145.6397784,-0.6444383859634399,0.252627432346344,-9.986760139465332,0.05427079306314629,0.04951403654732263,0.0008601609796501149,2.058016800808771,5.63222180601787,0.852510578276503
1731474145.6896195,-0.5891392230987549,0.3251998722553253,-9.954066276550293,0.05470142820016917,0.05713412157670098,0.0008719110156587719,2.053294246596869,5.6043018828937345,0.8561413443992597
1731474145.739691,-0.7718563675880432,0.09749940782785416,-9.974160194396973,0.05494714470198185,0.06465468322446058,0.0008841822915421619,2.0486709982342757,5.576308708408039,0.8598037106958446
1731474145.7895942,-0.46285444498062134,0.407083123922348,-9.982929229736328,0.055017060200146434,0.07204695920364027,0.0008974614865918239,2.0471337872421826,5.1955146096233005,0.8635054127918868
1731474145.839546,0.17480438947677612,0.5993920564651489,-9.956948280334473,0.05492363362271491,0.07928493762799055,0.0009123985218408913,2.042839142376094,5.164568233759877,0.8671681728721634
1731474145.8895202,-0.4296962022781372,0.3416212499141693,-10.036373138427734,0.05467929724572886,0.08634386668091215,0.0009297046683494515,2.039228453282616,4.846232428665436,0.8708294069479123
1731474145.9394314,-0.10667605698108673,0.5735830664634705,-9.944799423217773,0.054293899810114774,0.09319914029351486,0.0009500203164948569,2.035190727494299,4.813031309470805,0.8745016691676598
1731474145.9893925,-0.4261827766895294,0.25164923071861267,-9.998679161071777,0.05377488173576627,0.09982647076706438,0.0009738539162898116,2.030225413061623,4.5397986892820175,0.8781126250008353
1731474146.0393891,-0.4261827766895294,0.25164923071861267,-9.998679161071777,0.053128641505852246,0.10620283307479977,0.0010016313158633717,2.0264110340913097,4.5049220290278,0.8817889293963517
1731474146.0393891,-0.1757666915655136,0.5858380794525146,-10.030649185180664,0.05236157898765729,0.11230744092115642,0.001033638967453127,2.0263810218307916,4.504643753927108,0.8818183861008827
1731474146.0892906,-0.36952340602874756,0.26452311873435974,-9.984543800354004,0.0514802312446105,0.11812176689071047,0.0010698537984320784,2.022758884560408,4.470617749332199,0.8854368627633928
1731474146.1392066,-0.2180897742509842,0.5275964140892029,-9.984308242797852,0.05049074916909323,0.1236289169698607,0.0011099325461472163,2.0192255955920535,4.4365403413444495,0.8890953176775315
1731474146.1892066,-0.35027265548706055,0.3020928204059601,-9.998504638671875,0.04939867770334745,0.12881347642380653,0.0011533833266224864,2.0158145414907476,4.402756855045662,0.8927587714708115
1731474146.2392662,-0.24522694945335388,0.4789474606513977,-9.97572135925293,0.04820909153689351,0.13366167429251574,0.0011996992135715554,2.0126124422239147,4.16299810875416,0.8962883657895767
1731474146.2900531,-0.32880857586860657,0.3587845265865326,-9.992473602294922,0.046926718734446975,0.13816145929179208,0.00124839690005892,2.0093875064863056,4.127511964597851,0.9000103817614569
1731474146.3401139,-0.28920209407806396,0.4533703923225403,-9.996732711791992,0.045556045929693485,0.14230249168301012,0.0012990248759319162,2.003693039017883,3.9212375370200108,0.9034873579958451
1731474146.3900425,-0.32036682963371277,0.38436904549598694,-9.975886344909668,0.044101449138739424,0.14607609610587385,0.0013511444764955141,2.000682535154622,3.885538829797922,0.9071533816562412
1731474146.4399643,-0.3222068250179291,0.4288286566734314,-9.992498397827148,0.04256733343136135,0.1494752459420293,0.0014043289383455578,1.9977588399422674,3.8499514365054925,0.9108494926982247
1731474146.4898868,-0.3282969295978546,0.4256960153579712,-9.982223510742188,0.04095825636776391,0.15249455146916702,0.0014581969405243571,1.9949616593561597,3.81501477029477,0.9145205939237717
1731474146.5398424,-0.3282969295978546,0.4256960153579712,-9.982223510742188,0.03927902469120152,0.1551301900986694,0.001512427643025692,1.9902305480073332,3.637749482280266,0.9178754407818455
1731474146.5398424,-0.3342430889606476,0.41899538040161133,-9.977553367614746,0.037534736121028076,0.15737982644612017,0.001566773043320259,1.9902118220602178,3.6375017133146748,0.9179010208612093
1731474146.5898244,-0.3272224962711334,0.4375999867916107,-9.990431785583496,0.035730775063069015,0.15924258693237187,0.0016210763211861813,1.9875977103668305,3.4853592378573044,0.9211814705783766
1731474146.6398294,-0.3272224962711334,0.4375999867916107,-9.990431785583496,0.03387277690095237,0.1607190199619272,0.0016752473001554668,1.9850183466591738,3.449086318963629,0.924893467607499
1731474146.6398294,-0.348007470369339,0.42216381430625916,-9.980985641479492,0.031966582042168755,0.16181101569505857,0.0017292085922133748,1.9849992472842561,3.448814708172819,0.9249214365573332
1731474146.6897447,-0.3311549723148346,0.43346843123435974,-9.981561660766602,0.030018229193682733,0.16252177293597897,0.001782885289682747,1.982546001613116,3.4136028477664153,0.9285700622574138
1731474146.7396312,-0.3635404109954834,0.40990909934043884,-9.988479614257812,0.02803397893749434,0.16285582133533497,0.0018362359592217865,1.9801355560919514,3.378376475543396,0.9322664355392748
1731474146.789546,-0.32311975955963135,0.4552238881587982,-9.978585243225098,0.026020317558709424,0.1628190183087312,0.0018892623691146681,1.9778042288450137,3.3437322088279413,0.9359485863776773
1731474146.8395026,-0.3543110489845276,0.4205108880996704,-9.987153053283691,0.02398390572172404,0.16241846231407728,0.001941999336734996,1.975379507358945,3.214865934283479,0.9391201997002122
1731474146.8894835,-0.33690303564071655,0.44204410910606384,-9.983466148376465,0.021931493598883172,0.1616623723511384,0.0019945091915693964,1.9731353177407558,3.1797942097310408,0.9428605551663045
1731474146.939377,-0.3456494212150574,0.4204249382019043,-9.974058151245117,0.019869861527760786,0.16056002427595195,0.002046881089320076,1.9706510252611955,3.0721468373171312,0.9459292418056704
1731474146.9893372,-0.32335811853408813,0.44455331563949585,-9.994388580322266,0.01780576153690299,0.15912172000258196,0.0020992387138433297,1.9685166397572376,3.037609398553306,0.9496503114341563
1731474147.0392928,-0.3419918715953827,0.4153200089931488,-9.980100631713867,0.0157458200657936,0.15735873366022318,0.002151728844375162,1.966428240622783,3.0035335010327153,0.9533695067888281
1731474147.0892532,-0.33232659101486206,0.44813141226768494,-9.970808982849121,0.013696457682183041,0.15528324616237327,0.0022045024684702193,1.9643757959507715,2.9698350230784114,0.9570955042080985
1731474147.1392598,-0.3414287269115448,0.42118310928344727,-9.989472389221191,0.011663867290625754,0.15290826880465844,0.0022577404252756006,1.9619912772341415,2.879977331718293,0.9600684184825372
1731474147.1892078,-0.32821929454803467,0.43675288558006287,-9.983247756958008,0.00965400859006271,0.15024755784301141,0.0023116673459114886,1.9599960813418675,2.8467386896267346,0.9637936382051119
1731474147.239118,-0.3308393657207489,0.41653814911842346,-9.989508628845215,0.007672572672165677,0.14731555551695213,0.0023665034829221518,1.958020570357669,2.8138390975414835,0.9675281912352423
1731474147.2890556,-0.3233639597892761,0.44228991866111755,-9.99915599822998,0.005724921074430719,0.14412734428006957,0.0024224050428378156,1.9556714275687967,2.7390088896021854,0.9704519968038678
1731474147.34003,-0.3317860960960388,0.42187803983688354,-9.981391906738281,0.0038160344610356895,0.14069856515329043,0.0024794237042562004,1.9536744467874727,2.7058489554474177,0.9742798453594493
1731474147.389953,-0.3199501931667328,0.43816444277763367,-9.984302520751953,0.001950491587368706,0.13704531154168909,0.0025375126610347144,1.9517289677753955,2.6737732343324536,0.9780292816246098
1731474147.4399762,-0.3348630368709564,0.410004585981369,-9.995926856994629,0.00013246790205521768,0.1331840513410295,0.0025965752081525007,1.9497791946016731,2.641922359661652,0.9817984500760127
1731474147.4898822,-0.31965500116348267,0.4335654675960541,-9.987404823303223,-0.0016342559395979273,0.12913158972061717,0.00265647741889045,1.9474113950745293,2.5846962635529227,0.9846002095788678
1731474147.5398347,-0.33629316091537476,0.42236918210983276,-9.98745346069336,-0.0033462789659623677,0.12490502093580208,0.0027170274742078226,1.9454572629298341,2.553575764774295,0.9883590503553198
1731474147.5897639,-0.32917505502700806,0.4344494938850403,-9.999245643615723,-0.005000556569688932,0.12052162840646999,0.002777976288435638,1.94302946056497,2.5067897988865906,0.9911612517814463
1731474147.6397233,-0.3516184091567993,0.42074695229530334,-9.990751266479492,-0.006594350359611788,0.11599877074253728,0.0028390132681205106,1.94104237281062,2.4762865628449,0.9949323482863552
1731474147.6896822,-0.3454195261001587,0.43337929248809814,-9.982441902160645,-0.008125144529034258,0.11135379796088567,0.0028997603721103403,1.9390383033132357,2.4460872146238755,0.9987080297860933
1731474147.739603,-0.3505779504776001,0.42843934893608093,-9.977140426635742,-0.009590564698310898,0.10660397983975348,0.002959824203618351,1.9365345589168643,2.4099387410737902,1.0013341511661071
1731474147.7895708,-0.3442579209804535,0.44717955589294434,-10.014467239379883,-0.010988348663163536,0.10176640918745014,0.0030188528877146364,1.9344693488539957,2.380294544417824,1.0051313150385517
1731474147.839557,-0.2940550446510315,0.5944892764091492,-9.976007461547852,-0.012316418336675267,0.09685773582585587,0.003076500287903422,1.9318605636198625,2.3531362914800384,1.0076932560249678
1731474147.889536,-0.20518560707569122,0.54371577501297,-9.946371078491211,-0.013573180027000418,0.09189356528330918,0.0031324194571549524,1.9297307065233897,2.324267467453409,1.011492241857228
1731474147.939503,-0.43645983934402466,0.24578015506267548,-9.995434761047363,-0.014757894255623832,0.08688812446467797,0.003186407549041274,1.9270285204607367,2.303647467869887,1.013876884505821
1731474147.9893682,-0.2412494719028473,0.5809628963470459,-10.00178050994873,-0.015870589757826736,0.08185489091597142,0.003238469224180675,1.9248337875991715,2.2757119302803464,1.0176567522237523
1731474148.0393229,-0.4226839542388916,0.305077463388443,-9.972904205322266,-0.01691162908279571,0.07680733087705059,0.0032886652508059824,1.9225839416840997,2.2477922825310426,1.0214693373977992
1731474148.0892675,-0.17636924982070923,0.6643232107162476,-9.994385719299316,-0.017881550741323263,0.07175879671101337,0.00333700420226411,1.9202954459772672,2.220115923091256,1.025282226891755
1731474148.1391916,-0.017241640016436577,0.4965020716190338,-10.021503448486328,-0.01878160745941007,0.06672186530763216,0.003383437858104312,1.9173828157195056,2.207438300737708,1.0274737158559177
1731474148.1891968,0.08745230734348297,0.6030604839324951,-10.011589050292969,-0.019615187781433934,0.06170762966794931,0.0034277645556020898,1.9143929827053177,2.1997434977169528,1.0295697521212046
1731474148.2391913,-0.9778934717178345,0.07814757525920868,-9.990920066833496,-0.020388477427995995,0.05672579802808899,0.003469512220925503,1.9119380538085629,2.1731952054206927,1.0334023864548136
1731474148.289004,-0.13256236910820007,0.6477596163749695,-9.916261672973633,-0.02110827300868735,0.05178591913640984,0.003508064002999839,1.9094450408462673,2.1469282347664835,1.0372225754665105
1731474148.3390393,-0.5607509613037109,0.18505153059959412,-10.030675888061523,-0.021779257299844302,0.046898303261992416,0.0035429772034397252,1.906886079786271,2.1206544511085577,1.0410705007986898
1731474148.3899746,-0.24053697288036346,0.6703055500984192,-9.993346214294434,-0.022403852586585365,0.042073768541401976,0.003574071903999214,1.9035929280778654,2.1183209776738248,1.0431004342831813
1731474148.4399455,-0.4149532914161682,0.18424800038337708,-9.922703742980957,-0.02298331835775921,0.037323077005685906,0.0036012628568051833,1.9008992811685181,2.0925428984923404,1.0469758084202125
1731474148.4898977,-0.32263457775115967,0.564312756061554,-10.011099815368652,-0.0235183331010518,0.03265677830129596,0.0036245796524064086,1.8975038159390742,2.0964413025995414,1.0488469819957726
1731474148.539939,-0.4096713662147522,0.33358514308929443,-9.978320121765137,-0.024009171730346453,0.028085265143386964,0.0036442748441816884,1.8946992275528987,2.0714723381494986,1.052708415370827
1731474148.5898108,-0.33266475796699524,0.4822407364845276,-9.983787536621094,-0.02445569701276138,0.02361863904947751,0.0036607127325960437,1.8911379426090382,2.0777349451158824,1.054499112829415
1731474148.6398258,-0.36633315682411194,0.4079146981239319,-10.017582893371582,-0.0248573954563433,0.01926648204887968,0.0036742221645441227,1.888202307738809,2.0533937611814843,1.0583680468116585
1731474148.6896837,-0.37975364923477173,0.41329842805862427,-9.984230041503906,-0.025213513112728243,0.015037763530586869,0.0036850168465403215,1.8845024868861227,2.06148027750313,1.060072527824873
1731474148.7397082,-0.3236582279205322,0.45023560523986816,-9.957239151000977,-0.025523141829368125,0.01094083418398806,0.003693183351326795,1.881433829862156,2.03773500991111,1.0639463845895052
1731474148.7895982,-0.4094269871711731,0.40006208419799805,-10.010847091674805,-0.02578527666734261,0.006983417268955476,0.003698803005969318,1.8775447047784004,2.049263219990054,1.0655736892772625
1731474148.8395123,-0.3341081142425537,0.49790847301483154,-9.974881172180176,-0.025998850034230296,0.003172526158465659,0.003702027764563475,1.8735687870217594,2.059080509335405,1.067180923711435
1731474148.8895173,-0.40162166953086853,0.3858509361743927,-9.979796409606934,-0.026162716586627957,-0.00048566200807274515,0.00370303183730142,1.870292437840007,2.0364744564761494,1.0710530081651464
1731474148.9394271,-0.33520281314849854,0.49349677562713623,-9.995915412902832,-0.02627567076678767,-0.0039858654492922465,0.0037020008156310857,1.866950433373675,2.0138625855828347,1.0749343975737704
1731474148.989394,-0.39363962411880493,0.3769837021827698,-9.9759521484375,-0.026336514492967807,-0.007323652732216832,0.0036991435005999866,1.8635494492475546,1.9912816987417703,1.0788172814238957
1731474149.0393794,-0.32641667127609253,0.49767252802848816,-9.984671592712402,-0.02634413355663636,-0.010495369703008546,0.003694678627073937,1.8592722931024313,2.007508984841517,1.0802222032831
1731474149.0893095,-0.39658495783805847,0.40310895442962646,-9.991823196411133,-0.02629757094351562,-0.013498124245039218,0.00368883921774598,1.8557214749016546,1.9853898123264402,1.0841204655427479
1731474149.139286,-0.31508591771125793,0.49019932746887207,-9.974615097045898,-0.02619608000842543,-0.016329828345393354,0.0036818684949742274,1.8521172770762002,1.9633087851768007,1.0880146427500823
1731474149.1892076,-0.3865351676940918,0.38851404190063477,-9.984769821166992,-0.026039174700349346,-0.018989201632484472,0.0036740169121431444,1.8476235358923196,1.9412860851691374,1.0892453256260266
1731474149.2392628,-0.3284973204135895,0.4553205966949463,-9.989445686340332,-0.025826673507316354,-0.021475659540303598,0.0036655571805050253,1.843867328474591,1.919026935218191,1.0931574853771637
1731474149.2891707,-0.36882221698760986,0.4021817743778229,-9.976908683776855,-0.025558708056513113,-0.023789152354352295,0.0036567732015532666,1.8400616848318718,1.8967981923924502,1.0970635121497136
1731474149.3390863,-0.339903861284256,0.46282950043678284,-9.997218132019043,-0.02523572067461912,-0.025930088907778395,0.0036479358112822763,1.8361910501526248,1.8744974894546642,1.100980399843022
1731474149.3890233,-0.36403632164001465,0.4146801829338074,-9.983406066894531,-0.024858457954082917,-0.027899369024352083,0.003639282707262329,1.83137162474339,1.8521908290373896,1.1019933574410983
1731474149.4399798,-0.36403632164001465,0.4146801829338074,-9.983406066894531,-0.02442792908463548,-0.029698393009210046,0.003631001609565023,1.8272749439540334,1.829230031928592,1.106003154534957
1731474149.4399798,-0.3282560706138611,0.4430561661720276,-9.990992546081543,-0.023945360851383067,-0.03132897845969216,0.0036232413706839993,1.8272479507443455,1.8290796623707226,1.1060294012044498
1731474149.489963,-0.34830936789512634,0.4099680185317993,-9.985173225402832,-0.02341223691571693,-0.0327933035240877,0.003616125218774311,1.8232001267468625,1.8066521825709982,1.1099414471175812
1731474149.5398574,-0.34830936789512634,0.4099680185317993,-9.985173225402832,-0.02283037720068539,-0.034093892595089464,0.0036097452959927973,1.8181716989714278,1.7841775068106105,1.1107820562879953
1731474149.5398574,-0.3367198407649994,0.4484230577945709,-9.979958534240723,-0.022201932577556413,-0.03523356821379916,0.0036041747020322747,1.818150258894184,1.7840607752505209,1.1108022868470682
1731474149.5898209,-0.3511849343776703,0.42940324544906616,-9.9827299118042,-0.02152933359027092,-0.036215476844192476,0.0035994994483189006,1.8139760876727962,1.7614352091525327,1.1147201544066567
1731474149.639785,-0.3449540138244629,0.44740235805511475,-9.993281364440918,-0.02081525210823546,-0.03704320494656696,0.003595828904038667,1.809739124089823,1.7386636058662395,1.118656482162837
1731474149.689714,-0.348348468542099,0.4309273660182953,-9.968509674072266,-0.0200625498399457,-0.03772083242028559,0.0035932785352376364,1.8044874130683402,1.7158534231936708,1.1193447242135937
1731474149.7397473,-0.3465837836265564,0.4344233572483063,-9.99363899230957,-0.019274229613602263,-0.03825289334560607,0.00359197125670969,1.8001223111648887,1.6927936196782647,1.1232983880799483
1731474149.7896135,-0.35121646523475647,0.43669408559799194,-9.989757537841797,-0.018453402959014608,-0.03864430283863127,0.0035920404111225435,1.4950226076054045,1.6698666111919553,1.1238899516075151
1731474149.839714,-0.3436480164527893,0.4485608637332916,-9.986307144165039,-0.01760325971778979,-0.038900310758850774,0.0035935868956339166,1.479771260949861,1.6467133867777346,1.1244912112689525
1731474149.8895714,-0.3596985638141632,0.44395580887794495,-9.989258766174316,-0.016727037901106117,-0.03902651113303535,0.003596644584215297,1.4735260357219317,1.623512715868609,1.1284101410241454
1731474149.9394937,-0.3440133035182953,0.440993994474411,-9.989282608032227,-0.015827987061803345,-0.03902885212850276,0.0036011884842631773,1.4672106532508462,1.6001049701211543,1.1323565708467107
1731474149.9894161,-0.3629949986934662,0.4327376186847687,-9.978323936462402,-0.014909329189375094,-0.03891358426739776,0.003607152759118562,1.4608551985320868,1.5765937665574095,1.1363130130755548
1731474150.0394707,-0.35161831974983215,0.4358040392398834,-9.977865219116211,-0.013974224111811477,-0.038687160286616645,0.0036144689588286484,1.4637269872538055,1.5529039697747495,1.1366892057385203
1731474150.0892787,-0.3588835597038269,0.44195646047592163,-9.983288764953613,-0.0130257375901427,-0.038356151573656495,0.0036231194678763338,1.4584711181250887,1.529580641374904,1.1405806849560753
1731474150.1392915,-0.3525645434856415,0.4376795291900635,-9.988021850585938,-0.01206682658004314,-0.03792721869716839,0.0036331472094774026,1.4530947643925323,1.5057662291390206,1.1445472964772945
1731474150.1892414,-0.3610277473926544,0.4366692900657654,-9.989734649658203,-0.011100339471586687,-0.037407100866411136,0.0036446087166330113,1.4477147681908638,1.4820525378557396,1.144709444448463
1731474150.239233,-0.35390523076057434,0.44004589319229126,-9.980785369873047,-0.010129010444553473,-0.03680258413506816,0.003657527673672694,1.4422781730616832,1.4580309437283436,1.148677397002566
1731474150.2891834,-0.34808841347694397,0.4356316924095154,-9.990507125854492,-0.009155461761927873,-0.03612046277383501,0.0036718908791416,1.4368509572200452,1.434066100128722,1.1526301035806943
1731474150.3391497,-0.3495331108570099,0.4318283796310425,-9.987534523010254,-0.008182237459381675,-0.03536750211364056,0.0036876585110795267,1.4313823073287157,1.4100109656739583,1.1526314180211035
1731474150.3889644,-0.34229859709739685,0.43807172775268555,-9.979005813598633,-0.0072118487875400105,-0.034550392363133814,0.0037047641572156326,1.425924804236372,1.3859168855310533,1.1565739679035372
1731474150.4399717,-0.35194361209869385,0.43843650817871094,-9.987793922424316,-0.006246797855776302,-0.033675717411818386,0.003723130503421598,1.420304049049716,1.361184520707329,1.156573783841821
1731474150.4899325,-0.3497510850429535,0.43838438391685486,-9.9824857711792,-0.005289565760027544,-0.03274995448929627,0.003742692034759739,1.414794939509351,1.3369282095984667,1.1564866393463933
1731474150.5399475,-0.3440338671207428,0.4448617100715637,-9.980924606323242,-0.004342580586348963,-0.031779481459865755,0.0037633994915491887,1.4092573685408543,1.3124242991129493,1.1604409805552534
1731474150.5898569,-0.3435697555541992,0.4436219334602356,-9.993441581726074,-0.0034082082366401183,-0.030770583325292714,0.003785216098316523,1.4037299986546972,1.2879303249325917,1.1643905455045622
1731474150.6397717,-0.3434273302555084,0.4445556402206421,-9.981748580932617,-0.0024887710472250493,-0.029729458393363092,0.0038081002767238383,1.398175612389423,1.2633671421749357,1.1641433102057845
1731474150.6896904,-0.34205594658851624,0.4357181191444397,-9.985618591308594,-0.0015865574794287538,-0.02866220193357475,0.003831987374609851,1.3926677027845955,1.2388674616361781,1.1680672168823927
1731474150.7397027,-0.3368449807167053,0.4365089237689972,-9.985532760620117,-0.0007038195910476303,-0.027574753760995406,0.003856798638268497,1.3870913738734592,1.2141053103622603,1.1677488794972137
1731474150.7896504,-0.3370206654071808,0.44003918766975403,-9.988101959228516,0.00015722055252574674,-0.026472837736702712,0.0038824513226382792,1.3815469423841733,1.1893221153108529,1.1716932917716876
1731474150.839731,-0.34878137707710266,0.4350849390029907,-9.995030403137207,0.0009943716239395057,-0.02536193088321901,0.003908841041549,1.3759812142556882,1.164474628128195,1.171287900510807
1731474150.8894904,-0.34958556294441223,0.43955448269844055,-9.992443084716797,0.0018055208424904426,-0.024247255673376225,0.00393580590755396,1.3704685119926188,1.1396862848978448,1.1752102118969314
1731474150.9395454,-0.33814793825149536,0.4347154200077057,-9.992836952209473,0.0025887031827933247,-0.023133771845275757,0.003963098918860585,1.3649032647203798,1.1145775767867487,1.1791837196574946
1731474150.9894862,-0.3534073531627655,0.43426117300987244,-9.98823356628418,0.0033421272583711798,-0.022026162990821392,0.003990392722164828,1.3593754102037838,1.0895477807844225,1.183145746173521
1731474151.0393903,-0.35689619183540344,0.43784937262535095,-9.982269287109375,0.004064187060568493,-0.02092882116365556,0.004017318213676338,1.3538656279889127,1.064601894683817,1.1824530935727933
1731474151.089344,-0.34376397728919983,0.4424741268157959,-9.984296798706055,0.004753503902467514,-0.019845848756166656,0.0040435205071971065,1.3483616193767205,1.0394847545474293,1.1864088554066012
1731474151.1394033,-0.34501925110816956,0.4349685609340668,-9.980411529541016,0.0054089352137060304,-0.018781083021134563,0.004068705679333157,1.342849068976844,1.014328284229246,1.18565917421332
1731474151.1892505,-0.35001081228256226,0.4367660880088806,-9.98748779296875,0.006029527438463732,-0.0177381064155852,0.004092657581124292,1.3373830962498818,0.9891692558262164,1.189603268894233
1731474151.2393665,-0.35077399015426636,0.4410512447357178,-9.983784675598145,0.006614491710322663,-0.01672023370036776,0.004115225969827051,1.3318877300748935,0.9637587140549699,1.1935903126819525
1731474151.2891529,-0.3346041738986969,0.4414082169532776,-9.978825569152832,0.00716320869064151,-0.015730514845735465,0.004136310591936854,1.3264648641936592,2.2175533653491812,1.1926386602858956
1731474151.339152,-0.3532467186450958,0.44168803095817566,-9.982125282287598,0.00767520548197753,-0.014771760285221779,0.004155868271718147,1.3210268037858,2.205427381909099,1.196606031938323
1731474151.38902,-0.3444956839084625,0.44681721925735474,-9.989038467407227,0.00815013244182612,-0.013846563369120494,0.004173921015093198,1.315639289927053,3.166629616185004,1.1955844052933493
1731474151.4390323,-0.3412024676799774,0.45108357071876526,-9.988518714904785,0.008587772217137078,-0.012957324410818982,0.004190525472452404,1.3102240737298414,3.164361339185178,1.1995607807221251
1731474151.4888942,-0.35135704278945923,0.44728460907936096,-9.988907814025879,0.008988040389261468,-0.012106283504787464,0.004205724457378032,1.3048771844973066,3.9257859502137755,1.1984683875253945
1731474151.5399947,-0.3428148031234741,0.43845781683921814,-9.985496520996094,0.009350978776700321,-0.011295527666448086,0.004219525782209871,1.2994040811844323,3.9312663515864457,1.2025169498829766
1731474151.589838,-0.35130253434181213,0.43799132108688354,-9.989453315734863,0.009676764336903915,-0.010526944170074475,0.004231910344677152,1.2940919519290848,3.9365820625063304,1.206474774537816
1731474151.6397727,-0.34227749705314636,0.4340595602989197,-9.994230270385742,0.009965713422425342,-0.00980215173648322,0.0042428360301429244,1.2888111870072017,4.567438010571086,1.2052202538897028
1731474151.6898038,-0.34227749705314636,0.4340595602989197,-9.994230270385742,0.010218265909725332,-0.009122454658507355,0.004252215813096805,1.2835318688632942,4.5789310468712126,1.2091861725520698
1731474151.6898038,-0.345090389251709,0.4354267120361328,-9.992863655090332,0.01043495545842546,-0.008488828486643651,0.004259890701606728,1.283508479753566,4.578982038007809,1.2092038094063189
1731474151.7628806,-0.3515869379043579,0.4293767511844635,-9.992466926574707,0.010616397774632566,-0.00790192514246285,0.004265627994114898,1.2758771901257693,5.106400223422702,1.209695354247017
1731474151.7896523,-0.3438718020915985,0.40278133749961853,-9.977875709533691,0.010763312138250273,-0.00736205340293958,0.004269153924473816,1.2730482623779333,5.115294711134328,1.2118432498005323
1731474151.839626,-0.3230764865875244,0.15276339650154114,-9.979936599731445,0.010876513738446154,-0.006868859527182008,0.004270222080299801,1.2678957026508368,5.552138290628421,1.2104398257621067
1731474151.8895721,-0.22208143770694733,0.187400683760643,-10.070066452026367,0.010956726099766077,-0.006420380427261308,0.004268606594946387,1.2627388383498466,5.572524267270847,1.2143843715183467
1731474151.939552,-0.3626958727836609,-0.3957504630088806,-10.0033597946167,0.011004233648468666,-0.006011443263859504,0.004263881064675178,1.2575954546088153,5.592949796118675,1.2183502224610636
1731474151.989412,-0.49128592014312744,-0.6028002500534058,-10.101073265075684,0.011018957926148265,-0.0056311795548029675,0.004255127740863701,1.252513993610964,5.968803872247226,1.2167914961137203
1731474152.039409,-0.33004650473594666,0.15001556277275085,-9.991525650024414,0.011001226069258347,-0.005260696748712429,0.004240806638232723,1.2474679528647938,6.286888672496656,1.2152703950021304
1731474152.0893848,-0.42409035563468933,-0.23452405631542206,-9.928579330444336,0.010952337449513242,-0.004873701456836237,0.004218954165605955,1.2423994336876254,6.3134688307743,1.219220958604175
1731474152.139399,-0.3635537326335907,0.16380023956298828,-9.96257495880127,0.010874422400805706,-0.004439720636057723,0.0041877708108064154,1.237360225012046,6.340027068415756,1.2231805356215988
1731474152.1892323,-0.3265819549560547,0.03705446049571037,-9.926668167114258,0.010770100828974206,-0.0039269021427801335,0.004146179351574828,1.2323744212497687,6.366435263698111,1.2271296549978212
1731474152.2392316,-0.34383344650268555,0.2610261142253876,-9.951214790344238,0.010642142579890698,-0.0033038508347410195,0.004093983585008371,1.227389933029951,6.3929691625079395,1.2311092186151924
1731474152.2891235,-0.35642221570014954,0.23940710723400116,-9.95168685913086,0.010493167684683613,-0.002541201820648941,0.004031783524016023,1.2225014734589879,6.677272372006775,1.2291963685772735
1731474152.3392637,-0.3735845685005188,0.305618554353714,-9.976515769958496,0.010325618059754255,-0.0016128532368931666,0.00396079643370275,1.2175490564034346,6.7063323558588195,1.2331847308989505
1731474152.389072,-0.3662432134151459,0.2762035131454468,-9.98367977142334,0.010141919829055048,-0.0004966848161221985,0.003882600556610194,1.212717214672849,6.95197484640797,1.2313170181297575
1731474152.4390504,-0.3853393793106079,0.2848801612854004,-9.992253303527832,0.009944612378096164,0.00082526856123294,0.0037988755732184486,1.2078364799507622,6.982903977918585,1.2352806045286167
1731474152.4890246,-0.3745778203010559,0.2969180941581726,-9.987142562866211,0.0097364035423232,0.002366987171788179,0.003711216790069378,1.2030405139885254,7.197348916298625,1.233426202941972
1731474152.539969,-0.36941108107566833,0.32635197043418884,-10.017279624938965,0.009520169257674276,0.0041386796979902725,0.0036210291322894394,1.1981208140870097,7.230541594573114,1.2374533218167576
1731474152.5898287,-0.3613957464694977,0.32036691904067993,-9.987659454345703,0.009298879248636833,0.006146900883350158,0.0035294503060941066,1.193329714099937,7.263039325104985,1.2414035575568156
1731474152.6398501,-0.3558109700679779,0.3377763330936432,-10.017905235290527,0.009075469726987938,0.008394654667082314,0.0034373070679020825,1.1885906745219592,7.452363179499982,1.2393464864171089
1731474152.6896672,0.11172740161418915,0.9410831928253174,-9.988750457763672,0.00885230569447805,0.010881034486284386,0.003345127393198268,1.1838775948141302,7.486061877153714,1.243258770287289
1731474152.7397246,0.6022413969039917,1.6053311824798584,-9.950591087341309,0.008629057237076222,0.013598787704133338,0.0032532360550608336,1.1791849303848527,7.652256631257718,1.2411544121453097
1731474152.7897217,0.45707929134368896,1.1785728931427002,-9.883322715759277,0.008398934727667338,0.016529877246208746,0.0031620552753655715,1.174476580129298,7.687438408071035,1.2450868376431528
1731474152.8396256,0.18722468614578247,0.8254978060722351,-10.014012336730957,0.008146191325909272,0.019643253281441078,0.0030724933955680873,1.1697805704336297,7.722728051109703,1.2490340629329477
1731474152.889567,-0.2138817459344864,0.33085402846336365,-10.020838737487793,0.007847617206661581,0.022898134209043252,0.0029859107306583715,1.1651250038578538,7.75791635915905,1.252971573388804
1731474152.939633,-0.84199458360672,-0.42900434136390686,-10.077438354492188,0.007477524062676373,0.02625114670990352,0.0029035302428881914,1.1605444294458604,7.904255818904565,1.250569306590963
1731474152.9894435,-1.1347620487213135,-0.6553553342819214,-10.159132957458496,0.007014262214444789,0.029664392257193826,0.0028257193687532814,1.1559476188191058,7.940346814847369,1.2544740829176877
1731474153.0395005,-0.5375619530677795,0.026560742408037186,-10.053828239440918,0.006445518393537537,0.033111385693569084,0.0027514675069303784,1.1513708886469243,8.068967921648444,1.2519420152091265
1731474153.0893981,-0.6419805884361267,-0.14039817452430725,-10.018117904663086,0.005769264488580545,0.036577673645390836,0.0026783665531145747,1.1467919852180712,8.106071605678236,1.2558429350088827
1731474153.13939,-0.6419805884361267,-0.14039817452430725,-10.018117904663086,0.004991069318783516,0.040057546759032274,0.00260320371010921,1.1421992540558947,8.143492192784013,1.2597737002253073
1731474153.13939,-0.48468977212905884,0.17504572868347168,-9.904268264770508,0.004121489541115847,0.043551096035962585,0.0025227244787494633,1.1421681985078775,8.143745916693437,1.2598003383639942
1731474153.1893013,-0.5061772465705872,0.20886747539043427,-9.975037574768066,0.003174544707058957,0.04706209837247597,0.002434251257403934,1.1376384484233895,8.180844095137017,1.2636921379619621
1731474153.2392278,-0.504601240158081,0.35937514901161194,-9.961531639099121,0.0021664031581050385,0.050595544570816636,0.002336038028956997,1.1330723948879082,8.218415325482802,1.26762675573198
1731474153.2890863,-0.5235366225242615,0.4285810589790344,-9.942535400390625,0.001114472518446632,0.054155411945539626,0.0022272508205137737,1.128646260397561,8.32805351103829,1.264605323495634
1731474153.3391986,-0.5182399153709412,0.41647854447364807,-9.95583724975586,3.703217364668687e-05,0.05774324876872753,0.0021078245105578823,1.124077850674666,8.366512801674315,1.2685270049205344
1731474153.3890479,-0.5484158992767334,0.4480695128440857,-9.937871932983398,-0.00104696636533244,0.06135752618020758,0.001978410800771986,1.1196230363587731,8.461883166575264,1.265513123728114
1731474153.4390175,-0.5478430390357971,0.4370619058609009,-9.939542770385742,-0.002118065758529194,0.06499363301550495,0.001840341198920539,1.11505341100809,8.50099511893537,1.269410498241437
1731474153.4889638,-0.5263280868530273,0.4694240391254425,-9.992203712463379,-0.003156468375972039,0.06864415503823863,0.0016955277365405766,1.1105852643981833,8.584894116349632,1.2663760780707491
1731474153.5389593,-0.5467596054077148,0.46723413467407227,-9.985711097717285,-0.004142290539702226,0.07229917085502396,0.0015462180498714874,1.1060232914677999,8.62440266925527,1.2702315745461383
1731474153.5898702,-0.551529049873352,0.4757702946662903,-9.996859550476074,-0.005055846514355068,0.07594653373436439,0.0013946616168717682,1.1014719265523514,8.69906032800869,1.2672252099988919
1731474153.6398945,-0.5152885317802429,0.4587487578392029,-9.976001739501953,-0.005877869506839552,0.07957219802786197,0.0012429085881104957,1.0968458154496894,8.739442543575604,1.271089887355314
1731474153.6898081,-0.5710768699645996,0.47691261768341064,-10.003650665283203,-0.0065897238649817455,0.08316061532788702,0.0010927834341539194,1.0923788254730873,8.80372049745541,1.2679645338240348
1731474153.7397523,-0.525538980960846,0.48766395449638367,-9.994609832763672,-0.007173589911688089,0.08669510894784872,0.0009458851598541046,1.0878910362711716,8.863464988724767,1.2649309601948533
1731474153.789613,-0.5084438323974609,0.5185731053352356,-9.965476989746094,-0.007612627066480466,0.09015811694447307,0.0008035768386636158,1.0832554138126873,8.90416776340315,1.2687089675326075
1731474153.8396065,-0.5292466878890991,0.4623800218105316,-9.98769760131836,-0.007891228358382942,0.09353136263131007,0.0006670570206505409,1.0785696942576044,8.945370090092917,1.2725137931794024
1731474153.88953,-0.48913973569869995,0.46731847524642944,-9.979022026062012,-0.007995279502290436,0.09679616436436086,0.0005374613310013907,1.0738869725764573,8.986609325922046,1.2763015697166638
1731474153.9395475,-0.4685397744178772,0.5056860446929932,-9.99309253692627,-0.007912357264870284,0.0999338698177776,0.00041586761828575397,1.0693459113379054,9.033962072185409,1.2729848480253094
1731474153.9894257,-0.45702219009399414,0.4998912811279297,-9.956080436706543,-0.007631975539938915,0.10292612175340336,0.0003032644788328563,1.0648077841254873,9.076041238978524,1.2697397143912366
1731474154.0394197,-0.4022035002708435,0.5028836131095886,-9.970311164855957,-0.007145865568650782,0.10575492192484644,0.00020060474853932352,1.060073869146361,9.117633578841348,1.2734651194142548
1731474154.089314,-0.42270535230636597,0.48164358735084534,-9.983999252319336,-0.006448218204690047,0.10840274699564281,0.00010888834620189695,1.0553307036668433,9.159424896823914,1.2771848935434946
1731474154.1392968,-0.38456615805625916,0.5007065534591675,-9.960416793823242,-0.005535831332088665,0.11085278615238012,2.915360139369954e-05,1.0505523205216225,9.201668588029623,1.2809207158481215
1731474154.1892097,-0.3837924003601074,0.4896668791770935,-10.00211238861084,-0.004408126876782338,0.11308916767062685,-3.7591392941830387e-05,1.0457812495987335,9.24401691199799,1.2846411325667386
1731474154.2391903,-0.3806689977645874,0.47306615114212036,-10.001392364501953,-0.0030670889959116504,0.11509712721293522,-9.046710376353753e-05,1.0409813572563533,9.286823334232324,1.2883765818916104
1731474154.2891269,-0.5227342247962952,0.9770021438598633,-9.972333908081055,-0.0015170020892317628,0.11686274059692559,-0.00012884471501843617,1.036423901881843,9.310942887187549,1.2845835189251114
1731474154.3391964,-0.6536251306533813,1.1910713911056519,-9.957026481628418,0.00023637960939553706,0.1183711900624253,-0.0001523302860045321,1.031616836047675,9.35392249902787,1.288286973089509
1731474154.389024,-0.5680765509605408,0.5152410864830017,-9.884139060974121,0.002187128147141316,0.11960439847399731,-0.00016050003055824742,1.0268318376783339,9.397028369778454,1.291975359556123
1731474154.438984,-0.8518714904785156,1.0223649740219116,-10.114818572998047,0.00433025783412762,0.12054090810151319,-0.00015267650153577935,1.0223207391427505,9.410591190556616,1.2880181014303838
1731474154.4890203,-0.5428992509841919,0.5303182005882263,-9.948053359985352,0.006662379216706411,0.12115785327003906,-0.0001281898274411175,1.0175306254546796,9.45399885934417,1.2916950514311134
1731474154.4890203,-0.5428992509841919,0.5303182005882263,-9.948053359985352,0.00918158432741423,0.12143289962764012,-8.676328652365855e-05,1.016028841685577,9.467705262202362,1.2928506795869783
1731474154.8706543,-0.5428992509841919,0.5303182005882263,-9.948053359985352,0.011886377564819854,0.12134606736682436,-2.8332144294908913e-05,0.9828732398150464,9.670008027923451,1.2968770759126589
1731474154.8706543,-0.253031849861145,0.3442539572715759,-9.981415748596191,0.01477436836593509,0.12088130930839189,4.733901335228784e-05,0.9828431689968298,9.670297668691118,1.296900741054221
1731474154.9205117,-0.23775433003902435,1.9156547784805298,-9.855184555053711,0.01784095426857107,0.120026036072341,0.00014075978213816317,0.9786575717491085,9.660947004998063,1.2927003351026767
1731474154.9705315,-0.4001409411430359,0.5899046659469604,-9.77047061920166,0.02107809181546516,0.11876753194106757,0.00025300446534777326,0.9743025264413314,9.703261317667682,1.2961528917245828
1731474155.020408,-0.1947299689054489,1.112312912940979,-10.022409439086914,0.02447404416426391,0.1170898742770303,0.00038623961724336387,0.9702053598825886,9.690478399610935,1.2919820362461936
1731474155.0704117,-0.1947299689054489,1.112312912940979,-10.022409439086914,0.028013763200863826,0.11497467014018534,0.0005434931065895973,0.9659772234325911,9.732495848615889,1.2954011616171293
1731474155.0704117,-0.21322882175445557,0.8714746236801147,-10.088143348693848,0.031678917990440314,0.11240269210947998,0.0007274713005592853,0.9659484262937401,9.732785272043689,1.2954246404081458
1731474155.1203022,-0.2239534556865692,0.9041865468025208,-9.905142784118652,0.03544797227568369,0.10935469118456348,0.0009396555245810507,0.961693779839164,9.77613417622768,1.2989311943594115
1731474155.1704328,-1.3943976163864136,-0.5810168385505676,-10.084527969360352,0.0392978217486321,0.1058140009138339,0.00118036590115353,0.9575807623132082,9.819244163503628,1.3023995707966114
1731474155.2202253,-0.5982986688613892,0.3721615672111511,-10.063822746276855,0.04320782489624379,0.10177185731465965,0.0014490374229998077,0.9534256861163223,9.864182572630979,1.3059968678000768
1731474155.2702136,-0.46314603090286255,0.03619835898280144,-10.011496543884277,0.0471629715301451,0.09723164065321019,0.001744093693596185,0.9500823436672785,9.836775412479264,1.301246804567911
1731474155.320184,-0.5183843374252319,0.10595713555812836,-10.015792846679688,0.051152617224769034,0.09220866565397941,0.002062915130565907,0.9461704831695649,9.881246270209328,1.30482034990514
1731474155.3702235,-0.11161405593156815,0.15249505639076233,-10.028287887573242,0.055167168759180235,0.08672796948297189,0.0024021789443286028,0.943104317897616,9.851390481894075,1.3000873268056141
1731474155.4200754,-0.11161405593156815,0.15249505639076233,-10.028287887573242,0.05919560393117279,0.08082268904905893,0.0027581277413021863,0.9395780687762662,9.894056407323598,1.3035401245566565
1731474155.4200754,0.01588253118097782,0.03391246125102043,-10.020575523376465,0.06322352535951395,0.07453267167052624,0.0031266372236475057,0.9394770015673127,9.895309305427814,1.3036413756596255
1731474155.469965,-0.25383296608924866,0.3448643088340759,-9.974748611450195,0.06723216055092887,0.06790320706917964,0.0035033292955953406,0.9362174242015744,9.936801977444246,1.3069921209765571
1731474155.5198517,-0.10165785253047943,0.2227284014225006,-9.922452926635742,0.07119898568392319,0.060983536614582695,0.0038838954663262064,0.9330295735253562,9.97969477036684,1.3104522560134273
1731474155.5699394,-0.1839110553264618,0.4192267656326294,-9.99095344543457,0.07509905715586211,0.053824938452456325,0.004264532019876846,0.9305661430893659,9.939988469832413,1.3056018447877897
1731474155.6198208,-0.19280876219272614,0.3612631559371948,-9.950533866882324,0.07890600158382195,0.04647903247970468,0.004642147886544868,0.9276512421764433,9.983660306272887,1.309183902129705
1731474155.6698928,-0.00384950777515769,0.6912849545478821,-9.922014236450195,0.08259255295976589,0.03899632921148232,0.005014321285863836,0.9257134211794694,10.02446825311683,1.3042439256489484
1731474155.7207956,0.744889497756958,1.6483407020568848,-9.939879417419434,0.08612989088676454,0.03142364235048664,0.005379330718844403,0.9238192606891911,10.068293997661234,1.2997142859887387
1731474155.770732,0.3141680657863617,1.1341841220855713,-10.00156307220459,0.08948504512658631,0.023799517021952397,0.0057361865701262595,0.9216970692133565,10.1098337500853,1.303069856182821
1731474155.8206358,-0.22723086178302765,1.8611536026000977,-9.893811225891113,0.09261930904849947,0.016150055217379014,0.006084449531918545,0.9197109593064482,10.15333226189008,1.3065946990373527
1731474155.8706558,-0.4820658564567566,1.1263463497161865,-9.909140586853027,0.09549129778243386,0.008487691464813863,0.006424154966476863,0.9180479174271339,10.194807331421545,1.309968365132336
1731474155.9206085,-0.49431735277175903,1.4234706163406372,-9.892594337463379,0.09806268839954163,0.0008126723084264235,0.006756043614938411,0.9172409000426207,10.237162097633258,1.3051004597420341
1731474155.970523,-0.07631285488605499,0.5004467964172363,-10.070384979248047,0.10030173454686976,-0.006883411134066512,0.007081594489902415,0.9166931253306414,10.279468084392214,1.300403472814416
1731474156.0204434,-0.24069371819496155,-0.35270124673843384,-10.206377029418945,0.10218293106386399,-0.014611617661328806,0.007402263904353808,0.9157422776386624,10.321880418494699,1.303836909912819
1731474156.0704284,-0.6625279188156128,-0.9579870700836182,-10.202309608459473,0.10368554928862651,-0.0223768123455948,0.007718071622908806,0.9150467261876429,10.3643345650676,1.3072963705400362
1731474156.1203353,-0.7205891013145447,-0.26662561297416687,-10.021163940429688,0.10479432750950428,-0.030169208532835633,0.008026636624496345,0.9146126803842642,10.406624902903747,1.310767447116321
1731474156.170457,-0.539745032787323,-0.3440362215042114,-10.02015209197998,0.10550157744469241,-0.03796183423552603,0.008323594737627645,0.9151552475312034,10.4489548929657,1.305907311975972
1731474156.220292,-0.539745032787323,-0.3440362215042114,-10.02015209197998,0.10580768142004449,-0.04571385679181732,0.00860382703638004,0.9152541821615374,10.490977642164797,1.3093782015676763
1731474156.220292,-0.7099660634994507,-0.18074804544448853,-9.97559928894043,0.10571986078180243,-0.0533747599096317,0.00886234214478842,0.9152556959283913,10.491252572545399,1.3094010109028984
1731474156.270222,-0.4648881256580353,-0.01231425255537033,-9.95477294921875,0.10525107738291287,-0.060887447269613384,0.00909467165669003,0.9163492367980093,10.532912551986707,1.3045588387903486
1731474156.320121,-0.6345815658569336,0.11943099647760391,-9.89240837097168,0.10441926274307224,-0.06819144465558614,0.009297229055535827,0.9169872779377912,10.575146763160024,1.3080819144324631
1731474156.370157,-0.4727819561958313,0.4156271815299988,-9.890789985656738,0.10324632664337195,-0.07522639644070273,0.009467732108503515,0.9186257151420255,10.616324434981662,1.3032868451486002
1731474156.419992,-0.4727819561958313,0.4156271815299988,-9.890789985656738,0.10175711010462288,-0.08193536250609193,0.009605506174138894,0.9197740739369517,10.657644067648947,1.3067769293957339
1731474156.419992,-0.4746846556663513,0.4383656084537506,-9.960733413696289,0.09997836510552868,-0.08826732754656531,0.009711454766314678,0.9197829241439102,10.65793011560663,1.3068012336604107
1731474156.4700122,-0.4082532823085785,0.4868992269039154,-9.922954559326172,0.09793785317675047,-0.094178359841376,0.009787671051858512,0.9211806910179174,10.699039749902719,1.3103163341079103
1731474156.5199811,-0.4082532823085785,0.4868992269039154,-9.922954559326172,0.09566366384151022,-0.09963179519423121,0.009837008706139964,0.9236016236026117,10.739917256208063,1.305499167901734
1731474156.5199811,-0.42095184326171875,0.46034306287765503,-9.94420051574707,0.09318365325911768,-0.10459808917086337,0.009862880285424792,0.9236127196054317,10.740173423115866,1.3055212789041366
1731474156.5699735,-0.3570947051048279,0.568742036819458,-9.979055404663086,0.09052504852451641,-0.10905450687816559,0.009869109758353638,0.925489099797322,10.780753631796598,1.309047960553518
1731474156.6198468,-0.35170891880989075,0.5658196806907654,-10.006991386413574,0.08771412942143396,-0.11298488828502519,0.009859604214378061,0.9283883395736305,10.821038740489136,1.3042881461634137
1731474156.6698449,-0.35522300004959106,0.5524300336837769,-9.985919952392578,0.08477586748553509,-0.11637956529732385,0.009837957462140154,0.9307227744881612,10.861325617905376,1.307852766851912
1731474156.7197773,-0.3219449818134308,0.549161434173584,-9.999293327331543,0.08173367328179948,-0.11923505847847199,0.009807230021780178,0.9332505263079984,10.901083535777298,1.3114209196385773
1731474156.7707493,-0.28970977663993835,0.5290778875350952,-9.999696731567383,0.07860924677795096,-0.12155344040576913,0.009769931945928094,0.9360503353870051,10.941562652640775,1.3151068530414316
1731474156.8206139,-0.3143123984336853,0.5126650929450989,-10.002466201782227,0.07542240065068748,-0.12334159438204001,0.009728054696241419,1.1831470013594911,10.981140593853265,1.3102265587683155
1731474156.870688,-0.2599155902862549,0.5240530371665955,-9.9974946975708,0.07219093727118024,-0.12461050514370163,0.00968309200001435,1.1910432207274548,11.020206815732433,1.3055134742139742
1731474156.9205627,-0.2969132363796234,0.4891177713871002,-9.995007514953613,0.06893063426387544,-0.12537463502603716,0.009636091258548956,1.1942005051328366,11.05809271440709,1.3090493103232372
1731474156.9705002,-0.2292598932981491,0.49995648860931396,-10.004132270812988,0.06565526179829813,-0.1256513738324272,0.009587727522654587,1.1969610964470452,11.096266277483412,1.3043766234925804
1731474157.0204966,-0.2579132318496704,0.4924958348274231,-10.007848739624023,0.06237658407125096,-0.1254605349176266,0.009538345837073577,1.1999218734057353,11.134320104300782,1.307999554227358
1731474157.0704823,-0.24598565697669983,0.4703907370567322,-10.037233352661133,0.05910438106938701,-0.12482391968088004,0.009487932791616829,1.2030407291863774,11.172135507576291,1.3116534879452715
1731474157.1203732,-0.2604096531867981,0.4892358183860779,-9.96359920501709,0.05584658833124205,-0.1237649259848228,0.00943608225428759,1.2062886909641666,11.209470048150264,1.31531446073228
1731474157.1703653,-0.2412901222705841,0.49372807145118713,-10.008519172668457,0.05260953097820535,-0.12230821962163495,0.00938210566986152,1.205078521763163,11.246459354558803,1.310475507775361
1731474157.2202988,-0.25269076228141785,0.49582356214523315,-9.967084884643555,0.0493981274663465,-0.12047952942916182,0.009325248999328302,1.2058715540203642,11.28307532942813,1.305819047716028
1731474157.2702527,-0.29472479224205017,0.49913355708122253,-9.967273712158203,0.04621609093606831,-0.11830549999490593,0.009264859101375342,1.2086121242688503,11.319590967439476,1.3094892559962292
1731474157.3201697,-0.2970694601535797,0.489962100982666,-10.00029182434082,0.04306625419333803,-0.11581351041874308,0.009200477048792486,1.2114737357351624,11.355932221964673,1.3131946558834058
1731474157.370167,-0.34497785568237305,0.48454904556274414,-9.985206604003906,0.039950997028555785,-0.11303144376870469,0.009131819961366373,1.2144173429747078,11.39171913640921,1.3168953436431001
1731474157.4200604,-0.34497785568237305,0.48454904556274414,-9.985206604003906,0.03687265669471792,-0.10998742653850675,0.009058674024433843,1.212065225937203,11.42708257004508,1.3120412577210967
1731474157.4200604,-0.33604687452316284,0.4833928644657135,-9.957088470458984,0.033833825151279,-0.10670958687888188,0.008980878045378504,1.2121962648164766,11.428867962827406,1.3122280337290115
1731474157.4700716,-0.3997398614883423,0.48361581563949585,-10.031452178955078,0.030837499099215904,-0.10322586493560931,0.008898380060201501,1.2147165044579593,11.4625786289509,1.3157781586766384
1731474157.5199513,-0.34380197525024414,0.5006750226020813,-9.992836952209473,0.027887174156420745,-0.0995638775357234,0.00881115792322541,1.2132733132224327,11.498309197442838,1.311078333588914
1731474157.570007,-0.40116724371910095,0.47793707251548767,-9.987176895141602,0.024986904239116016,-0.09575082663709193,0.008719063102392571,1.2156280393214616,11.532414293398173,1.3147294139808359
1731474157.6199002,-0.3695700168609619,0.49243950843811035,-9.979872703552246,0.02214127742810372,-0.09181339809266442,0.00862183886885382,1.2156595191744475,10.093261493204585,1.3100326458826217
1731474157.6698487,-0.41193339228630066,0.5345649719238281,-9.984530448913574,0.019355378386327865,-0.08777767409342885,0.008519268732301771,1.2179893735425082,10.112255879805643,1.3137379626179486
1731474157.7197323,-0.39578092098236084,0.5249258279800415,-9.9964017868042,0.016634779982398706,-0.08366917801870682,0.008411244574084915,1.2174184088856228,8.994334619165949,1.3090627211964876
1731474157.7697887,-0.4148857295513153,0.5152393579483032,-10.009360313415527,0.013985528235928604,-0.07951296634681437,0.008297708199874304,1.2196121947952854,9.001511499916642,1.3128195147844544
1731474157.8206913,-0.38384121656417847,0.5252273082733154,-9.947656631469727,0.01141407132874617,-0.07533356956561514,0.008178584025774751,1.220182778070608,8.108185051979941,1.3083612107629377
1731474157.8705866,-0.37471675872802734,0.512197732925415,-9.963825225830078,0.008927075287890641,-0.07115482299059604,0.008053878124970087,1.222278257260865,8.105955767764428,1.3120254217408316
1731474157.9205194,-0.39332878589630127,0.548274040222168,-9.980907440185547,0.006531167323248555,-0.06699973850684679,0.007923872779950712,1.2244750907797668,8.103465509334885,1.3158530500545782
1731474157.970504,-0.3940364420413971,0.5331264734268188,-9.951216697692871,0.004232766541033005,-0.06289046900291542,0.007789174424715776,1.2266269179703833,8.100881233518203,1.319598450533326
1731474158.0204077,-0.3720216453075409,0.5273372530937195,-10.012054443359375,0.002038036156482995,-0.058848299024245446,0.007650619157175375,1.2288473496127104,8.09806983309816,1.323469062044946
1731474158.070431,-0.36154696345329285,0.5203379988670349,-9.981355667114258,-4.720747436571626e-05,-0.05489354620295498,0.007509125130806121,1.2263383678433895,7.329284036694638,1.3184707817459766
1731474158.1203873,-0.33269548416137695,0.5211107134819031,-9.980409622192383,-0.002017709762704399,-0.05104538934824311,0.007365547303582513,1.2283009407048497,7.318307189997059,1.3224162224774103
1731474158.170318,-0.3207956552505493,0.5135068893432617,-9.99845027923584,-0.003869044499802775,-0.047321725161139805,0.007220640629612241,1.2285409218671721,6.691425973442606,1.3173967369477626
1731474158.2202368,-0.30687013268470764,0.5224953889846802,-9.994780540466309,-0.005597853243174285,-0.043739080736320976,0.007075068130665823,1.2285161447974382,6.175483690359171,1.312828743048286
1731474158.2701979,-0.3119085729122162,0.5182780623435974,-9.960308074951172,-0.007201993747565818,-0.04031257371877428,0.006929387144224175,1.2301909896221839,6.154625093501454,1.3164809316972277
1731474158.3202002,-0.3232634663581848,0.5220323204994202,-9.994431495666504,-0.008680546880572168,-0.03705591055963141,0.006784109753090184,1.2319540271082792,6.132318748117959,1.3203868389428401
1731474158.3702445,-0.28144803643226624,0.5371149778366089,-9.997028350830078,-0.0100337248807921,-0.03398141146319422,0.0066397631258397,1.2311117878280082,5.68465424677402,1.3155247207149916
1731474158.4200966,-0.28144803643226624,0.5371149778366089,-9.997028350830078,-0.011262834595391402,-0.031100076152924504,0.006496816268190598,1.2326288562837393,5.658721010110089,1.3193249356103498
1731474158.4200966,-0.31811031699180603,0.5085797905921936,-9.998974800109863,-0.012370297699825538,-0.028421644515537723,0.006355576966618236,1.2326667417708983,5.658066210576364,1.3194209511817812
1731474158.4701083,-0.2963423728942871,0.5248386859893799,-9.973089218139648,-0.013359535394618377,-0.025954559007641022,0.006216189774168794,1.2324161209271214,5.274244623919922,1.3145890682796184
1731474158.5199509,-0.2880183458328247,0.5108221173286438,-10.006240844726562,-0.014234755904056795,-0.023705876461022395,0.006078710319493852,1.2337970240455456,5.244845863749611,1.3183835212970578
1731474158.5699735,-0.2980497181415558,0.49068212509155273,-9.973512649536133,-0.015000844643488087,-0.021681213865568608,0.005943161774879506,1.2351518767739922,5.215165789701044,1.3222219985821702
1731474158.6198955,-0.2980497181415558,0.49068212509155273,-9.973512649536133,-0.015663309147241587,-0.019884681560170096,0.005809570500877324,1.236469138287862,5.185412025687783,1.3260780269839392
1731474158.6198955,-0.31672346591949463,0.5230117440223694,-9.992152214050293,-0.016228147569678657,-0.018318839001581176,0.005678029822745003,1.236478449761908,5.185198302558905,1.3261057544794588
1731474158.6698563,-0.3087119460105896,0.5085582733154297,-10.039146423339844,-0.01670166194784769,-0.016984804759637977,0.005548668075461227,1.2348968855874725,4.842679057161397,1.3211000132200375
1731474158.719787,-0.37044280767440796,0.5171928405761719,-9.983965873718262,-0.017090245828607707,-0.015882457126374004,0.005421451939211629,1.2359684640641961,4.809993276198704,1.3249362035249177
1731474158.769825,-0.35450124740600586,0.50801682472229,-9.950888633728027,-0.017400105335673904,-0.01501056518960401,0.0052961196064271205,1.236089652015246,4.5104383304269815,1.3200279124762322
1731474158.8206687,-0.35450124740600586,0.50801682472229,-9.950888633728027,-0.017636990244010248,-0.014366840530796418,0.005172449973804945,1.2371162408549652,4.474660464934699,1.3239131382945757
1731474158.8206687,-0.3457523584365845,0.5308553576469421,-10.02107048034668,-0.017806111632697644,-0.01394799040486179,0.005050531319901803,1.2371250741630642,4.474345416407782,1.3239473916788136
1731474158.8708599,-0.3598632216453552,0.5240755081176758,-9.973990440368652,-0.017912217931208167,-0.013749835409267133,0.0049306726391878984,1.2380894390584194,4.439130135608852,1.3277804629753878
1731474158.9206185,-0.37419551610946655,0.5006221532821655,-9.971975326538086,-0.017959640501671637,-0.013767438024111206,0.0048131893770017664,1.2390043362853018,4.404068327454979,1.3316051703038807
1731474158.970634,-0.3892771303653717,0.5268489718437195,-10.022506713867188,-0.01795222811095039,-0.013995136030040985,0.004698362344068069,1.2380733174217582,4.141721363253927,1.3264738072551305
1731474159.0204418,-0.3892771303653717,0.5268489718437195,-10.022506713867188,-0.017893231093001907,-0.014426559111512291,0.004586375057968411,1.238836481934149,4.104481421725217,1.3302926542454194
1731474159.0204418,-0.42074161767959595,0.5047159194946289,-9.953629493713379,-0.01778520971802219,-0.015054719466238946,0.0044771652221837115,1.2388410811502057,4.1042501369040805,1.3303163958265258
1731474159.0705018,-0.4061630666255951,0.5313308238983154,-9.978107452392578,-0.01762997072143977,-0.015872083866657293,0.004370508410223667,1.2408997386904623,3.8801955011810656,1.3252218503009094
1731474159.1203768,-0.4061630666255951,0.5313308238983154,-9.978107452392578,-0.017428558496895362,-0.016870625445950204,0.004266283323429609,1.2419643543701127,3.6837901232662573,1.3203196228005412
1731474159.1203768,-0.40526318550109863,0.5140536427497864,-10.022367477416992,-0.01718135402410876,-0.018041924219135225,0.00416453353970586,1.2419727957213498,3.683452893042446,1.320351290095065
1731474159.170345,-0.3965300917625427,0.502784788608551,-9.966509819030762,-0.01688823618596136,-0.019377214715992498,0.004065307066165249,1.2429557135562983,3.643323798836186,1.3241223660497454
1731474159.2203305,-0.38581791520118713,0.508468508720398,-9.955740928649902,-0.016548749233614865,-0.020867325179669074,0.003968604870297019,1.2439035326751378,3.602880485805991,1.3279282556412066
1731474159.2702694,-0.3934820294380188,0.535594642162323,-9.982986450195312,-0.01616227284805349,-0.022502660603305767,0.003874544188831786,1.24481050052912,3.5623853396471383,1.3317437148653288
1731474159.3201983,-0.35386738181114197,0.5342658758163452,-9.970437049865723,-0.015728185546539382,-0.02427334593666961,0.0037834717015136693,1.245679566120727,3.3905401218242965,1.326606828304414
1731474159.3701587,-0.3599652647972107,0.5136325359344482,-9.988588333129883,-0.015246048334083082,-0.0261694171261602,0.003695894948313045,1.2465598972591625,3.348781649423721,1.3304129946613537
1731474159.4200087,-0.32312655448913574,0.5253065824508667,-10.006949424743652,-0.014715824175055108,-0.028180886857039747,0.0036123487078324754,1.2480194547958239,3.2014726170668464,1.3253335440783127
1731474159.4701254,-0.32851725816726685,0.5242536067962646,-9.958294868469238,-0.014138083406293406,-0.030297722395251234,0.0035332837306204143,1.248925046870888,3.159098533203206,1.3290969934385777
1731474159.5200732,-0.32851725816726685,0.5242536067962646,-9.958294868469238,-0.013514133754835666,-0.03250986609985164,0.0034590944379554785,1.249802971901267,3.116323196424787,1.3328978465047296
1731474159.5200732,-0.2989529073238373,0.5134327411651611,-9.978981018066406,-0.012846053141590676,-0.03480728184537242,0.0033902822986980035,1.2498083345384576,3.116056478280642,1.3329215505334513
1731474159.5699933,-0.2976040542125702,0.528435468673706,-10.035711288452148,-0.012136704364856008,-0.03717997205759481,0.0033274644344310103,1.2506458442673742,3.0736079316876337,1.3366941089745599
1731474159.6201284,-0.2976040542125702,0.528435468673706,-10.035711288452148,-0.01138977515418415,-0.0396180097948423,0.0032710743364015677,1.2516776955488949,2.94351536234557,1.3313726507321915
1731474159.6201284,-0.2584826648235321,0.5214108228683472,-9.999695777893066,-0.010609789829832923,-0.042111611003611486,0.003221033663476679,1.251681680905129,2.943309991527311,1.3313904615300258
1731474159.6698892,-0.29298895597457886,0.5123870372772217,-9.98195743560791,-0.00980209921576742,-0.044651174171525795,0.0031767506260446297,1.2525068280383218,2.9001114616130046,1.3351360013885805
1731474159.7198591,-0.29298895597457886,0.5123870372772217,-9.98195743560791,-0.008972806420458326,-0.04722724903705908,0.003137409138788318,1.2533190787154223,2.8562450598621125,1.3389373821349666
1731474159.7198591,-0.2805013358592987,0.5189118385314941,-9.997715950012207,-0.00812856918213539,-0.049830501980688835,0.0031022212783136127,1.253323989024141,2.8559757494861766,1.338960712647155
1731474159.7697053,-0.25231388211250305,0.526025652885437,-9.983038902282715,-0.007276437292483472,-0.05245174942492408,0.0030704833228716736,1.2546029559955305,2.744878230169808,1.3334854034995254
1731474159.8196115,-0.2625800669193268,0.5331252813339233,-9.989421844482422,-0.006423852940403257,-0.05508205736739162,0.003041547980862176,1.2554584405349845,2.6991248332024043,1.33736705417713
1731474159.870672,-0.25197145342826843,0.5226522088050842,-10.016423225402832,-0.005578682983493603,-0.05771284678621543,0.0030147977666719504,1.2562642368171442,2.6550867181929396,1.3410988089093976
1731474159.9206076,-0.2829984724521637,0.5082409381866455,-9.991646766662598,-0.004749134442185063,-0.060335924981863534,0.002989576488130035,1.2570673024432073,2.6103490388836335,1.3448848667793873
1731474159.9705005,-0.28480449318885803,0.5353925824165344,-9.947487831115723,-0.003943538711543217,-0.06294344131029408,0.0029651759469531786,1.2583232255948174,2.518927728296068,1.3392175720004726
1731474160.0204332,-0.2747306227684021,0.5366898775100708,-10.02096939086914,-0.0031700934509483044,-0.0655278920194779,0.0029409757531908753,1.2607181275484303,2.4329255113507124,1.3341019752848091
1731474160.0705328,-0.2890772521495819,0.5572153329849243,-9.990310668945312,-0.002436687343423812,-0.0680822433301159,0.0029165040850540973,1.2616008811717714,2.391557096944366,1.337494826113694
1731474160.120394,-0.2890772521495819,0.5572153329849243,-9.990310668945312,-0.0017508067431967673,-0.07060009183083771,0.0028913164426584044,1.2625647371036233,2.345991138310484,1.3412253049805056
1731474160.120394,-0.30816128849983215,0.5108066201210022,-9.969518661499023,-0.0011194280079475849,-0.07307572981137439,0.002864957230517096,1.2625712350777667,2.3456826513346205,1.341250536287164
1731474160.1703773,-0.3075338900089264,0.5318730473518372,-9.989680290222168,-0.0005488768444852922,-0.07550402525604952,0.0028370688018214546,1.2635287102451482,2.3001005654520137,1.3449745657210925
1731474160.220353,-0.3376113772392273,0.514896035194397,-9.994827270507812,-4.46822785688819e-05,-0.07788021834465864,0.0028074448070212346,1.2644598058706351,2.223610124870549,1.3393006068011803
1731474160.2703774,-0.34983736276626587,0.5286862254142761,-9.962014198303223,0.0003885855193010329,-0.08019981722032493,0.0027759882423742744,1.2654056320236007,2.1772749326146736,1.3430196232752971
1731474160.3201654,-0.3544542193412781,0.5517596006393433,-9.99022388458252,0.0007474857380494648,-0.0824586243569973,0.0027427086452258423,1.2673191703743067,2.131093531925133,1.337367600305345
1731474160.370143,-0.3516252934932709,0.5374683141708374,-9.990341186523438,0.0010298033507505952,-0.08465284823958058,0.0027077461752841162,1.2683712797894944,2.0843867956110933,1.3319388846330755
1731474160.4202018,-0.35329899191856384,0.519231379032135,-9.9598970413208,0.0012345181534487615,-0.08677918495214303,0.0026713397762251232,1.2694119725666528,2.0372644919778358,1.335617316009035
1731474160.4702244,-0.3345542550086975,0.5284436941146851,-9.966591835021973,0.0013616800178243135,-0.08883475445696737,0.0026338415470914043,1.2704532506241781,1.9900429700735887,1.3392929685551869
1731474160.5200076,-0.3611922562122345,0.5078816413879395,-10.020652770996094,0.0014122492087809925,-0.09081696876106202,0.002595762230134223,1.2714959454666568,1.9426900351626264,1.3429679330733555
1731474160.570008,-0.3498118817806244,0.5143244862556458,-10.008946418762207,0.0013879787425541941,-0.09272343654952689,0.0025576313189872436,1.2715448187686322,1.8950765633563464,1.3373191021794424
1731474160.6198819,-0.33152875304222107,0.5191381573677063,-9.96742057800293,0.0012913374754627593,-0.09455191254429877,0.002519779610196716,1.2724991976041349,1.8473118182989035,1.3409658454927813
1731474160.6699362,-0.3189314603805542,0.520063042640686,-9.994635581970215,0.0011253558595606381,-0.09630030907857291,0.002482353252560775,1.2730498903837053,1.7991039744221953,1.335391977957947
1731474160.7198498,-0.31146132946014404,0.49782794713974,-9.991044998168945,0.0008933794420134297,-0.09796673310954088,0.0024454630058646253,1.2739845279260917,1.7507410028356782,1.3390232759935705
1731474160.7696915,-0.27925825119018555,0.5191643238067627,-9.976333618164062,0.0005988227590843038,-0.09954947090400226,0.0024092276421923795,1.2744748687616838,1.702815429106447,1.3334520527821823
1731474160.8196826,-0.26903486251831055,0.5131709575653076,-9.989280700683594,0.00024493130455334044,-0.1010469668150666,0.0023737715272179587,1.2753834149882042,1.6538831825925282,1.3370644341314493
1731474160.8696597,-0.2614664137363434,0.5186227560043335,-10.001703262329102,-0.0001654478612509529,-0.10245786571002226,0.0023392323866435806,1.275840484194982,1.6047992995197526,1.3315982093674512
1731474160.9207711,-0.2614664137363434,0.5186227560043335,-10.001703262329102,-0.0006300062267032324,-0.10378107326240385,0.0023056992288904106,1.2767333010558848,1.5540307443369243,1.3352819716148754
1731474160.9207711,-0.2740640342235565,0.5009732246398926,-9.956851959228516,-0.001146977154614529,-0.1050157730232335,0.002273158554541242,1.2767390247859651,1.5537040811261087,1.335305629688354
1731474160.9705622,-0.274027019739151,0.5083372592926025,-10.000702857971191,-0.0017150283927395576,-0.10616138551471073,0.002241575448101027,1.2775002072564436,1.5048632938273891,1.3298359442678465
1731474161.02048,-0.274027019739151,0.5083372592926025,-10.000702857971191,-0.002333113511599924,-0.10721751108610043,0.002210970170880661,1.2793016151838539,1.454893849478734,1.3246099633214572
1731474161.02048,-0.2422710508108139,0.5382094979286194,-10.02502155303955,-0.003000386700685257,-0.10818394765162662,0.0021813123751143948,1.2793090892152592,1.4545183518968074,1.3246364214853288
1731474161.070523,-0.2966766655445099,0.5066756010055542,-9.966814994812012,-0.0037161984244931086,-0.1090607912795035,0.002152376608605392,1.2802898752853078,1.4048792423423058,1.3281272566007085
1731474161.1204453,-0.24885393679141998,0.5543649792671204,-9.974495887756348,-0.004480053639770823,-0.10984852669978874,0.00212380638277426,1.2812738071233225,1.3542895904160148,1.331671059701382
1731474161.1704516,-0.2737577557563782,0.5325854420661926,-10.017370223999023,-0.005291525729389535,-0.11054809240258912,0.002095298800001647,1.2822396792025061,1.3037285092063722,1.3351988894031044
1731474161.2202854,-0.2906055152416229,0.5151991844177246,-9.989680290222168,-0.006150198044454545,-0.11116091860774997,0.0020666172109792815,1.2822470491738187,1.2526028480549276,1.329754005595054
1731474161.2703397,-0.3137006163597107,0.5183002948760986,-9.986680030822754,-0.007055535008183323,-0.11168884317807881,0.0020374803397118623,1.2831021151656918,1.2016453078647629,1.3332457149739865
1731474161.3202085,-0.3137006163597107,0.5183002948760986,-9.986680030822754,-0.008006646027961094,-0.11213395151120681,0.0020075722067866546,1.2836350497114606,1.1501496717325854,1.3278392443260802
1731474161.3202085,-0.3133438229560852,0.5345419645309448,-10.003192901611328,-0.009002102583700504,-0.11249850491544794,0.001976614430192943,1.283640446654298,1.1498118528071504,1.3278620220820212
1731474161.370244,-0.3098906874656677,0.528404951095581,-10.000290870666504,-0.010039903093132073,-0.1127849766620895,0.001944343889152251,1.2840090028601325,1.0984796435676605,1.3226056362947856
1731474161.4202275,-0.3098906874656677,0.528404951095581,-10.000290870666504,-0.01111753794797149,-0.11299609959205703,0.0019104389408539765,1.2847599107809524,1.046081856214798,1.3260824428785343
1731474161.4202275,-0.33454248309135437,0.49304723739624023,-9.936529159545898,-0.01223205592110516,-0.11313482808405986,0.0018745472137332824,1.2847654265985404,1.0456884941703657,1.3261084908209264
1731474161.470167,-0.3619610667228699,0.5299280881881714,-10.047443389892578,-0.01338002881609109,-0.11320420749297126,0.0018364213055810186,1.2854715449932488,0.9940258904252834,1.3295225974597846
1731474161.5199888,-0.3619610667228699,0.5299280881881714,-10.047443389892578,-0.01455740094338233,-0.11320729930088509,0.0017958554614598246,1.286151781140732,0.9414475896671682,1.3329832011789204
1731474161.5199888,-0.36124423146247864,0.5293492674827576,-9.995766639709473,-0.015759363518404,-0.11314725137974527,0.0017523614267490936,1.2861557679944549,0.9411300861016411,1.3330040560120489
1731474161.570011,-0.3769206404685974,0.5511707663536072,-9.91990852355957,-0.01698036323539092,-0.1130274027139958,0.0017051320374591224,1.2858434012223254,0.88859610228572,1.3275328410424163
1731474161.6198852,-0.3783719837665558,0.543317973613739,-9.976374626159668,-0.0182141753254359,-0.11285135193773393,0.0016535029941122503,1.2863723576420505,0.8353844762402441,1.3309711667004864
1731474161.6698837,-0.24439649283885956,0.7247949242591858,-9.980547904968262,-0.019454088783895065,-0.11262316005437034,0.001597330576611948,1.28685362015902,0.7819717461290082,1.3344083935963473
1731474161.7198694,-0.24439649283885956,0.7247949242591858,-9.980547904968262,-0.02069345802766858,-0.11234795262644154,0.0015369176651471449,1.2862297625278751,0.7282731835512165,1.3288753787353198
1731474161.7198694,0.5133981704711914,1.6614665985107422,-9.919093132019043,-0.02192713993509074,-0.11203353904539431,0.0014728437123476303,1.2862321905858949,0.7278857289093466,1.3288999031604427
1731474161.769799,0.2999531030654907,1.1952157020568848,-10.016883850097656,-0.02315432618089529,-0.11169353130984827,0.0014059861531910021,1.2865387434574787,0.6742601698233439,1.3322871929448452
1731474161.8197489,0.4892212450504303,1.505788803100586,-9.938413619995117,-0.024381491239951397,-0.11135013586065852,0.0013375138143917023,1.2867888295380332,0.6198840959372149,1.335707768858187
1731474161.8706505,-0.516516387462616,-0.022402653470635414,-9.965340614318848,-0.025622542653706712,-0.11103318544094747,0.001268782037549677,1.286201461369067,0.5643147378183911,1.3301556163770376
1731474161.9206002,-0.9550522565841675,-0.21024510264396667,-10.16689682006836,-0.026894426162037743,-0.11077379048638454,0.0012011380466791176,1.2857515141081752,0.5095891533218521,1.32471770842821
1731474161.9705899,-0.7593311667442322,-0.04050649330019951,-10.03207015991211,-0.028210090091479168,-0.11059567464880052,0.0011353519208393058,1.2857479538765229,0.45442544223788134,1.32807372307881
1731474162.0203743,-0.5015047788619995,0.2697582244873047,-10.028075218200684,-0.029574015632562144,-0.11051062376344892,0.0010710698245855062,1.285231699658935,0.3995616017073436,1.3226588099549461
1731474162.0706327,-0.6376875638961792,0.10086476802825928,-9.939265251159668,-0.03098277666535691,-0.11051992792054854,0.0010070609739592546,1.2850628054353308,0.3432606503454017,1.326020479569592
1731474162.1203902,-0.4812456965446472,0.29825708270072937,-9.977543830871582,-0.0324275828782188,-0.1106175843882061,0.0009419759245122999,1.284816161991261,0.28727562537314,1.3293491685331333
1731474162.1703827,-0.5795964598655701,0.24074093997478485,-9.958183288574219,-0.03389599919078315,-0.1107924367871903,0.0008748765663566182,1.2844892230815779,0.2313874001656048,1.3326580842956874
1731474162.2203078,-0.5795964598655701,0.24074093997478485,-9.958183288574219,-0.035372845840855344,-0.1110295725859638,0.0008053733430278332,1.2841291772079653,1.2762744630018057,1.327069788561404
1731474162.2203078,-0.508014976978302,0.46040502190589905,-9.957934379577637,-0.03684074607366099,-0.1113114781076556,0.0007335961222569488,1.2841262129861646,1.2759594078695942,1.3270928353320528
1731474162.2702415,-0.508804440498352,0.4490143060684204,-9.982624053955078,-0.03828069745200078,-0.11161936465105193,0.0006601302140994395,1.2836594048565713,1.2312098680281465,1.3303571036687039
1731474162.320172,-0.48865872621536255,0.4541880786418915,-9.978496551513672,-0.03967285699711314,-0.11193466618788588,0.000585876048847904,1.283090491905122,1.18567731728039,1.3336597812405546
1731474162.370213,-0.5410983562469482,0.4174778163433075,-9.919493675231934,-0.04099719538817886,-0.11223993570468249,0.0005119276983616348,1.2829560124925836,2.0057635334173023,1.3279737921832997
1731474162.4201007,-0.47556886076927185,0.47924375534057617,-9.938119888305664,-0.0422338292097802,-0.11251899675876738,0.00043966021977931674,1.2822601643571805,1.9686214849640875,1.331246959653353
1731474162.47022,-0.47460830211639404,0.529241681098938,-10.030539512634277,-0.04336329884536796,-0.1127570359626138,0.0003708312281183484,1.2814583594101312,1.931249924952856,1.3345165651302004
1731474162.5199964,-0.4850676357746124,0.5224998593330383,-9.974165916442871,-0.04436696362123879,-0.11294097611239509,0.00030733446830300204,1.2812925694649495,2.591420574197844,1.3287377450913458
1731474162.5699408,-0.48955443501472473,0.4771479666233063,-9.996931076049805,-0.045227314849589084,-0.11305979438471409,0.0002508240197967044,1.2803562167827376,2.560712023454236,1.3319661228711956
1731474162.6199024,-0.4665283262729645,0.4885329604148865,-9.979948997497559,-0.04592809855976078,-0.11310442730634843,0.00020261572156215606,1.2802090694901198,3.0876986113397558,1.3262618298645312
1731474162.669962,-0.46965348720550537,0.5105751752853394,-9.998185157775879,-0.04645442471828734,-0.1130674635446364,0.00016375977058108603,1.2791371940020193,3.5051887024435833,1.3207273466640634
1731474162.7198188,-0.4509274959564209,0.5246589779853821,-10.004263877868652,-0.046792939724144215,-0.11294301594638571,0.000135052695001386,1.2779493977192136,3.483617673732125,1.3238987852695772
1731474162.7698064,-0.4414564073085785,0.5083518624305725,-9.974061965942383,-0.046931998111794694,-0.11272676991773524,0.0001170081577233227,1.2766484712177177,3.461832530617,1.3270606598777024
1731474162.8197534,-0.41812509298324585,0.5166147947311401,-9.975350379943848,-0.04686182490971834,-0.1124159684622606,0.00010991193729763241,1.276742212787206,3.8158864648445516,1.3214505097933944
1731474162.8696876,-0.38708367943763733,0.5227304100990295,-9.974908828735352,-0.04657470130924318,-0.11200928706687562,0.0001139670388818095,1.2753607589319775,3.7972731888976385,1.3245778364640324
1731474162.9196005,-0.36882284283638,0.5231413841247559,-9.979649543762207,-0.046065182206398825,-0.11150671554486113,0.00012939066790881973,1.274103934539692,4.084895501254564,1.3190174150849385
1731474162.970591,-0.3273898661136627,0.5379171371459961,-10.020581245422363,-0.045330317534414744,-0.11090948503701926,0.00015637366263806786,1.27246641031557,4.068308641784353,1.3221752853790094
1731474163.0204976,-0.3273898661136627,0.5379171371459961,-10.020581245422363,-0.04436983208160557,-0.11022001360565238,0.0001949028075959471,1.2707460407691564,4.051749593010002,1.3252752161970773
1731474163.0204976,-0.3707225024700165,0.505232036113739,-9.976547241210938,-0.043186147099716625,-0.1094418181204028,0.0002445868712240133,1.2707337934795886,4.051634456780461,1.3252965929794769
1731474163.070438,-0.3476724922657013,0.5362069010734558,-9.949875831604004,-0.041784120063839206,-0.10857933195591662,0.0003047422338403174,1.2689238841359092,4.034970093301642,1.32836610477221
1731474163.1203568,-0.3835640251636505,0.5246970653533936,-9.991329193115234,-0.040170618518194375,-0.10763771202321706,0.0003746977069233813,1.2695977667982066,4.298515948179648,1.3225926643002872
1731474163.1703653,-0.3614824414253235,0.5287243723869324,-9.99287223815918,-0.038354138263617193,-0.10662273808965358,0.0004539457433906065,1.267788531249348,4.283915248692935,1.3256643935202024
1731474163.2202575,-0.377625972032547,0.5039097666740417,-9.963214874267578,-0.0363445134755704,-0.1055407177897802,0.0005420503023909266,1.267004928480747,4.498309441862488,1.3199409806390898
1731474163.2702463,-0.3766827881336212,0.5053097605705261,-10.006082534790039,-0.03415268983786239,-0.10439830506844387,0.0006385696131845012,1.2650805163599217,4.48534160932936,1.3229809092945368
1731474163.3201778,-0.37935033440589905,0.516689121723175,-9.970401763916016,-0.03179052227291053,-0.1032023042682862,0.0007430511910796578,1.2641621345582004,4.661271909899674,1.3173315036564763
1731474163.3702471,-0.40080633759498596,0.4964871406555176,-10.002296447753906,-0.02927056477097361,-0.10195955797793466,0.0008550064857676754,1.2621403008257477,4.649490646954925,1.3203336549235605
1731474163.4201424,-0.38300633430480957,0.5083088278770447,-10.015450477600098,-0.026605853857533317,-0.10067688545049946,0.0009738547901837773,1.2600442012391835,4.637430504763996,1.323344534126737
1731474163.470025,-0.443865567445755,0.4779611825942993,-10.014248847961426,-0.023809684973508046,-0.0993609935966989,0.0010988100953425468,1.2607320278248708,4.808112132210156,1.317609455790757
1731474163.5200374,-0.3783123791217804,0.5307408571243286,-9.943964958190918,-0.020895385454374686,-0.09801839062211372,0.0012288303463462516,1.2587434038409446,4.79740665346942,1.3205887968104288
1731474163.569949,-0.4149475693702698,0.529784619808197,-9.995633125305176,-0.0178761780893294,-0.09665542160066742,0.0013628007578475481,1.2591523136230691,4.942845916266492,1.314923673904515
1731474163.6199312,-0.4006003737449646,0.5575022101402283,-9.984058380126953,-0.014765173007746425,-0.09527845522182095,0.0014997502257110393,1.2590251094739793,5.069891924759508,1.309446384187412
1731474163.6698508,-0.4396592080593109,0.5405032634735107,-9.956144332885742,-0.011575323832967038,-0.09389407251138523,0.0016388794597307407,1.2572493786394998,5.061364567335316,1.312362587029616
1731474163.719805,-0.4295702874660492,0.5543187260627747,-9.9859037399292,-0.008319259335234329,-0.09250912378398343,0.0017795548276786383,1.2554445259765206,5.052583720563955,1.3152900445227247
1731474163.7697442,-0.42668965458869934,0.5741111636161804,-9.961564064025879,-0.005009111769949867,-0.09113069953905024,0.00192134860430294,1.2536298576682898,5.043607270289241,1.3182111051103627
1731474163.8196783,-0.4360142648220062,0.5671287775039673,-9.956544876098633,-0.001656452885551361,-0.08976612721694235,0.0020640525625934217,1.2549904903903475,5.160730314101407,1.3125539580998205
1731474163.8696399,-0.4315682351589203,0.557338535785675,-9.982433319091797,0.001727701417388143,-0.08842296513771698,0.002207688794238652,1.2533877539407106,5.152554637622685,1.3154569199852117
1731474163.9195507,-0.42473089694976807,0.5397765636444092,-10.009066581726074,0.005132882267114509,-0.08710887759236138,0.0023524427763347167,1.251792848554746,5.144156105394574,1.3183669033903205
1731474163.9695463,-0.42673540115356445,0.5290296673774719,-9.97465991973877,0.008549134959707515,-0.0858313948745629,0.0024984691848926113,1.253127703418521,5.247195269595854,1.312650900586967
1731474164.0205133,-0.41879597306251526,0.5388911366462708,-9.974834442138672,0.011966961910453624,-0.0845976733258081,0.002645783230539501,1.251712429853927,5.2392721189187945,1.3156088225928213
1731474164.070491,-0.38974595069885254,0.5596628785133362,-10.005626678466797,0.01537724620927765,-0.08341438160743643,0.0027943169372844873,1.2503686785306238,5.231345599001552,1.3184959056720529
1731474164.1204576,-0.38974595069885254,0.5596628785133362,-10.005626678466797,0.01877111381332916,-0.08228775465418711,0.0029439178382412905,1.2516339916771342,5.324285220293055,1.3127406025441728
1731474164.1204576,-0.38453778624534607,0.5208667516708374,-9.979079246520996,0.022139777200871947,-0.08122366976232423,0.0030942489887844146,1.2516266384345056,5.324238924058342,1.3127589305467027
1731474164.1704335,-0.3518224358558655,0.524154782295227,-9.996140480041504,0.02547443551002827,-0.08022755529589053,0.003244787663905656,1.2522808152435239,5.399209417498804,1.3071609997919331
1731474164.2203336,-0.34355854988098145,0.5191760063171387,-10.006608963012695,0.028766176055008513,-0.07930418434619282,0.0033949022761709654,1.251319724962119,5.392392512516573,1.3100130656513627
1731474164.270315,-0.3270731568336487,0.5440074801445007,-9.949302673339844,0.03200583751417102,-0.07845756961228302,0.0035438919146027004,1.251606321539091,5.458114824563438,1.3045093118339175
1731474164.3202639,-0.3096349239349365,0.5479848384857178,-10.00139331817627,0.03518390081988314,-0.07769104020670675,0.0036910691152294193,1.2508397628859658,5.4515572577006814,1.3073485156856006
1731474164.3701947,-0.3083556592464447,0.5252760648727417,-10.021833419799805,0.03829043728602433,-0.07700738191062154,0.003835815511857241,1.2501689593518774,5.444846519649888,1.310180224432123
1731474164.4201214,-0.32990550994873047,0.5256478190422058,-9.975671768188477,0.041315142251840416,-0.0764088720789693,0.003977461959700758,1.2495941719353985,5.437912004685031,1.3130353868020055
1731474164.4701505,-0.3092363774776459,0.5399481058120728,-9.969268798828125,0.04424749579309607,-0.07589721631319879,0.004115229858542303,1.2507526588047113,5.502461389260466,1.3073859476447103
1731474164.520042,-0.2887982428073883,0.5596032738685608,-9.972800254821777,0.04707693793322314,-0.07547356406725736,0.004248405886802966,1.25046082702504,5.495886462279683,1.3102231045949548
1731474164.5699935,-0.3595009446144104,0.7189980745315552,-9.982955932617188,0.04979297712997904,-0.07513880556201265,0.00437650177255909,1.2505876321447629,5.54849602002787,1.3046417343147192
1731474164.6199439,-0.6427477598190308,1.415651559829712,-9.925313949584961,0.05238567779947764,-0.07489490968140713,0.004499287998324865,1.2504829298880753,5.5420707440974475,1.3074741965023355
1731474164.6699345,-0.6165494918823242,0.5551245808601379,-9.866538047790527,0.05484701490020979,-0.07474736056775695,0.00461695701506446,1.2505122750352515,5.535472060651745,1.3103121486941713
1731474164.719879,-1.4786083698272705,0.4926488995552063,-10.089213371276855,0.05717316629132109,-0.07470570193790571,0.004730340533816701,1.2509534906781734,5.586765123265323,1.3047118160645526
1731474164.7698503,-0.5003513693809509,0.51936936378479,-9.853687286376953,0.059367127523451864,-0.07478055271815164,0.004840729719909379,1.251225595451558,5.580406774916374,1.3075354071524612
1731474164.8198128,0.04512631148099899,0.05102386325597763,-10.057523727416992,0.06143849028350637,-0.07498011801259283,0.004949516032794735,1.2508077090331113,5.622127470344574,1.3020044087917917
1731474164.869673,0.020476045086979866,0.24266284704208374,-10.213884353637695,0.06339823149261169,-0.0753080148151568,0.005057807689288734,1.2512399055050043,5.6158514585267465,1.304816345056921
1731474164.9197352,-0.06659018248319626,0.2546806335449219,-9.995284080505371,0.06525289221786584,-0.07576205802142918,0.005165639834563414,1.2507667481934621,5.6502198820352225,1.2993729081070222
