Timestamp,IMU_Linear_Acc_X,IMU_Linear_Acc_Y,IMU_Linear_Acc_Z,Filtered_X,Filtered_Y,Filtered_Z,Pose_X,Pose_Y,Pose_Z
1731474136.25901,-0.34130141139030457,0.4240894317626953,-9.983531951904297,-1.116147678814908e-05,-2.8591040188676735e-05,-2.736968120082383e-05,2.4447108475313724,8.158790167469824,0.880999981824947
1731474136.3090398,-0.3349152207374573,0.42120271921157837,-9.987563133239746,-1.5773521924990185e-05,-4.1103477379461315e-05,-3.980397350358697e-05,2.4439999979488185,8.16326717158046,0.8809999816464976
1731474136.3588867,-0.27416113018989563,0.43637028336524963,-9.988398551940918,-2.1735231927937594e-05,-5.6420254417913886e-05,-5.570566357674735e-05,2.4446968630594923,8.158165055714372,0.8809999813938952
1731474136.408835,-0.46316227316856384,0.3740302622318268,-9.99268913269043,-2.950537718439384e-05,-7.444925948229083e-05,-7.554122701140719e-05,2.444550806420853,8.159084934957214,0.8809999811432347
1731474136.4588637,-0.7430660724639893,0.23497319221496582,-10.004386901855469,-3.9102417145455594e-05,-9.471055682545618e-05,-9.983795946610154e-05,2.4444414122768774,8.159773910003592,0.8809999809096858
1731474136.5088224,-0.1835746020078659,0.5284029841423035,-9.957141876220703,-4.887168708857388e-05,-0.00011587907699851411,-0.00012919476347311119,2.4440274597896505,8.162381021682746,0.8809999795174539
1731474136.5587819,-0.32869449257850647,0.37620213627815247,-10.047292709350586,-5.5505399601006024e-05,-0.00013588560677025313,-0.00016425109975930902,2.443865475596745,8.163401212572584,0.880999978725231
1731474136.6086814,-0.3212164640426636,0.5026140809059143,-9.98022747039795,-5.566043078405136e-05,-0.00015264763926549954,-0.0002057242000565964,2.436449453834783,8.22425373211026,0.8809997273769632
1731474136.6586556,-0.3212164640426636,0.5026140809059143,-9.98022747039795,-4.701184795601734e-05,-0.00016466175032992853,-0.00025446992917566095,2.4309397843632046,8.267361977245114,0.880998899455295
1731474136.6586556,-0.3097893297672272,0.373074471950531,-9.942727088928223,-2.8163901153840298e-05,-0.00017121846534158306,-0.00031133277432064666,2.4309072055943317,8.267616873079179,0.8809988926670773
1731474136.7085814,-0.3097893297672272,0.373074471950531,-9.942727088928223,1.5299855051871155e-06,-0.00017214572627590133,-0.0003768369662146511,2.4384163404947854,8.209142586474284,0.8809972865967691
1731474136.7085814,-0.36415764689445496,0.45885133743286133,-10.01577377319336,4.204660116688595e-05,-0.0001672251725258104,-0.00045102585024342815,2.4384096779885787,8.209194712074996,0.8809972743246968
1731474136.7586725,-0.36415764689445496,0.45885133743286133,-10.01577377319336,9.294209786255819e-05,-0.00015604800338938965,-0.0005336558068542872,2.43727823076003,8.218047553161767,0.8809945227293138
1731474136.7586725,-0.3174515664577484,0.43460458517074585,-9.97563648223877,0.00015365515606543528,-0.0001383768301973223,-0.0006245605871008767,2.4372705424522625,8.218107714076673,0.8809944994817038
1731474136.808501,-0.3174515664577484,0.43460458517074585,-9.97563648223877,0.00022355252364755003,-0.00011434777500895298,-0.0007237537533576679,2.4362501972741737,8.194543803419437,0.8809902118792357
1731474136.808501,-0.37348827719688416,0.42250683903694153,-9.971975326538086,0.00030178863946093266,-8.435179457402483e-05,-0.0008312409879299208,2.4362407058578763,8.194552966056104,0.880990180438332
1731474136.858473,-0.3333224654197693,0.4560640752315521,-10.020543098449707,0.0003873395018793215,-4.889478610460202e-05,-0.0009469010626006842,2.4346734534574104,8.196066331155592,0.8809838149032773
1731474136.9084017,-0.3716474175453186,0.4254069924354553,-9.993083000183105,0.0004791868251582499,-8.583792025542033e-06,-0.0010705941769221464,2.4372293872777258,8.346197603016254,0.8809745587813671
1731474136.9583972,-0.30855798721313477,0.4505065679550171,-9.975634574890137,0.000576390450359076,3.584247471284269e-05,-0.0012022943027341674,2.4369159861652427,8.385166111793607,0.8809631498029228
1731474137.0092394,-0.30855798721313477,0.4505065679550171,-9.975634574890137,0.0006779692597413941,8.350482497869989e-05,-0.0013420262226124552,2.4365885236534175,8.177687569153461,0.880947969484744
1731474137.0092394,-0.33945232629776,0.44332513213157654,-10.006049156188965,0.0007827045686624046,0.0001333641337751321,-0.0014897290519374595,2.436586170120938,8.177371319971309,0.8809478475344027
1731474137.0592687,-0.33945232629776,0.44332513213157654,-10.006049156188965,0.0008891062699023772,0.00018421931894156923,-0.001645285105694528,2.4362674687504144,8.134398512036485,0.8809292317130095
1731474137.0592687,-0.30693483352661133,0.45724576711654663,-9.974886894226074,0.0009955501638228776,0.0002347487844811826,-0.0018086433977892535,2.436265258615007,8.13409946710066,0.8809290879224957
1731474137.1091747,-0.30693483352661133,0.45724576711654663,-9.974886894226074,0.0011003105835639014,0.0002835199495746626,-0.00197980057189289,2.4359499506524878,8.205106042715054,0.8809060406878475
1731474137.1091747,-0.3404017686843872,0.42924872040748596,-9.97957992553711,0.0012014787033574961,0.0003289803246455058,-0.0021586502698206587,2.4359480787940355,8.205113696694713,0.880905888688104
1731474137.159192,-0.3404017686843872,0.42924872040748596,-9.97957992553711,0.0012970174894830736,0.00036954637434798626,-0.002344897833829589,2.435634450561408,8.20640317320756,0.8808773724984492
1731474137.159192,-0.33027854561805725,0.4503231644630432,-9.993732452392578,0.0013849498470157096,0.000403749190817424,-0.002538095422542084,2.435632462727907,8.206411391411047,0.8808771722062634
1731474137.2090607,-0.3312438130378723,0.4298307001590729,-9.984983444213867,0.0014634614661646669,0.0004302814676154858,-0.002737723680931223,2.435320079160293,8.207711046633763,0.8808420540462081
1731474137.2591295,-0.32849225401878357,0.44427555799484253,-9.991825103759766,0.0015308790415569037,0.0004479651949200256,-0.0029432574664084218,2.4350145540737804,8.23461568939847,0.8808002703641656
1731474137.308942,-0.32849225401878357,0.44427555799484253,-9.991825103759766,0.001585633654255752,0.0004557340968107101,-0.003154194984091539,2.434711738787956,8.240704486422146,0.8807507867377785
1731474137.308942,-0.3466336131095886,0.43178790807724,-9.988767623901367,0.0016262664375058557,0.00045262338104525354,-0.0033700695628019186,2.434709895279047,8.24074180151131,0.880750459398138
1731474137.3589773,-0.3226473927497864,0.4400995373725891,-9.986501693725586,0.0016514718893776994,0.0004377763766392721,-0.003590447717995732,2.434410984343923,8.259127302688754,0.8806925420491015
1731474137.4088914,-0.3401765823364258,0.42628738284111023,-10.006254196166992,0.0016601239933427027,0.00041048249248931196,-0.003814922858394014,2.434112995470908,8.269192695515788,0.8806246551669571
1731474137.4588525,-0.3401765823364258,0.42628738284111023,-10.006254196166992,0.0016512711195117403,0.00037022108132459604,-0.004043158314990903,2.4338239364841927,8.277272148242384,0.8805481582024579
1731474137.4588525,-0.32638588547706604,0.4399968981742859,-9.992179870605469,0.001624143701005599,0.00031669062436979594,-0.004274958309785054,2.433822142817114,8.277329711189942,0.8805476489295345
1731474137.50879,-0.3352645933628082,0.4304140508174896,-9.980989456176758,0.0015781469102357421,0.0002497892243970416,-0.004510251899210654,2.433537211603282,8.286536585761516,0.8804606367157393
1731474137.5588923,-0.33292460441589355,0.43939563632011414,-9.997173309326172,0.0015128242927978485,0.0001695592451917277,-0.0047489857061647454,2.4332517942437404,8.295884886224766,0.880360682658781
1731474137.6086698,-0.33292460441589355,0.43939563632011414,-9.997173309326172,0.0014278444532338087,7.614398786036657e-05,-0.004991063723536932,2.432968842916187,8.293193186783531,0.8802479036337889
1731474137.6086698,-0.3363683819770813,0.4308415949344635,-9.980420112609863,0.0013230088224843398,-3.0238911092978498e-05,-0.005236368834324387,2.4329670805024857,8.293230665750807,0.8802471564085581
1731474137.6586838,-0.3302421271800995,0.4421899914741516,-9.979595184326172,0.0011982534803844352,-0.0001493054074227582,-0.0054847491789148245,2.432695913308025,8.299027805729901,0.880124960082322
1731474137.7086177,-0.3302421271800995,0.4421899914741516,-9.979595184326172,0.0010536373973884855,-0.0002807121835811774,-0.005735941155797147,2.4324230383177947,8.309081864234736,0.879986977511338
1731474137.7086177,-0.3371421694755554,0.43059173226356506,-9.996553421020508,0.0008893223220838987,-0.00042408071812093687,-0.005989534870862691,2.4324104969427407,8.309429042118238,0.8799802596080496
1731474137.758543,-0.3301190137863159,0.4375700056552887,-9.977168083190918,0.0007055686711954656,-0.0005789958574513077,-0.006245021731387875,2.4321506327757456,8.316645727624465,0.8798331437200434
1731474137.8085432,-0.34019094705581665,0.43010377883911133,-9.982741355895996,0.0005027469093794993,-0.0007449734806629395,-0.006501836803823508,2.431880683834509,8.324181616823351,0.8796639415965348
1731474137.8584952,-0.33192288875579834,0.43809831142425537,-9.991263389587402,0.000281346132950245,-0.000921444264654246,-0.006759353863000331,2.4316105575253686,8.331747791334728,0.8794773874418919
1731474137.9083514,-0.34595686197280884,0.4304082989692688,-9.981121063232422,4.198233986348327e-05,-0.0011077610687323708,-0.007016895287685966,2.431336592707783,8.325577348683685,0.8792702021112134
1731474137.9583144,-0.3420066237449646,0.443705290555954,-9.989968299865723,-0.00021458214015841206,-0.0013032169937794505,-0.007273764401379305,2.4310737800454096,8.330441369096132,0.8790541997361963
1731474138.0092392,-0.34163692593574524,0.42966023087501526,-9.989768028259277,-0.0004874158728933342,-0.0015070706049835668,-0.007529266085530543,2.4307991638531914,8.34570833953721,0.8788104325082896
1731474138.0592258,-0.33824580907821655,0.44014066457748413,-9.97556209564209,-0.0007754244806053964,-0.0017185624965969756,-0.007782717518999234,2.4305271984005765,8.354740611933336,0.8785511564091164
1731474138.1091983,-0.341629296541214,0.4363786280155182,-9.98953914642334,-0.0010773883328705984,-0.001936919180916403,-0.008033435259504545,2.430252789626977,8.363772339116526,0.8782719454589666
1731474138.1591976,-0.3402191698551178,0.43175989389419556,-9.978646278381348,-0.0013919960977778992,-0.0021613577608776977,-0.008280712712067234,2.42997605316961,8.372774132430784,0.8779731388635402
1731474138.209059,-0.3476492762565613,0.432100772857666,-9.985774040222168,-0.0017178553133102583,-0.0023910785524677773,-0.008523822029911018,2.42969635803179,8.381741062635047,0.877654457875317
1731474138.2590916,-0.33999305963516235,0.4344528317451477,-9.983550071716309,-0.0020534889852384954,-0.002625245280997443,-0.008762027465071749,2.429410085849415,8.351231140247112,0.8773120327491922
1731474138.3088815,-0.34422069787979126,0.4327370822429657,-9.9750337600708,-0.002397341472939988,-0.0028629835788412513,-0.008994591118106588,2.429120110096594,8.353861660454804,0.8769497276430325
1731474138.3589008,-0.3437175154685974,0.44072937965393066,-9.988846778869629,-0.0027478006327674494,-0.003103402631552521,-0.009220767808400917,2.42882233997866,8.356497194029862,0.8765629773778938
1731474138.4087975,-0.34332624077796936,0.4315757751464844,-9.98684024810791,-0.0031032172523385772,-0.0033456234662511135,-0.00943981603307904,2.428515026208801,8.356772221019618,0.8761498321001588
1731474138.458818,-0.33988749980926514,0.436118483543396,-9.992659568786621,-0.003461921566404926,-0.003588793506379663,-0.009651047292297902,2.428204615869388,8.359195022936062,0.875719830132513
1731474138.5087607,-0.3460216820240021,0.428290456533432,-9.99396800994873,-0.0038222465204024872,-0.0038320759976710733,-0.009853881203057012,2.427882444750853,8.361629664807566,0.8752618292942037
1731474138.5588555,-0.32766076922416687,0.4385663866996765,-9.993430137634277,-0.004182556308063591,-0.004074634073213307,-0.010047878939639316,2.4275494929180037,8.367898738577308,0.8747777999637533
1731474138.6086557,-0.3306537866592407,0.4353063106536865,-9.987985610961914,-0.0045412992552890654,-0.004315637763226261,-0.010232748825355176,2.427201157601813,8.37162293309066,0.8742617133623064
1731474138.6586676,-0.3333236277103424,0.4373985528945923,-9.995209693908691,-0.00489707653204082,-0.004554291970504993,-0.010408324208052004,2.426851886308772,8.378984203482524,0.8737360257255423
1731474138.7086084,-0.3319365978240967,0.4339129328727722,-9.97912311553955,-0.005248668584517743,-0.0047898554861116015,-0.010574530846272705,2.4264844568687995,8.389064816501367,0.8731761231493349
1731474138.758562,-0.333381712436676,0.4398839473724365,-9.9823637008667,-0.005595015202160722,-0.005021641870750559,-0.010731340881628963,2.426105059276543,8.395405218644063,0.8725918992163295
1731474138.8085184,-0.3302189111709595,0.438150554895401,-9.991358757019043,-0.005935195171046468,-0.005249024061406388,-0.010878723457310436,2.42570968615416,8.40175965378198,0.8719782718621261
1731474138.8586066,-0.3308621346950531,0.44120118021965027,-9.983616828918457,-0.006268420691853047,-0.005471450340565445,-0.011016640444808632,2.4252973820116046,8.408126291997057,0.8713346553442809
1731474138.8586066,-0.3308621346950531,0.44120118021965027,-9.983616828918457,-0.0065940367906524395,-0.005688459259630133,-0.011145069406888655,2.4251664294369966,8.39874337562244,0.8711298218177271
1731474139.2399957,-0.3376094102859497,0.43933042883872986,-9.987139701843262,-0.006911509446199059,-0.005899685507165738,-0.011264001850123629,2.42160474732129,8.434101359833313,0.865522587377344
1731474139.2900891,-0.3423849642276764,0.43753117322921753,-9.985186576843262,-0.007220385927643427,-0.0061048511846293636,-0.011373436209880355,2.4210438931344638,8.437386549718152,0.8646360461833311
1731474139.3398674,-0.34360605478286743,0.4366273581981659,-9.992426872253418,-0.0075202333381811665,-0.006303741903023974,-0.011473392308431278,2.4204700295718187,8.436929977045084,0.8637299911842475
1731474139.389985,-0.3389294445514679,0.4368346929550171,-9.979833602905273,-0.00781059163909345,-0.006496181081907916,-0.011563928805520408,2.4198703621645925,8.441639888770087,0.8627841787864888
1731474139.4397805,-0.3331068754196167,0.42958614230155945,-9.990646362304688,-0.008090976933456881,-0.006682008575442878,-0.011645140431181498,2.4192359745379295,8.446442077314536,0.8617860549340159
1731474139.4898527,-0.335146963596344,0.4248596131801605,-9.98840618133545,-0.008360928361798386,-0.006861047266943514,-0.011717148870312716,2.4186184589392794,8.450949707033734,0.8608175136933486
1731474139.539713,-0.3328384459018707,0.4296468496322632,-9.984148025512695,-0.008620054251615132,-0.0070330573451783274,-0.011780109196730837,2.417963941896961,8.446220618832314,0.8597954088184747
1731474139.5897124,-0.3328384459018707,0.4296468496322632,-9.984148025512695,-0.008868051407546845,-0.007197716195837039,-0.011834207473219381,2.4172830483396437,8.449628118345043,0.8587360965930804
1731474139.5897124,-0.3308675289154053,0.4361976087093353,-9.986226081848145,-0.009104710432336382,-0.00735464497042703,-0.011879638768314806,2.4172831822399363,8.450366179600143,0.8587371259210456
1731474139.639718,-0.3300713300704956,0.44613346457481384,-9.986385345458984,-0.009329921536099278,-0.007503469380738139,-0.011916598123262826,2.416577557983104,8.45521059228559,0.8576450787093183
1731474139.6895943,-0.3355879783630371,0.4400116503238678,-9.9830961227417,-0.009543674827563346,-0.0076438959616299896,-0.011945287593959096,2.4158520018213503,8.460010983824159,0.8565288662129751
1731474139.7396622,-0.3371192514896393,0.4425605237483978,-9.980547904968262,-0.009746039088807617,-0.007775763666265255,-0.011965911364724085,2.4150990807868866,8.464812949068197,0.8553777883658517
1731474139.789675,-0.33719924092292786,0.4419511556625366,-9.980554580688477,-0.009937122077630022,-0.007899046068318795,-0.011978652912326885,2.4143267348197486,8.469563041775281,0.8542046639302586
1731474139.8395355,-0.3354564905166626,0.445912629365921,-9.973817825317383,-0.010117041063196166,-0.008013836566525177,-0.011983648886195838,2.413525547446434,8.474316499996545,0.8529958531273129
1731474139.8896139,-0.3405797779560089,0.44538143277168274,-9.989174842834473,-0.01028591465732328,-0.008120346543005143,-0.011980976497463915,2.4127023135578356,8.464128130266253,0.8517633370159484
1731474139.9394777,-0.33414551615715027,0.4462050497531891,-9.99086856842041,-0.010443860287191258,-0.00821890851662408,-0.01197068422638901,2.4118494724371993,8.466474056547291,0.8504942997270298
1731474139.9894018,-0.3440423011779785,0.44702938199043274,-9.984944343566895,-0.01059098985828872,-0.008309971509238269,-0.01195285952514292,2.4109764339994504,8.471912275590194,0.8492056672963761
1731474140.0392613,-0.32870543003082275,0.43953606486320496,-9.982325553894043,-0.010727409477935027,-0.008394083339472735,-0.011927661130495712,2.410074905375683,8.474957458943425,0.8478831049209377
1731474140.089296,-0.34796392917633057,0.4402678906917572,-9.993621826171875,-0.010853226316828847,-0.008471852513089132,-0.01189529969160687,2.409141092771254,8.477999241271544,0.8465229989507029
1731474140.1402464,-0.33399584889411926,0.432169646024704,-9.98773193359375,-0.010968547752205763,-0.008543892891869107,-0.01185603341486802,2.4081648912647515,8.4810658495024,0.8451114804247187
1731474140.1902158,-0.339699923992157,0.42898687720298767,-9.98838996887207,-0.011073471980202795,-0.008610763531604112,-0.011810187906924834,2.4071798988356776,8.483260291362548,0.8436992217400736
1731474140.2401154,-0.34191736578941345,0.42445263266563416,-9.988052368164062,-0.0111680901455359,-0.00867290898133372,-0.011758155068481515,2.406164270364081,8.48617487762014,0.8422518197105838
1731474140.2900033,-0.32970547676086426,0.4250764548778534,-9.985917091369629,-0.011252496104587034,-0.00873061175344932,-0.011700372053904508,2.405127152046271,8.495503284480376,0.8407863297725156
1731474140.3400288,-0.32910072803497314,0.4251329004764557,-9.99003791809082,-0.011326814147587693,-0.008783974331531002,-0.011637304580126608,2.4040541631838668,8.50608093207389,0.8392811673473446
1731474140.3900661,-0.3384392559528351,0.42610400915145874,-9.983735084533691,-0.01139124421933505,-0.008832932238612997,-0.011569437953502074,2.402954762570021,8.513290672287997,0.8377475687670638
1731474140.439955,-0.3377346694469452,0.435489296913147,-9.978569030761719,-0.011446065104912893,-0.008877292365079743,-0.011497258933970923,2.401826513114725,8.520480082849522,0.8361847243946173
1731474140.4899478,-0.33423569798469543,0.4322376847267151,-9.991771697998047,-0.011491592402795238,-0.0089167936436597,-0.011421225371596505,2.4006634996427585,8.526212018256173,0.8345874042946412
1731474140.5398195,-0.3368098735809326,0.4413033127784729,-9.979137420654297,-0.011528154928916358,-0.00895117337036198,-0.011341757669849375,2.3994930435851773,8.532133868873968,0.8329883281984808
1731474140.5896668,-0.32903242111206055,0.43979355692863464,-9.979314804077148,-0.011556104169951908,-0.008980221431296863,-0.011259244199011953,2.3982870977327524,8.53806952703746,0.8313517611275923
1731474140.6397073,-0.33598414063453674,0.4474576413631439,-9.982017517089844,-0.011575832244550716,-0.00900382465846101,-0.011174022161752435,2.3970406482562585,8.54403950888205,0.8296714422973323
1731474140.6897366,-0.341476172208786,0.44930747151374817,-9.990230560302734,-0.011587771405538246,-0.009022007084797766,-0.011086368560486472,2.3957720927010215,8.544602684217786,0.8279756434284183
1731474140.7397206,-0.3397352695465088,0.44789478182792664,-9.97748851776123,-0.011592357077932026,-0.009034961189650945,-0.010996530556524046,2.3944670644139023,8.549762392162803,0.8262391619171588
1731474140.7895658,-0.3330007493495941,0.44037196040153503,-9.997563362121582,-0.011589991023351016,-0.009043047240538294,-0.010904755947621057,2.3931421188571695,8.554864155717269,0.824487320779193
1731474140.8395772,-0.03880907967686653,0.5903394818305969,-9.978856086730957,-0.011581317584250947,-0.009046879860612913,-0.01081131110801056,2.391779599776371,8.559976094816264,0.8226969817435967
1731474140.8895676,-0.0758434385061264,0.5316457748413086,-10.008713722229004,-0.011568244593792956,-0.009047726746382559,-0.010716506661531445,2.3904038579694604,8.566086598640705,0.8209043193027612
1731474140.9393978,0.48951706290245056,0.8079436421394348,-9.981762886047363,-0.011555718234303635,-0.009048213576837579,-0.010620732109210752,2.3889898158150005,8.571857719087415,0.8190686492368393
1731474140.9892786,0.7771492004394531,0.6103816628456116,-10.015816688537598,-0.011554356765897007,-0.009053117996830876,-0.01052448660190556,2.3875569955397995,8.584229968897194,0.817224079683012
1731474141.0394018,0.1431780755519867,0.499295175075531,-10.044015884399414,-0.011583099361232575,-0.009069586565517661,-0.010428450869529477,2.38606639439778,8.59113108196193,0.815311738854304
1731474141.0892773,0.413790225982666,0.48516714572906494,-9.909783363342285,-0.011669212079988864,-0.009106145599722486,-0.010333547009439897,2.3845732635361454,8.597887281738396,0.8134074395027716
1731474141.1401522,0.038903508335351944,0.3011943995952606,-9.996171951293945,-0.011845421047987241,-0.009171099818242167,-0.010240736836028752,2.3830209983569435,8.600537397714206,0.811445062597924
1731474141.1902132,0.22217567265033722,0.33590275049209595,-10.001534461975098,-0.012146889586831426,-0.009271164734122008,-0.010150727910089842,2.381453745740162,8.60613233729043,0.8094710556845786
1731474141.2402446,0.017560504376888275,0.20069876313209534,-9.97430419921875,-0.012609201881899134,-0.009410464827935647,-0.010064006551884589,2.379857672718519,8.614546331449262,0.8074806163056527
1731474141.2901216,-0.7728275656700134,-0.02461777999997139,-9.977519989013672,-0.013266205338904005,-0.009589675882807035,-0.0099809885791853,2.3782355160574147,8.621389016205706,0.8054668936953479
1731474141.3400016,-1.2074174880981445,-0.021463442593812943,-10.009428024291992,-0.014145727628684374,-0.009804936841707745,-0.009902014294406432,2.3765789441795424,8.628253954519499,0.8034347935550739
1731474141.3900766,-0.23980385065078735,0.27316224575042725,-9.937684059143066,-0.015264484143806163,-0.010047166267606131,-0.00982732907364767,2.3748844404665226,8.635364600256754,0.80136989748629
1731474141.4400213,-0.7082184553146362,0.12128511071205139,-10.163931846618652,-0.016627091845685275,-0.010302952068284597,-0.009757197879038811,2.373143527873143,8.642476718471212,0.7992726172205149
1731474141.4898539,-0.29287877678871155,0.4290388226509094,-9.929959297180176,-0.01822931765546716,-0.01055648635917114,-0.009692231129849821,2.3713793715998714,8.626609160858026,0.7971827848046198
1731474141.5398967,-0.5628702044487,0.09986446797847748,-10.001678466796875,-0.020061119311776295,-0.010791170990545365,-0.009633536962912912,2.3695453917000338,8.628351649049534,0.7950352296932164
1731474141.5897396,-0.3513105511665344,0.46714502573013306,-10.08678913116455,-0.022108131473076803,-0.010990471147318194,-0.009582451156414344,2.367676787156284,8.630050354752612,0.7928845187630965
1731474141.6397777,-0.5107159614562988,0.16161222755908966,-9.946783065795898,-0.024352573205610944,-0.011138364653142652,-0.009540411862392394,2.3657310896879307,8.625323292149229,0.7906977513536683
1731474141.6896517,-0.4068586826324463,0.43703973293304443,-9.962201118469238,-0.026773897322661215,-0.011219709444379795,-0.009508939018538082,2.3637396111365634,8.626034787216343,0.7884978841315671
1731474141.7396317,-0.49801453948020935,0.2526971399784088,-10.004266738891602,-0.02934927039054363,-0.011220533013762734,-0.009489306577805228,2.36165754061977,8.626725314806224,0.7862519263285918
1731474141.789641,-0.37864023447036743,0.4197238087654114,-9.953781127929688,-0.0320540258417701,-0.011128276059404894,-0.009482319915444893,2.35952100244494,8.627380877639572,0.784005880139448
1731474141.8394883,-0.42949461936950684,0.29616859555244446,-9.941106796264648,-0.03486224846665113,-0.010931997313657533,-0.009488333305127475,2.3572974573702528,8.619677937203765,0.7817436408546408
1731474141.8893626,-0.41107162833213806,0.3372349739074707,-10.000696182250977,-0.037747420240051316,-0.010622402972150207,-0.009507207127886217,2.354992510094334,8.601112166264443,0.7794682057851083
1731474141.9393225,-0.3805420398712158,0.7001015543937683,-9.957939147949219,-0.040682913602340075,-0.010192022703511586,-0.009538340361254304,2.352571374025747,8.593748768022119,0.7771376961371588
1731474141.9893405,-0.4000968039035797,0.667378306388855,-9.877378463745117,-0.04364237551829706,-0.009636302900212435,-0.009580744430483703,2.3500490910698715,8.580341831218776,0.7748018552651326
1731474142.0393183,-0.4872780740261078,1.1421082019805908,-9.997286796569824,-0.046599985603858696,-0.00895560300007716,-0.009632897190213473,2.3473960288548255,8.570713623288055,0.7724115146943693
1731474142.0892508,-0.4453103244304657,0.9864438772201538,-9.849359512329102,-0.04953039253365815,-0.008157260663447397,-0.009692599373360335,2.344655418943401,8.5611791716915,0.7700257484733806
1731474142.139246,-0.5104879140853882,0.7967690229415894,-10.028023719787598,-0.052408503761052286,-0.007256563820471514,-0.00975704591195376,2.3417755908708697,8.558551432484668,0.7676208554247282
1731474142.1901712,-0.3782177269458771,0.7711344957351685,-9.996058464050293,-0.05520951984776901,-0.006275566682367265,-0.009823122507913869,2.3386958319678652,8.551411455671127,0.765123352893343
1731474142.2401364,-0.4499201774597168,0.7072227597236633,-10.010408401489258,-0.05790932774334612,-0.005240553407036058,-0.009887925617729677,2.3355311549427547,8.531246135164917,0.7626660038186039
1731474142.2900872,-0.3696022629737854,0.713841438293457,-10.044113159179688,-0.06048504060774565,-0.004179941500923476,-0.0099491843069755,2.3322306108153565,8.51926914310154,0.7601750758500341
1731474142.3400176,-0.42195576429367065,0.5679761171340942,-9.984193801879883,-0.06291539703526107,-0.003122929768830696,-0.010005383486635716,2.328752798062101,8.507201098179907,0.7576420998551632
1731474142.3899982,-0.30900314450263977,0.6061761379241943,-10.027217864990234,-0.06518103016724,-0.0020983318672571725,-0.010055697832181448,2.3251467216719055,8.495233156316985,0.755106596463202
1731474142.4399173,-0.36433690786361694,0.5541598200798035,-9.993165969848633,-0.06726477749164053,-0.0011335514337016562,-0.01009983508261848,2.3213562030819257,8.507965816610005,0.7525533649091203
1731474142.4898849,-0.3449501693248749,0.5600143671035767,-10.049895286560059,-0.0691519428556091,-0.000253948085504656,-0.01013793729120795,2.3174118112744697,8.501237200956991,0.7499649227542159
1731474142.5398262,-0.3449501693248749,0.5600143671035767,-10.049895286560059,-0.07083031907472065,0.0005174508913125555,-0.010170637400666009,2.3132888405934158,8.48002097805769,0.7473715854336576
1731474142.5398262,-0.3187732696533203,0.5636372566223145,-10.002037048339844,-0.07229008741215148,0.0011600465411374195,-0.010199159001493822,2.3132649652088646,8.479951444128638,0.7473566808202925
1731474142.5898345,-0.30297085642814636,0.5662887096405029,-10.012564659118652,-0.0735238097556529,0.0016556265912699053,-0.010225224809605245,2.380994782790655,8.449783802674531,0.7447581626045566
1731474142.6396751,-0.3056734502315521,0.5174658894538879,-10.006267547607422,-0.0745264853500966,0.001988313145620687,-0.0102507863817091,2.3782141859319585,8.43051562712693,0.7420763072760225
1731474142.689624,-0.32618317008018494,0.5069574117660522,-9.982719421386719,-0.07529551383093344,0.002144649628258247,-0.01027780667207782,2.375267180361725,8.411389076024776,0.7393879490303806
1731474142.7396877,-0.273434042930603,0.514680802822113,-9.964303016662598,-0.07583052790780233,0.0021137792159833715,-0.010308092961986877,2.3720980798897258,8.392060364561829,0.7366445255658663
1731474142.7895157,-0.2996521592140198,0.5227103233337402,-9.985552787780762,-0.07613324838541363,0.0018874872499088078,-0.010343108954190341,2.377752957201428,8.43077672334147,0.7339544700862142
1731474142.8395174,-0.3358599841594696,0.5379204750061035,-9.958097457885742,-0.07620735967042985,0.0014600154791489005,-0.010383867917237912,2.3760639023300945,8.422420131160512,0.7311542205432348
1731474142.8894358,-0.336078017950058,0.4931144118309021,-9.98670482635498,-0.07605819946224365,0.000827807401460975,-0.0104309389123642,2.374217229957734,8.41421519410085,0.7284191161079221
1731474142.939421,-0.33337661623954773,0.5128029584884644,-10.005820274353027,-0.07569233560824945,-1.0627969084444342e-05,-0.010484534605685153,2.372151408648285,8.405884174563814,0.7255742501313185
1731474142.989331,-0.3498041331768036,0.4721747934818268,-9.94282341003418,-0.07511727187072142,-0.001054733064681223,-0.010544644823191424,2.369920382489859,8.397641377532404,0.7227338284000963
1731474143.0392566,-0.32534632086753845,0.5132566094398499,-9.986802101135254,-0.07434128962348009,-0.0023019334628969577,-0.01061106005976498,2.3674944337383934,8.38936087648823,0.7198555464423352
1731474143.0892653,-0.3674081265926361,0.5218324065208435,-10.014200210571289,-0.07337332902471813,-0.0037478049960849333,-0.010683337042168561,2.36488692703782,8.381075031180188,0.7169995018949145
1731474143.1392438,-0.40713658928871155,0.5078936219215393,-9.99518871307373,-0.07222279505047341,-0.005386382330650942,-0.01076094429065408,2.362084317168338,8.37274269892998,0.7140568198759464
1731474143.1901145,-0.3748840391635895,0.5032426118850708,-9.95654582977295,-0.07089922861296237,-0.007210431880722167,-0.01084342381053836,2.3590666271515857,8.364285816132965,0.7111007689049037
1731474143.2401328,-0.41319382190704346,0.513997495174408,-10.000679969787598,-0.06941202830143656,-0.009211582769123549,-0.01093031775801493,2.3559191179153425,8.355929825123633,0.7081640168841711
1731474143.2901106,-0.4174082279205322,0.5009680390357971,-9.988465309143066,-0.0677703265603316,-0.011380428035685519,-0.011021065759030063,2.3525944537320127,8.347551752703252,0.7051464065830546
1731474143.3401623,-0.4119400978088379,0.5024043917655945,-9.968817710876465,-0.06598289637574659,-0.013706649885439716,-0.011115044092731506,2.3490910077263267,8.339115177128516,0.7020912636155064
1731474143.3899338,-0.3861069083213806,0.4877097010612488,-9.973749160766602,-0.06405812141095485,-0.01617911376495222,-0.011211571482946636,2.34546235634992,8.330728206744451,0.6990398214669786
1731474143.4400024,-0.3813762664794922,0.4656544327735901,-10.00214672088623,-0.06200413803840113,-0.01878590425230589,-0.011309856280533485,2.3416398799980787,8.322190721355348,0.6959862472301123
1731474143.489819,-0.3586125075817108,0.4547431170940399,-9.964475631713867,-0.059829071553801634,-0.021514297222614883,-0.011409033555843617,2.3377059109113705,8.313713862378293,0.6928806785043563
1731474143.5397732,-0.3363964855670929,0.4302753210067749,-9.970362663269043,-0.05754126619889828,-0.02435069492805691,-0.011508207805036356,2.3335824227623037,8.305087782802216,0.6897127932791433
1731474143.5897393,-0.3230259418487549,0.4246014356613159,-10.018203735351562,-0.05514950420099458,-0.027280575182018322,-0.011606434571956583,2.329372548566907,8.296475373966809,0.686618259540329
1731474143.6397502,-0.3195480704307556,0.4174511432647705,-9.99730110168457,-0.05266318491631594,-0.03028849315523348,-0.01170281348207109,2.324965539758142,8.287696657794587,0.6833872012443749
1731474143.6896462,-0.29733991622924805,0.400546669960022,-9.969202995300293,-0.05009241305625732,-0.03335815051905072,-0.01179663703224736,2.3204699697740234,8.278917336256168,0.6801558222010221
1731474143.7396011,-0.2849956750869751,0.3818894624710083,-10.001726150512695,-0.04744803315446705,-0.03647248386600423,-0.011887362889066829,2.315850101762402,8.269994659097817,0.6769581072565922
1731474143.789569,-0.2620607912540436,0.3989132344722748,-10.011852264404297,-0.044741676107836484,-0.03961374308866387,-0.011974538329185524,2.3111152399732657,8.26102546229286,0.6736654808448224
1731474143.8395295,-0.3114404082298279,0.37750130891799927,-9.98075008392334,-0.041985761575219924,-0.04276362405685412,-0.012057856992653286,2.3062798912728564,8.251895205162532,0.6704141147496717
1731474143.8895874,-0.29066282510757446,0.38888999819755554,-10.001361846923828,-0.03919332552377407,-0.0459034671015761,-0.01213719445552469,2.3012720289197417,8.242591529828076,0.6670183166990765
1731474143.939539,-0.31284046173095703,0.36997202038764954,-10.00731372833252,-0.03637771224047498,-0.04901445089245261,-0.012212560738309121,2.2962578007727923,8.233332606771192,0.6636516281678583
1731474143.9893997,-0.27976566553115845,0.3753986358642578,-10.026233673095703,-0.033552324893012374,-0.05207775400972443,-0.012284127881547494,2.291136174160948,8.223910077737823,0.6602406424068592
1731474144.0392823,-0.2954639196395874,0.3394887149333954,-9.958551406860352,-0.03073051582649997,-0.05507467403402827,-0.012352289913150702,2.2859700254180013,8.214337731894757,0.6568981718251828
1731474144.089266,-0.5322554707527161,-0.19363191723823547,-10.011695861816406,-0.027925318831747453,-0.05798619551238877,-0.012417571864632906,2.280686742779861,8.204622799939354,0.6534201651777158
1731474144.139285,-0.4975226819515228,-0.47324222326278687,-10.109478950500488,-0.02514856439521683,-0.06079091771954571,-0.012480591633216881,2.2753636376093542,8.1946809815699,0.6499997801016221
1731474144.1902807,-0.6517626047134399,-0.1517183631658554,-10.05496883392334,-0.022409624743216738,-0.06346198330906606,-0.012542401535403558,2.269808321493548,8.18438596456884,0.646363498586036
1731474144.2401178,-0.7958483099937439,-0.4603233337402344,-10.047149658203125,-0.019714328068820904,-0.06596569273912747,-0.012604863961802134,2.2644182511640025,8.174235682740825,0.6429232847830613
1731474144.2899477,-0.3774668574333191,0.1904527246952057,-9.920002937316895,-0.01706437648519319,-0.0682627359849288,-0.012670467797527146,2.2589430800482786,8.163941687206822,0.6393415029685657
1731474144.3399312,-0.7103548049926758,-0.2533815801143646,-10.023809432983398,-0.014457866557076347,-0.07031078740335014,-0.012741686679083333,2.2534088647066794,8.15332641259565,0.6358038341697495
1731474144.389945,-0.5084047317504883,0.20593859255313873,-9.930323600769043,-0.011890454673989807,-0.07206709738574649,-0.01282047355587976,2.247795521368347,8.142553741435322,0.6321155753180326
1731474144.4399543,-0.6116470098495483,0.06604569405317307,-9.929553985595703,-0.00935600604777614,-0.07349041414365161,-0.012908069257506368,2.2422419238014766,8.131638422563318,0.6285445155114187
1731474144.489831,-0.5259138345718384,0.24936124682426453,-9.96333122253418,-0.00684693182299941,-0.07454255884027189,-0.013004871331114604,2.236685024813274,8.120561974677686,0.6249547262905827
1731474144.5398407,-0.5633005499839783,0.1612505167722702,-9.892698287963867,-0.004354667289962994,-0.07518970230764502,-0.013110361234079713,2.23103277313971,8.109271914682347,0.6211844983549338
1731474144.5897121,-0.5227437615394592,0.1753193736076355,-9.91405963897705,-0.0018701242654482982,-0.07540293783302288,-0.013223103448137236,2.2253995689343875,8.097848008900229,0.6173993812896684
1731474144.6397834,-0.530639111995697,0.1455938071012497,-9.948212623596191,0.0006159356773626466,-0.07515821842749634,-0.013340743298850008,2.219736537808373,8.086178478448625,0.6135620483010215
1731474144.6897333,-0.4877649247646332,0.19532594084739685,-9.93302059173584,0.003112558294765244,-0.0744360449890023,-0.013460170925959719,2.2141540130200545,8.074302513875638,0.6098443371790991
1731474144.7396362,-0.4850020408630371,0.15887004137039185,-9.961091995239258,0.0056282478749297375,-0.07322126014109678,-0.013577838670457377,2.208515221993473,8.062275621813539,0.6059458966590632
1731474144.7895703,-0.042006008327007294,0.42955347895622253,-9.968608856201172,0.008170251621626124,-0.07150316550694688,-0.013690037433215237,2.202906177935817,8.050095123674664,0.6020221494630794
1731474144.8395107,0.20982344448566437,0.5299987196922302,-9.996824264526367,0.010742629954409118,-0.06927631306916966,-0.01379314748654004,2.1973923054151534,8.037680954172448,0.5982205836957926
1731474144.8894217,-0.2961362600326538,0.27400559186935425,-10.028383255004883,0.01334374809660813,-0.06654160879084772,-0.013883930195897867,2.1918262416410195,8.025127597294597,0.5942207450140968
1731474144.9395008,-0.07620701938867569,0.45252323150634766,-9.962984085083008,0.01596577286636498,-0.06330639682583476,-0.013959774489684173,2.1863722325201675,8.012337999965409,0.5903489672563951
1731474144.989377,-0.3626199960708618,0.24273060262203217,-10.05359172821045,0.018596547961998267,-0.059583411094483056,-0.01401876578048372,2.180896106208335,7.999487247836984,0.5862869651560197
1731474145.0394049,-0.1496284306049347,0.48473837971687317,-10.041500091552734,0.021221597726741048,-0.055389738634312256,-0.014059713683977928,2.175547497073757,7.986398215318153,0.5823580799080819
1731474145.0892012,-0.1496284306049347,0.48473837971687317,-10.041500091552734,0.023825062366514917,-0.0507464382384276,-0.014082305037454402,2.1702048293470595,7.9733340240081905,0.57824741266288
1731474145.0892012,-0.3409866988658905,0.2217046469449997,-10.007319450378418,0.02638993061837675,-0.04567848720054155,-0.014087156214840713,2.1701716412007994,7.973252024649962,0.5782216259926796
1731474145.1393504,-0.19522902369499207,0.4383619427680969,-10.02239990234375,0.028898454796890752,-0.040214135995658526,-0.014075603813100648,2.1649503160655743,7.959891120204596,0.5742289551406077
1731474145.1891997,-0.3174585700035095,0.26658883690834045,-9.997493743896484,0.0313329006564884,-0.03438380336216315,-0.014049425787804777,2.1597512495589655,7.946622893924308,0.5700508451820422
1731474145.2401588,-0.2567730247974396,0.41878947615623474,-9.975645065307617,0.033676055459510086,-0.02821941822166996,-0.01401061126004246,2.1544964258197146,7.932919013853369,0.5657248019699352
1731474145.290124,-0.31867489218711853,0.322895348072052,-10.004502296447754,0.035911521935655444,-0.021754164205203555,-0.013961148957351933,2.1494515386831545,7.919472001347485,0.561464562713491
1731474145.3400424,-0.2900391221046448,0.4151308536529541,-9.99188232421875,0.03802400232457821,-0.015022291522267073,-0.013902908692718126,2.144591626245865,7.905818863898073,0.5573570943750936
1731474145.390102,-0.331870973110199,0.35072141885757446,-9.961592674255371,0.039999518934681025,-0.00805894150545383,-0.013837624740760002,2.1397064383892705,7.892206734292481,0.5530007916359456
1731474145.4399805,-0.31109046936035156,0.4003080129623413,-9.982954025268555,0.0418255805509198,-0.0008999228334061341,-0.013766826750643352,2.1350813064109055,7.878564140866896,0.5488569911260686
1731474145.4899025,-0.3297779858112335,0.40445318818092346,-9.977746963500977,0.04349129011783158,0.006418526902932186,-0.013691745787018593,2.130427981880387,7.865004579422277,0.5444525918089314
1731474145.5398126,-0.3312694728374481,0.4171616733074188,-9.975252151489258,0.04498738620191178,0.013859902592380404,-0.013613322193873375,2.1258805089869712,7.851456990404406,0.5400097798731313
1731474145.589731,-0.3365127444267273,0.42672958970069885,-9.98169231414795,0.046306258797699826,0.021387539390435098,-0.013532259596643323,2.1216116861584586,7.837893848842453,0.5357911997256347
1731474145.6397784,-0.6444383859634399,0.252627432346344,-9.986760139465332,0.04744222801719453,0.028964917305253697,-0.013449069648186943,2.117266869804297,7.824354267429609,0.531250218961457
1731474145.6896195,-0.5891392230987549,0.3251998722553253,-9.954066276550293,0.048392518454885916,0.036556403934989226,-0.01336410724311687,2.1130896371382812,7.811046484566518,0.5267262218255573
1731474145.739691,-0.7718563675880432,0.09749940782785416,-9.974160194396973,0.04915859325313392,0.04412827153412234,-0.01327754098575467,2.108998678461632,7.797724842508058,0.5221296480183109
1731474145.7895942,-0.7718563675880432,0.09749940782785416,-9.974160194396973,0.049747060829231235,0.051649764596051376,-0.013189301503440685,2.1052441516900555,7.784517860588073,0.5178126569891343
1731474145.7895942,-0.46285444498062134,0.407083123922348,-9.982929229736328,0.05016969591912132,0.05909378909610699,-0.013099123829851015,2.1052273305522866,7.784461210596079,0.5177926333894967
1731474145.839546,-0.46285444498062134,0.407083123922348,-9.982929229736328,0.050442101418273204,0.06643626539278927,-0.013006657025063605,2.101410826322272,7.7714785416327965,0.513158102380174
1731474145.839546,0.17480438947677612,0.5993920564651489,-9.956948280334473,0.050580948474485306,0.07365428040890706,-0.012911526101887333,2.101387362750824,7.771397901206767,0.5131290275007011
1731474145.8895202,0.17480438947677612,0.5993920564651489,-9.956948280334473,0.05060028610304273,0.08072435402157292,-0.012813281280221085,2.0978317870641487,7.758557794422896,0.5087825213093459
1731474145.8895202,-0.4296962022781372,0.3416212499141693,-10.036373138427734,0.05050866520744831,0.08762171119942251,-0.012711357179623139,2.097809949159329,7.758481311566067,0.5087543363761095
1731474145.9394314,-0.10667605698108673,0.5735830664634705,-9.944799423217773,0.05030952413096697,0.09432080714196416,-0.012605210594034825,2.0942459809524876,7.7458965033677964,0.5040572949537125
1731474145.9893925,-0.10667605698108673,0.5735830664634705,-9.944799423217773,0.05000351175467116,0.10079615630401581,-0.012494403431563257,2.0908814817563477,7.733450447707762,0.49964669342038953
1731474145.9893925,-0.4261827766895294,0.25164923071861267,-9.998679161071777,0.049589687048938375,0.10702263523684903,-0.012378436614767833,2.0908620938766833,7.733380300152023,0.4996194728894063
1731474146.0393891,-0.4261827766895294,0.25164923071861267,-9.998679161071777,0.04906637061801136,0.11297634318268256,-0.012256705940583246,2.0875476064563236,7.721307192712232,0.49486429031801205
1731474146.0393891,-0.1757666915655136,0.5858380794525146,-10.030649185180664,0.048432555496612684,0.11863600724744866,-0.012128767351781169,2.087532124639906,7.721250408442359,0.4948415868822358
1731474146.0892906,-0.1757666915655136,0.5858380794525146,-10.030649185180664,0.047688139405550806,0.12398288863711396,-0.01199463207110046,2.0843652409397126,7.709572192437734,0.4900966774185308
1731474146.0892906,-0.36952340602874756,0.26452311873435974,-9.984543800354004,0.046832975386760275,0.12899950818485498,-0.011854882391412871,2.084346466200474,7.709502572993124,0.4900679265533201
1731474146.1392066,-0.36952340602874756,0.26452311873435974,-9.984543800354004,0.04586675361543382,0.13366974191629988,-0.011710532607958636,2.081287136377534,7.698112991279599,0.4852815134960447
1731474146.1392066,-0.2180897742509842,0.5275964140892029,-9.984308242797852,0.044789791964865044,0.13798014190301344,-0.011562736009043176,2.081266500853477,7.698035851876349,0.48524851778835404
1731474146.1892066,-0.35027265548706055,0.3020928204059601,-9.998504638671875,0.0436032880371844,0.14192025400859126,-0.011412600177500063,2.0783255008499593,7.6870157941465385,0.48044588402309735
1731474146.2392662,-0.35027265548706055,0.3020928204059601,-9.998504638671875,0.04230908513643703,0.14548213162113985,-0.011261192323397225,2.0755729852886198,7.675994086727473,0.47588079405390943
1731474146.2392662,-0.24522694945335388,0.4789474606513977,-9.97572135925293,0.04090970750370515,0.1486603330381735,-0.01110959058315754,2.0755501980197235,7.675908146413574,0.47584111111876004
1731474146.2900531,-0.32880857586860657,0.3587845265865326,-9.992473602294922,0.03940834459867604,0.15145183268567905,-0.010958855555754828,2.072769773775625,7.6654255341577695,0.4708972940003276
1731474146.3401139,-0.28920209407806396,0.4533703923225403,-9.996732711791992,0.03780861000467321,0.15385547343150255,-0.01080997571790241,2.0701318226081242,7.655134855873347,0.46628843253353275
1731474146.3900425,-0.32036682963371277,0.38436904549598694,-9.975886344909668,0.036114472443686346,0.15587162358891143,-0.010663872416628768,2.0675733057541783,7.645544641213316,0.4613536247195522
1731474146.4399643,-0.32036682963371277,0.38436904549598694,-9.975886344909668,0.03433033775605221,0.15750214950961056,-0.010521387113938853,2.065081441483797,7.6362661545998325,0.4563504529113755
1731474146.4399643,-0.3222068250179291,0.4288286566734314,-9.992498397827148,0.032461109803615204,0.15875046762960354,-0.010383216116922049,2.0650590631588264,7.636183174155228,0.4563045992335322
1731474146.4898868,-0.3282969295978546,0.4256960153579712,-9.982223510742188,0.030512220559953913,0.15962147929753429,-0.010249902959232875,2.062690737643048,7.6274582023143225,0.4513624958461106
1731474146.5398424,-0.3342430889606476,0.41899538040161133,-9.977553367614746,0.028489623860071145,0.16012133358733457,-0.010121883726609557,2.0604421950150953,7.618746263895645,0.4467081377047739
1731474146.5898244,-0.3342430889606476,0.41899538040161133,-9.977553367614746,0.02639977701560104,0.16025725422848047,-0.009999484318190347,2.0581764025727716,7.610470182738229,0.4420683526686595
1731474146.5898244,-0.3272224962711334,0.4375999867916107,-9.990431785583496,0.02424960477970461,0.16003749026089986,-0.009882896054120363,2.0581630177067214,7.610422971583392,0.44203789772791335
1731474146.6398294,-0.348007470369339,0.42216381430625916,-9.980985641479492,0.02204643092326374,0.15947124520740352,-0.009772203802879784,2.0559350091185467,7.602669700667704,0.4368910805447596
1731474146.6897447,-0.3311549723148346,0.43346843123435974,-9.981561660766602,0.019797918590194724,0.1585685821471159,-0.009667431024224628,2.0538299671379967,7.595554785451698,0.43188642202211086
1731474146.7396312,-0.3311549723148346,0.43346843123435974,-9.981561660766602,0.017512010947966738,0.15734035638137397,-0.009568544268997062,2.051730046520951,7.588691968652678,0.4267605281070492
1731474146.7396312,-0.3635404109954834,0.40990909934043884,-9.988479614257812,0.01519685372116997,0.15579817029660567,-0.00947544713481945,2.0517176901226937,7.588652334239527,0.4267299757519925
1731474146.789546,-0.3635404109954834,0.40990909934043884,-9.988479614257812,0.012860790528324704,0.15395438267013917,-0.009388007376535504,2.0496822370866696,7.58226130857981,0.42164667321364824
1731474146.789546,-0.32311975955963135,0.4552238881587982,-9.978585243225098,0.010512400586106207,0.1518221227391014,-0.00930609081762928,2.049670067095745,7.5822239344060804,0.4216159742629624
1731474146.8395026,-0.3543110489845276,0.4205108880996704,-9.987153053283691,0.008160399036697153,0.14941516614611375,-0.009229558227538088,2.0476796524675906,7.575844528987416,0.4169136017835916
1731474146.8894835,-0.3543110489845276,0.4205108880996704,-9.987153053283691,0.005813469835578036,0.14674776637798626,-0.009158249404221538,2.045657495649153,7.570101767954202,0.41171132440545527
1731474146.8894835,-0.33690303564071655,0.44204410910606384,-9.983466148376465,0.0034802031334780106,0.1438346046570681,-0.009091993587832692,2.045643644219923,7.570063560953132,0.4116754808805487
1731474146.939377,-0.3456494212150574,0.4204249382019043,-9.974058151245117,0.0011690519107161027,0.14069075834948244,-0.009030611335255378,2.043558969524025,7.56441883523403,0.4069805845857008
1731474146.9893372,-0.32335811853408813,0.44455331563949585,-9.994388580322266,-0.0011117838973736815,0.13733160892021776,-0.008973888328971988,2.041521338534,7.559326599263779,0.40168068023552983
1731474147.0392928,-0.3419918715953827,0.4153200089931488,-9.980100631713867,-0.0033544822445584423,0.13377276184456205,-0.00892157761717646,2.039526020344243,7.554688694793099,0.39648299119466396
1731474147.0892532,-0.33232659101486206,0.44813141226768494,-9.970808982849121,-0.005551672745878955,0.130029994850065,-0.00887341850723556,2.037497560797124,7.550326761623994,0.39120571645081414
1731474147.1392598,-0.3414287269115448,0.42118310928344727,-9.989472389221191,-0.00769645101864045,0.12611919808191294,-0.008829111043735328,2.0353807792882406,7.545905109259846,0.38641131376917154
1731474147.1892078,-0.32821929454803467,0.43675288558006287,-9.983247756958008,-0.009782375938336977,0.12205630788141736,-0.008788302292666842,2.0333100702731417,7.542163621427101,0.38108781511957535
1731474147.239118,-0.3308393657207489,0.41653814911842346,-9.989508628845215,-0.011803496017671496,0.11785726938695003,-0.008750634828630173,2.0312193571598383,7.538732944255397,0.37576009195533305
1731474147.2890556,-0.3233639597892761,0.44228991866111755,-9.99915599822998,-0.013754400690453862,0.11353801447099227,-0.00871580680037372,2.0289487845336467,7.535179679138318,0.3709630462648953
1731474147.34003,-0.3317860960960388,0.42187803983688354,-9.981391906738281,-0.015630261418995223,0.10911440568781398,-0.008683612882130948,2.0267265840551536,7.532231788435714,0.36544716636170427
1731474147.389953,-0.3199501931667328,0.43816444277763367,-9.984302520751953,-0.017426842056570406,0.1046021573391655,-0.008653938761544322,2.0245243782118916,7.529634327344184,0.3600622111397653
1731474147.4399762,-0.3348630368709564,0.410004585981369,-9.995926856994629,-0.019140489194434767,0.10001678625881377,-0.00862671313750379,2.022264331780947,7.527278324446349,0.3546260057628817
1731474147.4898822,-0.31965500116348267,0.4335654675960541,-9.987404823303223,-0.020768112298625914,0.09537360448542419,-0.008601895670639036,2.0199341291023796,7.524718722876147,0.34980633863407884
1731474147.5398347,-0.33629316091537476,0.42236918210983276,-9.98745346069336,-0.022307157026762822,0.09068770196858111,-0.008579498317468855,2.0175759441723216,7.522837688536246,0.3443447046762322
1731474147.5897639,-0.32917505502700806,0.4344494938850403,-9.999245643615723,-0.023755570182130026,0.08597387834447136,-0.008559585396457329,2.015145315163801,7.520695871405108,0.33950084884847914
1731474147.6397233,-0.3516184091567993,0.42074695229530334,-9.990751266479492,-0.025111737752845132,0.08124656127134786,-0.008542278541993107,2.012670794471306,7.519238546802371,0.3340051805587605
1731474147.6896822,-0.3454195261001587,0.43337929248809814,-9.982441902160645,-0.026374389443841576,0.07651975538736835,-0.008527763371521925,2.0101333620509703,7.51797819741505,0.32849082383323136
1731474147.739603,-0.3505779504776001,0.42843934893608093,-9.977140426635742,-0.027542505718195283,0.07180700366415457,-0.008516238128879862,2.0074910520401055,7.51637992969035,0.323643703330145
1731474147.7895708,-0.3442579209804535,0.44717955589294434,-10.014467239379883,-0.02861527683385691,0.06712132376951904,-0.008507857544614519,2.00480338641802,7.515465720591151,0.3180648968964637
1731474147.839557,-0.2940550446510315,0.5944892764091492,-9.976007461547852,-0.029592163214425322,0.06247497508570332,-0.008502769354314106,2.0020030989695594,7.514169522198032,0.31318456942025236
1731474147.889536,-0.20518560707569122,0.54371577501297,-9.946371078491211,-0.0304731843428246,0.05787889023293555,-0.008501121574684353,1.9991720506429862,7.5135627160720855,0.3075784835020159
1731474147.939503,-0.43645983934402466,0.24578015506267548,-9.995434761047363,-0.03125927742574668,0.05334237323062222,-0.008502918307251573,1.9962200404635282,7.512519754637757,0.302683714471961
1731474147.9893682,-0.2412494719028473,0.5809628963470459,-10.00178050994873,-0.031952200509829415,0.04887376078733001,-0.008507957030421336,1.9932537592635315,7.512174309835324,0.29707989865124435
1731474148.0393229,-0.4226839542388916,0.305077463388443,-9.972904205322266,-0.032554087502687235,0.04448119179612991,-0.008515980677405485,1.9901844671699975,7.511942644819112,0.29141223356617196
1731474148.0892675,-0.17636924982070923,0.6643232107162476,-9.994385719299316,-0.03306728007888358,0.04017253551602118,-0.008526786593918756,1.9870472077502788,7.511817291624415,0.28574855199194266
1731474148.1391916,-0.017241640016436577,0.4965020716190338,-10.021503448486328,-0.03349485605785204,0.03595475993796994,-0.008540231766063179,1.9837740054660669,7.511144480518042,0.2808480708377271
1731474148.1891968,0.08745230734348297,0.6030604839324951,-10.011589050292969,-0.03384204152278623,0.031833252452702646,-0.008556330068982276,1.9804118051135708,7.510537377470095,0.27593312754739163
1731474148.2391913,-0.9778934717178345,0.07814757525920868,-9.990920066833496,-0.034116863107728636,0.027811947097068166,-0.008575369804846293,1.9769974467062592,7.510649491151992,0.2701733696021326
1731474148.289004,-0.13256236910820007,0.6477596163749695,-9.916261672973633,-0.03432795307209667,0.023894576920389182,-0.008597788605205284,1.9735215989394683,7.5108252600020995,0.2644323353126513
1731474148.3390393,-0.5607509613037109,0.18505153059959412,-10.030675888061523,-0.03448181638869933,0.020085620984437044,-0.008623855002743892,1.9699486934049353,7.511056454557281,0.2586512914325162
1731474148.3899746,-0.24053697288036346,0.6703055500984192,-9.993346214294434,-0.03458267635763089,0.01639007554773743,-0.008653580269685794,1.9661793359567048,7.510612692205561,0.2536354665379506
1731474148.4399455,-0.4149532914161682,0.18424800038337708,-9.922703742980957,-0.03463356504499306,0.012812913727828047,-0.008686886956561727,1.962418415547101,7.510918733771961,0.2477956152479127
1731474148.4898977,-0.32263457775115967,0.564312756061554,-10.011099815368652,-0.03463689830136865,0.009358951614467396,-0.00872358911555393,1.559155595597699,2.3111020477296655,0.2428688103365982
1731474148.539939,-0.4096713662147522,0.33358514308929443,-9.978320121765137,-0.03459464689729318,0.00603292483894087,-0.008763284529370016,1.5560250819815902,2.3245277589385926,0.23698992808715688
1731474148.5898108,-0.33266475796699524,0.4822407364845276,-9.983787536621094,-0.03450832214590702,0.0028393741212569623,-0.008805466241889956,1.5531288488939339,2.3278609046802075,0.23208477072524203
1731474148.6398258,-0.36633315682411194,0.4079146981239319,-10.017582893371582,-0.034379006474257685,-0.00021756452872475252,-0.008849670035301493,1.550142043843384,2.34145963361825,0.2261804728001074
1731474148.6896837,-0.37975364923477173,0.41329842805862427,-9.984230041503906,-0.03420748439591756,-0.003134235806375803,-0.008895554355126008,1.548266848404979,2.3503042131543816,0.22126724467871103
1731474148.7397082,-0.3236582279205322,0.45023560523986816,-9.957239151000977,-0.033994324415861005,-0.005907455355822057,-0.008942912503917847,1.545780474030987,2.361958100950181,0.21531955484484047
1731474148.7895982,-0.4094269871711731,0.40006208419799805,-10.010847091674805,-0.03373993257808762,-0.00853450402603693,-0.008991550916099765,1.5420163184528088,2.3796388099852868,0.210401287481615
1731474148.8395123,-0.3341081142425537,0.49790847301483154,-9.974881172180176,-0.03344458319818297,-0.011013197191411373,-0.009041213411509067,1.5363886620173173,2.397761391954266,0.20548033117464934
1731474148.8895173,-0.40162166953086853,0.3858509361743927,-9.979796409606934,-0.033108400826501155,-0.013341999288403234,-0.009091629656751844,1.5325653614661885,2.41195663344891,0.19947166082826734
1731474148.9394271,-0.33520281314849854,0.49349677562713623,-9.995915412902832,-0.03273137529604031,-0.015520072441580128,-0.00914252609561821,1.5286639531580934,2.426098920601199,0.19344719590665985
1731474148.989394,-0.39363962411880493,0.3769837021827698,-9.9759521484375,-0.03231342736283889,-0.017547222247291244,-0.009193614142575132,1.5246976348202539,2.440141439375955,0.18742482596618978
1731474149.0393794,-0.32641667127609253,0.49767252802848816,-9.984671592712402,-0.0318544834790177,-0.019423816765323336,-0.009244603447866387,1.5315323042405415,2.426002427118934,0.18249470705282644
1731474149.0893095,-0.39658495783805847,0.40310895442962646,-9.991823196411133,-0.03135454790131931,-0.021150764577304866,-0.00929519750162269,1.5295209501654798,2.4353430612216975,0.17643332938485387
1731474149.139286,-0.31508591771125793,0.49019932746887207,-9.974615097045898,-0.03081375504995939,-0.02272955136111969,-0.009345097650348225,1.5274283260066925,2.444646408858998,0.17033739857363478
1731474149.1892076,-0.3865351676940918,0.38851404190063477,-9.984769821166992,-0.030232419298183568,-0.024162239108806233,-0.009394005965568612,1.5265214144596815,2.4538726421501433,0.16541504331240256
1731474149.2392628,-0.3284973204135895,0.4553205966949463,-9.989445686340332,-0.02961107884531591,-0.025451351105207423,-0.009441610090226557,1.5246419618447034,2.4630945379202647,0.15925280840497463
1731474149.2891707,-0.36882221698760986,0.4021817743778229,-9.976908683776855,-0.028950504591243004,-0.026599708881433072,-0.009487594154369181,1.5227013247975216,2.47219348033068,0.15310576973569048
1731474149.3390863,-0.339903861284256,0.46282950043678284,-9.997218132019043,-0.028251698299296524,-0.02761035486822917,-0.009531662855409755,1.5206893049675565,2.4812263134759385,0.14693422236601264
1731474149.3890233,-0.36403632164001465,0.4146801829338074,-9.983406066894531,-0.027515887074768035,-0.028486584800333118,-0.009573561333705276,1.5200186295890619,2.490208693148982,0.14200267744838913
1731474149.4399798,-0.36403632164001465,0.4146801829338074,-9.983406066894531,-0.02674448289951215,-0.02923195812534007,-0.009613091794106542,1.5180701585505478,2.499307337191125,0.13564475686238575
1731474149.4399798,-0.3282560706138611,0.4430561661720276,-9.990992546081543,-0.025939039104880227,-0.029850216640441095,-0.009650102160041842,1.5180584784806668,2.4993606902820105,0.13560724325363507
1731474149.489963,-0.34830936789512634,0.4099680185317993,-9.985173225402832,-0.02510129137995329,-0.030345230434600544,-0.00968447257752166,1.5160923504044717,2.5081609452133957,0.12938094667804362
1731474149.5398574,-0.3367198407649994,0.4484230577945709,-9.979958534240723,-0.024233249530398866,-0.030721021623020615,-0.009716115923661827,1.5131041721730822,2.516906876541128,0.1244660722288178
1731474149.5898209,-0.3511849343776703,0.42940324544906616,-9.9827299118042,-0.023337210872121122,-0.030981801387539587,-0.009744954685256907,1.5105690671703356,2.525580791935305,0.1181802385636031
1731474149.639785,-0.3449540138244629,0.44740235805511475,-9.993281364440918,-0.02241569419610253,-0.031132015290238485,-0.0097708988958249,1.50797331360171,2.5341891246375683,0.111861337680218
1731474149.689714,-0.348348468542099,0.4309273660182953,-9.968509674072266,-0.021471368774465066,-0.03117637200213531,-0.009793857063252549,1.5065086413076971,2.542697335978052,0.10696142691789484
1731474149.7397473,-0.3465837836265564,0.4344233572483063,-9.99363899230957,-0.020507007467896743,-0.031119814594746803,-0.009813734629743016,1.50413788788137,2.55117396984631,0.10058361385800546
1731474149.7896135,-0.35121646523475647,0.43669408559799194,-9.989757537841797,-0.01952545622320024,-0.030967458133144735,-0.009830430789717827,1.4994173282804097,2.5595344406570266,0.09569002218459462
1731474149.839714,-0.3436480164527893,0.4485608637332916,-9.986307144165039,-0.018529605675857794,-0.03072455427022632,-0.009843881147220297,1.4923668266470913,2.567859813168382,0.09077395709378203
1731474149.8895714,-0.3596985638141632,0.44395580887794495,-9.989258766174316,-0.01752236306503245,-0.030396511666925564,-0.00985409206635647,1.488160435271078,2.576064545379887,0.08437086244757624
1731474149.9394937,-0.3440133035182953,0.440993994474411,-9.989282608032227,-0.016506617716123884,-0.02998891703320727,-0.009861132277896948,1.4839003984365395,2.5842156000870657,0.07792617715503218
1731474149.9894161,-0.3629949986934662,0.4327376186847687,-9.978323936462402,-0.01548520408815593,-0.02950749444430058,-0.009865114612067905,1.4796247189368068,2.592246891165221,0.07149338719777655
1731474150.0394707,-0.35161831974983215,0.4358040392398834,-9.977865219116211,-0.014460869358976539,-0.02895801630072893,-0.009866157516788428,1.4849686047895643,2.6003025565983244,0.06657404966562706
1731474150.0892787,-0.3588835597038269,0.44195646047592163,-9.983288764953613,-0.013436243723526066,-0.028346230827566068,-0.009864331354158503,1.4825894570923595,2.608190244961602,0.06010093685338284
1731474150.1392915,-0.3525645434856415,0.4376795291900635,-9.988021850585938,-0.012413827869340331,-0.027677843598170132,-0.009859648437063695,1.4801610084236159,2.616064285481692,0.053556920275745164
1731474150.1892414,-0.3610277473926544,0.4366692900657654,-9.989734649658203,-0.011395995430612373,-0.02695851788447716,-0.009852109697108442,1.4788210559082289,2.6238710797491573,0.04869442571840878
1731474150.239233,-0.35390523076057434,0.44004589319229126,-9.980785369873047,-0.010384989548894571,-0.026193853618692975,-0.009841750881473727,1.4766728689052955,2.631622667256045,0.042099883034029895
1731474150.2891834,-0.34808841347694397,0.4356316924095154,-9.990507125854492,-0.009382927354229725,-0.02538935936172721,-0.009828646329106292,1.4745184575717005,2.6392440444471017,0.035537183584562274
1731474150.3391497,-0.3495331108570099,0.4318283796310425,-9.987534523010254,-0.008391835816135928,-0.024550425552786838,-0.00981289844638119,1.471066602032032,2.646880896721231,0.0306881341549355
1731474150.3889644,-0.34229859709739685,0.43807172775268555,-9.979005813598633,-0.007413699313369309,-0.02368228851798325,-0.009794637420830737,1.4683389101875652,2.6543899983674786,0.024078661115359952
1731474150.4399717,-0.35194361209869385,0.43843650817871094,-9.987793922424316,-0.006450485363842139,-0.022790009225263162,-0.009774005280640985,1.4610161408751419,2.662086609207323,0.01910134284779919
1731474150.4899325,-0.3497510850429535,0.43838438391685486,-9.9824857711792,-0.00550413479033099,-0.02187848263379038,-0.009751132946549581,1.453717219271118,2.66953118301582,0.0142967980210154
1731474150.5399475,-0.3440338671207428,0.4448617100715637,-9.980924606323242,-0.0045765317073538795,-0.02095245439644621,-0.009726135534619002,1.448685082666006,2.67691523313726,0.007596378589935196
1731474150.5898569,-0.3435697555541992,0.4436219334602356,-9.993441581726074,-0.0036694962698269216,-0.020016536469461825,-0.0096991158928426,1.4436629226377231,2.6842185516196917,0.0008987291233224738
1731474150.6397717,-0.3434273302555084,0.4445556402206421,-9.981748580932617,-0.002784805148879739,-0.01907522206975984,-0.009670181661241712,1.4481627579412983,2.691516737554609,-0.0038747232805889805
1731474150.6896904,-0.34205594658851624,0.4357181191444397,-9.985618591308594,-0.0019242030091843221,-0.018132877786105096,-0.009639463323997666,1.4456717091579707,2.6987199015235346,-0.01060477216046154
1731474150.7397027,-0.3368449807167053,0.4365089237689972,-9.985532760620117,-0.0010894016924184683,-0.017193699271595298,-0.009607105027102818,1.4403633078986424,2.70598599315793,-0.015404718025702879
1731474150.7896504,-0.3370206654071808,0.44003918766975403,-9.988101959228516,-0.0002820882618522938,-0.01626165849415596,-0.009573254267396384,1.4366872972245603,2.7131248244005626,-0.0221920091390393
1731474150.839731,-0.34878137707710266,0.4350849390029907,-9.995030403137207,0.0004960741916337926,-0.015340480233421442,-0.00953807935130944,1.4338693678605843,2.720323180226808,-0.026974717890459115
1731474150.8894904,-0.34958556294441223,0.43955448269844055,-9.992443084716797,0.0012434928910984285,-0.014433641374097505,-0.009501805074195454,1.4303888700191336,2.7273349612667928,-0.033749600295005934
1731474150.9395454,-0.33814793825149536,0.4347154200077057,-9.992836952209473,0.001958713202060828,-0.013544369341785278,-0.00946474016307331,1.426878981291385,2.734379114552766,-0.040613134626230306
1731474150.9894862,-0.3534073531627655,0.43426117300987244,-9.98823356628418,0.0026404432247070066,-0.01267563492367376,-0.009427272354254692,1.4233887781929973,2.7413625872649328,-0.04747291266008244
1731474151.0393903,-0.35689619183540344,0.43784937262535095,-9.982269287109375,0.003287564331587949,-0.011830142716428751,-0.009389829643785548,1.4265348947168155,2.74838658960927,-0.052150311930504796
1731474151.089344,-0.34376397728919983,0.4424741268157959,-9.984296798706055,0.0038991720014631267,-0.011010338448961349,-0.009352824181997364,1.424182436392131,2.7553144727675747,-0.059047857692504
1731474151.1394033,-0.34501925110816956,0.4349685609340668,-9.980411529541016,0.004474583595745211,-0.010218438555122956,-0.009316605402191232,1.4196654618143476,2.7623240844395367,-0.06372708880855935
1731474151.1892505,-0.35001081228256226,0.4367660880088806,-9.98748779296875,0.005013290329972263,-0.009456445174783036,-0.00928144309421882,1.416272703366345,2.769189172725277,-0.07064655068048617
1731474151.2393665,-0.35077399015426636,0.4410512447357178,-9.983784675598145,0.005514932113791807,-0.008726137519034532,-0.009247539169223246,1.4128618412438114,2.7760948242693115,-0.07765320134662126
1731474151.2891529,-0.3346041738986969,0.4414082169532776,-9.978825569152832,0.005979301645514043,-0.00802907865332012,-0.009215043484403856,1.4117765242584441,2.782990830444895,-0.08222354268309358
1731474151.339152,-0.3532467186450958,0.44168803095817566,-9.982125282287598,0.0064063206718435,-0.0073666442454992705,-0.009184046673440435,1.4092877810958375,2.789826824549087,-0.08923293059693059
1731474151.38902,-0.3444956839084625,0.44681721925735474,-9.989038467407227,0.0067960162368124214,-0.006740048136039934,-0.009154571972587606,1.403667649130914,2.7967080435554523,-0.0937801003837283
1731474151.4390323,-0.3412024676799774,0.45108357071876526,-9.988518714904785,0.007148529238826218,-0.006150369130537299,-0.00912660569869793,1.4000272227365942,2.8035433787108155,-0.10085569905542005
1731474151.4888942,-0.35135704278945923,0.44728460907936096,-9.988907814025879,0.007464114683644682,-0.005598586201322374,-0.009100145681965693,1.3933015135626379,2.810409351002291,-0.10537036480543731
1731474151.5399947,-0.3428148031234741,0.43845781683921814,-9.985496520996094,0.007743134678578962,-0.005085587657279185,-0.009075222392212283,1.388170784723191,2.8173441805767077,-0.11261109790957546
1731474151.589838,-0.35130253434181213,0.43799132108688354,-9.989453315734863,0.007986067106821591,-0.00461212616777871,-0.009051890824206333,1.383214007532414,2.824058341147223,-0.11965678084010799
1731474151.6397727,-0.34227749705314636,0.4340595602989197,-9.994230270385742,0.00819350973466219,-0.004178751303038485,-0.009030226577160936,1.3874999063380318,2.830924640613674,-0.1241322655979541
1731474151.6898038,-0.345090389251709,0.4354267120361328,-9.992863655090332,0.008366166794480262,-0.003785765918529621,-0.00901034651654922,1.3849287153458387,2.8376775707894564,-0.13127076655495556
1731474151.7628806,-0.3515869379043579,0.4293767511844635,-9.992466926574707,0.008504832247861582,-0.0034332106086273247,-0.008992431991413558,1.3763948397320922,2.8476481624926446,-0.13901116114422268
1731474151.7896523,-0.3438718020915985,0.40278133749961853,-9.977875709533691,0.008610391168707878,-0.00312083159886651,-0.008976714799577085,1.3741511840844525,2.8512513329772737,-0.1428496373137646
1731474151.839626,-0.3230764865875244,0.15276339650154114,-9.979936599731445,0.00868380361090365,-0.0028477580069001234,-0.008963412332772664,1.36904884807051,2.8581234475443003,-0.1472553600835993
1731474151.8895721,-0.22208143770694733,0.187400683760643,-10.070066452026367,0.008725918104812252,-0.0026115555466020585,-0.008952732976911841,1.3644869721233441,2.8648173568289694,-0.1544232910272034
1731474151.939552,-0.3626958727836609,-0.3957504630088806,-10.0033597946167,0.008737125275602727,-0.00240662640641855,-0.008945095871408298,1.3599209854520575,2.8715430911196,-0.1616544278231872
1731474151.989412,-0.49128592014312744,-0.6028002500534058,-10.101073265075684,0.008717435089940658,-0.002221723403698135,-0.008941420475159813,1.362511186529677,2.8783493196106673,-0.16591752204295135
1731474152.039409,-0.33004650473594666,0.15001556277275085,-9.991525650024414,0.008667246349083328,-0.0020376213810071432,-0.008943256295640993,1.3553867933432875,2.8852273948110856,-0.1702321501777528
1731474152.0893848,-0.42409035563468933,-0.23452405631542206,-9.928579330444336,0.00858791432275833,-0.0018277400513352646,-0.008952583172023023,1.3512623524036689,2.8919366810136418,-0.17749621213091177
1731474152.139399,-0.3635537326335907,0.16380023956298828,-9.96257495880127,0.00848161044884599,-0.0015613645990319195,-0.008971222578142587,1.3471561054022891,2.8986469482523387,-0.18478842024753192
1731474152.1892323,-0.3265819549560547,0.03705446049571037,-9.926668167114258,0.008350981894572423,-0.0012064454699913878,-0.009000278470861357,1.3430994457264642,2.905306899175119,-0.19205199926629116
1731474152.2392316,-0.34383344650268555,0.2610261142253876,-9.951214790344238,0.00819881285405474,-0.0007314335418723393,-0.009039977688747855,1.3390333595471322,2.9120138960586948,-0.1993921010844179
1731474152.2891235,-0.35642221570014954,0.23940710723400116,-9.95168685913086,0.008027725700389217,-0.00010685228785456728,-0.00908975395002208,1.3486286178476445,2.918866578601181,-0.20352588264071625
1731474152.3392637,-0.3735845685005188,0.305618554353714,-9.976515769958496,0.00784015356932899,0.0006934706733710049,-0.009148426074296657,1.3468325628133975,2.925600801732347,-0.2109234026700186
1731474152.389072,-0.3662432134151459,0.2762035131454468,-9.98367977142334,0.00763850354142658,0.0016916863633408474,-0.009214453576645437,1.3401952157684587,2.932473470986869,-0.21498468065980328
1731474152.4390504,-0.3853393793106079,0.2848801612854004,-9.992253303527832,0.007425286531539278,0.0029057523612065705,-0.009286195585069098,1.336592129448785,2.9391986939700097,-0.22238990466961456
1731474152.4890246,-0.3745778203010559,0.2969180941581726,-9.987142562866211,0.007203173287801337,0.004349604679338689,-0.009362096086489937,1.3341016725399752,2.946132985197061,-0.22641803775784974
1731474152.539969,-0.36941108107566833,0.32635197043418884,-10.017279624938965,0.0069749948273675495,0.0060333726723211184,-0.009440789422012222,1.330747033178304,2.953001681999111,-0.23398440294791628
1731474152.5898287,-0.3613957464694977,0.32036691904067993,-9.987659454345703,0.006743668883783685,0.007963498429737089,-0.009521176663404712,1.3274721591693646,2.959760267026258,-0.24143397774778982
1731474152.6398501,-0.3558109700679779,0.3377763330936432,-10.017905235290527,0.006512073338745976,0.010142841713967407,-0.00960246893174338,1.3279221438082274,2.966775353568389,-0.2453839987891617
1731474152.6896672,0.11172740161418915,0.9410831928253174,-9.988750457763672,0.006282509231134386,0.012570322119782436,-0.009684174862671839,1.325702732379786,2.973529629241116,-0.2528005437906563
1731474152.7397246,0.6022413969039917,1.6053311824798584,-9.950591087341309,0.006054577730611708,0.015238485403255233,-0.009766004705993672,1.3220375373547948,2.9806699633457328,-0.25673949078274333
1731474152.7897217,0.45707929134368896,1.1785728931427002,-9.883322715759277,0.005821415992405099,0.018129067051580884,-0.009847569394248804,1.3191610775190798,2.9875662028710415,-0.2642558324727209
1731474152.8396256,0.18722468614578247,0.8254978060722351,-10.014012336730957,0.005567200281757717,0.02121076592021403,-0.009927991631077115,1.3163000614741633,2.994508893171623,-0.2717938655929288
1731474152.889567,-0.2138817459344864,0.33085402846336365,-10.020838737487793,0.005268640799297231,0.024442527189051502,-0.010005939833519445,1.313469367172438,3.001467301803752,-0.27931219314482186
1731474152.939633,-0.84199458360672,-0.42900434136390686,-10.077438354492188,0.004899966752903619,0.027780684386972888,-0.010080217289443649,1.3156096399073385,3.0088490037189377,-0.28311406109822973
1731474152.9894435,-1.1347620487213135,-0.6553553342819214,-10.159132957458496,0.004439444008918786,0.031187027870804525,-0.010150480194447614,1.3137269629279984,3.0159260025026513,-0.2906400709817933
1731474153.0395005,-0.5375619530677795,0.026560742408037186,-10.053828239440918,0.003874673389043184,0.03463474535787761,-0.01021776005842095,1.3082604513029017,3.023542778488461,-0.2944614752518542
1731474153.0893981,-0.6419805884361267,-0.14039817452430725,-10.018117904663086,0.0032035399021250275,0.03810904227489904,-0.010284483093751746,1.3050111229134251,3.0308262441029434,-0.30205211404206084
1731474153.13939,-0.48468977212905884,0.17504572868347168,-9.904268264770508,0.002431383652262348,0.04160357247899367,-0.010353775062485863,1.301748432282763,3.038255178081916,-0.30971624272223996
1731474153.1893013,-0.5061772465705872,0.20886747539043427,-9.975037574768066,0.001568009713798495,0.045116662341191764,-0.010428471761602717,1.2985064587109323,3.045756309499117,-0.31736930457443696
1731474153.2392278,-0.504601240158081,0.35937514901161194,-9.961531639099121,0.0006260251607651547,0.04864859213320811,-0.010510529800304588,1.2952598745296715,3.0533913603174088,-0.32506581521882794
1731474153.2890863,-0.5235366225242615,0.4285810589790344,-9.942535400390625,-0.0003800231318011616,0.052199465852125676,-0.010601005184562631,1.3022025223860267,3.0614868090523255,-0.3286009071694521
1731474153.3391986,-0.5182399153709412,0.41647854447364807,-9.95583724975586,-0.0014340762229487472,0.05576772035962385,-0.010700193604633099,1.3005810727986624,3.069410912091933,-0.33635526543763955
1731474153.3890479,-0.5484158992767334,0.4480695128440857,-9.937871932983398,-0.0025188199866220226,0.05934940611391766,-0.010807679787540558,1.2933276884196678,3.0778787450078218,-0.33989019742251575
1731474153.4390175,-0.5478430390357971,0.4370619058609009,-9.939542770385742,-0.0036159057556314255,0.06293811481751081,-0.010922372058999274,1.2895935460416659,3.0860843720789983,-0.34765962934202543
1731474153.4889638,-0.5263280868530273,0.4694240391254425,-9.992203712463379,-0.004706167382791039,0.06652519533918333,-0.01104259938198802,1.2863822447302535,3.0948800363686693,-0.35111543388566074
1731474153.5389593,-0.5467596054077148,0.46723413467407227,-9.985711097717285,-0.005769924251723827,0.07009999006134382,-0.011166354234603776,1.282809913128941,3.103418641812785,-0.35891663362524606
1731474153.5898702,-0.551529049873352,0.4757702946662903,-9.996859550476074,-0.006787311355120182,0.0736500607486558,-0.011291624525503443,1.2790517041220053,3.1127628155075797,-0.3624586191281109
1731474153.6398945,-0.5152885317802429,0.4587487578392029,-9.976001739501953,-0.007738543773449414,0.0771614625120674,-0.011416593100409201,1.2757566672812612,3.121716977023277,-0.3703312109630986
1731474153.6898081,-0.5710768699645996,0.47691261768341064,-10.003650665283203,-0.008604169816635664,0.08061909087957103,-0.011539662608432668,1.2720611080306419,3.1313045065378353,-0.3736516206074134
1731474153.7397523,-0.525538980960846,0.48766395449638367,-9.994609832763672,-0.009365294338067801,0.08400701043843134,-0.011659453969304923,1.2660045431235756,3.141109593235319,-0.3769426839263439
1731474153.789613,-0.5084438323974609,0.5185731053352356,-9.965476989746094,-0.010003777945750789,0.0873086551483127,-0.011774815680007081,1.2618976034568872,3.1506519078580255,-0.38482793045240016
1731474153.8396065,-0.5292466878890991,0.4623800218105316,-9.98769760131836,-0.010502525287644959,0.09050695915601474,-0.011884751398876976,1.2577633350506583,3.160420100874046,-0.39274604729819224
1731474153.88953,-0.48913973569869995,0.46731847524642944,-9.979022026062012,-0.010845775656463772,0.09358462977568194,-0.011988317482292052,1.2535969021833395,3.1704313819392977,-0.4007044954696428
1731474153.9395475,-0.4685397744178772,0.5056860446929932,-9.99309253692627,-0.011019330713152095,0.09652454773694313,-0.012084617106686459,1.2594138425406962,3.1812306181569907,-0.403879493507863
1731474153.9894257,-0.45702219009399414,0.4998912811279297,-9.956080436706543,-0.011010827822141103,0.09931000159081531,-0.012172831141734841,1.2542442058611531,3.192246176204735,-0.4069955078479862
1731474154.0394197,-0.4022035002708435,0.5028836131095886,-9.970311164855957,-0.010810045506800134,0.10192472280174145,-0.012252164175723472,1.251072292491269,3.203006915557226,-0.41500575763310116
1731474154.089314,-0.42270535230636597,0.48164358735084534,-9.983999252319336,-0.010409168998230911,0.10435297529464382,-0.012321761301518352,1.247878420419416,3.214009834410864,-0.42303523285523836
1731474154.1392968,-0.38456615805625916,0.5007065534591675,-9.960416793823242,-0.009802959057792184,0.10657976902889447,-0.012380716522784723,1.2446629805758507,3.2252630678870444,-0.43108640258924763
1731474154.1892097,-0.3837924003601074,0.4896668791770935,-10.00211238861084,-0.008988788586974628,0.10859106474982509,-0.012428141233132465,1.2414294472761223,3.2367651686282928,-0.4391552491541005
1731474154.2391903,-0.3806689977645874,0.47306615114212036,-10.001392364501953,-0.007966598680816506,0.11037392259162565,-0.012463262461801322,1.2381580150474538,3.2486005001352054,-0.4472968931423537
1731474154.2891269,-0.5227342247962952,0.9770021438598633,-9.972333908081055,-0.006738652841009685,0.11191621716607551,-0.01248554503704901,1.248198700053348,3.261342359988943,-0.4502103998388007
1731474154.3391964,-0.6536251306533813,1.1910713911056519,-9.957026481628418,-0.00530872117798514,0.113204888064425,-0.012494675828113725,1.2467808135954161,3.2737468895440123,-0.45839357635918354
1731474154.389024,-0.5680765509605408,0.5152410864830017,-9.884139060974121,-0.0036807973860323957,0.114223560109071,-0.012490299178902816,1.2453565952318004,3.286392378319634,-0.46657972424742894
1731474154.438984,-0.8518714904785156,1.0223649740219116,-10.114818572998047,-0.0018579944014502367,0.11495240990000802,-0.012471793311681603,1.243513265463568,3.2999970128941354,-0.46935359875951627
1731474154.4890203,-0.5428992509841919,0.5303182005882263,-9.948053359985352,0.0001580993114111346,0.11537012785172064,-0.012438531841624197,1.2419709262216734,3.3132950084334,-0.4776244281711576
1731474154.4890203,-0.5428992509841919,0.5303182005882263,-9.948053359985352,0.0023672960628692897,0.11545584837564661,-0.012390269681766253,1.2414856071698064,3.3175426438735176,-0.4802353604429685
1731474154.8706543,-0.253031849861145,0.3442539572715759,-9.981415748596191,0.004769471672959598,0.11519113262877567,-0.01232699223438117,1.2160012741157906,9.10186015382365,-0.5246219552900167
1731474154.9205117,-0.23775433003902435,1.9156547784805298,-9.855184555053711,0.007362499324033493,0.11456060249630083,-0.012248504733034883,1.220895323535078,9.115895619163933,-0.5271306626792883
1731474154.9705315,-0.4001409411430359,0.5899046659469604,-9.77047061920166,0.010140680788001299,0.11354887488220834,-0.01215397212694357,1.2192492012175522,9.107283010050104,-0.5354651843717098
1731474155.020408,-0.1947299689054489,1.112312912940979,-10.022409439086914,0.013094483413134631,0.11213747871116161,-0.012041398204897275,1.2193572283266045,9.096440920720765,-0.5379040661867238
1731474155.0704117,-0.21322882175445557,0.8714746236801147,-10.088143348693848,0.016210930027877248,0.11030580564920063,-0.01190792194465464,1.2173862362064463,9.083669837968213,-0.5462805321860509
1731474155.1203022,-0.2239534556865692,0.9041865468025208,-9.905142784118652,0.01947367701768845,0.10803332799560587,-0.011751009434410374,1.2154027529249354,9.070800993775014,-0.554933465657305
1731474155.1704328,-1.3943976163864136,-0.5810168385505676,-10.084527969360352,0.022864187767744636,0.10530195419230425,-0.011569138190600289,1.2135334273810487,9.058597753020127,-0.5633442091601291
1731474155.2202253,-0.5982986688613892,0.3721615672111511,-10.063822746276855,0.026365597382034457,0.10210088748406684,-0.01136178179199476,1.2116235781365383,9.045979029248695,-0.5722595266064691
1731474155.2702136,-0.46314603090286255,0.03619835898280144,-10.011496543884277,0.029965931469932504,0.09843095377177535,-0.01112953025545052,1.216894197125702,9.070876489727524,-0.573971235874612
1731474155.320184,-0.5183843374252319,0.10595713555812836,-10.015792846679688,0.03365688967432713,0.09430447225855683,-0.010874116119262641,1.2160731001061473,9.064081020704883,-0.5829455883387433
1731474155.3702235,-0.11161405593156815,0.15249505639076233,-10.028287887573242,0.03743057898750117,0.08974311841089261,-0.010598068920036641,1.2141721648960653,9.046511258053988,-0.5845379965705023
1731474155.4200754,-0.11161405593156815,0.15249505639076233,-10.028287887573242,0.04127708017777476,0.08477637095812304,-0.010304441212188768,1.2131536487696386,9.03729637860939,-0.5931461685971423
1731474155.4200754,0.01588253118097782,0.03391246125102043,-10.020575523376465,0.04518254690080991,0.07944018715685604,-0.009996735656567592,1.2131250055906917,9.037026219257132,-0.5934019359008322
1731474155.469965,-0.25383296608924866,0.3448643088340759,-9.974748611450195,0.049128249733875834,0.07377579446248193,-0.009678786866704425,1.21224730305739,9.028279064811628,-0.6017793080320782
1731474155.5198517,-0.10165785253047943,0.2227284014225006,-9.922452926635742,0.05309124255061111,0.06782825471033543,-0.009354433121317509,1.2114678364896605,9.019434459620856,-0.6104395497134392
1731474155.5699394,-0.1839110553264618,0.4192267656326294,-9.99095344543457,0.05704573525191994,0.06164459962040175,-0.00902707647122486,1.2104922456887601,9.010685348268781,-0.6122371645473892
1731474155.6198208,-0.19280876219272614,0.3612631559371948,-9.950533866882324,0.06096412351654669,0.055272181767568485,-0.00869947030484169,1.209625117705402,9.00045682285547,-0.6212500432286028
1731474155.6698928,-0.00384950777515769,0.6912849545478821,-9.922014236450195,0.06481756424873286,0.04875726524181219,-0.008373758300841954,1.2082786267268588,8.991061316057458,-0.6226044790884888
1731474155.7207956,0.744889497756958,1.6483407020568848,-9.939879417419434,0.0685753506303562,0.04214247598667677,-0.008051439188931126,1.2058273466784863,8.9811719565534,-0.6244688811258935
1731474155.770732,0.3141680657863617,1.1341841220855713,-10.00156307220459,0.07220235199236819,0.03546226395665836,-0.007733331056706124,1.2045564600779373,8.971756715054909,-0.6330696483047165
1731474155.8206358,-0.22723086178302765,1.8611536026000977,-9.893811225891113,0.07565746108364974,0.02873875881239262,-0.007419748989311253,1.2034403086811034,8.96217963050578,-0.6419117393820726
1731474155.8706558,-0.4820658564567566,1.1263463497161865,-9.909140586853027,0.07889668453245678,0.021980572345826004,-0.007110576923683172,1.2025439029457503,8.952913874994078,-0.6505422575491914
1731474155.9206085,-0.49431735277175903,1.4234706163406372,-9.892594337463379,0.08187891381921164,0.015184301390725158,-0.006805033308048727,1.204037058211689,8.943605196321089,-0.651869785058164
1731474155.970523,-0.07631285488605499,0.5004467964172363,-10.070384979248047,0.08456946918669651,0.008338080657735827,-0.006501634727708681,1.2028323742851448,8.934321894865835,-0.6531598147498968
1731474156.0204434,-0.24069371819496155,-0.35270124673843384,-10.206377029418945,0.08693979201826266,0.0014276055372453053,-0.00619895354285598,1.2023883378649378,8.924977831846803,-0.6619385408374229
1731474156.0704284,-0.6625279188156128,-0.9579870700836182,-10.202309608459473,0.08896600639833113,-0.005555009783813731,-0.005897028550715559,1.2021675399615719,8.915727573026768,-0.6706393942008771
1731474156.1203353,-0.7205891013145447,-0.26662561297416687,-10.021163940429688,0.09062963432047866,-0.012602762503511517,-0.005598326181069818,1.2021690944881787,8.906421972711861,-0.6793853493595929
1731474156.170457,-0.539745032787323,-0.3440362215042114,-10.02015209197998,0.09191972543876073,-0.019691218273855744,-0.005307319962102873,1.2014518868452873,8.89701308164025,-0.680445665162021
1731474156.220292,-0.7099660634994507,-0.18074804544448853,-9.97559928894043,0.09283352898980435,-0.026781975585522207,-0.005029219336349213,1.2014918277888373,8.887613077752519,-0.6891854307241032
1731474156.270222,-0.4648881256580353,-0.01231425255537033,-9.95477294921875,0.09337549607455316,-0.03382740539375964,-0.004768952506602982,1.1999633144987532,8.878108072020808,-0.6900760459839461
1731474156.320121,-0.6345815658569336,0.11943099647760391,-9.89240837097168,0.0935559356193006,-0.040774498557351116,-0.0045306051179232285,1.1997434237021443,8.868448070134042,-0.6988931115968003
1731474156.370157,-0.4727819561958313,0.4156271815299988,-9.890789985656738,0.09338980303233195,-0.047568446182610864,-0.004316990037004322,1.1990733035097143,8.858818288178423,-0.6995750663282343
1731474156.419992,-0.4746846556663513,0.4383656084537506,-9.960733413696289,0.0928956267754785,-0.05415611605585946,-0.004129400569121287,1.1989740631854209,8.849010536563993,-0.7083027172187009
1731474156.4700122,-0.4082532823085785,0.4868992269039154,-9.922954559326172,0.09209440547036168,-0.06048881589852417,-0.00396777826852205,1.199105520178698,8.83903548541385,-0.7170619812292158
1731474156.5199811,-0.4082532823085785,0.4868992269039154,-9.922954559326172,0.09100851212982443,-0.06652374931796556,-0.003831084972801982,1.1984803694834252,8.828905516507245,-0.7175796714792123
1731474156.5199811,-0.42095184326171875,0.46034306287765503,-9.94420051574707,0.0896609109758207,-0.07222431471087265,-0.0037175165400209166,1.198480873481352,8.828844957247227,-0.7176314938906816
1731474156.5699735,-0.3570947051048279,0.568742036819458,-9.979055404663086,0.08807471253473473,-0.07755992107792589,-0.0036246636262775205,1.1986755075607258,8.818569066767337,-0.7263466223559909
1731474156.6198468,-0.35170891880989075,0.5658196806907654,-10.006991386413574,0.08627280749441599,-0.08250587248536481,-0.003549852781368059,1.1983925480037474,8.808061696636766,-0.7267150847898536
1731474156.6698449,-0.35522300004959106,0.5524300336837769,-9.985919952392578,0.08427745918671947,-0.08704339750383527,-0.0034905551585020667,1.1986898860102113,8.797309152839247,-0.7354710811432552
1731474156.7197773,-0.3219449818134308,0.549161434173584,-9.999293327331543,0.08211000560746501,-0.09115945164077002,-0.003444618342955915,1.1991928305466673,8.786393781851151,-0.7441875824259773
1731474156.7707493,-0.28970977663993835,0.5290778875350952,-9.999696731567383,0.07979066586337696,-0.09484617988825064,-0.0034102948737011543,1.199914723392854,8.77499753442802,-0.7531061753743845
1731474156.8206139,-0.3143123984336853,0.5126650929450989,-10.002466201782227,0.07733832089028574,-0.09810026824398123,-0.00338622123988565,1.1985965693508258,8.763235875847606,-0.7533906039969829
1731474156.870688,-0.2599155902862549,0.5240530371665955,-9.9974946975708,0.07477034919615852,-0.10092232099095699,-0.003371407436350193,1.1986768366915397,8.751584143522486,-0.7533596331441854
1731474156.9205627,-0.2969132363796234,0.4891177713871002,-9.995007514953613,0.07210257252944763,-0.10331631734697569,-0.003365195515183,1.1991028008874,8.739775364594783,-0.7619814225941021
1731474156.9705002,-0.2292598932981491,0.49995648860931396,-10.004132270812988,0.06934923463807027,-0.10528913588672745,-0.0033671951266421984,1.1993375876388122,8.72774022534543,-0.761718984599912
1731474157.0204966,-0.2579132318496704,0.4924958348274231,-10.007848739624023,0.06652296558100664,-0.10685011940779371,-0.003377250256363219,1.1999419540844583,8.71521237495878,-0.7704675921657311
1731474157.0704823,-0.24598565697669983,0.4703907370567322,-10.037233352661133,0.06363476768590985,-0.10801070260247427,-0.0033954763298159477,1.2007026856443141,8.70253693466541,-0.7791407955169638
1731474157.1203732,-0.2604096531867981,0.4892358183860779,-9.96359920501709,0.06069412087390107,-0.1087840782220025,-0.0034223027175279185,1.2016238181115173,8.689509964940937,-0.787877412299848
1731474157.1703653,-0.2412901222705841,0.49372807145118713,-10.008519172668457,0.057709183621664176,-0.10918492102930843,-0.0034583702664575553,1.200252733346286,8.676269122466735,-0.7873594707382826
1731474157.2202988,-0.25269076228141785,0.49582356214523315,-9.967084884643555,0.05468696501183029,-0.10922923032138679,-0.003504321791031325,1.2015991344857457,8.662683223246153,-0.7868489555320191
1731474157.2702527,-0.29472479224205017,0.49913355708122253,-9.967273712158203,0.051633495746036644,-0.10893422514073892,-0.003560642731658191,1.2027577454521683,8.648870005119077,-0.7955247142020972
1731474157.3201697,-0.2970694601535797,0.489962100982666,-10.00029182434082,0.04855412415009297,-0.10831820083107833,-0.0036275744969174197,1.2040400558468727,8.634800838210984,-0.8042000077266561
1731474157.370167,-0.34497785568237305,0.48454904556274414,-9.985206604003906,0.04545391587119721,-0.10740033175830394,-0.0037051389170113464,1.2054405155582375,8.620453190249808,-0.8128901920872009
1731474157.4200604,-0.34497785568237305,0.48454904556274414,-9.985206604003906,0.04233803808089892,-0.10620043969395374,-0.0037932511485620326,1.2025278156680936,8.605832066171137,-0.811998277919588
1731474157.4200604,-0.33604687452316284,0.4833928644657135,-9.957088470458984,0.039212031780378666,-0.10473877682314316,-0.0038917416878051195,1.202550713225697,8.605226453810399,-0.8123542297644637
1731474157.4700716,-0.3997398614883423,0.48361581563949585,-10.031452178955078,0.03608193822181869,-0.10303585690079037,-0.004000304989475755,1.2031301418426752,8.590928121951997,-0.8206901363331925
1731474157.5199513,-0.34380197525024414,0.5006750226020813,-9.992836952209473,0.03295437078136591,-0.10111233698902558,-0.00411858376784005,1.2032513065842334,8.57529794355932,-0.819936423743274
1731474157.570007,-0.40116724371910095,0.47793707251548767,-9.987176895141602,0.02983655333386582,-0.09898893938245283,-0.004246329767006013,1.2038677230622905,8.560307199258624,-0.8283762179680512
1731474157.6199002,-0.3695700168609619,0.49243950843811035,-9.979872703552246,0.026736276390795805,-0.0966863604636625,-0.00438338982149113,1.2051789903842143,8.5442181884246,-0.8274534432065254
1731474157.6698487,-0.41193339228630066,0.5345649719238281,-9.984530448913574,0.02366184104865726,-0.09422519004331914,-0.004529561365337262,1.2061308532815738,8.528780723312432,-0.8358679265845831
1731474157.7197323,-0.39578092098236084,0.5249258279800415,-9.9964017868042,0.020622033381460465,-0.09162596010250856,-0.004684527947545593,1.206766083497825,8.512642944170903,-0.8345752405311067
1731474157.7697887,-0.4148857295513153,0.5152393579483032,-10.009360313415527,0.017626093370395664,-0.08890923777778043,-0.004847921041924485,1.2076087890434737,8.496307058133038,-0.8432198739782052
1731474157.8206913,-0.38384121656417847,0.5252273082733154,-9.947656631469727,0.014683629090319707,-0.0860955647137841,-0.0050193904473689165,1.208887264812168,8.478925189735062,-0.8422025322702786
1731474157.8705866,-0.37471675872802734,0.512197732925415,-9.963825225830078,0.011804418732911364,-0.0832052838740744,-0.005198508061428084,1.2098871316808864,8.4625844868114,-0.8506143978863362
1731474157.9205194,-0.39332878589630127,0.548274040222168,-9.980907440185547,0.008998141421774243,-0.08025840500662806,-0.005384575892083194,1.210953995802621,8.445370122515897,-0.8593833804946952
1731474157.970504,-0.3940364420413971,0.5331264734268188,-9.951216697692871,0.00627419651165368,-0.07727456070906258,-0.005576580433325522,1.2120098178768004,8.428444108848103,-0.8679201276284467
1731474158.0204077,-0.3720216453075409,0.5273372530937195,-10.012054443359375,0.0036416454647499657,-0.07427298679481381,-0.005773289234291205,1.2131055843970695,8.410886460571492,-0.876693353983073
1731474158.070431,-0.36154696345329285,0.5203379988670349,-9.981355667114258,0.0011091115923178624,-0.07127241168679868,-0.005973400362867641,1.210590848159047,8.393505133083046,-0.8747015138006754
1731474158.1203873,-0.33269548416137695,0.5211107134819031,-9.980409622192383,-0.001315443130142388,-0.06829087088853851,-0.006175689295690015,1.2111203161859554,8.375306394241644,-0.883604517679577
1731474158.170318,-0.3207956552505493,0.5135068893432617,-9.99845027923584,-0.003624991973028414,-0.0653455486577982,-0.006379047158999734,1.2130637338966992,8.357772243831752,-0.8813899382977972
1731474158.2202368,-0.30687013268470764,0.5224953889846802,-9.994780540466309,-0.005813689191450805,-0.06245267420219882,-0.0065824738930190686,1.215179648093906,8.33909848605034,-0.8796296630138402
1731474158.2701979,-0.3119085729122162,0.5182780623435974,-9.960308074951172,-0.0078770238999317,-0.05962746441648879,-0.006785093052993807,1.2163321260889677,8.32147959857797,-0.8879966416140426
1731474158.3202002,-0.3232634663581848,0.5220323204994202,-9.994431495666504,-0.009811831559228336,-0.056884103752643196,-0.006986092251549688,1.2175294329620334,8.302680969756409,-0.8968709216311529
1731474158.3702445,-0.28144803643226624,0.5371149778366089,-9.997028350830078,-0.011616205970268747,-0.054235749956435673,-0.007184663522681269,1.2173710113423017,8.284447893455598,-0.8944527215668936
1731474158.4200966,-0.28144803643226624,0.5371149778366089,-9.997028350830078,-0.01328946544965284,-0.051694579934466016,-0.0073800771167770165,1.2181742527976938,8.265900562340079,-0.9030790888195248
1731474158.4200966,-0.31811031699180603,0.5085797905921936,-9.998974800109863,-0.014832175227465735,-0.04927182994144667,-0.007571784954709164,1.2182043807980858,8.265187140142123,-0.9034100820128097
1731474158.4701083,-0.2963423728942871,0.5248386859893799,-9.973089218139648,-0.01624603360058985,-0.04697773709717476,-0.007759422900254677,1.220045940563015,8.246928065625509,-0.9007622164157099
1731474158.5199509,-0.2880183458328247,0.5108221173286438,-10.006240844726562,-0.0175336602048518,-0.044821429988504045,-0.007942736578889689,1.2212536588782963,8.228182569934862,-0.90937075142254
1731474158.5699735,-0.2980497181415558,0.49068212509155273,-9.973512649536133,-0.01869848631124606,-0.04281085304863756,-0.008121524916084923,1.222428834625082,8.209127024284058,-0.9180913600176458
1731474158.6198955,-0.2980497181415558,0.49068212509155273,-9.973512649536133,-0.01974469927678467,-0.04095267825151756,-0.008295604386218468,1.223551836801316,8.190030632133052,-0.9268031716651679
1731474158.6198955,-0.31672346591949463,0.5230117440223694,-9.992152214050293,-0.02067711000087528,-0.039252239392730315,-0.008464745025432938,1.2235590150227589,8.189905463974654,-0.9268601881042042
1731474158.6698563,-0.3087119460105896,0.5085582733154297,-10.039146423339844,-0.021500964613871902,-0.03771362070078619,-0.008628702080007421,1.2219796426351657,8.17078134846819,-0.9240723744166335
1731474158.719787,-0.37044280767440796,0.5171928405761719,-9.983965873718262,-0.022221730038503158,-0.036339836255777316,-0.008787412276471833,1.2224862373225602,8.151499713583739,-0.9327850184736078
1731474158.769825,-0.35450124740600586,0.50801682472229,-9.950888633728027,-0.022844812537052242,-0.03513294014946455,-0.008941060180286607,1.2253157474922962,8.131939516910156,-0.9299940481585445
1731474158.8206687,-0.3457523584365845,0.5308553576469421,-10.02107048034668,-0.023375293709381045,-0.034094078144251555,-0.009089871514749144,1.22660793999258,8.112150721923346,-0.9388597754065358
1731474158.8708599,-0.3598632216453552,0.5240755081176758,-9.973990440368652,-0.023817854441049342,-0.03322357281993234,-0.0092339803912106,1.2278260119941216,8.092491879600892,-0.9476522192006173
1731474158.9206185,-0.37419551610946655,0.5006221532821655,-9.971975326538086,-0.024176809121443956,-0.03252101109861245,-0.009373481101467828,1.228969707081887,8.072989374430339,-0.9563613228775389
1731474158.970634,-0.3892771303653717,0.5268489718437195,-10.022506713867188,-0.024456057045137734,-0.03198524936571536,-0.009508440551894981,1.2273212187964897,8.053119856364019,-0.9532101519586392
1731474159.0204418,-0.42074161767959595,0.5047159194946289,-9.953629493713379,-0.02465893785513123,-0.03161439247751695,-0.009638905020660213,1.2278888938510781,8.0334236610441,-0.961941137805452
1731474159.0705018,-0.4061630666255951,0.5313308238983154,-9.978107452392578,-0.024788071933675722,-0.031405835083802264,-0.009764900786407769,1.2307602153524593,8.013254619897031,-0.958735915479826
1731474159.1203768,-0.4061630666255951,0.5313308238983154,-9.978107452392578,-0.024845294390094367,-0.03135635864292745,-0.00988633409107277,1.2326991622738686,7.993121480981134,-0.9554809218775201
1731474159.1203768,-0.40526318550109863,0.5140536427497864,-10.022367477416992,-0.02483174561247959,-0.03146224322936023,-0.010002980958371257,1.2327068466327393,7.993006624523469,-0.955531212606887
1731474159.170345,-0.3965300917625427,0.502784788608551,-9.966509819030762,-0.024748039323718822,-0.03171930000144309,-0.010114645715027862,1.2340078135133465,7.9730605913385055,-0.9642600219004173
1731474159.2203305,-0.38581791520118713,0.508468508720398,-9.955740928649902,-0.024594435982959465,-0.03212279654378847,-0.01022121054953017,1.235250717431684,7.952983882261608,-0.9730365562964519
1731474159.2702694,-0.3934820294380188,0.535594642162323,-9.982986450195312,-0.02437101803099656,-0.03266742734279418,-0.010322470313680228,1.2364343642254219,7.9327956342989605,-0.9818521341217015
1731474159.3201983,-0.35386738181114197,0.5342658758163452,-9.970437049865723,-0.02407785777688185,-0.033347445709270784,-0.01041801748394252,1.2359626978869762,7.912298130648784,-0.9782710111004029
1731474159.3701587,-0.3599652647972107,0.5136325359344482,-9.988588333129883,-0.023715204873326512,-0.0341568447896861,-0.010507308908025904,1.2368051530316126,7.891964098352395,-0.9870871983696657
1731474159.4200087,-0.32312655448913574,0.5253065824508667,-10.006949424743652,-0.023283709002110273,-0.035089414509405795,-0.01058979762267695,1.238758608632937,7.8711020220223284,-0.9834792093564052
1731474159.4701254,-0.32851725816726685,0.5242536067962646,-9.958294868469238,-0.022784627935514414,-0.03613871181647924,-0.010665042352457443,1.2399331075646847,7.850632072836683,-0.9922886704359617
1731474159.5200732,-0.2989529073238373,0.5134327411651611,-9.978981018066406,-0.02221998624327188,-0.03729806504270668,-0.010732696668405633,1.2410549522985537,7.830010279728161,-1.0011507523809595
1731474159.5699933,-0.2976040542125702,0.528435468673706,-10.035711288452148,-0.021592686282158827,-0.038560600940104946,-0.010792447603182397,1.24212595575213,7.809216567253389,-1.0100728085855506
1731474159.6201284,-0.2584826648235321,0.5214108228683472,-9.999695777893066,-0.02090659871540549,-0.039919276241367666,-0.010844142810515408,1.241943823656274,7.788124409108117,-1.0060553731199524
1731474159.6698892,-0.29298895597457886,0.5123870372772217,-9.98195743560791,-0.020166631338113902,-0.04136692094095781,-0.010887963126467719,1.2427672240327057,7.7673178175678,-1.0149082065323056
1731474159.7198591,-0.2805013358592987,0.5189118385314941,-9.997715950012207,-0.01937868404788779,-0.04289625153242007,-0.010924352603667361,1.2435497040049395,7.746185864178298,-1.0238818555001867
1731474159.7697053,-0.25231388211250305,0.526025652885437,-9.983038902282715,-0.018549492326301133,-0.04449987636203187,-0.01095384642824772,1.245571861399228,7.724915444085435,-1.0195784288214589
1731474159.8196115,-0.2625800669193268,0.5331252813339233,-9.989421844482422,-0.01768652548912491,-0.046170363676536826,-0.010976996052472418,1.2465768388535952,7.703184158671102,-1.028720434885058
1731474159.870672,-0.25197145342826843,0.5226522088050842,-10.016423225402832,-0.016797955503188185,-0.0479003446458198,-0.010994372183621797,1.2475155004270786,7.681827473044032,-1.037682661625099
1731474159.9206076,-0.25197145342826843,0.5226522088050842,-10.016423225402832,-0.015892574440466295,-0.0496825657281799,-0.011006650923268607,1.2484132987708914,7.660351710592385,-1.0466712373191145
1731474159.9206076,-0.2829984724521637,0.5082409381866455,-9.991646766662598,-0.01497963445889466,-0.05150986562304133,-0.011014725453480877,1.2484189587509265,7.660212845514371,-1.0467292794145884
1731474159.9705005,-0.2829984724521637,0.5082409381866455,-9.991646766662598,-0.014068600797460362,-0.05337511257049569,-0.011019678391991998,1.248958035461539,7.638383947337126,-1.0420986301695625
1731474159.9705005,-0.28480449318885803,0.5353925824165344,-9.947487831115723,-0.013168857296488604,-0.05527117475204744,-0.011022592734126103,1.2489635509516566,7.638247822364661,-1.0421550644865338
1731474160.0204332,-0.2747306227684021,0.5366898775100708,-10.02096939086914,-0.01228950227294634,-0.05719100855002347,-0.011024358075274916,1.2531189912495715,7.613820972214723,-1.0385561081816637
1731474160.0705328,-0.2890772521495819,0.5572153329849243,-9.990310668945312,-0.011439267823331007,-0.05912784571171775,-0.011025665975493858,1.2546828093659759,7.594263201094968,-1.0465791859440157
1731474160.120394,-0.30816128849983215,0.5108066201210022,-9.969518661499023,-0.010626443686518787,-0.06107533264792728,-0.011027140369381183,1.2564124495708977,7.5721631287865065,-1.0556128532647966
1731474160.1703773,-0.3075338900089264,0.5318730473518372,-9.989680290222168,-0.009858722739484627,-0.06302750235899757,-0.011029342642637517,1.2581128164086626,7.549955417093637,-1.064654728542171
1731474160.220353,-0.3376113772392273,0.514896035194397,-9.994827270507812,-0.009143012620595912,-0.06497864269439588,-0.011032694670016989,1.2561931155155657,7.527053273705883,-1.0598129766052606
1731474160.2703774,-0.34983736276626587,0.5286862254142761,-9.962014198303223,-0.008485253614518545,-0.06692321620758249,-0.01103748953984167,1.2571374237691966,7.504488779061283,-1.0688763667580086
1731474160.3201654,-0.3544542193412781,0.5517596006393433,-9.99022388458252,-0.007890243607790441,-0.06885588954306215,-0.011043895534449726,1.2600206154910998,7.4816555717670505,-1.063860972782652
1731474160.370143,-0.3516252934932709,0.5374683141708374,-9.990341186523438,-0.007361537345067365,-0.07077164873331414,-0.011051933167517814,1.262206672492243,7.458557859470594,-1.0589242189570223
1731474160.4202018,-0.35329899191856384,0.519231379032135,-9.9598970413208,-0.006901473302263353,-0.0726658849348155,-0.011061508086696335,1.2637990201203542,7.435345287884663,-1.068029967377036
1731474160.4702244,-0.3345542550086975,0.5284436941146851,-9.966591835021973,-0.006511294585013488,-0.0745343353220482,-0.011072397714715375,1.2653646282278863,7.412093677059559,-1.0771064781419808
1731474160.5200076,-0.3611922562122345,0.5078816413879395,-10.020652770996094,-0.006191305008026322,-0.07637295627466341,-0.011084206724790229,1.2669174972826402,7.388606455919589,-1.0862289826673308
1731474160.570008,-0.3498118817806244,0.5143244862556458,-10.008946418762207,-0.005940983384899135,-0.07817783337825585,-0.011096507848780426,1.2649152375973667,7.36478256344499,-1.0809139059588138
1731474160.6198819,-0.33152875304222107,0.5191381573677063,-9.96742057800293,-0.005759057342036342,-0.07994513644089052,-0.011109060197288786,1.2657717365280152,7.340920003617356,-1.090039951147645
1731474160.6699362,-0.3189314603805542,0.520063042640686,-9.994635581970215,-0.005643654722831811,-0.08167113696189918,-0.011121796039335543,1.2671938360114148,7.316720334055757,-1.084677875347462
1731474160.7198498,-0.31146132946014404,0.49782794713974,-9.991044998168945,-0.0055925475064267,-0.08335225122444787,-0.011134672331990881,1.2683499849895936,7.292366990223154,-1.0938451874548007
1731474160.7696915,-0.27925825119018555,0.5191643238067627,-9.976333618164062,-0.005603395590080974,-0.08498503119795789,-0.011147628068644035,1.269494163943814,7.268098291785206,-1.0882793012073007
1731474160.8196826,-0.26903486251831055,0.5131709575653076,-9.989280700683594,-0.0056739827541108685,-0.08656614962280319,-0.0111605874102603,1.2706661687477272,7.243352968743485,-1.0974449124955756
1731474160.8696597,-0.26903486251831055,0.5131709575653076,-9.989280700683594,-0.005802437440765367,-0.08809244389588614,-0.011173441434612625,1.271328573776436,5.567671625076745,-1.091881935278517
1731474160.8696597,-0.2614664137363434,0.5186227560043335,-10.001703262329102,-0.00598735202488968,-0.08956096883551923,-0.01118607920487818,1.2713339040406872,5.5690129528694685,-1.0919353085262276
1731474160.9207711,-0.2740640342235565,0.5009732246398926,-9.956851959228516,-0.006227775599027307,-0.09096901343963162,-0.011198427026022556,1.272261898668961,5.804488055565784,-1.1013247698767858
1731474160.9705622,-0.274027019739151,0.5083372592926025,-10.000702857971191,-0.006523125253052503,-0.09231408053965448,-0.011210400498597548,1.2729794269615111,6.215515288715641,-1.0955938042187532
1731474161.02048,-0.2422710508108139,0.5382094979286194,-10.02502155303955,-0.006873089084177388,-0.09359387986501787,-0.01122188951415343,1.2750361643598982,6.813305763783837,-1.0900233888581092
1731474161.070523,-0.2966766655445099,0.5066756010055542,-9.966814994812012,-0.007277579022105812,-0.094806404362138,-0.011232885069264866,1.2763330340491734,7.222119990329176,-1.0991295936183418
1731474161.1204453,-0.24885393679141998,0.5543649792671204,-9.974495887756348,-0.007736667824625473,-0.09595003462876296,-0.011243510302306558,1.2776227613807396,7.634383861975976,-1.1083461779159989
1731474161.1704516,-0.2737577557563782,0.5325854420661926,-10.017370223999023,-0.008250495753686426,-0.09702361940349913,-0.01125387819007541,1.2788814873062648,8.042856173729632,-1.1175113610754281
1731474161.2202854,-0.2737577557563782,0.5325854420661926,-10.017370223999023,-0.008819220641221953,-0.09802653638465889,-0.011264099870952126,1.2764545368027467,7.392105725428729,-1.1115680855195227
1731474161.2202854,-0.2906055152416229,0.5151991844177246,-9.989680290222168,-0.009442946713483539,-0.09895865650309218,-0.01127446507311791,1.2764593299805247,7.393936115806584,-1.1116459863861725
1731474161.2703397,-0.3137006163597107,0.5183002948760986,-9.986680030822754,-0.010121562560330762,-0.09982020356207583,-0.01128547009765376,1.2770062383721745,7.607416780994659,-1.120750773307362
1731474161.3202085,-0.3133438229560852,0.5345419645309448,-10.003192901611328,-0.010854537488152991,-0.10061163930337183,-0.011297673283071413,1.2777648995904014,7.988493491083926,-1.114756498443333
1731474161.370244,-0.3098906874656677,0.528404951095581,-10.000290870666504,-0.011640768542847327,-0.10133365837962494,-0.011311619010267664,1.2788064083267983,7.8633697914305785,-1.1087296775224627
1731474161.4202275,-0.33454248309135437,0.49304723739624023,-9.936529159545898,-0.012478532234444817,-0.10198720402170364,-0.011327817633528928,1.2794830066956069,7.971599149186235,-1.1180282597516085
1731474161.470167,-0.3619610667228699,0.5299280881881714,-10.047443389892578,-0.01336544323637076,-0.10257338363174988,-0.011346654399535992,1.2801189054843907,8.078233353752184,-1.1272401504364482
1731474161.5199888,-0.36124423146247864,0.5293492674827576,-9.995766639709473,-0.014298324077750021,-0.10309339530668657,-0.011368414771930074,1.280717898770824,8.184155050444291,-1.136440498178632
1731474161.570011,-0.3769206404685974,0.5511707663536072,-9.91990852355957,-0.015273078620487808,-0.1035486144472555,-0.01139340634627581,1.2801159573972378,7.735009726025655,-1.1300873198401777
1731474161.6198852,-0.3783719837665558,0.543317973613739,-9.976374626159668,-0.01628466797554559,-0.1039407504972089,-0.01142179037194127,1.2804570003229345,7.747663063604405,-1.1393506175877894
1731474161.6698837,-0.24439649283885956,0.7247949242591858,-9.980547904968262,-0.017327286974249116,-0.10427209030018214,-0.011453311244475104,1.2807563045682815,7.7600645103289185,-1.1486483217603225
1731474161.7198694,0.5133981704711914,1.6614665985107422,-9.919093132019043,-0.018395616409723543,-0.10454694298570522,-0.011487305579561104,1.2813655557951018,7.650995498761867,-1.1420891104788793
1731474161.769799,0.2999531030654907,1.1952157020568848,-10.016883850097656,-0.019488018266814285,-0.10477522755948121,-0.011522794360983725,1.281756337464284,7.645482339791102,-1.1513823439289892
1731474161.8197489,0.4892212450504303,1.505788803100586,-9.938413619995117,-0.020609936705259634,-0.10497582490517937,-0.011558556622454318,1.2820980454648598,7.639692360916436,-1.1607291730973832
1731474161.8706505,-0.516516387462616,-0.022402653470635414,-9.965340614318848,-0.021774195868819773,-0.10517576375500029,-0.01159323247166915,1.2821203712949167,7.598431179469369,-1.154148581353284
1731474161.9206002,-0.9550522565841675,-0.21024510264396667,-10.16689682006836,-0.022996610707171846,-0.10540383549426881,-0.011625511845565383,1.2828397645818599,7.559683411291957,-1.1474251812768719
1731474161.9705899,-0.7593311667442322,-0.04050649330019951,-10.03207015991211,-0.02428895703426088,-0.10568189453180979,-0.011654698041603035,1.283157209756546,7.541953870524399,-1.1567617319534422
1731474162.0203743,-0.5015047788619995,0.2697582244873047,-10.028075218200684,-0.02565450743125234,-0.10602027352048765,-0.01168124935913854,1.283259119844469,7.515055973262216,-1.149879686520975
1731474162.0706327,-0.6376875638961792,0.10086476802825928,-9.939265251159668,-0.027088596630097574,-0.10641919306317686,-0.011706527360036474,1.283420903038634,7.494226534554626,-1.1593279340503138
1731474162.1203902,-0.4812456965446472,0.29825708270072937,-9.977543830871582,-0.028581170101140606,-0.10687193362634397,-0.011732034148981732,1.2835108373524118,7.473392950973541,-1.1686861245616886
1731474162.1703827,-0.5795964598655701,0.24074093997478485,-9.958183288574219,-0.03011850883575967,-0.10736694503712961,-0.01175887827555582,1.2835277077943799,7.452378034168309,-1.1780356697792362
1731474162.2203078,-0.508014976978302,0.46040502190589905,-9.957934379577637,-0.03168419898012758,-0.10788941297312399,-0.011787633504813634,1.283392129510843,7.475991546186055,-1.1709184861079545
1731474162.2702415,-0.508804440498352,0.4490143060684204,-9.982624053955078,-0.03325986628830889,-0.10842293634072828,-0.011818386011954115,1.2833357012742983,7.4628707546963176,-1.1802812343102536
1731474162.320172,-0.48865872621536255,0.4541880786418915,-9.978496551513672,-0.03482585571820676,-0.10895107100066691,-0.011850854067249244,1.2831944178366401,7.4494344196934135,-1.1897057104112725
1731474162.370213,-0.5410983562469482,0.4174778163433075,-9.919493675231934,-0.03636183692701174,-0.10945819333827242,-0.011884492666718028,1.2831314170757333,7.4411233992255905,-1.1823794533459904
1731474162.4201007,-0.47556886076927185,0.47924375534057617,-9.938119888305664,-0.03784718912176453,-0.10992967840421669,-0.01191840979046476,1.2829329125351752,7.429123758031852,-1.191823260512855
1731474162.47022,-0.47460830211639404,0.529241681098938,-10.030539512634277,-0.03926132878083302,-0.11035201748700568,-0.01195126837783107,1.282638176682448,7.416849232892925,-1.2012968346149744
1731474162.5199964,-0.4850676357746124,0.5224998593330383,-9.974165916442871,-0.04058415190814543,-0.11071321488057738,-0.011981536244399557,1.28268496561597,7.389153672667651,-1.19371638029615
1731474162.5699408,-0.48955443501472473,0.4771479666233063,-9.996931076049805,-0.04179639152777494,-0.11100312831825829,-0.012007865303448481,1.2823666400820914,7.371437394950785,-1.2031915554203125
1731474162.6199024,-0.4665283262729645,0.4885329604148865,-9.979948997497559,-0.042879782268650385,-0.11121339482496628,-0.012029193500112475,1.2823039432056114,7.336132599099235,-1.1955777275337343
1731474162.669962,-0.46965348720550537,0.5105751752853394,-9.998185157775879,-0.04381720890222081,-0.1113371430820527,-0.012044675501208853,1.281465569900265,7.284201399260672,-1.1880124272088335
1731474162.7198188,-0.4509274959564209,0.5246589779853821,-10.004263877868652,-0.04459291568318121,-0.11136888377911051,-0.012053673936073763,1.2807973367091139,7.249191078781313,-1.1975934839878253
1731474162.7698064,-0.4414564073085785,0.5083518624305725,-9.974061965942383,-0.04519271249095183,-0.11130457509125725,-0.012055791729236397,1.2800326747837003,7.214663727104495,-1.206996878513492
1731474162.8197534,-0.41812509298324585,0.5166147947311401,-9.975350379943848,-0.04560416928600464,-0.11114162364485597,-0.012050820174932867,1.2806999223987894,7.234682457722677,-1.1992274379565535
1731474162.8696876,-0.38708367943763733,0.5227304100990295,-9.974908828735352,-0.04581683160347117,-0.11087877420645378,-0.012038596797827858,1.2801910148048188,7.214826458534549,-1.2087404030426805
1731474162.9196005,-0.36882284283638,0.5231413841247559,-9.979649543762207,-0.04582246571546166,-0.11051600524901235,-0.012018911264649207,1.2789771568235007,7.181238168153818,-1.2009130120528062
1731474162.970591,-0.3273898661136627,0.5379171371459961,-10.020581245422363,-0.04561530544942114,-0.11005446864065199,-0.011991548748173595,1.2780341383257021,7.1540773564586555,-1.2106740858119747
1731474163.0204976,-0.3707225024700165,0.505232036113739,-9.976547241210938,-0.04519221649406426,-0.1094964175671643,-0.011956430755473006,1.277003272924978,7.127397342167333,-1.2201933096370008
1731474163.070438,-0.3476724922657013,0.5362069010734558,-9.949875831604004,-0.04455264973755888,-0.10884507371510996,-0.011913655542771337,1.2758618174186904,7.100460251309361,-1.2297373661557396
1731474163.1203568,-0.3835640251636505,0.5246970653533936,-9.991329193115234,-0.04369837418828136,-0.1081044835422011,-0.011863330608923313,1.2774783612972982,7.1383121912901295,-1.2215313235616934
1731474163.1703653,-0.3614824414253235,0.5287243723869324,-9.99287223815918,-0.04263313856828102,-0.10727943202328259,-0.01180546022359259,1.2768176867744825,7.123767886023706,-1.2311269292401796
1731474163.2202575,-0.377625972032547,0.5039097666740417,-9.963214874267578,-0.04136237965632329,-0.10637534596335399,-0.011740033193121334,1.2756601348817922,7.088362219033643,-1.222864456791197
1731474163.2702463,-0.3766827881336212,0.5053097605705261,-10.006082534790039,-0.03989299241580618,-0.10539811030337562,-0.011667095951253717,1.2746643952836678,7.065316012647778,-1.2325009457816287
1731474163.3201778,-0.37935033440589905,0.516689121723175,-9.970401763916016,-0.03823312356727611,-0.10435386966936844,-0.011586753613535011,1.2734771930188626,7.026687938285278,-1.224208966718944
1731474163.3702471,-0.40080633759498596,0.4964871406555176,-10.002296447753906,-0.036391956186382954,-0.10324891331836487,-0.011499191607065775,1.2721391689129626,6.993760430663777,-1.2338178726811144
1731474163.4201424,-0.38300633430480957,0.5083088278770447,-10.015450477600098,-0.03437948694422216,-0.10208961032703999,-0.01140472823972579,1.2707151990698535,6.960631678912767,-1.243439392035882
1731474163.470025,-0.443865567445755,0.4779611825942993,-10.014248847961426,-0.032206295341692046,-0.1008823170624506,-0.011303924515879608,1.2721869610535543,6.9807944437935205,-1.2348832428597485
1731474163.5200374,-0.3783123791217804,0.5307408571243286,-9.943964958190918,-0.02988330869989337,-0.09963328703834304,-0.011197631736036698,1.271377543028428,6.960444561377045,-1.2445542492156525
1731474163.569949,-0.4149475693702698,0.529784619808197,-9.995633125305176,-0.027421656962495832,-0.09834870248190757,-0.011086805215061704,1.2701068515267397,6.924243995645648,-1.2359453499800652
1731474163.6199312,-0.4006003737449646,0.5575022101402283,-9.984058380126953,-0.0248326551308079,-0.09703485688004118,-0.010972285075266859,1.2685913005479816,6.884809638230607,-1.2274792290951149
1731474163.6698508,-0.4396592080593109,0.5405032634735107,-9.956144332885742,-0.022127749343592438,-0.09569833933536012,-0.010854765482799818,1.2674519465122789,6.85733713080063,-1.2371023034860889
1731474163.719805,-0.4295702874660492,0.5543187260627747,-9.9859037399292,-0.019318337903843144,-0.09434608701907493,-0.010734798330510064,1.2662616307483945,6.829645849628991,-1.2467458770596265
1731474163.7697442,-0.42668965458869934,0.5741111636161804,-9.961564064025879,-0.01641558850735145,-0.09298535146041934,-0.010612750667316014,1.2650285047599152,6.801760393508184,-1.2564024314863147
1731474163.8196783,-0.4360142648220062,0.5671287775039673,-9.956544876098633,-0.013430362724143271,-0.09162369061571857,-0.010488788930573175,1.2663718942719413,6.822578813558019,-1.24753544304734
1731474163.8696399,-0.4315682351589203,0.557338535785675,-9.982433319091797,-0.010373208779176208,-0.09026895806486325,-0.010362866088507986,1.2656282139826789,6.80388431333699,-1.257225257479272
1731474163.9195507,-0.42473089694976807,0.5397765636444092,-10.009066581726074,-0.007254358203712797,-0.08892917332886725,-0.010234786669813924,1.264862611597019,6.784969239717305,-1.2669388824708905
1731474163.9695463,-0.42673540115356445,0.5290296673774719,-9.97465991973877,-0.004083746299854868,-0.08761227711918079,-0.010104399174180781,1.26464469326282,6.762023762602528,-1.2578454715467513
1731474164.0205133,-0.41879597306251526,0.5388911366462708,-9.974834442138672,-0.0008710566221468146,-0.08632588661280999,-0.009971703082837326,1.263883536737668,6.73839282658214,-1.2677626615929223
1731474164.070491,-0.38974595069885254,0.5596628785133362,-10.005626678466797,0.002374215259615821,-0.08507717698681871,-0.009836791042865186,1.2631409127838824,6.715063203115709,-1.2774875565531336
1731474164.1204576,-0.38453778624534607,0.5208667516708374,-9.979079246520996,0.00564263201660407,-0.08387289582761036,-0.009699824893669171,1.2627729679039508,6.724565200957726,-1.2682122965252454
1731474164.1704335,-0.3518224358558655,0.524154782295227,-9.996140480041504,0.008924628303939763,-0.08271933870464261,-0.009561082022803452,1.2617838196153408,6.687384567986686,-1.2589857699254035
1731474164.2203336,-0.34355854988098145,0.5191760063171387,-10.006608963012695,0.012210326483353073,-0.08162220994848246,-0.009420975962635154,1.2611275048603847,6.6653540407830745,-1.2686765325144194
1731474164.270315,-0.3270731568336487,0.5440074801445007,-9.949302673339844,0.015489388671062511,-0.08058652721295247,-0.009280043930351294,1.2602399142512053,6.646710945079967,-1.259427100308195
1731474164.3202639,-0.3096349239349365,0.5479848384857178,-10.00139331817627,0.01875092687603944,-0.0796166865727196,-0.00913885883294151,1.2595781215476005,6.626357528644781,-1.269129880207152
1731474164.3701947,-0.3083556592464447,0.5252760648727417,-10.021833419799805,0.021983469959634565,-0.07871659167345646,-0.008997968683522267,1.2589711309498182,6.605937551092431,-1.2787931784894844
1731474164.4201214,-0.32990550994873047,0.5256478190422058,-9.975671768188477,0.025175015653226905,-0.07788967813288042,-0.008858011827285977,1.258420155038961,6.585229187802313,-1.2885228367578423
1731474164.4701505,-0.3092363774776459,0.5399481058120728,-9.969268798828125,0.028313209146235578,-0.07713884030640418,-0.008719771241419228,1.259315418006817,6.602413904572377,-1.2789175321624562
1731474164.520042,-0.2887982428073883,0.5596032738685608,-9.972800254821777,0.031385535642006905,-0.07646643757802113,-0.008583995688709817,1.2590862449451417,6.588070945135562,-1.288623443617644
1731474164.5699935,-0.3595009446144104,0.7189980745315552,-9.982955932617188,0.03437944562529773,-0.07587458254520853,-0.008451236090001176,1.2579130130475802,6.554029490389578,-1.2789277367085667
1731474164.6199439,-0.6427477598190308,1.415651559829712,-9.925313949584961,0.03728285857477506,-0.07536647076354878,-0.008321808209954687,1.2574453252135016,6.531837605794389,-1.288648532207907
1731474164.6699345,-0.6165494918823242,0.5551245808601379,-9.866538047790527,0.040085533118008984,-0.0749488097597084,-0.008195626072026457,1.2570754664466288,6.509522408414078,-1.2983618310065645
1731474164.719879,-1.4786083698272705,0.4926488995552063,-10.089213371276855,0.042781374321328836,-0.07463235632460655,-0.008071981525735057,1.2567036018796052,6.5154321600782685,-1.2884437952240344
1731474164.7698503,-0.5003513693809509,0.51936936378479,-9.853687286376953,0.045371062754126196,-0.07442892567376738,-0.007949721132793304,1.2565116025068617,6.501499721465978,-1.2981595651096878
1731474164.8198128,0.04512631148099899,0.05102386325597763,-10.057523727416992,0.047861846533350995,-0.07434789647759471,-0.007827602620714913,1.255448728104308,6.468891636277559,-1.2882199123917428
1731474164.869673,0.020476045086979866,0.24266284704208374,-10.213884353637695,0.05026234333485845,-0.07439403115901395,-0.007704675917850038,1.2551311248874826,6.448137872608943,-1.2979009205138852
1731474164.9197352,-0.06659018248319626,0.2546806335449219,-9.995284080505371,0.05257673152253249,-0.07456625700092503,-0.00758107067733383,1.2540419692712608,6.41655760964358,-1.2879151970660605
1731474164.9696233,-0.22866807878017426,0.2495405673980713,-9.991610527038574,0.05480314077325773,-0.07485789931577302,-0.007458408308091447,1.2535844135704075,6.389433232375931,-1.2975581527888476
1731474165.0195842,-0.17199070751667023,0.28089892864227295,-9.977840423583984,0.056935209548130555,-0.07525787939089108,-0.007339098663511579,1.2532626393866046,6.361832090479972,-1.3073220604335665
