Timestamp,IMU_Linear_Acc_X,IMU_Linear_Acc_Y,IMU_Linear_Acc_Z,Filtered_X,Filtered_Y,Filtered_Z,Pose_X,Pose_Y,Pose_Z
1731474136.2091148,-0.3425276577472687,0.41691985726356506,-9.980188369750977,-2.7075477683755325e-05,-0.00010786940439912562,5.4209544020630115e-05,2.062773985130962,6.724625141794395,0.4824088931255472
1731474136.25901,-0.3425276577472687,0.41691985726356506,-9.980188369750977,-3.487040512426519e-05,-0.00014414703397991872,7.046975258571362e-05,2.1323770219748135,7.041845455216214,0.48250461873521583
1731474136.3090398,-0.3349152207374573,0.42120271921157837,-9.987563133239746,-5.389054089470468e-05,-0.00023791076468903242,0.000112406439303565,2.132427862561496,7.042287862500768,0.4825349127992506
1731474136.3588867,-0.27416113018989563,0.43637028336524963,-9.988398551940918,-6.526663226053212e-05,-0.00029541148908087653,0.00013870079901408448,2.1903254075206404,7.196209570436479,0.4826123670624302
1731474136.408835,-0.46316227316856384,0.3740302622318268,-9.99268913269043,-7.820678112872709e-05,-0.00035973693023319406,0.0001688850170644258,2.190369306169578,7.196635207376296,0.4826409021060268
1731474136.4588637,-0.7430660724639893,0.23497319221496582,-10.004386901855469,-9.25434412809212e-05,-0.00043026260973549034,0.00020309259883275095,2.1910800323932054,7.203526364996064,0.4831029041362587
1731474136.5088224,-0.1835746020078659,0.5284029841423035,-9.957141876220703,-0.00010643215288530538,-0.0005055097523989915,0.00024133367689188522,2.19448874792126,7.2365778412665716,0.4853191703903331
1731474136.5587819,-0.32869449257850647,0.37620213627815247,-10.047292709350586,-0.00011637472314274457,-0.0005832465264608716,0.0002835202339490707,2.1978970543930787,7.269626692445619,0.4875360088728925
1731474136.6086814,-0.3212164640426636,0.5026140809059143,-9.98022747039795,-0.00011883984031001522,-0.0006612192566014012,0.00032942418500240666,2.2462665371890105,7.416536053662729,0.4897761686543579
1731474136.6586556,-0.3097893297672272,0.373074471950531,-9.942727088928223,-0.00011132936531138431,-0.0007376288722309799,0.00037864654118044514,2.24920729344661,7.450077217895636,0.4919938784907726
1731474136.7085814,-0.36415764689445496,0.45885133743286133,-10.01577377319336,-9.227177530894527e-05,-0.0008110933300046653,0.00043079462759125004,2.284881590364141,7.562575108189694,0.494236062137482
1731474136.7586725,-0.3174515664577484,0.43460458517074585,-9.97563648223877,-6.071256780976141e-05,-0.0008805076092250676,0.0004856191630661859,2.2876364781424003,7.596565441230103,0.49646317599656886
1731474136.808501,-0.37348827719688416,0.42250683903694153,-9.971975326538086,-1.611234651198777e-05,-0.0009450289560139422,0.0005429420027588924,2.3130529662370733,7.686657118675203,0.49870485557549843
1731474136.858473,-0.3333224654197693,0.4560640752315521,-10.020543098449707,4.179989702417842e-05,-0.0010040971636605966,0.0006026023101930013,2.315398867276715,7.720817143342374,0.5009305026520472
1731474136.9084017,-0.3716474175453186,0.4254069924354553,-9.993083000183105,0.00011312870362799477,-0.00105741867888208,0.000664402145676528,2.336230065627366,7.817392379487695,0.5032491635741838
1731474136.9583972,-0.30855798721313477,0.4505065679550171,-9.975634574890137,0.00019785118760894907,-0.0011049603779464169,0.0007280141137117333,2.338372216421381,7.8507457031985215,0.5054084687149958
1731474137.0092394,-0.33945232629776,0.44332513213157654,-10.006049156188965,0.00029574120121865136,-0.001146941433474144,0.0007930151253383072,2.3531196353655592,7.922780725893181,0.5077065547496434
1731474137.0592687,-0.30693483352661133,0.45724576711654663,-9.974886894226074,0.0004062371288259239,-0.0011838370649302726,0.0008589720850557947,2.3549707801972537,7.957346174224434,0.5099391173993832
1731474137.1091747,-0.3404017686843872,0.42924872040748596,-9.97957992553711,0.0005283780107682057,-0.001216385254108593,0.0009254783526451586,2.367932312055614,8.017383428744717,0.5122001970982386
1731474137.159192,-0.33027854561805725,0.4503231644630432,-9.993732452392578,0.000660857363492991,-0.0012455301677471353,0.0009921981735264633,2.3696773675224754,8.052056556613374,0.5144385809413189
1731474137.2090607,-0.33027854561805725,0.4503231644630432,-9.993732452392578,0.0008021383506144984,-0.0012723494310573039,0.0010588674386977754,2.371415402175447,8.086550895824633,0.5166681766229311
1731474137.2090607,-0.3312438130378723,0.4298307001590729,-9.984983444213867,0.0009505375051253352,-0.0012980288987095752,0.0011252278080179092,2.3714309077536035,8.08685843893877,0.5166880678996725
1731474137.2591295,-0.32849225401878357,0.44427555799484253,-9.991825103759766,0.0011042557595988794,-0.00132382208725399,0.001190998413422495,2.382561047072443,8.136013927954515,0.5189562282875767
1731474137.308942,-0.3466336131095886,0.43178790807724,-9.988767623901367,0.0012614149873009584,-0.0013509734383273897,0.001255894684745623,2.384174985238756,8.170540433216312,0.5211912414282132
1731474137.3589773,-0.3226473927497864,0.4400995373725891,-9.986501693725586,0.0014201207791658679,-0.00138067022212467,0.0013196395250289572,2.39214324278779,8.212534228160132,0.5234800334399322
1731474137.4088914,-0.3401765823364258,0.42628738284111023,-10.006254196166992,0.0015785030319408417,-0.0014140185225540404,0.001381955447173295,2.3935613787097054,8.247185514848004,0.5257294364183828
1731474137.4588525,-0.32638588547706604,0.4399968981742859,-9.992179870605469,0.0017347168958857413,-0.001452015086765436,0.0014425266502724574,2.3949850609930623,8.268884665828347,0.5280259120392933
1731474137.50879,-0.3352645933628082,0.4304140508174896,-9.980989456176758,0.0018869433599808807,-0.0014955333852114748,0.0015009738439066473,2.396405870043921,8.303289256640626,0.5302734728569344
1731474137.5588923,-0.33292460441589355,0.43939563632011414,-9.997173309326172,0.002033404456245034,-0.00154533320130961,0.0015569014606037616,2.3978452891326536,8.338021439065606,0.5325465240229778
1731474137.6086698,-0.3363683819770813,0.4308415949344635,-9.980420112609863,0.0021723886086833784,-0.00160207404493737,0.001609955636145448,2.3992919858786776,8.362483397882457,0.5348723565321453
1731474137.6586838,-0.3302421271800995,0.4421899914741516,-9.979595184326172,0.0023022774846600536,-0.001666323222339307,0.0016598496693677857,2.4007213816308566,8.396649658593756,0.5371211604665898
1731474137.7086177,-0.3302421271800995,0.4421899914741516,-9.979595184326172,0.0024215510619877735,-0.001738575954183507,0.0017064036256593963,2.4021621740252264,8.418575928638909,0.5394313753972183
1731474137.7086177,-0.3371421694755554,0.43059173226356506,-9.996553421020508,0.002528779107553545,-0.0018192826613551256,0.0017495665094187525,2.4022207348667743,8.419964145728727,0.5395232203819452
1731474137.758543,-0.3371421694755554,0.43059173226356506,-9.996553421020508,0.0026226362918655055,-0.0019088356096140938,0.0017893557835595838,2.403620350598422,8.4530657809524,0.5417155413751961
1731474137.758543,-0.3301190137863159,0.4375700056552887,-9.977168083190918,0.002701934214962629,-0.002007520451128531,0.0018257749240453763,2.4036291285585554,8.453272918984394,0.5417292740655656
1731474137.8085432,-0.34019094705581665,0.43010377883911133,-9.982741355895996,0.002765631047395138,-0.0021154988470889246,0.0018588206535753004,2.4050840484821103,8.487521560900461,0.5440023541207881
1731474137.8584952,-0.33192288875579834,0.43809831142425537,-9.991263389587402,0.0028128272653586495,-0.0022328258589407145,0.0018885470777977517,2.406553581006411,8.52194500835977,0.5462920688493378
1731474137.9083514,-0.34595686197280884,0.4304082989692688,-9.981121063232422,0.002842775909991066,-0.002359464936728128,0.001915075957183276,2.4080588707060664,8.53780958872503,0.548686266900107
1731474137.9583144,-0.3420066237449646,0.443705290555954,-9.989968299865723,0.0028549103785004207,-0.0024953018284597623,0.0019385664152721494,2.409508358871635,8.57133138721522,0.5509332315555958
1731474138.0092392,-0.34163692593574524,0.42966023087501526,-9.989768028259277,0.002848874662859472,-0.0026401661526696332,0.001959196208958426,2.411025062571847,8.586383123447362,0.5533366792929179
1731474138.0592258,-0.33824580907821655,0.44014066457748413,-9.97556209564209,0.0028245237990121752,-0.0027938447856433006,0.001977152704875485,2.412519652099633,8.620509263826822,0.5556421785418748
1731474138.1091983,-0.341629296541214,0.4363786280155182,-9.98953914642334,0.0027818919696317875,-0.0029560830190739906,0.001992647345046086,2.414027825304378,8.654777984597464,0.5579627704401305
1731474138.1591976,-0.3402191698551178,0.43175989389419556,-9.978646278381348,0.0027211639688782224,-0.003126586921688587,0.0020059395566863992,2.415538996689448,8.688950830231459,0.5602823861464276
1731474138.209059,-0.3476492762565613,0.432100772857666,-9.985774040222168,0.002642668908091673,-0.0033050140457857313,0.0020173360614897874,2.417053212920353,8.723033558954697,0.5626014355256518
1731474138.2590916,-0.33999305963516235,0.4344528317451477,-9.983550071716309,0.0025468871945255366,-0.003490952078074561,0.002027178568774037,2.418579840461349,8.729165604492907,0.565002643133408
1731474138.3088815,-0.34422069787979126,0.4327370822429657,-9.9750337600708,0.002434447559774,-0.0036839161383844243,0.0020358389055057944,2.420101673482811,8.762983027199349,0.5673251285680505
1731474138.3589008,-0.3437175154685974,0.44072937965393066,-9.988846778869629,0.002306107205906246,-0.0038833695497500634,0.002043724864820899,2.421640369704716,8.797034239139622,0.5696694114834867
1731474138.4087975,-0.34332624077796936,0.4315757751464844,-9.98684024810791,0.002162734073083623,-0.004088751551010883,0.0020512698087995994,2.423184522938254,8.800817320561082,0.5720932405186705
1731474138.458818,-0.33988749980926514,0.436118483543396,-9.992659568786621,0.0020052914746001775,-0.004299491553917302,0.0020588837520707894,2.424728290652265,8.834577322551812,0.574440233138704
1731474138.5087607,-0.33988749980926514,0.436118483543396,-9.992659568786621,0.0018348099577606782,-0.004515005561525167,0.0020668996846112966,2.4262777585406337,8.86834647886263,0.5767937604432221
1731474138.5087607,-0.3460216820240021,0.428290456533432,-9.99396800994873,0.0016523597899443685,-0.0047346911408982255,0.0020755431003203597,2.4262901811043527,8.868616769803298,0.576812622188444
1731474138.5588555,-0.32766076922416687,0.4385663866996765,-9.993430137634277,0.0014590344008380998,-0.004957921134007016,0.002084921719848439,2.4278376375315487,8.869956886980797,0.5792440204650245
1731474138.6086557,-0.3306537866592407,0.4353063106536865,-9.987985610961914,0.0012559094113591628,-0.005184045618095913,0.0020950359986642852,2.429412819853192,8.90394054411826,0.5816368966514082
1731474138.6586676,-0.3333236277103424,0.4373985528945923,-9.995209693908691,0.0010439771359575436,-0.005412415726056073,0.0021058060654317065,2.4309576130783994,8.90534406076236,0.5840716969919425
1731474138.7086084,-0.3319365978240967,0.4339129328727722,-9.97912311553955,0.0008241193508867772,-0.005642403476806446,0.002117102917803114,2.432518912303006,8.909251786852469,0.5865372020947626
1731474138.758562,-0.333381712436676,0.4398839473724365,-9.9823637008667,0.0005971260858782162,-0.005873403614655023,0.0021287929673133744,2.434079356957634,8.942438783733243,0.5889156602886686
1731474138.8085184,-0.3302189111709595,0.438150554895401,-9.991358757019043,0.0003637145177196275,-0.0061048393014192254,0.0021407858791792234,2.4356462452939946,8.975722438680895,0.5913074365369383
1731474138.8586066,-0.3308621346950531,0.44120118021965027,-9.983616828918457,0.000124532816741889,-0.006336179283485007,0.0021530372508205536,2.43722007931976,9.009124995656526,0.5937142725613638
1731474138.8586066,-0.3308621346950531,0.44120118021965027,-9.983616828918457,-0.00011984125376079437,-0.006566954110929977,0.002165524007090978,2.437708565107325,8.98501397492967,0.5945621492690271
1731474139.2399957,-0.3376094102859497,0.43933042883872986,-9.987139701843262,-0.0003688906815003823,-0.006796763385527047,0.002178244465007795,2.449144256076068,9.165031777687439,0.6125006017660447
1731474139.2900891,-0.3423849642276764,0.43753117322921753,-9.985186576843262,-0.0006221219600985436,-0.007025268487112707,0.002191223631243605,2.450709842289679,9.197809670373482,0.6149581516238793
1731474139.3398674,-0.34360605478286743,0.4366273581981659,-9.992426872253418,-0.0008790062250335013,-0.007252170179253764,0.002204496997864305,2.452254759112456,9.190547231874813,0.6175194272724234
1731474139.389985,-0.3389294445514679,0.4368346929550171,-9.979833602905273,-0.0011389350206888996,-0.0074771844637865304,0.002218091323120436,2.4538139725448733,9.223057738712159,0.6199869016582839
1731474139.4397805,-0.3331068754196167,0.42958614230155945,-9.990646362304688,-0.0014012264544056383,-0.007700022797703399,0.002232025613571013,2.4553978879070137,9.256132057665477,0.6225043888104062
1731474139.4898527,-0.335146963596344,0.4248596131801605,-9.98840618133545,-0.0016651750674689992,-0.007920360303284593,0.002246318444025847,2.4569130730421564,9.287830188450991,0.624924047184976
1731474139.539713,-0.3328384459018707,0.4296468496322632,-9.984148025512695,-0.001930101043652259,-0.008137791674795166,0.0022609797234589626,2.4584404217204656,9.276857264868601,0.6275183626726516
1731474139.5897124,-0.3308675289154053,0.4361976087093353,-9.986226081848145,-0.0021953743926986886,-0.008351818591627144,0.0022760094290093834,2.459987744455382,9.269092292773415,0.6301655663794132
1731474139.639718,-0.3300713300704956,0.44613346457481384,-9.986385345458984,-0.0024604291751753474,-0.008561903538169397,0.002291412359227366,2.461506196232767,9.30072296290511,0.6326360022967835
1731474139.6895943,-0.3355879783630371,0.4400116503238678,-9.9830961227417,-0.002724771979505645,-0.008767560021937262,0.0023072054032032196,2.463029690654119,9.332571148833612,0.6351308076108801
1731474139.7396622,-0.3371192514896393,0.4425605237483978,-9.980547904968262,-0.0029879657871038382,-0.008968412071971976,0.002323424659743905,2.464552423736854,9.364530799648321,0.6376418847446673
1731474139.789675,-0.33719924092292786,0.4419511556625366,-9.980554580688477,-0.003249592938207228,-0.009164199183125188,0.002340146053013988,2.4660629467633335,9.396375117795827,0.6401515086177129
1731474139.8395355,-0.3354564905166626,0.445912629365921,-9.973817825317383,-0.003509228332454455,-0.009354764165741995,0.0023575092910788765,2.46756588576874,9.428214384358915,0.6426684243356774
1731474139.8896139,-0.3405797779560089,0.44538143277168274,-9.989174842834473,-0.00376643391169424,-0.00954005384800369,0.0023757283781119434,2.469041363093289,9.41255513001784,0.6453330795980702
1731474139.9394777,-0.33414551615715027,0.4462050497531891,-9.99086856842041,-0.004020758757020256,-0.009720124668580563,0.002395058873870888,2.4705266120042153,9.444142149878223,0.6478662927128535
1731474139.9894018,-0.3440423011779785,0.44702938199043274,-9.984944343566895,-0.0042717373361003015,-0.009895140374406749,0.002415728226323835,2.471978433438459,9.429429460961757,0.650548519254575
1731474140.0392613,-0.32870543003082275,0.43953606486320496,-9.982325553894043,-0.004518891759438123,-0.01006535653571796,0.0024379015654959124,2.4734315041687367,9.46051324300833,0.653077531191284
1731474140.089296,-0.34796392917633057,0.4402678906917572,-9.993621826171875,-0.004761741112331653,-0.010231084545428868,0.002461699255641811,2.4748849815795615,9.491828405303792,0.6556335523473192
1731474140.1402464,-0.33399584889411926,0.432169646024704,-9.98773193359375,-0.004999802996415852,-0.010392638283295863,0.0024871995058333802,2.476355548178062,9.523757105811642,0.6582482287033632
1731474140.1902158,-0.339699923992157,0.42898687720298767,-9.98838996887207,-0.005232586459660973,-0.01055027583445765,0.002514416859584946,2.4777563769707496,9.505964121771983,0.6609706291179196
1731474140.2401154,-0.34191736578941345,0.42445263266563416,-9.988052368164062,-0.00545959635514583,-0.010704141553957753,0.0025433017123801284,2.4791630581420923,9.536785635945845,0.6635336595636148
1731474140.2900033,-0.32970547676086426,0.4250764548778534,-9.985917091369629,-0.005680345237828185,-0.010854220186766943,0.0025737598432696656,2.4805275852283533,9.519978782252844,0.6662671091457802
1731474140.3400288,-0.32910072803497314,0.4251329004764557,-9.99003791809082,-0.005894383119007205,-0.0110003204104919,0.002605667677947532,2.4818905627415564,9.505992431240541,0.6690406826426496
1731474140.3900661,-0.3384392559528351,0.42610400915145874,-9.983735084533691,-0.006101344612773432,-0.011142089324179365,0.002638879915289794,2.483250759678197,9.536221003338087,0.6716230437758242
1731474140.439955,-0.3377346694469452,0.435489296913147,-9.978569030761719,-0.00630095393659712,-0.011279052083504796,0.002673246398365442,2.4846038508047505,9.566607734156795,0.6742279379357904
1731474140.4899478,-0.33423569798469543,0.4322376847267151,-9.991771697998047,-0.006492984584897685,-0.011410673771250275,0.002708641294961243,2.4859168959578826,9.55138992747842,0.6770329754600837
1731474140.5398195,-0.3368098735809326,0.4413033127784729,-9.979137420654297,-0.00667723731639513,-0.011536426803682512,0.002744970533100107,2.487217077767343,9.58103314616605,0.6796142290402564
1731474140.5896668,-0.32903242111206055,0.43979355692863464,-9.979314804077148,-0.006853551071423114,-0.011655846134843387,0.0027821653677856818,2.488517340350618,9.611031568422836,0.6822357593793282
1731474140.6397073,-0.33598414063453674,0.4474576413631439,-9.982017517089844,-0.007021822276560725,-0.01176857448418838,0.0028202005762957036,2.489798515940893,9.640958657681695,0.6848605702354588
1731474140.6897366,-0.341476172208786,0.44930747151374817,-9.990230560302734,-0.007182005568868572,-0.011874403360498494,0.0028591026315502345,2.491024000620593,9.62278493728317,0.6876820828871137
1731474140.7397206,-0.3397352695465088,0.44789478182792664,-9.97748851776123,-0.007334077934445301,-0.011973304976037925,0.0028989185624860516,2.4922818888455005,9.652719349380465,0.6903514284275628
1731474140.7895658,-0.3330007493495941,0.44037196040153503,-9.997563362121582,-0.007478002852337552,-0.012065432159954117,0.002939684773541399,2.4935009792716336,9.682137290811665,0.6929846056689001
1731474140.8395772,-0.03880907967686653,0.5903394818305969,-9.978856086730957,-0.007614007398225507,-0.012151205403553854,0.0029814084777062787,2.4947202076759907,9.711986136109868,0.6956665255596306
1731474140.8895676,-0.0758434385061264,0.5316457748413086,-10.008713722229004,-0.007743603895184697,-0.012231711965464406,0.0030240414708689886,2.495850057142356,9.691103825982823,0.6985026443802456
1731474140.9393978,0.48951706290245056,0.8079436421394348,-9.981762886047363,-0.007871365396442842,-0.012309411081422346,0.003067445024281353,2.497018402466559,9.720346383813709,0.7011762537028067
1731474140.9892786,0.7771492004394531,0.6103816628456116,-10.015816688537598,-0.008007559924094673,-0.01238892816525763,0.0031113587025582545,2.4981082999542874,9.700787254811027,0.704044778309743
1731474141.0394018,0.1431780755519867,0.499295175075531,-10.044015884399414,-0.008170799702538027,-0.01247727189571742,0.0031553280935631093,2.499248449931067,9.730037282200131,0.706766182325865
1731474141.0892773,0.413790225982666,0.48516714572906494,-9.909783363342285,-0.008388047423361796,-0.01258284512292692,0.0031986447453477567,2.5003526623264976,9.758863311211982,0.7094589578545281
1731474141.1401522,0.038903508335351944,0.3011943995952606,-9.996171951293945,-0.008691749610099553,-0.012713843504499892,0.0032405476057291776,2.5013904063342327,9.73881014453939,0.7124052079957912
1731474141.1902132,0.22217567265033722,0.33590275049209595,-10.001534461975098,-0.009116813832487906,-0.012876887822396632,0.003280516843448462,2.50246362912552,9.767679777023012,0.715151415363285
1731474141.2402446,0.017560504376888275,0.20069876313209534,-9.97430419921875,-0.009698592362101398,-0.013076022017658675,0.0033182407444145154,2.5034374139433546,9.748382856295878,0.7180951318356322
1731474141.2901216,-0.7728275656700134,-0.02461777999997139,-9.977519989013672,-0.010470724423847546,-0.013311855327879742,0.003353464939096238,2.5044439282417974,9.776470614218123,0.7208158466015728
1731474141.3400016,-1.2074174880981445,-0.021463442593812943,-10.009428024291992,-0.01146085304744285,-0.013580473892072866,0.0033859974342262005,2.505354521028197,9.757679352521967,0.7237698466894542
1731474141.3900766,-0.23980385065078735,0.27316224575042725,-9.937684059143066,-0.012685532247090382,-0.01387275690762769,0.0034157280932085236,2.5063131624905868,9.785750868801973,0.7265392202237837
1731474141.4400213,-0.7082184553146362,0.12128511071205139,-10.163931846618652,-0.01414924051283751,-0.014175266005267438,0.0034425142410122187,2.507234286179397,9.813669258199706,0.729305498589216
1731474141.4898539,-0.29287877678871155,0.4290388226509094,-9.929959297180176,-0.015847628771736396,-0.014472179719407416,0.003465854955224363,2.508028709800471,9.79310948338374,0.732271027427128
1731474141.5398967,-0.5628702044487,0.09986446797847748,-10.001678466796875,-0.01777056074689016,-0.014746898584279987,0.00348473900983161,2.5088739773026907,9.820839302940353,0.7350716494272441
1731474141.5897396,-0.3513105511665344,0.46714502573013306,-10.08678913116455,-0.019903598497155076,-0.014982898267967136,0.0034979151947763833,2.5096670623486332,9.848361178247478,0.7378637218780059
1731474141.6397777,-0.5107159614562988,0.16161222755908966,-9.946783065795898,-0.02222890928352956,-0.01516417837996556,0.0035040178630544004,2.5103104102160523,9.826767009172563,0.740874377796517
1731474141.6896517,-0.4068586826324463,0.43703973293304443,-9.962201118469238,-0.024725914233050685,-0.015275629421590942,0.0035015878318693937,2.5109898419519845,9.853883658833196,0.7436799241141266
1731474141.7396317,-0.49801453948020935,0.2526971399784088,-10.004266738891602,-0.027371767620670066,-0.015303321682752457,0.0034894004964697444,2.5116094395798805,9.881179329359933,0.7465167138030858
1731474141.789641,-0.37864023447036743,0.4197238087654114,-9.953781127929688,-0.030141809214579308,-0.015234748324327982,0.0034666887942114816,2.5121526891582375,9.9082223080697,0.7493398328799282
1731474141.8394883,-0.42949461936950684,0.29616859555244446,-9.941106796264648,-0.033010147961236996,-0.015059029624117775,0.003433126124380686,2.5125071566586055,9.883626013112154,0.7523827378911728
1731474141.8893626,-0.41107162833213806,0.3372349739074707,-10.000696182250977,-0.0359503069717204,-0.014766941810063924,0.0033888695572831065,2.512762132174506,9.86074114710909,0.7554208175727571
1731474141.9393225,-0.41107162833213806,0.3372349739074707,-10.000696182250977,-0.038935688502855684,-0.014350766433865413,0.003334489365920093,2.513047972934172,9.887340443541072,0.7582987126083265
1731474141.9393225,-0.3805420398712158,0.7001015543937683,-9.957939147949219,-0.041939896904251886,-0.013804487845213397,0.0032707143034805563,2.513050055491244,9.887574697713886,0.7583241123399543
1731474141.9893405,-0.4000968039035797,0.667378306388855,-9.877378463745117,-0.044937086766717455,-0.013125003341410323,0.003198428433384118,2.5130975258533503,9.864882534270004,0.761375890060172
1731474142.0393183,-0.4872780740261078,1.1421082019805908,-9.997286796569824,-0.0479021867005348,-0.012314109144902607,0.003119001639930034,2.513159317556994,9.891034743608564,0.7642608496203187
1731474142.0892508,-0.4453103244304657,0.9864438772201538,-9.849359512329102,-0.05081079107937868,-0.011380519011160502,0.003034494669367908,2.5130984389277313,9.916995387208908,0.7671355396020003
1731474142.139246,-0.5104879140853882,0.7967690229415894,-10.028023719787598,-0.05363892589645711,-0.010340833663192186,0.0029475863250956864,2.5127709786890313,9.893009469779125,0.7702317457090836
1731474142.1901712,-0.3782177269458771,0.7711344957351685,-9.996058464050293,-0.05636306049984799,-0.009218354641770194,0.0028612755289187785,2.5124330571220694,9.919243489867455,0.7731920537817177
1731474142.2401364,-0.4499201774597168,0.7072227597236633,-10.010408401489258,-0.05896047952318487,-0.008040546239808509,0.0027783600787492026,2.5118066977457727,9.895197456948587,0.7763029907813438
1731474142.2900872,-0.3696022629737854,0.713841438293457,-10.044113159179688,-0.061409802580184296,-0.006836937580928691,0.0027010136412576537,2.511179632054569,9.920535744510513,0.7792151588594047
1731474142.3400176,-0.42195576429367065,0.5679761171340942,-9.984193801879883,-0.06369136455537665,-0.005637769632180853,0.002630661462078446,2.510386918235371,9.946169340334738,0.7821698064966812
1731474142.3899982,-0.30900314450263977,0.6061761379241943,-10.027217864990234,-0.06578746695196336,-0.0044728281849125764,0.0025680454873185385,2.509442099009899,9.971485809512007,0.7850958419588304
1731474142.4399173,-0.36433690786361694,0.5541598200798035,-9.993165969848633,-0.06768267106739828,-0.0033704187548116056,0.002513380193975079,2.508179668715552,9.944417732032885,0.7882059397730841
1731474142.4898849,-0.3449501693248749,0.5600143671035767,-10.049895286560059,-0.06936404449467111,-0.002356732673524903,0.002466450552516551,2.506896914018924,9.969423622339614,0.7911476054400597
1731474142.5398262,-0.3187732696533203,0.5636372566223145,-10.002037048339844,-0.07082119282355154,-0.0014555624264996532,0.002426597743878416,2.5052710745775992,9.941723515344528,0.7942758170285085
1731474142.5898345,-0.30297085642814636,0.5662887096405029,-10.012564659118652,-0.0720462266419038,-0.0006882179414876164,0.0023927312490100677,2.503453110651997,9.91496197059967,0.7974118697684875
1731474142.6396751,-0.3056734502315521,0.5174658894538879,-10.006267547607422,-0.07303381111235584,-7.353647660975944e-05,0.0023634569884244836,2.501623015485242,9.939461521756055,0.8003908469831571
1731474142.689624,-0.32618317008018494,0.5069574117660522,-9.982719421386719,-0.07378113667752234,0.0003722040032179099,0.0023372460158432506,2.499631135984778,9.963699953629323,0.8033438351126843
1731474142.7396877,-0.273434042930603,0.514680802822113,-9.964303016662598,-0.07428773953663664,0.0006354681127943992,0.0023126123723669944,2.497424024769179,9.988296242555089,0.8063461051978018
1731474142.7895157,-0.2996521592140198,0.5227103233337402,-9.985552787780762,-0.07455534509371156,0.0007055093385737054,0.0022883112526308445,2.494901393611932,9.958643869257562,0.8094575260112706
1731474142.8395174,-0.3358599841594696,0.5379204750061035,-9.958097457885742,-0.07458773251126341,0.0005741872403244462,0.0022634556094498115,2.4923057354468336,9.983029595813427,0.8124868732110054
1731474142.8894358,-0.336078017950058,0.4931144118309021,-9.98670482635498,-0.07439041405261095,0.00023571487809836487,0.0022375191756742515,2.4918703252389673,10.006835439020382,0.8155887375928405
1731474142.939421,-0.33337661623954773,0.5128029584884644,-10.005820274353027,-0.07397020217826482,-0.0003134761551761945,0.0022102574121108083,2.4889512165757326,10.031082093077956,0.8186130986952479
1731474142.989331,-0.3498041331768036,0.4721747934818268,-9.94282341003418,-0.0733349061282549,-0.001074752203093536,0.002181582235746082,2.485870056074738,10.055145910536762,0.821620351319704
1731474143.0392566,-0.32534632086753845,0.5132566094398499,-9.986802101135254,-0.07249316499313901,-0.002047309474439215,0.00215154632890653,2.4825971111883955,10.079280878477908,0.8246423963783913
1731474143.0892653,-0.3674081265926361,0.5218324065208435,-10.014200210571289,-0.07145432080446201,-0.003228342056614217,0.0021203849413925237,2.481396968977215,10.103232541442122,0.8277625675919345
1731474143.1392438,-0.40713658928871155,0.5078936219215393,-9.99518871307373,-0.0702282170134026,-0.004613352025874948,0.002088377253049295,2.4777741660272863,10.12749284672513,0.8308139573394253
1731474143.1901145,-0.3748840391635895,0.5032426118850708,-9.95654582977295,-0.06882486256593592,-0.0061964244723053345,0.0020556911776488255,2.478157791178887,10.151900589128532,0.8339924618666802
1731474143.2401328,-0.41319382190704346,0.513997495174408,-10.000679969787598,-0.06725414709617078,-0.007970361106723126,0.0020224627761413648,2.4803643295393245,10.175841484665627,0.8371130133118148
1731474143.2901106,-0.4174082279205322,0.5009680390357971,-9.988465309143066,-0.06552571103652509,-0.009926784604832702,0.001988904612870607,2.4763854708189066,10.199886416070028,0.8401609321810827
1731474143.3401623,-0.4119400978088379,0.5024043917655945,-9.968817710876465,-0.06364884669958912,-0.012056267437522583,0.001955271855750248,2.4722284334471922,10.223999545591484,0.8432259545031775
1731474143.3899338,-0.3861069083213806,0.4877097010612488,-9.973749160766602,-0.06163246325612464,-0.014348429933010293,0.0019218613895231485,2.4679584257842433,10.247834093205437,0.8462645337018745
1731474143.4400024,-0.3813762664794922,0.4656544327735901,-10.00214672088623,-0.05948522404035884,-0.016791980514966,0.001889069171896449,2.4690480338020055,10.271933071008695,0.8494101333541924
1731474143.489819,-0.3586125075817108,0.4547431170940399,-9.964475631713867,-0.05721577845187025,-0.019374692538335965,0.0018573573259955064,2.464550566562019,10.295654541977225,0.8524547297346273
1731474143.5397732,-0.3363964855670929,0.4302753210067749,-9.970362663269043,-0.05483298806429795,-0.022083344322955244,0.0018272152781093115,2.459868813382499,10.31955826154093,0.8555339655893623
1731474143.5897393,-0.3230259418487549,0.4246014356613159,-10.018203735351562,-0.05234614213270245,-0.024903673536958226,0.0017991816517425516,2.4618714758616798,10.343223469159097,0.8586312194699917
1731474143.6397502,-0.3195480704307556,0.4174511432647705,-9.99730110168457,-0.04976513357036584,-0.027820384401631395,0.0017737544342059032,2.456984936018321,10.367082760474112,0.8617300885873143
1731474143.6896462,-0.29733991622924805,0.400546669960022,-9.969202995300293,-0.0471005443579052,-0.030817222417988052,0.0017512450846702138,2.452024731676646,10.39063967020973,0.8648035556280599
1731474143.7396011,-0.2849956750869751,0.3818894624710083,-10.001726150512695,-0.04436367752654913,-0.03387706851180761,0.0017318088436683089,2.455610346665824,10.414184091542506,0.8678979791411544
1731474143.789569,-0.2620607912540436,0.3989132344722748,-10.011852264404297,-0.041566601532660404,-0.03698202324611722,0.0017155226231565161,2.45051906488057,10.43758851522087,0.8709820650560576
1731474143.8395295,-0.3114404082298279,0.37750130891799927,-9.98075008392334,-0.038722150791478206,-0.040113545410676875,0.001702330318781696,2.4561191807719513,10.460994853276775,0.8740713219718639
1731474143.8895874,-0.29066282510757446,0.38888999819755554,-10.001361846923828,-0.035843751644276556,-0.04325265646775482,0.0016920090504925014,2.450909147216453,10.484385817804466,0.8771885277327549
1731474143.939539,-0.31284046173095703,0.36997202038764954,-10.00731372833252,-0.03294511306098492,-0.04638014041346111,0.001684218227316674,2.445658184283891,10.507464450906205,0.880283181011929
1731474143.9893997,-0.27976566553115845,0.3753986358642578,-10.026233673095703,-0.030039976147161508,-0.04947671132962034,0.001678473317266539,2.44032330261052,10.53044922930869,0.8833853822799103
1731474144.0392823,-0.2954639196395874,0.3394887149333954,-9.958551406860352,-0.027142003626672958,-0.052523138424875916,0.0016740870098504964,2.4461818092732277,10.553306216692867,0.8864296107351262
1731474144.089266,-0.5322554707527161,-0.19363191723823547,-10.011695861816406,-0.024264511520985802,-0.055499819900429126,0.0016702611260170162,2.44081697547137,10.57605797321035,0.8895433133431169
1731474144.139285,-0.4975226819515228,-0.47324222326278687,-10.109478950500488,-0.021419584020617687,-0.058384716538010945,0.0016661254903435787,2.4498169744842753,10.598693191283738,0.892579891401347
1731474144.1902807,-0.6517626047134399,-0.1517183631658554,-10.05496883392334,-0.018616818347011437,-0.06115028608451032,0.001660396931482521,2.4443678579050943,10.621673754981327,0.8957735922911662
1731474144.2401178,-0.7958483099937439,-0.4603233337402344,-10.047149658203125,-0.015862238979330798,-0.06376210329960488,0.0016510040124701312,2.455036512747396,10.643932740377961,0.8987814162081024
1731474144.2899477,-0.3774668574333191,0.1904527246952057,-9.920002937316895,-0.013157715776193318,-0.06618009716127962,0.0016352708377793505,2.449827695343487,10.665919744472248,0.9018881319154574
1731474144.3399312,-0.7103548049926758,-0.2533815801143646,-10.023809432983398,-0.010501484830767814,-0.06836115107923543,0.0016105588771514962,2.462385664407525,10.687955890868507,0.9048904976420997
1731474144.389945,-0.5084047317504883,0.20593859255313873,-9.930323600769043,-0.007889314309804465,-0.07026169973787974,0.001574772348777806,2.4572496911884376,10.709812759027539,0.9080338375885476
1731474144.4399543,-0.6116470098495483,0.06604569405317307,-9.929553985595703,-0.005315154046626917,-0.07183965590088462,0.001526549471153045,2.47216743705671,10.731532231565703,0.9110192903147796
1731474144.489831,-0.5259138345718384,0.24936124682426453,-9.96333122253418,-0.002771473364359665,-0.07305599037877353,0.0014653933294459143,2.488584447012491,10.752822378149617,0.9139570517629054
1731474144.5398407,-0.5633005499839783,0.1612505167722702,-9.892698287963867,-0.0002497401073205867,-0.07387601338933307,0.0013917442811147433,2.4838228125225603,10.77411492032433,0.9171052354542024
1731474144.5897121,-0.5227437615394592,0.1753193736076355,-9.91405963897705,0.0022591260657544954,-0.0742699517856354,0.0013069803441913476,2.479076592856532,10.795165349610453,0.9202482361733562
1731474144.6397834,-0.530639111995697,0.1455938071012497,-9.948212623596191,0.004764379456213793,-0.07421289055718361,0.0012134187936918299,2.474297147635805,10.816215454151312,0.9234222784656116
1731474144.6897333,-0.4877649247646332,0.19532594084739685,-9.93302059173584,0.007275104343303041,-0.07368446501004171,0.0011141515296063816,8.917512305848229,10.83679852993483,0.9263056799296042
1731474144.7396362,-0.4850020408630371,0.15887004137039185,-9.961091995239258,0.009799865056181066,-0.07266865840224197,0.001012726959323176,8.992734363383606,10.857330099895448,0.9294602566430583
1731474144.7895703,-0.042006008327007294,0.42955347895622253,-9.968608856201172,0.012345989174683162,-0.07115392278997193,0.0009128728480097264,9.067845441128924,10.877645059047802,0.932611418784167
1731474144.8395107,0.20982344448566437,0.5299987196922302,-9.996824264526367,0.014917636603263285,-0.06913397373231638,0.0008182446636284442,8.92476900956192,10.897877496869727,0.9354743469744822
1731474144.8894217,-0.2961362600326538,0.27400559186935425,-10.028383255004883,0.017513289898316003,-0.06660889702808087,0.0007321329670383829,8.979967698931203,10.917808229253493,0.9386207075143013
1731474144.9395008,-0.07620701938867569,0.45252323150634766,-9.962984085083008,0.020125249772532154,-0.06358523581200773,0.0006572160166736541,8.931089113632,10.937673858997039,0.941442639259979
1731474144.989377,-0.3626199960708618,0.24273060262203217,-10.05359172821045,0.022741509075532622,-0.060074944786667236,0.0005954898913766658,8.974493774104493,10.957345742378854,0.9445985816674235
1731474145.0394049,-0.1496284306049347,0.48473837971687317,-10.041500091552734,0.025347755243346717,-0.05609435600059518,0.0005482397919080937,8.943947776434031,10.97682682064247,0.9473692433721043
1731474145.0892012,-0.3409866988658905,0.2217046469449997,-10.007319450378418,0.027928476130226813,-0.05166356335522354,0.0005159167363464758,8.979119404082631,10.996167884864288,0.9505163698286759
1731474145.1393504,-0.19522902369499207,0.4383619427680969,-10.02239990234375,0.030467547971603528,-0.046805895793280414,0.0004981577777666822,8.9555269039392,11.015569838533008,0.9532762529338078
1731474145.1891997,-0.3174585700035095,0.26658883690834045,-9.997493743896484,0.03294862086036332,-0.04154735074945574,0.0004940199293916446,8.984798015838747,11.034655626253286,0.956418829894266
1731474145.2401588,-0.2567730247974396,0.41878947615623474,-9.975645065307617,0.03535544488289988,-0.03591614353209926,0.0005022331155511131,9.014888641730836,11.05411949249897,0.9596412662711868
1731474145.290124,-0.31867489218711853,0.322895348072052,-10.004502296447754,0.03767220537657995,-0.029942404586722163,0.0005214211690653345,9.044458067095304,11.073103903046432,0.962799339798902
1731474145.3400424,-0.2900391221046448,0.4151308536529541,-9.99188232421875,0.03988384603589047,-0.023657945627085245,0.000550229291133182,9.000128220041784,11.09200582887387,0.965441039418772
1731474145.390102,-0.331870973110199,0.35072141885757446,-9.961592674255371,0.041976326360293484,-0.017096039967055013,0.0005873491312802118,9.024590893042895,11.11093229236042,0.9686078671159369
1731474145.4399805,-0.31109046936035156,0.4003080129623413,-9.982954025268555,0.043936822836727174,-0.010291156055561565,0.000631595864187592,8.992616479101228,11.129687321364155,0.9711919515810167
1731474145.4899025,-0.3297779858112335,0.40445318818092346,-9.977746963500977,0.04575386934323221,-0.00327867787801897,0.0006820096881461662,9.013250601961445,11.148520161733792,0.9743505142350958
1731474145.5398126,-0.3312694728374481,0.4171616733074188,-9.975252151489258,0.04741742933820673,0.0039052960802124837,0.0007378550659836366,9.033982654582916,11.167337230439179,0.9775080701486034
1731474145.589731,-0.3365127444267273,0.42672958970069885,-9.98169231414795,0.048918940460112185,0.011224098748986014,0.0007985734085601521,9.000173267148954,11.186064770606485,0.9800125311103776
1731474145.6397784,-0.6444383859634399,0.252627432346344,-9.986760139465332,0.05025162013776478,0.018640835676908694,0.0008637446103719684,9.017790285989047,11.205055321802956,0.9831889074910627
1731474145.6896195,-0.5891392230987549,0.3251998722553253,-9.954066276550293,0.05141146506402879,0.02611916288256516,0.000933057727629862,9.03539476511665,11.223951559137912,0.9863424262322473
1731474145.739691,-0.7718563675880432,0.09749940782785416,-9.974160194396973,0.052398608618145825,0.03362433753963645,0.0010063460281225457,9.053346910031358,11.243155701579743,0.9895371709510803
1731474145.7895942,-0.46285444498062134,0.407083123922348,-9.982929229736328,0.053217971624524706,0.04112403953665568,0.0010836359565777665,9.012155076040669,11.261984829798818,0.9919093577996134
1731474145.839546,0.17480438947677612,0.5993920564651489,-9.956948280334473,0.05387794318210722,0.04858812978999409,0.001165110563071216,9.027053999424224,11.281310286049603,0.995089939094762
1731474145.8895202,-0.4296962022781372,0.3416212499141693,-10.036373138427734,0.05438702972903656,0.05598722373477475,0.0012510118503504654,9.041900058441561,11.300519349836186,0.9974326758077595
1731474145.9394314,-0.10667605698108673,0.5735830664634705,-9.944799423217773,0.054751313138767924,0.06329163835588945,0.0013415124134206237,9.057086448961599,11.32014971141196,1.0006175531715287
1731474145.9893925,-0.4261827766895294,0.25164923071861267,-9.998679161071777,0.05497463896712701,0.07047162365601065,0.0014366578961668083,9.07213330775152,11.339643347363587,1.0029020124310257
1731474146.0393891,-0.4261827766895294,0.25164923071861267,-9.998679161071777,0.05505999401132372,0.07749836326465263,0.0015364195068387875,9.087566089255901,11.359597741006738,1.0060831543573237
1731474146.0393891,-0.1757666915655136,0.5858380794525146,-10.030649185180664,0.055010559035268476,0.08434500424275612,0.001640640076357625,9.087689470264749,11.359757335400285,1.006108487575322
1731474146.0892906,-0.36952340602874756,0.26452311873435974,-9.984543800354004,0.054829852303778015,0.09098672839880897,0.001748866471483803,9.103001689833544,11.379588397496684,1.0092407900669957
1731474146.1392066,-0.2180897742509842,0.5275964140892029,-9.984308242797852,0.054521212342903025,0.0974001753903428,0.0018603411760269013,9.11864689206175,11.399908844977652,1.0124179102657727
1731474146.1892066,-0.35027265548706055,0.3020928204059601,-9.998504638671875,0.05408758278087355,0.10356333459115534,0.0019741758244222834,9.134350805383942,11.420379852174998,1.015584343441245
1731474146.2392662,-0.24522694945335388,0.4789474606513977,-9.97572135925293,0.05353165124460463,0.10945575299253274,0.002089486478245196,9.15021557645523,11.441219198432396,1.0177541421707434
1731474146.2900531,-0.32880857586860657,0.3587845265865326,-9.992473602294922,0.05285597485147425,0.1150586519357531,0.0022054337319605795,9.1665121884383,11.462670695695676,1.0209892670474923
1731474146.3401139,-0.28920209407806396,0.4533703923225403,-9.996732711791992,0.05206308601647876,0.12035495725697887,0.002321232094808401,9.182519962126621,11.484064375012036,1.0230985884815564
1731474146.3900425,-0.32036682963371277,0.38436904549598694,-9.975886344909668,0.051155622712194135,0.1253292878625686,0.002436132017874069,9.198744781214367,11.505692679827074,1.0262738257654118
1731474146.4399643,-0.3222068250179291,0.4288286566734314,-9.992498397827148,0.05013646650198651,0.12996797333219445,0.002549419715620998,9.215238832416745,11.52783089441364,1.0294831280668457
1731474146.4898868,-0.3282969295978546,0.4256960153579712,-9.982223510742188,0.049008863335065274,0.13425907284456962,0.00266045127317805,9.23173554379021,11.550136198748412,1.032675387677423
1731474146.5398424,-0.3342430889606476,0.41899538040161133,-9.977553367614746,0.047776522015582246,0.1381923397797722,0.0027686722603482558,9.248183017296823,11.572784802184637,1.0346554803694505
1731474146.5898244,-0.3272224962711334,0.4375999867916107,-9.990431785583496,0.04644366042546469,0.14175916810907505,0.0028736306217197723,9.264513969381929,11.595637662841481,1.036592142135866
1731474146.6398294,-0.348007470369339,0.42216381430625916,-9.980985641479492,0.04501500408721315,0.1449525652616699,0.0029749764324910367,9.281591860542724,11.619335250085566,1.0398361195354806
1731474146.6897447,-0.3311549723148346,0.43346843123435974,-9.981561660766602,0.04349577691953926,0.14776713645214046,0.0030724413482263457,9.298353241254627,11.642802917355423,1.0430067040494178
1731474146.7396312,-0.3635404109954834,0.40990909934043884,-9.988479614257812,0.041891697739959835,0.15019909157961672,0.003165830917621239,9.31552132005993,11.667062988502426,1.0462418367569601
1731474146.789546,-0.3635404109954834,0.40990909934043884,-9.988479614257812,0.04020900241783976,0.1522462989022572,0.003255011195510519,9.332506273522437,11.691293453676733,1.0494313303886253
1731474146.789546,-0.32311975955963135,0.4552238881587982,-9.978585243225098,0.038454456336655604,0.1539083142803131,0.003339880390857513,9.332646081585374,11.691493859260513,1.0494575407295867
1731474146.8395026,-0.3543110489845276,0.4205108880996704,-9.987153053283691,0.03663524325829495,0.15518627462319806,0.0034203690083011353,9.34940165526013,11.716128495207252,1.0512206680636533
1731474146.8894835,-0.33690303564071655,0.44204410910606384,-9.983466148376465,0.034758786328723076,0.15608273259333624,0.003496456842910518,9.366809456596856,11.74148641849941,1.054464144862785
1731474146.939377,-0.3456494212150574,0.4204249382019043,-9.974058151245117,0.032832650302579224,0.15660158718412692,0.00356817830871798,9.383649184367782,11.767103119330988,1.0561927135133897
1731474146.9893372,-0.32335811853408813,0.44455331563949585,-9.994388580322266,0.03086447832646258,0.15674806929655954,0.0036356287840676902,9.401106144118806,11.793102294192572,1.059426269846462
1731474147.0392928,-0.3419918715953827,0.4153200089931488,-9.980100631713867,0.028861889389105937,0.15652870156195647,0.003698951784659155,9.418668920097623,11.819538334884568,1.0626747852624479
1731474147.0892532,-0.33232659101486206,0.44813141226768494,-9.970808982849121,0.026832392311942968,0.15595124399398638,0.0037583186527599707,9.436389301802057,11.846498658954106,1.065948883040243
1731474147.1392598,-0.3414287269115448,0.42118310928344727,-9.989472389221191,0.02478335784113181,0.15502462621393215,0.0038139527548881865,9.453434229476565,10.980344059898476,1.0675392980125864
1731474147.1892078,-0.32821929454803467,0.43675288558006287,-9.983247756958008,0.022722006662918057,0.15375886832889823,0.003866141962041851,9.47108757168078,11.002780623051038,1.0707895621360326
1731474147.239118,-0.3308393657207489,0.41653814911842346,-9.989508628845215,0.0206553672949151,0.15216502605590693,0.003915189011369127,9.48886908156694,11.025691558891886,1.0740631703340422
1731474147.2890556,-0.3233639597892761,0.44228991866111755,-9.99915599822998,0.01859020822496011,0.15025514698203069,0.003961350369871901,9.505810885576908,10.276658888387773,1.0755641817100678
1731474147.34003,-0.3317860960960388,0.42187803983688354,-9.981391906738281,0.016532979525044705,0.1480421890036932,0.004004794288726131,9.524072786512153,10.296425576073238,1.0789215584260834
1731474147.389953,-0.3199501931667328,0.43816444277763367,-9.984302520751953,0.014489784647536957,0.14553991241259712,0.004045605393606721,9.541980121843366,10.316136242217548,1.0822167025518934
1731474147.4399762,-0.3348630368709564,0.410004585981369,-9.995926856994629,0.012466371805678073,0.14276279858000887,0.004083831833996736,9.559966088549816,10.336257146509505,1.0855302827543594
1731474147.4898822,-0.31965500116348267,0.4335654675960541,-9.987404823303223,0.010468135257302036,0.13972600775003874,0.004119496545175827,9.576770667005045,9.674015072325014,1.0868859827681234
1731474147.5398347,-0.33629316091537476,0.42236918210983276,-9.98745346069336,0.00850012321849709,0.13644532441754684,0.004152575188442613,9.594722224529626,9.690953759247586,1.0901967132635033
1731474147.5897639,-0.32917505502700806,0.4344494938850403,-9.999245643615723,0.006567054059664938,0.1329370496472461,0.0041829954180009,9.61112099632012,9.117314780082973,1.0915069435442255
1731474147.6397233,-0.3516184091567993,0.42074695229530334,-9.990751266479492,0.00467335943881016,0.1292178781329393,0.00421063131529177,9.629067825068196,9.131633463408425,1.0948261686852458
1731474147.6896822,-0.3454195261001587,0.43337929248809814,-9.982441902160645,0.0028232610599353168,0.1253048043566812,0.004235296162455694,9.64707638486839,9.1463121858573,1.098165639087843
1731474147.739603,-0.3505779504776001,0.42843934893608093,-9.977140426635742,0.0010208451287011485,0.12121503990644587,0.004256793288905112,9.66333001927798,8.63697766499243,1.0993316252214682
1731474147.7895708,-0.3442579209804535,0.44717955589294434,-10.014467239379883,-0.0007299148988238948,0.11696590483872273,0.004274971747359064,9.681332944513375,8.649363383099837,1.1026835335083394
1731474147.839557,-0.3442579209804535,0.44717955589294434,-10.014467239379883,-0.002425191431157437,0.11257468134860021,0.004289654819989526,9.697089035826698,8.201417123003326,1.1037874519209674
1731474147.839557,-0.2940550446510315,0.5944892764091492,-9.976007461547852,-0.004061401291120484,0.10805832885193768,0.004300507741978812,9.697171321817834,8.201464166401783,1.103802830265482
1731474147.889536,-0.20518560707569122,0.54371577501297,-9.946371078491211,-0.005635501460094737,0.10343291830142609,0.004307103239535899,9.71502717386371,8.211805778039144,1.1071465894761596
1731474147.939503,-0.43645983934402466,0.24578015506267548,-9.995434761047363,-0.007145345707599482,0.09871334105753135,0.004309179336723765,9.730422501673859,7.814336219590636,1.1081908842077337
1731474147.9893682,-0.2412494719028473,0.5809628963470459,-10.00178050994873,-0.00858959431457159,0.0939139435323491,0.004306736062792299,9.74812652294834,7.822892903451615,1.111530302118954
1731474148.0393229,-0.4226839542388916,0.305077463388443,-9.972904205322266,-0.009967281963733855,0.08904925073014358,0.004299878151554551,9.765902642575579,7.831723456136416,1.114898398612088
1731474148.0892675,-0.17636924982070923,0.6643232107162476,-9.994385719299316,-0.011277662039567897,0.08413384917348211,0.004288701152776716,9.783628246293302,7.8407578961657585,1.1182726433448154
1731474148.1391916,-0.017241640016436577,0.4965020716190338,-10.021503448486328,-0.012520746884530086,0.0791817108669062,0.004273281555958254,9.799009807721118,7.476435916462365,1.1191287693071583
1731474148.1891968,0.08745230734348297,0.6030604839324951,-10.011589050292969,-0.013698731245276053,0.07420547055688279,0.0042535751668084055,9.81429781433184,7.155257854652295,1.1199722071464455
1731474148.2391913,-0.9778934717178345,0.07814757525920868,-9.990920066833496,-0.014816655305795066,0.06921651069476362,0.0042292954588395455,9.831902837276292,7.161021819684345,1.1233593851610988
1731474148.289004,-0.13256236910820007,0.6477596163749695,-9.916261672973633,-0.015880219901095942,0.06422617276254336,0.004200034816115762,9.849386981833119,7.1669248937717605,1.1267411556585356
1731474148.3390393,-0.5607509613037109,0.18505153059959412,-10.030675888061523,-0.01689306311643575,0.059246664582054895,0.004165579353292018,9.866898882597733,7.173005441036872,1.1301466694365057
1731474148.3899746,-0.24053697288036346,0.6703055500984192,-9.993346214294434,-0.01785661476774828,0.05429079325415262,0.004125993706960033,9.881779696166758,6.87596398235306,1.1308592888674882
1731474148.4399455,-0.4149532914161682,0.18424800038337708,-9.922703742980957,-0.0187711950496225,0.04937138810642273,0.004081449355947257,9.899169175626195,6.880647375319489,1.1342726732739072
1731474148.4898977,-0.32263457775115967,0.564312756061554,-10.011099815368652,-0.01963659709707411,0.04450113169667026,0.004032241477814121,9.913405623266847,6.6136265976829085,1.13485718330499
1731474148.539939,-0.4096713662147522,0.33358514308929443,-9.978320121765137,-0.02045226499338939,0.039692602941196246,0.0039788940121545345,9.93063452170863,6.61703678300052,1.138272245001884
1731474148.5898108,-0.33266475796699524,0.4822407364845276,-9.983787536621094,-0.021217285592759896,0.0349581309434462,0.003922045626115988,9.944381001813062,6.374351744943312,1.138763187303707
1731474148.6398258,-0.36633315682411194,0.4079146981239319,-10.017582893371582,-0.021930424621007385,0.030309555243106655,0.003862299929189069,9.961447318643632,6.376581509354286,1.142180722544167
1731474148.6896837,-0.37975364923477173,0.41329842805862427,-9.984230041503906,-0.022590262511977904,0.025758121670132063,0.00380014342773732,9.974769713618565,6.15573254270655,1.1425950648647591
1731474148.7397082,-0.3236582279205322,0.45023560523986816,-9.957239151000977,-0.02319528051833893,0.02131446577704408,0.003735931390468689,9.99166978037224,6.156862400658245,1.1460154438413346
1731474148.7895982,-0.4094269871711731,0.40006208419799805,-10.010847091674805,-0.023743917817725037,0.01698859410226927,0.003670007804484883,10.00459501519123,5.955278623496795,1.146363560963357
1731474148.8395123,-0.3341081142425537,0.49790847301483154,-9.974881172180176,-0.024234605169346658,0.012789792221211061,0.0036027795165516118,10.017197492538822,5.77291487252698,1.1466892121785435
1731474148.8895173,-0.40162166953086853,0.3858509361743927,-9.979796409606934,-0.024665749181932303,0.008726489434160253,0.003534666322832289,10.033758684881168,5.772043048101386,1.1500950483105472
1731474148.9394271,-0.33520281314849854,0.49349677562713623,-9.995915412902832,-0.025035749064324535,0.004806191210945843,0.0034660887382987693,10.05033505965266,5.771184150846698,1.153525680427547
1731474148.989394,-0.39363962411880493,0.3769837021827698,-9.9759521484375,-0.025343063385675855,0.0010355163102279388,0.0033974786443997235,10.06675346888339,5.770337493297551,1.1569452432531981
1731474149.0393794,-0.32641667127609253,0.49767252802848816,-9.984671592712402,-0.02558628540616504,-0.0025797374974468094,0.0033292649991892853,10.078433480194176,5.597933715431448,1.1570578510839171
1731474149.0893095,-0.39658495783805847,0.40310895442962646,-9.991823196411133,-0.025764215203372166,-0.006034584988356489,0.003261877335384177,10.094674901815164,5.5961225955273575,1.1604799965003392
1731474149.139286,-0.31508591771125793,0.49019932746887207,-9.974615097045898,-0.025875911532723277,-0.009324901807926361,0.003195740965997973,10.11084150876295,5.5942934358572325,1.1639080399561763
1731474149.1892076,-0.3865351676940918,0.38851404190063477,-9.984769821166992,-0.025920740627127375,-0.012447433722116472,0.003131273450929956,10.12172803406216,5.5924343882954695,1.163837229751157
1731474149.2392628,-0.3284973204135895,0.4553205966949463,-9.989445686340332,-0.025898418614284026,-0.015399689958090546,0.0030688991922367117,10.137724557173538,5.590538891645013,1.1672691842049405
1731474149.2891707,-0.36882221698760986,0.4021817743778229,-9.976908683776855,-0.025809018496094762,-0.018179786895732207,0.0030090380600128514,10.15366462118843,5.588600220371433,1.1707105897352463
1731474149.3390863,-0.339903861284256,0.46282950043678284,-9.997218132019043,-0.025652966004269695,-0.020786375886745104,0.0029520809472282816,10.16947130328059,5.586621338429748,1.1741445037756129
1731474149.3890233,-0.36403632164001465,0.4146801829338074,-9.983406066894531,-0.025431031386978217,-0.02321867930778563,0.0028983696165744274,10.179320828176392,5.584581373332723,1.173833489576321
1731474149.4399798,-0.3282560706138611,0.4430561661720276,-9.990992546081543,-0.025144318043015708,-0.025476528655274548,0.002848173066277335,10.195316674281875,5.582432192052995,1.1773495881988132
1731474149.489963,-0.34830936789512634,0.4099680185317993,-9.985173225402832,-0.024794288766446217,-0.027560326547356337,0.0028016846537506305,10.210814507759316,5.580274831098316,1.1807771265818776
1731474149.5398574,-0.3367198407649994,0.4484230577945709,-9.979958534240723,-0.024382806017967256,-0.029470976966925765,0.002759045803917678,10.219804817923558,5.578037609536569,1.1802864769192136
1731474149.5898209,-0.3511849343776703,0.42940324544906616,-9.9827299118042,-0.023912118021776264,-0.031209873356739158,0.0027203832930019814,10.235144004128818,5.575725769348981,1.1837183722065376
1731474149.639785,-0.3449540138244629,0.44740235805511475,-9.993281364440918,-0.02338479053543998,-0.03277894447641351,0.0026858309346491542,10.250462101765141,5.573327945464145,1.1871655933871874
1731474149.689714,-0.348348468542099,0.4309273660182953,-9.968509674072266,-0.022803633248519424,-0.03418068226098468,0.002655518355175341,10.258514251042198,5.570860210893824,1.1865198065346896
1731474149.7397473,-0.3465837836265564,0.4344233572483063,-9.99363899230957,-0.022171649907667894,-0.03541811091026945,0.002629572310555029,10.273671204631594,5.568282493109221,1.1899699801624672
1731474149.7896135,-0.35121646523475647,0.43669408559799194,-9.989757537841797,-0.02149200449382816,-0.03649472102994983,0.0026081197139892105,10.281062670858217,5.565643780728099,1.1892428240981823
1731474149.839714,-0.3436480164527893,0.4485608637332916,-9.986307144165039,-0.020767989202493547,-0.037414429606872794,0.002591244887179737,10.288150357498836,5.562902125801499,1.188538991115495
1731474149.8895714,-0.3596985638141632,0.44395580887794495,-9.989258766174316,-0.020002992469636913,-0.03818159472621711,0.0025789551766288703,10.302809466798738,5.560071147866395,1.1919341394215819
1731474149.9394937,-0.3440133035182953,0.440993994474411,-9.989282608032227,-0.019200460332641278,-0.03880102990813093,0.002571189366879126,10.317532530272329,5.557121544970466,1.195361983996633
1731474149.9894161,-0.3629949986934662,0.4327376186847687,-9.978323936462402,-0.01836385515668329,-0.039277955800596995,0.0025678360158882794,10.33204579025473,5.554107758428621,1.1987582113652422
1731474150.0394707,-0.35161831974983215,0.4358040392398834,-9.977865219116211,-0.017496618731616183,-0.039617902678637164,0.002568772048690901,10.337931001565407,5.550969722993401,1.197818727474133
1731474150.0892787,-0.3588835597038269,0.44195646047592163,-9.983288764953613,-0.016602137945507127,-0.039826628725829455,0.0025739166121366234,10.352247993584218,5.54775842618577,1.201205665752159
1731474150.1392915,-0.3525645434856415,0.4376795291900635,-9.988021850585938,-0.01568372752867495,-0.03991009166267134,0.002583241224619708,10.36669878206055,5.544407746937492,1.2046403436545288
1731474150.1892414,-0.3610277473926544,0.4366692900657654,-9.989734649658203,-0.01474462769796751,-0.0398744386016579,0.002596723325554614,10.371425954586142,5.541008078855804,1.203502695263442
1731474150.239233,-0.35390523076057434,0.44004589319229126,-9.980785369873047,-0.013787995856472855,-0.03972597398998928,0.0026143003231538756,10.385695001291523,5.537453020399119,1.2069300679448418
1731474150.2891834,-0.34808841347694397,0.4356316924095154,-9.990507125854492,-0.012816906188230427,-0.03947112010941545,0.0026358660864379195,10.399715846663863,5.533853420774621,1.210312253206366
1731474150.3391497,-0.3495331108570099,0.4318283796310425,-9.987534523010254,-0.011834380621784702,-0.03911637847970527,0.002661281757855358,10.403509321404137,5.530134896762314,1.2090380456419896
1731474150.3889644,-0.34229859709739685,0.43807172775268555,-9.979005813598633,-0.010843431534543063,-0.038668281713402405,0.0026903763446231624,10.41741940293452,5.526320679716775,1.2124277177684912
1731474150.4399717,-0.35194361209869385,0.43843650817871094,-9.987793922424316,-0.009847082660960137,-0.03813335987657497,0.002722962977968477,10.420694806500894,5.522343584465572,1.2111410623292973
1731474150.4899325,-0.3497510850429535,0.43838438391685486,-9.9824857711792,-0.008848354500426973,-0.03751813726853727,0.002758862190699287,10.423245823528827,5.518354365607638,1.209804159357229
1731474150.5399475,-0.3440338671207428,0.4448617100715637,-9.980924606323242,-0.007850229629084552,-0.036829136441398416,0.0027979069518671764,10.43685822723402,5.514242007785928,1.2131764631540494
1731474150.5898569,-0.3435697555541992,0.4436219334602356,-9.993441581726074,-0.006855640873612176,-0.036072881072871904,0.002839939472975159,10.450449042409732,5.51003934085707,1.2165550379980694
1731474150.6397717,-0.3434273302555084,0.4445556402206421,-9.981748580932617,-0.005867487328417542,-0.035255898189489876,0.002884794493653288,10.451855919538122,5.505796544230751,1.2150439399140505
1731474150.6896904,-0.34205594658851624,0.4357181191444397,-9.985618591308594,-0.00488864150525059,-0.03438469759996212,0.0029322815760064354,10.465216600333761,5.501436085293935,1.218397880789285
1731474150.7397027,-0.3368449807167053,0.4365089237689972,-9.985532760620117,-0.0039219443331664616,-0.033465715016865544,0.0029821946320622017,10.465997274433223,5.49696874652214,1.2168654833135277
1731474150.7896504,-0.3370206654071808,0.44003918766975403,-9.988101959228516,-0.0029702091757881546,-0.03250524689095476,0.0030343225765255225,10.479159551752367,5.492450935568565,1.2202019344270505
1731474150.839731,-0.34878137707710266,0.4350849390029907,-9.995030403137207,-0.0020362187768220995,-0.03150941469104178,0.0030884322047443364,10.479114848116534,5.487827817612183,1.218601382820363
1731474150.8894904,-0.34878137707710266,0.4350849390029907,-9.995030403137207,-0.0011226759567339287,-0.03048414820520565,0.003144230518721186,10.492032950023937,5.483181615111609,1.2219078027045034
1731474150.8894904,-0.34958556294441223,0.43955448269844055,-9.992443084716797,-0.00023212405665714287,-0.029435165239020736,0.0032013313677390206,10.49212495080581,5.483148254946634,1.2219313805932441
1731474150.9395454,-0.33814793825149536,0.4347154200077057,-9.992836952209473,0.0006330954143918851,-0.028367960342103683,0.0032592543961807944,10.50518607127039,5.4783767906682534,1.2252825712992468
1731474150.9894862,-0.3534073531627655,0.43426117300987244,-9.98823356628418,0.0014708304668963452,-0.02728779976972858,0.0033174542695232666,10.518191797126628,5.4735574598416115,1.2286270394876195
1731474151.0393903,-0.35689619183540344,0.43784937262535095,-9.982269287109375,0.0022791192346315135,-0.026199706815297194,0.003375365211780298,10.516537977567307,5.468674258298607,1.2267606915333884
1731474151.089344,-0.34376397728919983,0.4424741268157959,-9.984296798706055,0.0030562331590691175,-0.025108459154889167,0.003432455640894802,10.529409858544245,5.4637162511279875,1.2301012410210728
1731474151.1394033,-0.34501925110816956,0.4349685609340668,-9.980411529541016,0.003800686945731166,-0.02401860884651563,0.003488273645189148,10.526852397605424,5.4587168486370485,1.2281694494878657
1731474151.1892505,-0.35001081228256226,0.4367660880088806,-9.98748779296875,0.004511192543382278,-0.02293448818166273,0.0035424625872305065,10.539553018429494,5.453646045728099,1.2314963839580777
1731474151.2393665,-0.35077399015426636,0.4410512447357178,-9.983784675598145,0.005186635818822279,-0.02186019234137539,0.003594748086074126,10.552422746126828,5.448456084779523,1.234873417115416
1731474151.2891529,-0.3346041738986969,0.4414082169532776,-9.978825569152832,0.005826082313388151,-0.020799577924620886,0.0036449210063472376,10.548578856981356,5.443306673911011,1.2327796259158055
1731474151.339152,-0.3532467186450958,0.44168803095817566,-9.982125282287598,0.006428754992559939,-0.019756283907411423,0.0036928435059605815,10.561124202669228,5.438082623575434,1.2361026223083524
1731474151.38902,-0.3444956839084625,0.44681721925735474,-9.989038467407227,0.006994011814171071,-0.018733749898919433,0.0037384561499505097,10.55635338980451,5.432836409923577,1.2339564991595506
1731474151.4390323,-0.3412024676799774,0.45108357071876526,-9.988518714904785,0.00752135543626028,-0.01773523610151196,0.003781746431793742,10.568905274458421,5.427450893168545,1.2373135459575582
1731474151.4888942,-0.35135704278945923,0.44728460907936096,-9.988907814025879,0.00801043445512283,-0.016763852165952834,0.0038226993970857485,10.563139390849845,5.422142135278225,1.2351005532196015
1731474151.5399947,-0.3428148031234741,0.43845781683921814,-9.985496520996094,0.008461037222139763,-0.01582256050323132,0.003861275628523296,10.575779369023218,5.416564251557029,1.2385151679703696
1731474151.589838,-0.35130253434181213,0.43799132108688354,-9.989453315734863,0.008873101182123026,-0.014914125939215588,0.0038974185245337824,10.58805189290274,5.411119441740333,1.2418343901065252
1731474151.6397727,-0.35130253434181213,0.43799132108688354,-9.989453315734863,0.009246725599100381,-0.01404104690541169,0.003931061726343215,10.580957529829499,5.405687304519504,1.2394803454618963
1731474151.6397727,-0.34227749705314636,0.4340595602989197,-9.994230270385742,0.00958217896742585,-0.013205516214237528,0.003962118662816623,10.581031011941821,5.405653925417857,1.2395004161445997
1731474151.6898038,-0.345090389251709,0.4354267120361328,-9.992863655090332,0.009879880489433373,-0.01240940833810596,0.003990460628232948,10.593143397549616,5.400142023049123,1.2428103664901937
1731474151.7628806,-0.345090389251709,0.4354267120361328,-9.992863655090332,0.010140358988921053,-0.011654276625247265,0.004015901505339287,10.590641913196354,5.392038432460705,1.2419584580605352
1731474151.7628806,-0.3515869379043579,0.4293767511844635,-9.992466926574707,0.010364236426954759,-0.010941357843500815,0.004038200600242032,10.59073847871953,5.3919934344589455,1.2419851322217053
1731474151.7896523,-0.3438718020915985,0.40278133749961853,-9.977875709533691,0.010552242798624444,-0.010271546486855677,0.004057090495384952,10.597092853752962,5.389030492186798,1.2437407980352904
1731474151.839626,-0.3230764865875244,0.15276339650154114,-9.979936599731445,0.010705200273712353,-0.009645068635810406,0.004072340013209686,10.588052509306168,5.38344578666484,1.2413192909973614
1731474151.8895721,-0.22208143770694733,0.187400683760643,-10.070066452026367,0.010823833784197765,-0.00906053162468816,0.004083745135586042,10.599865227408408,5.377817141141123,1.2446194875137389
1731474151.939552,-0.3626958727836609,-0.3957504630088806,-10.0033597946167,0.010908424643757849,-0.008513321713908617,0.004090907144187664,10.611734417973523,5.372152582449144,1.247938084859873
1731474151.989412,-0.49128592014312744,-0.6028002500534058,-10.101073265075684,0.01095888773094968,-0.00799311640951744,0.004092941082867603,10.601158319921621,5.366534759607442,1.2453581186754306
1731474152.039409,-0.33004650473594666,0.15001556277275085,-9.991525650024414,0.010975540857750515,-0.0074815543833589345,0.004088344181308551,10.590050151749722,5.36085931764247,1.242859536541163
1731474152.0893848,-0.42409035563468933,-0.23452405631542206,-9.928579330444336,0.0109596722215321,-0.006952857187470931,0.00407519384479819,10.601595751184504,5.3551128930178935,1.2461658363042882
1731474152.139399,-0.3635537326335907,0.16380023956298828,-9.96257495880127,0.010913399869227973,-0.006377049055596172,0.004051734740113847,10.613106452432248,5.3493807827752375,1.2494644705020155
1731474152.1892323,-0.3265819549560547,0.03705446049571037,-9.926668167114258,0.010839330973164231,-0.005722756210842084,0.004016936447821572,10.624643396397708,5.343634024931933,1.25277291157268
1731474152.2392316,-0.34383344650268555,0.2610261142253876,-9.951214790344238,0.010740222797167532,-0.004959041855328522,0.0039706516719450035,10.636236838045688,5.33785920998218,1.2560998048819068
1731474152.2891235,-0.35642221570014954,0.23940710723400116,-9.95168685913086,0.010618683474906652,-0.004056978439997723,0.003913530953992609,10.622497820737205,5.3321639476152125,1.2532311096274968
1731474152.3392637,-0.3735845685005188,0.305618554353714,-9.976515769958496,0.010477144181258337,-0.0029908795916465973,0.0038468432627812407,10.633952225511717,5.326341964589785,1.2565634544018478
1731474152.389072,-0.3662432134151459,0.2762035131454468,-9.98367977142334,0.010318021867281774,-0.001739017959349063,0.003772219307541027,10.619079550711033,5.320612067158073,1.2537071434976301
1731474152.4390504,-0.3853393793106079,0.2848801612854004,-9.992253303527832,0.010143848671360638,-0.0002837981683128327,0.003691391619293809,10.630255015769439,5.314821744211678,1.2570060390844784
1731474152.4890246,-0.3745778203010559,0.2969180941581726,-9.987142562866211,0.00995732741221755,0.0013884139615279814,0.003606008391482216,10.614260973929081,5.309065078723282,1.2541493531567791
1731474152.539969,-0.36941108107566833,0.32635197043418884,-10.017279624938965,0.009761331494634987,0.0032875050235232945,0.0035175271552718313,10.62543201224049,5.303174761183173,1.2574981098270008
1731474152.5898287,-0.3613957464694977,0.32036691904067993,-9.987659454345703,0.009558830806185949,0.0054197319254559615,0.003427137653780169,10.636430218193391,5.29739935499611,1.2607965091796756
1731474152.6398501,-0.3558109700679779,0.3377763330936432,-10.017905235290527,0.009352764581093135,0.00778782516109685,0.0033357178505585465,10.618722580880915,5.2916673132594525,1.2577893416059913
1731474152.6896672,0.11172740161418915,0.9410831928253174,-9.988750457763672,0.009145503827358077,0.010390629144850567,0.0032438458641895086,10.629378407255329,5.285995517731438,1.2610376127142136
1731474152.7397246,0.6022413969039917,1.6053311824798584,-9.950591087341309,0.00893672770760124,0.013220666572726456,0.003151895337664145,10.610423651459792,5.280313134317535,1.258003501597729
1731474152.7897217,0.45707929134368896,1.1785728931427002,-9.883322715759277,0.008719658793263826,0.01625969989668184,0.003060335904326538,10.621028507460228,5.274612254385801,1.2612925539506006
1731474152.8396256,0.18722468614578247,0.8254978060722351,-10.014012336730957,0.008478565583572146,0.019476502753920412,0.0029701216960847693,10.631552772489067,5.269010649068672,1.2645574780804743
1731474152.889567,-0.2138817459344864,0.33085402846336365,-10.020838737487793,0.008190256723297984,0.02283014061770966,0.0028826570563066753,10.642165689528083,5.26342585792635,1.2678507568037805
1731474152.939633,-0.84199458360672,-0.42900434136390686,-10.077438354492188,0.007829065467552968,0.026277110433493976,0.00279920709284919,10.620733166090593,5.257973675831796,1.2645522628759993
1731474152.9894435,-1.1347620487213135,-0.6553553342819214,-10.159132957458496,0.0073733667289798376,0.029779406640423233,0.002720179403576495,10.63098508022078,5.2525786018608285,1.2677936484316399
1731474153.0395005,-0.5375619530677795,0.026560742408037186,-10.053828239440918,0.006810874776068019,0.03331045919107959,0.002644601480965252,10.608347459036944,5.247205747843843,1.2645138538004044
1731474153.0893981,-0.6419805884361267,-0.14039817452430725,-10.018117904663086,0.006139591874040328,0.036855751345260965,0.002570101180665809,10.618344649368053,5.241973846982807,1.2677393148671525
1731474153.13939,-0.48468977212905884,0.17504572868347168,-9.904268264770508,0.005364978611829706,0.04040924780632123,0.0024936017736446867,10.628501810480282,5.236762840308799,1.2710180875872719
1731474153.1893013,-0.5061772465705872,0.20886747539043427,-9.975037574768066,0.0044969632076813145,0.04396961620246003,0.0024123113997566695,10.638539841351697,5.231723863498978,1.2742605394382291
1731474153.2392278,-0.504601240158081,0.35937514901161194,-9.961531639099121,0.0035482779827443038,0.047537505865385646,0.0023243122659434338,10.648656932503581,5.226764170814397,1.2775311917560261
1731474153.2890863,-0.5235366225242615,0.4285810589790344,-9.942535400390625,0.002533596621745038,0.051113415051980624,0.002228582070992885,10.62259071987947,5.704982603987254,1.2738314355874008
1731474153.3391986,-0.5182399153709412,0.41647854447364807,-9.95583724975586,0.0014691059139840693,0.054696197496053006,0.002124853758408346,10.632433468350722,5.70281193116874,1.2770898415208296
1731474153.3890479,-0.5484158992767334,0.4480695128440857,-9.937871932983398,0.00037224836672041086,0.058282340578196784,0.0020135662327402295,10.604979385676664,6.088952649870918,1.2733931248517942
1731474153.4390175,-0.5478430390357971,0.4370619058609009,-9.939542770385742,-0.0007384989252558516,0.06186589044612628,0.001895829892346698,10.614483765584506,6.089107747195231,1.2766229698757652
1731474153.4889638,-0.5263280868530273,0.4694240391254425,-9.992203712463379,-0.0018438418067729851,0.06543866545256677,0.0017733297088952896,10.585623215576499,6.40796892459554,1.2729150858924503
1731474153.5389593,-0.5467596054077148,0.46723413467407227,-9.985711097717285,-0.0029239725176867437,0.06899049006988828,0.0016480824885978496,10.594780218645626,6.410106219078869,1.2761177085279218
1731474153.5898702,-0.551529049873352,0.4757702946662903,-9.996859550476074,-0.003958900193506436,0.07250941838484314,0.0015221051145790636,10.564642988356656,6.678047331625085,1.2724544050036046
1731474153.6398945,-0.5152885317802429,0.4587487578392029,-9.976001739501953,-0.0049287157435394325,0.07598200575438274,0.001397215214704629,10.573516223587943,6.681955188638757,1.2756574658232198
1731474153.6898081,-0.5710768699645996,0.47691261768341064,-10.003650665283203,-0.00581384536849428,0.07939365364012604,0.0012750064840083982,10.541659612434584,6.909919329121605,1.2718954336183852
1731474153.7397523,-0.525538980960846,0.48766395449638367,-9.994609832763672,-0.0065952742264634,0.08272893609186689,0.0011568504186191732,10.50909757916031,7.104702816224183,1.268247938528162
1731474153.789613,-0.5084438323974609,0.5185731053352356,-9.965476989746094,-0.007254745971762876,0.08597179798461359,0.00104388722077354,10.517166000447048,7.111299286881617,1.2713676623013195
1731474153.8396065,-0.5292466878890991,0.4623800218105316,-9.98769760131836,-0.00777505134345983,0.0891056838443507,0.0009370984350136006,10.525242812029328,7.118136741429445,1.2745003671945978
1731474153.88953,-0.48913973569869995,0.46731847524642944,-9.979022026062012,-0.008140319048751354,0.09211380893030408,0.0008374096387371267,10.533266759841458,7.125171622492387,1.277622454286637
1731474153.9395475,-0.4685397744178772,0.5056860446929932,-9.99309253692627,-0.00833624374041487,0.09497955767952407,0.0007456965527024556,10.497765859919383,7.297771862906646,1.2737449686701812
1731474153.9894257,-0.45702219009399414,0.4998912811279297,-9.956080436706543,-0.00835035958152315,0.09768671640643954,0.0006627544041081171,10.461466074859828,7.447621318533754,1.2699538639840493
1731474154.0394197,-0.4022035002708435,0.5028836131095886,-9.970311164855957,-0.008172345906035635,0.10021950678804528,0.0005893521397705055,10.468752408412454,7.456975028053806,1.2730311664626452
1731474154.089314,-0.42270535230636597,0.48164358735084534,-9.983999252319336,-0.007794292948691439,0.10256267390538862,0.0005263158796243238,10.475997605695076,7.466554150783787,1.2761008888764687
1731474154.1392968,-0.38456615805625916,0.5007065534591675,-9.960416793823242,-0.007210870824955619,0.1047016984145502,0.0004745207496150904,10.483239084042403,7.476411813722314,1.2791782194800552
1731474154.1892097,-0.3837924003601074,0.4896668791770935,-10.00211238861084,-0.006419366275079674,0.10662299999856345,0.0004348226401210745,10.490437766293322,7.486496898098467,1.2822456927426205
1731474154.2391903,-0.3806689977645874,0.47306615114212036,-10.001392364501953,-0.005419638828980495,0.1083140847744917,0.00040796019518915864,10.497689927571676,7.496948219919301,1.2853433596069623
1731474154.2891269,-0.5227342247962952,0.9770021438598633,-9.972333908081055,-0.004213875108667765,0.10976325929004545,0.00039443288040509714,10.456710468039434,7.632312860881842,1.2810652127855144
1731474154.3391964,-0.6536251306533813,1.1910713911056519,-9.957026481628418,-0.002805773098150612,0.11095788003658656,0.0003945169675934894,10.463554631349433,7.643941166976641,1.2841283721115502
1731474154.389024,-0.5680765509605408,0.5152410864830017,-9.884139060974121,-0.0011992591655755305,0.11188197281430359,0.00040853032234396743,10.47032597081435,7.655731112241706,1.287162168124114
1731474154.438984,-0.8518714904785156,1.0223649740219116,-10.114818572998047,0.0006026162516593465,0.11251609849331361,0.0004370562153173218,10.427058532639045,7.775438031006398,1.2827577198617612
1731474154.4890203,-0.5428992509841919,0.5303182005882263,-9.948053359985352,0.002598322353160632,0.11283931436478836,0.000480682015774767,10.43348006627428,7.788390855362054,1.2857754981347747
1731474154.4890203,-0.5428992509841919,0.5303182005882263,-9.948053359985352,0.004787724288987133,0.11283110373534419,0.0005396134871704871,10.435515096133987,7.792551157449713,1.2867313467449288
1731474154.8706543,-0.253031849861145,0.3442539572715759,-9.981415748596191,0.007170745922990976,0.11247335818307373,0.000613825788238845,10.322872348996487,8.144372645282992,1.286664551882639
1731474154.9205117,-0.23775433003902435,1.9156547784805298,-9.855184555053711,0.00974530373037361,0.11175101114067476,0.0007034743148442316,10.272466018411766,8.219647515566734,1.2821023863734085
1731474154.9705315,-0.4001409411430359,0.5899046659469604,-9.77047061920166,0.012505738085632354,0.11064897187684856,0.0008093549905602651,10.27742441514167,8.236560458722433,1.2849700441605993
1731474155.020408,-0.1947299689054489,1.112312912940979,-10.022409439086914,0.0154425503248723,0.10914904227638135,0.0009334253083714257,10.225626847461692,8.303488123631181,1.2804461392626223
1731474155.0704117,-0.1947299689054489,1.112312912940979,-10.022409439086914,0.01854277611801423,0.10723065103341456,0.0010785671983178948,10.230225990268275,8.321074719536435,1.2832708259270513
1731474155.0704117,-0.21322882175445557,0.8714746236801147,-10.088143348693848,0.021790006877796635,0.10487248723395368,0.0012473983154866262,10.230254707392714,8.321184803355067,1.2832883856048176
1731474155.1203022,-0.2239534556865692,0.9041865468025208,-9.905142784118652,0.025164461809742175,0.10205331117750707,0.00144136289791064,10.235014022325606,8.339436298671401,1.2861809018580193
1731474155.1704328,-1.3943976163864136,-0.5810168385505676,-10.084527969360352,0.028644621226324385,0.09875455655963547,0.0016607902912691608,10.239772695491354,8.357678638805622,1.2890365300889746
1731474155.2202253,-0.5982986688613892,0.3721615672111511,-10.063822746276855,0.032211254824624815,0.0949656485587948,0.0019051659895007239,10.24477264478505,8.376794548807906,1.2919944480682661
1731474155.2702136,-0.46314603090286255,0.03619835898280144,-10.011496543884277,0.03585058893946695,0.09068824387428123,0.0021730006179759014,10.188967220965292,8.435787306942169,1.287010946554678
1731474155.320184,-0.5183843374252319,0.10595713555812836,-10.015792846679688,0.03955304090029095,0.08593601926651104,0.002461793648211372,10.193728664564247,8.45565447364285,1.2899584872571712
1731474155.3702235,-0.11161405593156815,0.15249505639076233,-10.028287887573242,0.0433099054937013,0.08073245792647164,0.0027683691498909205,10.136665546662032,8.507696231394991,1.2850061869822957
1731474155.4200754,-0.11161405593156815,0.15249505639076233,-10.028287887573242,0.04711087680958284,0.07510922520337139,0.003089140422754552,10.141058333751761,8.527494945347042,1.2878424865952172
1731474155.4200754,0.01588253118097782,0.03391246125102043,-10.020575523376465,0.05094210499871434,0.06910477772362322,0.0034201739735066922,10.141190922141266,8.528087287666569,1.2879270531118692
1731474155.469965,-0.25383296608924866,0.3448643088340759,-9.974748611450195,0.05478520013334924,0.06276309385116727,0.0037572991408472353,10.145585107597864,8.547499418795068,1.2906921206857702
1731474155.5198517,-0.10165785253047943,0.2227284014225006,-9.922452926635742,0.05861786054061517,0.05613218140080417,0.004096428251571485,10.150245411243908,8.567619250609466,1.293546903371039
1731474155.5699394,-0.1839110553264618,0.4192267656326294,-9.99095344543457,0.062415209575841596,0.049262161229057924,0.004433988771108411,10.09062451664437,8.61333664197718,1.288520227958488
1731474155.6198208,-0.19280876219272614,0.3612631559371948,-9.950533866882324,0.06615079145000542,0.04220357065684224,0.00476712837579322,10.095318819648899,8.634562767222885,1.2914675171109595
1731474155.6698928,-0.00384950777515769,0.6912849545478821,-9.922014236450195,0.06979711473854444,0.035005910762407236,0.00509366900970969,1.3979324430430744,8.65446857458232,1.2863653363419196
1731474155.7207956,0.744889497756958,1.6483407020568848,-9.939879417419434,0.07332499742801317,0.027715057348993336,0.005412135496509686,1.361128478637887,8.675779467413864,1.2816111983102665
1731474155.770732,0.3141680657863617,1.1341841220855713,-10.00156307220459,0.07670097866374226,0.020368687546023934,0.005721784959525411,1.3260623087393815,8.69626700678786,1.2843970636095716
1731474155.8206358,-0.22723086178302765,1.8611536026000977,-9.893811225891113,0.07988573972427776,0.012992103583264244,0.006022423254692828,1.2900470087767797,8.717468114432734,1.2872891738623615
1731474155.8706558,-0.4820658564567566,1.1263463497161865,-9.909140586853027,0.08283716996479208,0.005597006753138265,0.006314327525655923,1.2554992788471993,8.737945855920685,1.2900946114482328
1731474155.9206085,-0.49431735277175903,1.4234706163406372,-9.892594337463379,0.08551611499466029,-0.0018170248577876573,0.006598475281487119,1.2206774983461697,8.758709868602097,1.2850885146864142
1731474155.970523,-0.07631285488605499,0.5004467964172363,-10.070384979248047,0.08788989946117594,-0.009259005600484427,0.0068765758270284,1.1860022270593877,8.77949945279292,1.2802551163969536
1731474156.0204434,-0.24069371819496155,-0.35270124673843384,-10.206377029418945,0.08993199991548129,-0.01674053858362677,0.00715030799108363,1.1514644532148188,8.800314343520208,1.2830966920649223
1731474156.0704284,-0.6625279188156128,-0.9579870700836182,-10.202309608459473,0.0916205884200641,-0.024266973901569275,0.0074199051310999495,1.1171995825388787,8.821050159350811,1.2859526465360178
1731474156.1203353,-0.7205891013145447,-0.26662561297416687,-10.021163940429688,0.09293923130787776,-0.03182895254461834,0.007683189896149816,1.0831670487967673,8.841714713631722,1.2888272605132167
1731474156.170457,-0.539745032787323,-0.3440362215042114,-10.02015209197998,0.09387900393326468,-0.039399874739415475,0.007935991002113296,1.0492547952722746,8.86236508641995,1.283866589473516
1731474156.220292,-0.539745032787323,-0.3440362215042114,-10.02015209197998,0.09443899604534811,-0.0469392265909087,0.008173370899995341,1.015775382087457,8.882782251466876,1.2867405363568714
1731474156.220292,-0.7099660634994507,-0.18074804544448853,-9.97559928894043,0.09462508828401131,-0.0543967591416356,0.008390507477952336,1.0155131900116385,8.882942251476399,1.2867632035679528
1731474156.270222,-0.4648881256580353,-0.01231425255537033,-9.95477294921875,0.09444886160341862,-0.0617155940190562,0.008583088997037967,0.9825001034754303,8.903090710280273,1.2818349792813717
1731474156.320121,-0.6345815658569336,0.11943099647760391,-9.89240837097168,0.09392683419233341,-0.06883542763603473,0.008747672638240063,0.9489883246473277,8.92351703544337,1.2847627673356816
1731474156.370157,-0.4727819561958313,0.4156271815299988,-9.890789985656738,0.09307947762398217,-0.07569602976880521,0.00888210662830638,0.9166224471117373,8.943219361204497,1.2798896403492053
1731474156.419992,-0.4727819561958313,0.4156271815299988,-9.890789985656738,0.09193017715911769,-0.08224054258512448,0.008985833376863397,0.884088664912382,8.962957044241211,1.2827839582978615
1731474156.419992,-0.4746846556663513,0.4383656084537506,-9.960733413696289,0.09050421853565303,-0.0884179920728684,0.009059859961018822,0.8838761809659673,8.96308573761766,1.282803002055156
1731474156.4700122,-0.4082532823085785,0.4868992269039154,-9.922954559326172,0.08882789336066095,-0.09418444894259882,0.009106369628334523,0.8515932113685342,8.982588008476583,1.285717621465849
1731474156.5199811,-0.4082532823085785,0.4868992269039154,-9.922954559326172,0.08692782405761205,-0.09950321470372021,0.009128292736136696,0.8195456081062906,9.001864152338106,1.2808502745905266
1731474156.5199811,-0.42095184326171875,0.46034306287765503,-9.94420051574707,0.08483040870985187,-0.10434467603787251,0.009129105279799118,0.8193811138444225,9.001962670575388,1.2808652858373635
1731474156.5699735,-0.3570947051048279,0.568742036819458,-9.979055404663086,0.08256143124033297,-0.10868599670886782,0.00911268164634222,0.7874884206464084,9.02098981867447,1.2837964933616526
1731474156.6198468,-0.35170891880989075,0.5658196806907654,-10.006991386413574,0.08014574871432335,-0.11251088500460256,0.009082966605331939,0.7558746342224117,9.039725210967976,1.279001064703114
1731474156.6698449,-0.35522300004959106,0.5524300336837769,-9.985919952392578,0.07760693561275248,-0.11580951291874128,0.009043579244387657,0.7242478278107113,9.05827259139798,1.2819577998971128
1731474156.7197773,-0.3219449818134308,0.549161434173584,-9.999293327331543,0.07496703597371072,-0.11857821495892551,0.008997593347784792,0.6929599293872039,9.076441036162185,1.2849230233685713
1731474156.7707493,-0.28970977663993835,0.5290778875350952,-9.999696731567383,0.07224641827916244,-0.12081885356727365,0.008947520647592746,0.6611317484613205,9.0947254935146,1.2879804103284769
1731474156.8206139,-0.3143123984336853,0.5126650929450989,-10.002466201782227,0.06946360292069713,-0.12253807986820858,0.008895343169084004,0.629835463224873,9.112544525682173,1.2831009246429146
1731474156.870688,-0.2599155902862549,0.5240530371665955,-9.9974946975708,0.06663514298960702,-0.12374662638049175,0.008842534590005493,0.5991026912381933,9.129832948850087,1.2783597553758437
1731474156.9205627,-0.2969132363796234,0.4891177713871002,-9.995007514953613,0.06377561328579309,-0.12445868515012076,0.008790112180665867,0.5690055043678734,9.14650730740191,1.2813013409641232
1731474156.9705002,-0.2292598932981491,0.49995648860931396,-10.004132270812988,0.06089763070721632,-0.12469135954689947,0.008738711335667285,0.5387015810540656,9.163129456949996,1.2766230797116647
1731474157.0204966,-0.2579132318496704,0.4924958348274231,-10.007848739624023,0.058011858480756066,-0.12446416223102019,0.008688628494744511,0.5081367990141504,9.179610152195309,1.2796521882948892
1731474157.0704823,-0.24598565697669983,0.4703907370567322,-10.037233352661133,0.055127030329277654,-0.12379858148191113,0.008639793286363709,0.47802146521272065,9.19561536228336,1.2826722917155549
1731474157.1203732,-0.2604096531867981,0.4892358183860779,-9.96359920501709,0.052250092300073464,-0.12271769140197729,0.008591734865433546,0.4478736614275035,9.211401198920306,1.2857306229160022
1731474157.1703653,-0.2412901222705841,0.49372807145118713,-10.008519172668457,0.049386438531395294,-0.12124582511361565,0.008543692824877176,0.41824148610299794,9.226758241479171,1.280910587127815
1731474157.2202988,-0.25269076228141785,0.49582356214523315,-9.967084884643555,0.04654011641729905,-0.1194083715493717,0.008494834752957217,0.3886729659624097,9.241842299735392,1.2762753418737787
1731474157.2702527,-0.29472479224205017,0.49913355708122253,-9.967273712158203,0.043714029057044856,-0.11723162977054456,0.008444423234227214,0.35897714666523417,9.256685661456078,1.2793246667973666
1731474157.3201697,-0.2970694601535797,0.489962100982666,-10.00029182434082,0.040910261032956405,-0.11474262928274859,0.008391909783886466,0.3293194891174967,9.271272874846286,1.282401977536293
1731474157.370167,-0.34497785568237305,0.48454904556274414,-9.985206604003906,0.03813050623373607,-0.11196890098068644,0.008336917294208608,0.2998214475668341,9.285547261615307,1.2854938262505793
1731474157.4200604,-0.34497785568237305,0.48454904556274414,-9.985206604003906,0.03537647855653052,-0.10893821802898576,0.00827913365951678,0.2708239237647651,9.299453705382774,1.280706881031032
1731474157.4200604,-0.33604687452316284,0.4833928644657135,-9.957088470458984,0.03265020910639833,-0.10567835544958827,0.00821829592949236,0.26936503306821935,9.300142404304239,1.2808604993448853
1731474157.4700716,-0.3997398614883423,0.48361581563949585,-10.031452178955078,0.029954195931459097,-0.1022169017472774,0.008154247500647561,0.2414077197487149,9.313235068058114,1.283817854091469
1731474157.5199513,-0.34380197525024414,0.5006750226020813,-9.992836952209473,0.027291497656072652,-0.0985811248137749,0.008086859276913383,0.21186635190754416,9.326971752500148,1.2791777524583452
1731474157.570007,-0.40116724371910095,0.47793707251548767,-9.987176895141602,0.024665792091331108,-0.09479788152480065,0.008015874019886095,0.18333361570881596,9.339921191716737,1.2822185168618245
1731474157.6199002,-0.3695700168609619,0.49243950843811035,-9.979872703552246,0.022081351115555765,-0.09089351758085006,0.007940925075695632,0.15429240553626322,9.353032398165595,1.2776099225491206
1731474157.6698487,-0.41193339228630066,0.5345649719238281,-9.984530448913574,0.01954300190537707,-0.08689378095542583,0.00786168532839818,0.12562122538980022,9.365651393663066,1.2806853831314347
1731474157.7197323,-0.39578092098236084,0.5249258279800415,-9.9964017868042,0.017056117186292772,-0.08282386767929095,0.0077779358305535996,0.09715225079998756,9.378145439530838,1.2760950924953163
1731474157.7697887,-0.4148857295513153,0.5152393579483032,-10.009360313415527,0.014626598632882626,-0.07870851461393852,0.007689507831554681,0.0681057150917233,9.39055815655401,1.2792279833831972
1731474157.8206913,-0.38384121656417847,0.5252273082733154,-9.947656631469727,0.012260804177092525,-0.07457194115419678,0.007596215916561042,0.03842687451387397,9.403224121199157,1.2748465151719868
1731474157.8705866,-0.37471675872802734,0.512197732925415,-9.963825225830078,0.009965361844793956,-0.0704376807682055,0.007497957482247996,0.01032473683591212,9.414895216797023,1.2778921221637798
1731474157.9205194,-0.39332878589630127,0.548274040222168,-9.980907440185547,0.007746911117685584,-0.06632845339195659,0.007394907693693416,-0.018918124623977853,9.42687793142867,1.2810824223605903
1731474157.970504,-0.3940364420413971,0.5331264734268188,-9.951216697692871,0.005611931555789252,-0.06226613044737843,0.007287567806217733,-0.04746147102222689,9.43842197556063,1.2842163366891024
1731474158.0204077,-0.3720216453075409,0.5273372530937195,-10.012054443359375,0.0035666928177671793,-0.058271726012861125,0.0071766710319668865,-0.07672025895948396,9.450107419429424,1.287448398575744
1731474158.070431,-0.36154696345329285,0.5203379988670349,-9.981355667114258,0.0016171614125114965,-0.054365298704349724,0.007063035259991289,-0.10442377712858966,9.461257314109261,1.282615083277699
1731474158.1203873,-0.33269548416137695,0.5211107134819031,-9.980409622192383,-0.00023121656355286303,-0.05056578015282022,0.006947418107671716,-0.13408086610859676,9.472829843263986,1.2858963968684198
1731474158.170318,-0.3207956552505493,0.5135068893432617,-9.99845027923584,-0.001973784455510318,-0.04689083204353599,0.0068304803888707445,-0.16130620053545905,9.483579801032326,1.281083030511491
1731474158.2202368,-0.30687013268470764,0.5224953889846802,-9.994780540466309,-0.0036069169012223927,-0.04335675888162819,0.006712794436066125,-0.19028318410108913,9.494906868399207,1.2766393971645227
1731474158.2701979,-0.3119085729122162,0.5182780623435974,-9.960308074951172,-0.005128170764128057,-0.03997846835373588,0.006594830573264142,-0.2179910991523601,9.505395389227848,1.2796933455200996
1731474158.3202002,-0.3232634663581848,0.5220323204994202,-9.994431495666504,-0.006536294575605152,-0.036769469732088805,0.006477017745015467,-0.24753763104121226,9.516477009210826,1.2829648907469182
1731474158.3702445,-0.28144803643226624,0.5371149778366089,-9.997028350830078,-0.007831139333496407,-0.03374189891523226,0.00635980403118031,-0.2747989889756256,9.526906050005776,1.2782886746537698
1731474158.4200966,-0.28144803643226624,0.5371149778366089,-9.997028350830078,-0.009013624282833832,-0.030906584235429115,0.006243583547981208,-0.3035710529039033,9.537520987786944,1.2814718434187153
1731474158.4200966,-0.31811031699180603,0.5085797905921936,-9.998974800109863,-0.010085759671184526,-0.028273107094226167,0.006128593517212956,-0.3043018004047466,9.537789480986868,1.281552858077101
1731474158.4701083,-0.2963423728942871,0.5248386859893799,-9.973089218139648,-0.011050533963704114,-0.025849764313041753,0.006014912354177357,-0.3314480522619328,9.548053516065078,1.2769270122085392
1731474158.5199509,-0.2880183458328247,0.5108221173286438,-10.006240844726562,-0.011911703833480926,-0.02364347983735686,0.005902534056050418,-0.36022075281456806,9.558522914349712,1.280104989101881
1731474158.5699735,-0.2980497181415558,0.49068212509155273,-9.973512649536133,-0.01267368678512616,-0.02165975037601002,0.005791424727201528,-0.38928137697596016,9.569029094415793,1.2833260196043867
1731474158.6198955,-0.2980497181415558,0.49068212509155273,-9.973512649536133,-0.013341508495453569,-0.019902578408513213,0.005681558259873483,-0.4183452222118139,9.579472371117713,1.286558204373089
1731474158.6198955,-0.31672346591949463,0.5230117440223694,-9.992152214050293,-0.013920673676134719,-0.018374427732942344,0.005572980126281945,-0.4185339673102261,9.57953998874767,1.2865792291238753
1731474158.6698563,-0.3087119460105896,0.5085582733154297,-10.039146423339844,-0.014416981639751674,-0.01707633320540491,0.0054657754197926876,-0.4458765462842189,9.589701721119921,1.2818163873552804
1731474158.719787,-0.37044280767440796,0.5171928405761719,-9.983965873718262,-0.014836316165620558,-0.016008101061231215,0.005359872168004435,-0.4749260310752442,9.600033689283462,1.2850365312384158
1731474158.769825,-0.35450124740600586,0.50801682472229,-9.950888633728027,-0.01518436873491214,-0.015168439671061781,0.005254974459780898,-0.5025286421566888,9.610233389691981,1.2803655418075344
1731474158.8206687,-0.3457523584365845,0.5308553576469421,-10.02107048034668,-0.015466379557883226,-0.014555031414345878,0.0051507685232335095,-0.5320696214974525,9.62064258598721,1.2836284293242446
1731474158.8708599,-0.3598632216453552,0.5240755081176758,-9.973990440368652,-0.01568706685133978,-0.01416463759007309,0.005047054812016805,-0.5614174819797174,9.630933180406771,1.2868785914082694
1731474158.9206185,-0.37419551610946655,0.5006221532821655,-9.971975326538086,-0.01585066664633918,-0.013993205191877968,0.004943695457286928,-0.5903805075958614,9.641040164917502,1.2900942000761246
1731474158.970634,-0.3892771303653717,0.5268489718437195,-10.022506713867188,-0.015960890000732822,-0.014035890707885558,0.004840601013731944,-0.6178226603539981,9.65108612935228,1.2852435484173497
1731474159.0204418,-0.3892771303653717,0.5268489718437195,-10.022506713867188,-0.016020812708339206,-0.014287077070051037,0.004737660940820688,-0.6469058730178268,9.661145912351424,1.2884580283523874
1731474159.0204418,-0.42074161767959595,0.5047159194946289,-9.953629493713379,-0.016032788905082293,-0.014740464843459594,0.0046345885461999015,-0.647086416859864,9.661208208633312,1.2884780062361494
1731474159.0705018,-0.4061630666255951,0.5313308238983154,-9.978107452392578,-0.01599839252993787,-0.015389145086923968,0.004530998451487066,-0.674320334557709,9.6711449729221,1.2836725974833976
1731474159.1203768,-0.4061630666255951,0.5313308238983154,-9.978107452392578,-0.015918413150080215,-0.016225652142923166,0.004426665941743159,-0.7015572703995648,9.681064849879768,1.2790402823578197
1731474159.1203768,-0.40526318550109863,0.5140536427497864,-10.022367477416992,-0.01579295922684388,-0.017242065352919146,0.004321583108542122,-0.7017534614611065,9.681131952080785,1.2790616950877067
1731474159.170345,-0.3965300917625427,0.502784788608551,-9.966509819030762,-0.015621623482968777,-0.018430058060434195,0.004215793092246896,-0.7308771837093172,9.691063421082827,1.2822434473417361
1731474159.2203305,-0.38581791520118713,0.508468508720398,-9.955740928649902,-0.015403654136485994,-0.01978083834144881,0.004109333590686061,-0.7601643061161949,9.700989928380961,1.2854491890237623
1731474159.2702694,-0.3934820294380188,0.535594642162323,-9.982986450195312,-0.01513812845653645,-0.021285133720344723,0.004002395425953287,-0.7895225706181626,9.710876355955136,1.288668671131907
1731474159.3201983,-0.35386738181114197,0.5342658758163452,-9.970437049865723,-0.014824119396854895,-0.022933336189447578,0.0038954312490498077,-0.8165210922768982,9.720590732051825,1.283849916597323
1731474159.3701587,-0.3599652647972107,0.5136325359344482,-9.988588333129883,-0.014460882214572406,-0.024715695181837707,0.0037890827533775657,-0.8459085959437508,9.730357779994803,1.2870551568321693
1731474159.4200087,-0.32312655448913574,0.5253065824508667,-10.006949424743652,-0.014048076657293945,-0.026622385352841733,0.0036840431072762757,-0.8729302634304014,9.74000569158537,1.2823059607350769
1731474159.4701254,-0.32851725816726685,0.5242536067962646,-9.958294868469238,-0.01358597484788566,-0.028643486554426497,0.0035809419917292888,-0.9022226793233892,9.749596079154282,1.2854833923389937
1731474159.5200732,-0.2989529073238373,0.5134327411651611,-9.978981018066406,-0.013075620101561162,-0.03076899683830596,0.003480351259965918,-0.9317269252407598,9.759170751926424,1.288689006019393
1731474159.5699933,-0.2976040542125702,0.528435468673706,-10.035711288452148,-0.01251893827916612,-0.032988867068120965,0.0033828414177202127,-0.9611286227460072,9.76862253680177,1.291888554617745
1731474159.6201284,-0.2584826648235321,0.5214108228683472,-9.999695777893066,-0.011918828892289046,-0.03529303901445995,0.0032888498314333895,-0.9878560458383646,8.831726371021695,1.286953950667525
1731474159.6698892,-0.29298895597457886,0.5123870372772217,-9.98195743560791,-0.0112792347065017,-0.037671494157226336,0.0031985038017198425,-1.0172114936359633,8.836080412083506,1.2901300058563665
1731474159.7198591,-0.2805013358592987,0.5189118385314941,-9.997715950012207,-0.010605097653703443,-0.040114271461267524,0.003111686425560399,-1.0468541052924434,8.840375621922785,1.2933420640714919
1731474159.7697053,-0.25231388211250305,0.526025652885437,-9.983038902282715,-0.009902203392601089,-0.04261147631793988,0.0030282048318363486,-1.0728406023996762,8.074744844132866,1.2882922724318635
1731474159.8196115,-0.2625800669193268,0.5331252813339233,-9.989421844482422,-0.00917708075026442,-0.04515335126490701,0.0029478614513671632,-1.103258778165569,8.074830367611504,1.2915692879063334
1731474159.870672,-0.25197145342826843,0.5226522088050842,-10.016423225402832,-0.008436971819244967,-0.04773038080135659,0.002870447674795918,-1.13257700615659,8.074796629168747,1.2947327071430959
1731474159.9206076,-0.25197145342826843,0.5226522088050842,-10.016423225402832,-0.007689750759026402,-0.0503333447041681,0.002795654597912739,-1.1621639667218129,8.074640713374293,1.2979300019312063
1731474159.9206076,-0.2829984724521637,0.5082409381866455,-9.991646766662598,-0.006943765171013497,-0.052953295129080806,0.0027229584514059453,-1.1622973267962924,8.074639726422975,1.297944424495903
1731474159.9705005,-0.28480449318885803,0.5353925824165344,-9.947487831115723,-0.006207588893135498,-0.05558151769196267,0.0026516852625440594,-1.1878549059970716,7.4318664652592945,1.2927049283073198
1731474160.0204332,-0.2747306227684021,0.5366898775100708,-10.02096939086914,-0.005489733402605144,-0.05820957088167909,0.002581243964401122,-1.21625765464919,6.899553606291036,1.28796891130239
1731474160.0705328,-0.2890772521495819,0.5572153329849243,-9.990310668945312,-0.0047984556945319615,-0.06082942715577704,0.002511212099110512,-1.243037250743498,6.8935773927700215,1.290825717984237
1731474160.120394,-0.30816128849983215,0.5108066201210022,-9.969518661499023,-0.004141642307713194,-0.06343359845918142,0.002441229876730462,-1.2725457075351745,6.886846852389232,1.293978383724453
1731474160.1703773,-0.3075338900089264,0.5318730473518372,-9.989680290222168,-0.003526648298903301,-0.06601510893146317,0.0023709935034443904,-1.3021563245260583,6.879933293476753,1.297146958096873
1731474160.220353,-0.3376113772392273,0.514896035194397,-9.994827270507812,-0.0029601027833117393,-0.06856736328694336,0.0023003307123978262,-1.3272506248553921,6.417326048518012,1.2919289613854228
1731474160.2703774,-0.34983736276626587,0.5286862254142761,-9.962014198303223,-0.0024477211521531242,-0.07108406616735859,0.0022291887655924345,-1.3567810707158758,6.407745562958194,1.2950712136888083
1731474160.3201654,-0.3544542193412781,0.5517596006393433,-9.99022388458252,-0.00199412475410025,-0.07355925044222499,0.002157629350993089,-1.3812200924556628,6.398022467642296,1.2898794278218597
1731474160.370143,-0.3516252934932709,0.5374683141708374,-9.990341186523438,-0.0016027352494132835,-0.07598739087300112,0.002085850567384258,-1.4056681497902763,6.388045446829556,1.2848871911014235
1731474160.4202018,-0.35329899191856384,0.519231379032135,-9.9598970413208,-0.001275796932672556,-0.07836348770866833,0.0020141531819807506,-1.4352057015745796,6.377867826184606,1.287991378816154
1731474160.4702244,-0.3345542550086975,0.5284436941146851,-9.966591835021973,-0.0010144934131491388,-0.0806830049698834,0.0019429532810616508,-1.4646436971631582,6.367526391752266,1.2910897565586934
1731474160.5200076,-0.3611922562122345,0.5078816413879395,-10.020652770996094,-0.0008190997898539379,-0.08294174059487243,0.0018728262112239396,-1.4940463827245174,6.356994072103346,1.2941889367590365
1731474160.570008,-0.3498118817806244,0.5143244862556458,-10.008946418762207,-0.0006890933331453969,-0.08513573300511824,0.0018043653062415352,-1.5176878619275764,6.346237355874322,1.2889988039792637
1731474160.6198819,-0.33152875304222107,0.5191381573677063,-9.96742057800293,-0.0006232239696441397,-0.08726121233007164,0.0017379632138122187,-1.547056643181037,6.335270616521557,1.2920769044563287
1731474160.6699362,-0.3189314603805542,0.520063042640686,-9.994635581970215,-0.0006196626204930716,-0.08931461376386939,0.0016738248680703736,-1.5703400246006447,6.324056615453429,1.2869515999275465
1731474160.7198498,-0.31146132946014404,0.49782794713974,-9.991044998168945,-0.0006762423018916677,-0.09129261626130179,0.0016121158110532746,-1.5997613940039948,6.312597607991366,1.2900176938137236
1731474160.7696915,-0.27925825119018555,0.5191643238067627,-9.976333618164062,-0.0007906993222698147,-0.09319212879403474,0.0015530047880856711,-1.622306280100907,6.3010501956391884,1.2849148823331666
1731474160.8196826,-0.26903486251831055,0.5131709575653076,-9.989280700683594,-0.0009609068810624813,-0.09501027057352467,0.001496660646459034,-1.6515375810401434,6.289175688101898,1.2879436131978668
1731474160.8696597,-0.2614664137363434,0.5186227560043335,-10.001703262329102,-0.0011851004872681869,-0.09674441479062384,0.0014432595347443722,-1.6739625795568673,6.277023092422888,1.2829264064538872
1731474160.9207711,-0.2740640342235565,0.5009732246398926,-9.956851959228516,-0.001462003227879687,-0.09839223421859444,0.0013929626644905804,-1.703951520945712,6.264311711553655,1.286015518598899
1731474160.9705622,-0.274027019739151,0.5083372592926025,-10.000702857971191,-0.0017907939287537889,-0.09995168094967767,0.0013459370402911395,-1.7256105436124545,6.251788858580204,1.2810148419464427
1731474161.02048,-0.274027019739151,0.5083372592926025,-10.000702857971191,-0.0021709817121768698,-0.10142094359793355,0.0013023792373042934,-1.7473319639698148,6.238874833275703,1.2762157706831803
1731474161.02048,-0.2422710508108139,0.5382094979286194,-10.02502155303955,-0.002602316742354175,-0.10279847294518106,0.001262398926384794,-1.7475071380039207,6.238796416592545,1.2762335785608616
1731474161.070523,-0.2966766655445099,0.5066756010055542,-9.966814994812012,-0.003084774777805382,-0.10408308437344957,0.001225876790906086,-1.7762618737986224,6.2257977463517875,1.2791578587040182
1731474161.1204453,-0.24885393679141998,0.5543649792671204,-9.974495887756348,-0.003618505208927211,-0.10527404992572924,0.0011925309515277418,-1.8054079672580037,6.212364250746971,1.2821241089865407
1731474161.1704516,-0.2737577557563782,0.5325854420661926,-10.017370223999023,-0.00420373569930361,-0.10637116466947716,0.0011621038919213005,-1.834346570541101,6.198767546162467,1.2850711822060437
1731474161.2202854,-0.2737577557563782,0.5325854420661926,-10.017370223999023,-0.004840720423092906,-0.1073748012695606,0.0011343524744922289,-1.8550449358357697,6.184838594253827,1.2800744130242967
1731474161.2202854,-0.2906055152416229,0.5151991844177246,-9.989680290222168,-0.0055296672183424295,-0.108285868118526,0.0011088659910971404,-1.8552269586440013,6.184750345835568,1.2800928231052362
1731474161.2703397,-0.3137006163597107,0.5183002948760986,-9.986680030822754,-0.006270574033376378,-0.1091056629564424,0.0010850367914853726,-1.883973199656673,6.170682473390009,1.2830008223842206
1731474161.3202085,-0.3137006163597107,0.5183002948760986,-9.986680030822754,-0.007063023575481073,-0.10983573746428556,0.0010622183922478511,-1.9041800473749733,6.156198125561415,1.2780570529044364
1731474161.3202085,-0.3133438229560852,0.5345419645309448,-10.003192901611328,-0.007906025069294697,-0.11047785064429043,0.0010398397935846677,-1.9043634448259599,6.156105569204001,1.278075474522272
1731474161.370244,-0.3098906874656677,0.528404951095581,-10.000290870666504,-0.00879797776708597,-0.11103400653971471,0.0010173799636313918,-1.923964416853876,6.141510972591114,1.2732606929712513
1731474161.4202275,-0.33454248309135437,0.49304723739624023,-9.936529159545898,-0.009736712804851395,-0.11150647147362452,0.0009943483578694215,-1.953023082123572,6.126397932474339,1.2761584939624038
1731474161.470167,-0.3619610667228699,0.5299280881881714,-10.047443389892578,-0.010719471436523301,-0.1118976802074604,0.0009703727177070153,-1.9817237876884455,6.111207057831299,1.2790205060093853
1731474161.5199888,-0.36124423146247864,0.5293492674827576,-9.995766639709473,-0.011742769970610028,-0.11221015661881754,0.000945173707128228,-2.0106173619394103,6.095650264560686,1.2819013470511675
1731474161.570011,-0.3769206404685974,0.5511707663536072,-9.91990852355957,-0.012802268653198896,-0.11244659477649895,0.0009184430200386974,-2.029413263439815,6.07983620428068,1.2769231034060888
1731474161.6198852,-0.3783719837665558,0.543317973613739,-9.976374626159668,-0.013892743149993652,-0.11261001046258755,0.0008900119362641214,-2.058308532314168,6.063698087783112,1.279781146972524
1731474161.6698837,-0.24439649283885956,0.7247949242591858,-9.980547904968262,-0.015008256741550995,-0.11270397963278816,0.0008601219573114867,-2.0871672450346956,6.047319903836061,1.2826341945842015
1731474161.7198694,0.5133981704711914,1.6614665985107422,-9.919093132019043,-0.016143408445192707,-0.11273407872887038,0.0008294159057177779,-2.1052030409956637,6.030640910863999,1.2775952198286105
1731474161.769799,0.2999531030654907,1.1952157020568848,-10.016883850097656,-0.017296524280366446,-0.11271146801941719,0.0007988459906731408,-2.134051700980075,6.013692655931576,1.280422693906323
1731474161.8197489,0.4892212450504303,1.505788803100586,-9.938413619995117,-0.018473054440649936,-0.1126562396759625,0.0007696003754045159,-2.1630169554793404,5.996420528003851,1.2832591741895223
1731474161.8706505,-0.516516387462616,-0.022402653470635414,-9.965340614318848,-0.019685867443527762,-0.11259660014042693,0.0007430004334996234,-2.1807734905677707,5.978565138776136,1.2782091229191044
1731474161.9206002,-0.9550522565841675,-0.21024510264396667,-10.16689682006836,-0.020950857443155238,-0.11256248164663407,0.000720312300970061,-2.1976571079637903,5.960773804978392,1.2732698930730986
1731474161.9705899,-0.7593311667442322,-0.04050649330019951,-10.03207015991211,-0.022279910928169014,-0.11257683962412643,0.0007021836752037383,-2.2264486886541976,5.942716106662076,1.2760401159370733
1731474162.0203743,-0.5015047788619995,0.2697582244873047,-10.028075218200684,-0.02367643941101191,-0.11265106526412318,0.0006881025229304159,-2.242549546732508,5.924489634765453,1.2711292456779033
1731474162.0706327,-0.6376875638961792,0.10086476802825928,-9.939265251159668,-0.02513594174304503,-0.11278639287741068,0.0006766491844528866,-2.2717786643556086,5.905588865576116,1.273914304504552
1731474162.1203902,-0.4812456965446472,0.29825708270072937,-9.977543830871582,-0.026648549777066974,-0.11297706975999325,0.0006662594702876919,-2.300644656130843,5.886682081855643,1.2766602668114455
1731474162.1703827,-0.5795964598655701,0.24074093997478485,-9.958183288574219,-0.02820075036634561,-0.11321246393523036,0.0006557591449623108,-2.329425893205341,5.867596138058528,1.2793933621837916
1731474162.2203078,-0.5795964598655701,0.24074093997478485,-9.958183288574219,-0.029776288039300786,-0.11347843180860817,0.0006445053246033731,1.182024339798222,5.848026681225078,1.274336229356105
1731474162.2203078,-0.508014976978302,0.46040502190589905,-9.957934379577637,-0.03135671526921482,-0.11375844489402488,0.0006323612263379729,1.1820378526937119,5.847885940915067,1.2743557429717822
1731474162.2702415,-0.508804440498352,0.4490143060684204,-9.982624053955078,-0.03292196633983073,-0.1140348891802988,0.0006196357749509803,1.1838640052577754,5.828303964239487,1.2770520868913302
1731474162.320172,-0.48865872621536255,0.4541880786418915,-9.978496551513672,-0.034451145000340175,-0.11429053756622826,0.0006069465892713813,1.185624987506636,5.8082415318120715,1.2797771161611946
1731474162.370213,-0.5410983562469482,0.4174778163433075,-9.919493675231934,-0.03592318112275389,-0.11450942239791986,0.0005951015420066611,1.2336508888254214,5.787863494992369,1.2746510601602588
1731474162.4201007,-0.47556886076927185,0.47924375534057617,-9.938119888305664,-0.03731716533735806,-0.11467696464286457,0.0005851888821014938,1.2351145478453278,5.767179887727676,1.2773545202652783
1731474162.47022,-0.47460830211639404,0.529241681098938,-10.030539512634277,-0.038612629232003315,-0.11478004537922609,0.0005786813362439447,1.2364806179218713,5.7462487770617034,1.2800543287200692
1731474162.5199964,-0.4850676357746124,0.5224998593330383,-9.974165916442871,-0.03978994270869135,-0.1148073592799309,0.0005771919701758506,1.252486116819536,5.72507955564864,1.274860084432839
1731474162.5699408,-0.48955443501472473,0.4771479666233063,-9.996931076049805,-0.04083062913622077,-0.11474971447870766,0.0005821004530767884,1.2534963833233461,5.703639779253071,1.2775237805333184
1731474162.6199024,-0.4665283262729645,0.4885329604148865,-9.979948997497559,-0.04171749007939921,-0.11459992048557062,0.0005944563228040501,1.2615965562395546,5.681800440783353,1.2723981115202374
1731474162.669962,-0.46965348720550537,0.5105751752853394,-9.998185157775879,-0.042434716397975844,-0.11435246516154043,0.0006150532152285678,1.2661903600532074,5.65980385865906,1.2674209864401196
1731474162.7198188,-0.4509274959564209,0.5246589779853821,-10.004263877868652,-0.04296806249535816,-0.11400337214220349,0.0006444422686771048,1.266685393822525,5.637376145337597,1.2700442166144599
1731474162.7698064,-0.4414564073085785,0.5083518624305725,-9.974061965942383,-0.043305019644432646,-0.11355023576385162,0.0006829041691545069,1.2670703889956716,5.6147825230107085,1.2726553573858852
1731474162.8197534,-0.41812509298324585,0.5166147947311401,-9.975350379943848,-0.0434349798339296,-0.11299219377044398,0.0007305051929857526,1.2701374839937307,5.5918543068517845,1.267629626401546
1731474162.8696876,-0.38708367943763733,0.5227304100990295,-9.974908828735352,-0.043349422786884355,-0.11232979095158567,0.000787243209281466,1.270275671544196,5.568660900157434,1.2702185089070588
1731474162.9196005,-0.36882284283638,0.5231413841247559,-9.979649543762207,-0.04304213471157398,-0.11156485078124039,0.0008531453844148032,1.271830509594608,5.545194993052921,1.265243033139944
1731474162.970591,-0.3273898661136627,0.5379171371459961,-10.020581245422363,-0.042509430701098375,-0.1107003932183641,0.0009282281940758339,1.2716809301598295,5.5209844908161445,1.2678558466290752
1731474163.0204976,-0.3707225024700165,0.505232036113739,-9.976547241210938,-0.04175029654195305,-0.10974054269709894,0.0010123597380991463,1.2714277742387425,5.496924511462236,1.270424870720073
1731474163.070438,-0.3476724922657013,0.5362069010734558,-9.949875831604004,-0.04076632140510366,-0.10869037725024285,0.0011052222429107964,1.271072984776136,5.472679143725958,1.272987338937071
1731474163.1203568,-0.3835640251636505,0.5246970653533936,-9.991329193115234,-0.039561411898835504,-0.10755576851020568,0.0012064822668570161,1.27264610611375,5.448090311015415,1.267852109599929
1731474163.1703653,-0.3614824414253235,0.5287243723869324,-9.99287223815918,-0.03814143650265445,-0.10634328089398934,0.0013159056596797785,1.2721457821094861,5.423270989399893,1.270394301949532
1731474163.2202575,-0.377625972032547,0.5039097666740417,-9.963214874267578,-0.03651391838851834,-0.10506006198266234,0.0014332720805443674,1.272782397346885,5.39822876667955,1.2653113452357314
1731474163.2702463,-0.3766827881336212,0.5053097605705261,-10.006082534790039,-0.03468779159445648,-0.10371364744100758,0.001558303994897464,1.2721071055859758,5.372788651607113,1.2678403822434565
1731474163.3201778,-0.37935033440589905,0.516689121723175,-9.970401763916016,-0.03267318214050474,-0.10231175264878681,0.0016906675188060006,1.2721789205468492,5.347111099619226,1.2628285647316286
1731474163.3702471,-0.40080633759498596,0.4964871406555176,-10.002296447753906,-0.03048118159852216,-0.10086214911920734,0.0018299525065877198,1.2713294150928338,5.321196664177101,1.2653325542322764
1731474163.4201424,-0.38300633430480957,0.5083088278770447,-10.015450477600098,-0.028123614664173496,-0.09937259247363475,0.001975621525115286,1.2704094736694211,5.295109634740514,1.2678338752250655
1731474163.470025,-0.443865567445755,0.4779611825942993,-10.014248847961426,-0.025612800014739805,-0.09785072393646846,0.0021269014152717953,1.2711659991355366,5.268828566452901,1.262765266871221
1731474163.5200374,-0.3783123791217804,0.5307408571243286,-9.943964958190918,-0.02296130814760113,-0.09630397537949272,0.0022827369105551587,1.2702147681707083,5.242139385900854,1.2652581859581455
1731474163.569949,-0.4149475693702698,0.529784619808197,-9.995633125305176,-0.020181810189001084,-0.0947395971678783,0.002441977985674495,1.2702081270304966,5.215386849231639,1.2602524476680668
1731474163.6199312,-0.4006003737449646,0.5575022101402283,-9.984058380126953,-0.017287055428466633,-0.09316483800572016,0.002603599986200823,1.269875426803434,5.18831629338851,1.2554163965703156
1731474163.6698508,-0.4396592080593109,0.5405032634735107,-9.956144332885742,-0.014289813526595935,-0.09158712754177756,0.002766735178196655,1.2688475454676935,5.160999399702353,1.2578629358033617
1731474163.719805,-0.4295702874660492,0.5543187260627747,-9.9859037399292,-0.01120269263521303,-0.09001412795462965,0.002930669721910685,1.2677855852166686,5.133396908921499,1.2603218380204546
1731474163.7697442,-0.42668965458869934,0.5741111636161804,-9.961564064025879,-0.008037954622692755,-0.0884537001907799,0.003094886776704505,1.2667035521505734,5.105673348585119,1.2627792317543265
1731474163.8196783,-0.4360142648220062,0.5671287775039673,-9.956544876098633,-0.004807438394773777,-0.08691389673444305,0.0032590826878084035,1.2672399843966446,5.077695120895066,1.2578093207785979
1731474163.8696399,-0.4315682351589203,0.557338535785675,-9.982433319091797,-0.0015225522978238781,-0.08540295219429281,0.0034231801548361665,1.2662367658663325,5.049483305446946,1.260258501426074
1731474163.9195507,-0.42473089694976807,0.5397765636444092,-10.009066581726074,0.0018057288820505911,-0.08392915564027882,0.0035872634118435196,1.2652345584336262,5.021078957821579,1.2627148107150938
1731474163.9695463,-0.42673540115356445,0.5290296673774719,-9.97465991973877,0.005166842438123441,-0.08250060844258064,0.0037513859319167893,1.2655759950975085,4.992555229534906,1.2577080003887615
1731474164.0205133,-0.41879597306251526,0.5388911366462708,-9.974834442138672,0.008550591631519442,-0.08112498265015608,0.00391546344383561,1.264639869559541,4.962990876325652,1.2602170768572745
1731474164.070491,-0.38974595069885254,0.5596628785133362,-10.005626678466797,0.01194707973835139,-0.07980940608791341,0.0040793316935331825,1.263754681650996,4.934019352083468,1.2626687055720411
1731474164.1204576,-0.38453778624534607,0.5208667516708374,-9.979079246520996,0.015346577607573728,-0.07856048073543917,0.004242770288298768,1.264185870902604,5.2219558328480895,1.257645157519274
1731474164.1704335,-0.3518224358558655,0.524154782295227,-9.996140480041504,0.018739334247433487,-0.07738426262657609,0.004405456142693177,1.2637087134248506,5.418047954503799,1.2527800938865168
1731474164.2203336,-0.34355854988098145,0.5191760063171387,-10.006608963012695,0.022115388981846056,-0.07628612726152909,0.004566942620698703,1.262985396501078,5.390943264923316,1.2552137895977533
1731474164.270315,-0.3270731568336487,0.5440074801445007,-9.949302673339844,0.02546441956890922,-0.07527067906516621,0.004726671677426144,1.2625239438166367,5.537563877969263,1.2504213683641863
1731474164.3202639,-0.3096349239349365,0.5479848384857178,-10.00139331817627,0.028775648091593373,-0.07434182159893879,0.004884061484394379,1.2619056869309924,5.510868453274122,1.2528526818076382
1731474164.3701947,-0.3083556592464447,0.5252760648727417,-10.021833419799805,0.032037803394645945,-0.07350289200178475,0.005038566597478101,1.2613663218454347,5.484133444803613,1.2552831978320715
1731474164.4201214,-0.32990550994873047,0.5256478190422058,-9.975671768188477,0.035239168345593694,-0.07275669081871798,0.0051895622745097665,1.2609086731299515,5.457108837803784,1.2577362167487771
1731474164.4701505,-0.3092363774776459,0.5399481058120728,-9.969268798828125,0.038367753471552024,-0.07210541429339137,0.005336289683264776,1.2610038177745466,5.578151561373788,1.2528383426733092
1731474164.520042,-0.2887982428073883,0.5596032738685608,-9.972800254821777,0.041411484406856006,-0.0715506662499594,0.005478034224983035,1.2607387342883485,5.551505326659162,1.2552856326833761
1731474164.5699935,-0.3595009446144104,0.7189980745315552,-9.982955932617188,0.04435832193086234,-0.07109375189985839,0.005614288612937531,1.2601152628181953,5.641630399105079,1.2504566128898718
1731474164.6199439,-0.6427477598190308,1.415651559829712,-9.925313949584961,0.04719676036309459,-0.07073701320815327,0.005744789616052377,1.259982252911093,5.615106486463541,1.2529090864958277
1731474164.6699345,-0.6165494918823242,0.5551245808601379,-9.866538047790527,0.049917192345086285,-0.0704862634991287,0.005869684055918311,1.2599707208569155,5.588452313407514,1.2553718020240057
1731474164.719879,-1.4786083698272705,0.4926488995552063,-10.089213371276855,0.05251421073130287,-0.07035133028605556,0.005989748638173782,1.2596339791839464,5.666024634454858,1.2505289368313397
1731474164.7698503,-0.5003513693809509,0.51936936378479,-9.853687286376953,0.054989232256880745,-0.07034306988725397,0.006106212455512553,1.2598175844751403,5.639459294828324,1.2529984067248106
1731474164.8198128,0.04512631148099899,0.05102386325597763,-10.057523727416992,0.05735028421424403,-0.07046987780831115,0.006220399917329957,1.259084706664676,5.699454674195656,1.2482362981645614
1731474164.869673,0.020476045086979866,0.24266284704208374,-10.213884353637695,0.059606801149751296,-0.07073551426696845,0.00633334909546602,1.2594266317640832,5.673093816431943,1.2506944832855202
1731474164.9197352,-0.06659018248319626,0.2546806335449219,-9.995284080505371,0.06176381075399513,-0.07113789038409951,0.00644502358176383,1.2584192099131895,5.720849407734216,1.2460187218747887
1731474164.9696233,-0.22866807878017426,0.2495405673980713,-9.991610527038574,0.06382031934475567,-0.0716693062759234,0.006553899842293608,1.258896949603267,5.694478800746658,1.2484811116079664
1731474165.0195842,-0.17199070751667023,0.28089892864227295,-9.977840423583984,0.06577086431219022,-0.07231765374575427,0.006657669920417924,1.259539903280951,5.6677606608003295,1.250975660770023
1731474165.0705101,-0.17834487557411194,0.4154818058013916,-9.964560508728027,0.0676073017775897,-0.0730675745630198,0.006754116095555856,1.2588132852318337,5.709740990098236,1.2463116095813114
1731474165.1204085,-0.16542883217334747,0.4964807629585266,-9.969206809997559,0.06931971803796155,-0.07390178680538029,0.0068414544081510705,1.2596482683051693,5.683048664925667,1.248806511382048
1731474165.1703877,-0.16542883217334747,0.4964807629585266,-9.969206809997559,0.07089679536553209,-0.07480264942082282,0.006918402352647277,1.2584692572147655,5.7152656976879825,1.2441801107030819
1731474165.1703877,-0.23587629199028015,0.5165247917175293,-9.943984985351562,0.07232618380589918,-0.0757533453489885,0.0069841811633672085,1.2584754981289612,5.715077726319287,1.2441976640363772
1731474165.220306,-0.22092512249946594,0.4952094256877899,-9.973434448242188,0.07359507198127946,-0.07673838294743753,0.007038513963281715,1.2594522901192153,5.688340816893869,1.2466942776463685
1731474165.2703137,-0.2323492467403412,0.5198451280593872,-9.967941284179688,0.0746908124894471,-0.0777436753901142,0.007081589900622943,1.2606092376043203,5.661508625989856,1.2491994107305582
1731474165.3203123,-0.25136658549308777,0.5174309611320496,-9.953958511352539,0.07560136649267843,-0.07875651606008406,0.0071139614158777405,1.2619615426148696,5.634302850107838,1.2517389033814923
1731474165.37022,-0.22930991649627686,0.5732638835906982,-9.989588737487793,0.0763155722276048,-0.07976562042920815,0.0071364529742484,1.2635015045744,5.606943327946398,1.2542920641773807
1731474165.4201612,-0.27895158529281616,0.5520592331886292,-10.02342414855957,0.07682334734137897,-0.0807612732583049,0.00715002551423005,1.2609774573867278,5.640934826971562,1.2494741222946022
1731474165.4701998,-0.257144570350647,0.5125899314880371,-9.987648010253906,0.07711587938274403,-0.08173540512179499,0.007155522779110477,1.2592105441963426,5.663704384060845,1.2448383384123765
1731474165.520094,-0.27159884572029114,0.5109673142433167,-10.002777099609375,0.07718580179369394,-0.08268138048347311,0.007153500550409891,1.2607060785722985,5.636232402833969,1.2473923383158079
1731474165.5700138,-0.2805241048336029,0.5076335072517395,-10.030702590942383,0.07702729415751815,-0.08359361622880489,0.007144227716569637,1.2623813846925966,5.608762665267198,1.2499446919947532
1731474165.6199641,-0.29612553119659424,0.549163281917572,-9.971040725708008,0.07663614443124758,-0.0844673522694882,0.007127700681277114,1.2642627702725735,5.58085338860817,1.2525362055687392
1731474165.6699429,-0.11691132932901382,0.7504041194915771,-9.982314109802246,0.07600967331422308,-0.08529886535189939,0.007103720661989097,1.2663227407909858,5.552900614026657,1.2551298525051382
1731474165.7198658,0.6160908341407776,1.6543776988983154,-9.985828399658203,0.07514550739251197,-0.08608711578360914,0.0070720943563427376,1.2627345878366933,5.57783606465428,1.2502996513853806
1731474165.7698388,0.2742922902107239,1.1484307050704956,-9.935419082641602,0.07403848337492926,-0.08683739291962628,0.007032801591079713,1.2647627582494732,5.549693285933853,1.2529022134396501
