Timestamp,IMU_Linear_Acc_X,IMU_Linear_Acc_Y,IMU_Linear_Acc_Z,Filtered_X,Filtered_Y,Filtered_Z,Pose_X,Pose_Y,Pose_Z
1731474136.25901,-0.34130141139030457,0.4240894317626953,-9.983531951904297,-2.2323844053383992e-05,-0.000110459437640222,5.264271276746203e-05,1.9197835432052515,6.11161327577673,0.690821667786509
1731474136.3090398,-0.34130141139030457,0.4240894317626953,-9.983531951904297,-2.7913015779446802e-05,-0.00014578434154284016,6.95161976351301e-05,1.9200564618936526,6.11248263862815,0.6909198736707347
1731474136.3588867,-0.27416113018989563,0.43637028336524963,-9.988398551940918,-4.175931817822227e-05,-0.00023511298807377714,0.00011356000887263489,1.9201492342132072,6.112778158152483,0.6909532564974015
1731474136.408835,-0.27416113018989563,0.43637028336524963,-9.988398551940918,-5.069561310542689e-05,-0.0002890702296736037,0.0001412482228530374,1.98818952440574,6.113618189937836,0.7155192124713649
1731474136.408835,-0.46316227316856384,0.3740302622318268,-9.99268913269043,-6.209858437037966e-05,-0.00034907917453494723,0.00017294559846715038,1.9882720674511518,6.113872200660258,0.7155489179534569
1731474136.4588637,-0.7430660724639893,0.23497319221496582,-10.004386901855469,-7.658897316805148e-05,-0.0004146685984602667,0.00020870504140463802,1.9901126804191545,6.119536335366178,0.7162113233158682
1731474136.5088224,-0.1835746020078659,0.5284029841423035,-9.957141876220703,-9.302543668564497e-05,-0.00048451402180707103,0.0002484660848038766,2.0014922734614546,6.154554575004653,0.720307045246277
1731474136.5587819,-0.32869449257850647,0.37620213627815247,-10.047292709350586,-0.00010847607675186762,-0.0005565236412695478,0.0002920802016469412,2.012897165585308,6.1896501399303085,0.7244126405467091
1731474136.6086814,-0.3212164640426636,0.5026140809059143,-9.98022747039795,-0.00011985109811373151,-0.000628570276786732,0.00033926812641948116,2.0739466251283996,6.224615112918036,0.7465088908575219
1731474136.6586556,-0.3097893297672272,0.373074471950531,-9.942727088928223,-0.00012498052773465975,-0.0006989685358471237,0.00038958829235510937,2.085609026916911,6.259646551682336,0.7507097770218679
1731474136.7085814,-0.3097893297672272,0.373074471950531,-9.942727088928223,-0.00012256733479003355,-0.0007663608646836998,0.0004426789873000698,2.133949119457186,6.2946555318884565,0.7683279393736961
1731474136.7085814,-0.36415764689445496,0.45885133743286133,-10.01577377319336,-0.00011198464069115705,-0.0008293814537489025,0.0004985448289858133,2.1340438898335816,6.294935332407877,0.7683620999484939
1731474136.7586725,-0.3174515664577484,0.43460458517074585,-9.97563648223877,-9.30811072094531e-05,-0.000886610216288073,0.0005574673772146419,2.145855878928031,6.329808343849487,0.7726205424646799
1731474136.808501,-0.3174515664577484,0.43460458517074585,-9.97563648223877,-6.600091133938599e-05,-0.000936859678508989,0.0006197413026632964,2.1848752720240308,6.364688371074519,0.7869537351934897
1731474136.808501,-0.37348827719688416,0.42250683903694153,-9.971975326538086,-3.1148444476279865e-05,-0.0009793242032006433,0.0006856231165976253,2.184980100264755,6.364994021228707,0.7869915614694035
1731474136.858473,-0.3333224654197693,0.4560640752315521,-10.020543098449707,1.0897261775295411e-05,-0.0010135124679439163,0.0007553789263782852,2.1969136899984147,6.399787769626476,0.791298618123175
1731474136.9084017,-0.3716474175453186,0.4254069924354553,-9.993083000183105,5.9561414007211625e-05,-0.0010392162157931177,0.0008291824134777573,2.229695253209207,6.435976136370341,0.8033364680979304
1731474136.9583972,-0.30855798721313477,0.4505065679550171,-9.975634574890137,0.00011434114390050818,-0.001056524290395059,0.0009069890019860844,2.241417035779923,6.469838107600781,0.807572112964212
1731474137.0092394,-0.30855798721313477,0.4505065679550171,-9.975634574890137,0.00017468222326798375,-0.0010658158822718852,0.0009886054830519563,2.268498423599752,6.505375274590531,0.8176282449155271
1731474137.0092394,-0.33945232629776,0.44332513213157654,-10.006049156188965,0.00023977875270527068,-0.0010677653275305574,0.0010738332615139517,2.268600194984703,6.505667345976268,0.8176650607702723
1731474137.0592687,-0.30693483352661133,0.45724576711654663,-9.974886894226074,0.00030850685434484666,-0.0010633428422812262,0.0011624743211666353,2.2807332385910986,6.54048526660232,0.8220555044487642
1731474137.1091747,-0.3404017686843872,0.42924872040748596,-9.97957992553711,0.00037950642456070744,-0.0010537704344506607,0.0012542897678091253,2.3035275835397484,6.575469766624101,0.8305350218307452
1731474137.159192,-0.33027854561805725,0.4503231644630432,-9.993732452392578,0.0004512779813229607,-0.0010404396372200376,0.0013490348493703258,2.315793711427213,6.61050121255923,0.8349804609107468
1731474137.2090607,-0.33027854561805725,0.4503231644630432,-9.993732452392578,0.0005222754102602637,-0.0010248397244071977,0.0014464682468910601,2.3280221172904176,6.645418893833519,0.8394152698793447
1731474137.2090607,-0.3312438130378723,0.4298307001590729,-9.984983444213867,0.0005909685720390206,-0.00100853347309484,0.001546294211814512,2.3281852833412673,6.6458847650707815,0.8394744655599663
1731474137.2591295,-0.32849225401878357,0.44427555799484253,-9.991825103759766,0.0006558544886076896,-0.0009931176327485957,0.0016481417828960174,2.3466458177973206,6.680502399084338,0.8463822837591358
1731474137.308942,-0.3466336131095886,0.43178790807724,-9.988767623901367,0.0007154752719907577,-0.0009801472654925784,0.0017515906420384432,2.358904498173164,6.715402445671061,0.8508361290914807
1731474137.3589773,-0.3226473927497864,0.4400995373725891,-9.986501693725586,0.0007684634814238585,-0.0009710887623955214,0.0018561888524739902,2.3748993026784806,6.750506917238847,0.8568518660859721
1731474137.4088914,-0.3401765823364258,0.42628738284111023,-10.006254196166992,0.000813566445060345,-0.000967296972633627,0.0019614511075831506,2.3872015033231246,6.785465819521866,0.8613304729653571
1731474137.4588525,-0.32638588547706604,0.4399968981742859,-9.992179870605469,0.0008496320556736192,-0.0009699882237457112,0.0020668264850145245,2.40096382360421,6.8204517929021256,0.8665366020738391
1731474137.50879,-0.3352645933628082,0.4304140508174896,-9.980989456176758,0.0008755952794806012,-0.000980227574756441,0.0021716785305851763,2.4132525973121375,6.855339620409108,0.8710200809198293
1731474137.5588923,-0.33292460441589355,0.43939563632011414,-9.997173309326172,0.0008904803210213996,-0.0009989396169520913,0.002275337328241368,2.4256347524545605,6.890483776069759,0.8755424049926158
1731474137.6086698,-0.3363683819770813,0.4308415949344635,-9.980420112609863,0.0008934139311359188,-0.0010269231123648415,0.0023771619516862403,2.4369262812357992,7.188953855551807,0.8798264288707384
1731474137.6586838,-0.3302421271800995,0.4421899914741516,-9.979595184326172,0.0008836411775701079,-0.0010648602984852542,0.002476570025101651,2.449101869107012,7.224833823347311,0.8842842415883356
1731474137.7086177,-0.3302421271800995,0.4421899914741516,-9.979595184326172,0.00086052035348991,-0.001113338247006802,0.0025730810727806496,2.4587194773826853,7.431302985560201,0.8879849873472168
1731474137.7086177,-0.3371421694755554,0.43059173226356506,-9.996553421020508,0.0008235051819870392,-0.0011728773923884044,0.0026663420983707962,2.4592708400812,7.432967410357427,0.8881872737591796
1731474137.758543,-0.3301190137863159,0.4375700056552887,-9.977168083190918,0.0007721451933309393,-0.0012439256875820845,0.002756087604526123,2.4710392933744942,7.468489124755836,0.8925078848566379
1731474137.8085432,-0.34019094705581665,0.43010377883911133,-9.982741355895996,0.0007061012885917039,-0.0013268224536472587,0.002842104306448629,2.4833433558999563,7.505618936909948,0.8970313075350672
1731474137.8584952,-0.33192288875579834,0.43809831142425537,-9.991263389587402,0.0006251582083948442,-0.00142177889708225,0.002924242621639043,2.4956801257984016,7.542838980449095,0.901573360382812
1731474137.9083514,-0.34595686197280884,0.4304082989692688,-9.981121063232422,0.0005292363943360413,-0.0015288827813293609,0.003002412791957573,2.502592225676079,7.580594041226026,0.9043176635132342
1731474137.9583144,-0.3420066237449646,0.443705290555954,-9.989968299865723,0.0004184147226961166,-0.0016481142755333865,0.0030765580511672138,2.514624328831838,7.6169676737832255,0.9087622833178826
1731474138.0092392,-0.34163692593574524,0.42966023087501526,-9.989768028259277,0.000292956299198441,-0.0017793694382679775,0.0031466390237693746,2.52052149685479,7.654777975205588,0.9109839606917112
1731474138.0592258,-0.33824580907821655,0.44014066457748413,-9.97556209564209,0.00015330504524278213,-0.0019224754841530045,0.0032126275151743277,2.5327751901198208,7.691912839977929,0.9155257701171391
1731474138.1091983,-0.341629296541214,0.4363786280155182,-9.98953914642334,5.048670694763382e-08,-0.0020771937857829415,0.0032745234920823615,2.5450541471672894,7.729118675129612,0.9200849981075376
1731474138.1591976,-0.3402191698551178,0.43175989389419556,-9.978646278381348,-0.00016610357759200392,-0.002243224041366853,0.00333238122340115,2.5573571334901524,7.766392520090497,0.9246615345911255
1731474138.209059,-0.3476492762565613,0.432100772857666,-9.985774040222168,-0.0003443476795743421,-0.002420196746091827,0.0033863105521722723,2.56957419124062,7.803402146354723,0.9292147126875647
1731474138.2590916,-0.33999305963516235,0.4344528317451477,-9.983550071716309,-0.0005337615556939189,-0.0026076535638794884,0.003436466297737259,2.571990003848671,7.840461338975083,0.9301788575087712
1731474138.3088815,-0.34422069787979126,0.4327370822429657,-9.9750337600708,-0.0007333185436074439,-0.0028050463006003166,0.003483044855691856,2.5841278137301407,7.8773752633748275,0.934720758147426
1731474138.3589008,-0.3437175154685974,0.44072937965393066,-9.988846778869629,-0.0009419064624116872,-0.003011759299959079,0.0035262912914595483,2.596328567432006,7.9144797165608605,0.939295725710904
1731474138.4087975,-0.34332624077796936,0.4315757751464844,-9.98684024810791,-0.0011583460006531774,-0.003227138731113572,0.0035664899771228396,2.597413630537966,7.95181848779558,0.9397397779825886
1731474138.458818,-0.33988749980926514,0.436118483543396,-9.992659568786621,-0.001381406393402164,-0.003450508368157662,0.003603916511623271,2.6094814897983913,7.988688462763925,0.9442849226492508
1731474138.5087607,-0.3460216820240021,0.428290456533432,-9.99396800994873,-0.0016098280449613628,-0.0036811604432271453,0.0036387835202649774,2.6216416486833176,8.025842943301072,0.9488752863089701
1731474138.5588555,-0.32766076922416687,0.4385663866996765,-9.993430137634277,-0.0018423506139262163,-0.003918341318918793,0.003671207813587227,2.6214360765509426,8.06292781413057,0.9487935769204243
1731474138.6086557,-0.3306537866592407,0.4353063106536865,-9.987985610961914,-0.0020777656230355516,-0.004161260264336798,0.0037012050991633394,2.6335966084772258,8.100278360627858,0.9534060096683856
1731474138.6586676,-0.3333236277103424,0.4373985528945923,-9.995209693908691,-0.002314985065748467,-0.004409119335320209,0.0037287121320816563,2.6329584895001195,8.136971023696157,0.9531010973451921
1731474138.7086084,-0.3319365978240967,0.4339129328727722,-9.97912311553955,-0.0025530678919538415,-0.0046611344139358786,0.0037536190953745964,2.632889209969546,8.174018636204897,0.95313048535682
1731474138.758562,-0.333381712436676,0.4398839473724365,-9.9823637008667,-0.0027912002775005444,-0.004916538214078258,0.0037758151528548877,2.64481768408521,8.211046280907345,0.9576895506867309
1731474138.8085184,-0.333381712436676,0.4398839473724365,-9.9823637008667,-0.0030286727775460055,-0.005174588652494313,0.00379524521421989,2.656679905320172,8.247878154441851,0.9622354401385371
1731474138.8085184,-0.3302189111709595,0.438150554895401,-9.991358757019043,-0.0032648677348690314,-0.0054345887665615735,0.003811929267039276,2.656759713046851,8.248125990728324,0.9622660659247292
1731474138.8586066,-0.3308621346950531,0.44120118021965027,-9.983616828918457,-0.0034992570643637877,-0.005695898301115755,0.003825929561435343,2.668646224153542,8.285045036815957,0.9668339213418095
1731474138.8586066,-0.3308621346950531,0.44120118021965027,-9.983616828918457,-0.003731406218995192,-0.005957935352279002,0.003837321239428799,2.6587685290901333,8.296658729181784,0.9631185610939754
1731474139.2399957,-0.3376094102859497,0.43933042883872986,-9.987139701843262,-0.003960965102695696,-0.006220178934374947,0.0038461970718150656,2.720461335499876,8.567006354397844,0.9874320192827707
1731474139.2900891,-0.3423849642276764,0.43753117322921753,-9.985186576843262,-0.004187629729159743,-0.006482163251176464,0.0038526738387046015,2.7320866234513677,8.603801259414631,0.9920159640742223
1731474139.3398674,-0.34360605478286743,0.4366273581981659,-9.992426872253418,-0.004411082144609776,-0.006743456751588351,0.0038568770614840686,2.7278029860617212,8.640389293660872,0.9905611280511706
1731474139.389985,-0.3389294445514679,0.4368346929550171,-9.979833602905273,-0.004630944881532342,-0.007003639341012235,0.0038589225836052595,2.739401308507052,8.677367426834797,0.9951634415192611
1731474139.4397805,-0.3331068754196167,0.42958614230155945,-9.990646362304688,-0.004846785715351859,-0.007262283863682068,0.0038589182266753285,2.7511699116798756,8.714909018439887,0.9998481197115725
1731474139.4898527,-0.335146963596344,0.4248596131801605,-9.98840618133545,-0.005058166069174381,-0.007518925488813531,0.003856971668124711,2.7624553045511617,8.750929717763713,1.0043546934864005
1731474139.539713,-0.3328384459018707,0.4296468496322632,-9.984148025512695,-0.005264688701563895,-0.007773018705956602,0.003853182657993877,2.756879178601558,8.787711351415,1.0024405795405238
1731474139.5897124,-0.3308675289154053,0.4361976087093353,-9.986226081848145,-0.0054660203282254965,-0.008023925741615591,0.0038476421059447075,2.7521547421572348,8.824876926126983,1.000887181193432
1731474139.639718,-0.3300713300704956,0.44613346457481384,-9.986385345458984,-0.005661904256683635,-0.008270971299710099,0.0038404470982484323,2.7633654243098693,8.861206796262797,1.0054109537320388
1731474139.6895943,-0.3355879783630371,0.4400116503238678,-9.9830961227417,-0.0058521672565922545,-0.008513533619797453,0.003831708349589366,2.774665572188937,8.897852022625338,1.00998608601343
1731474139.7396622,-0.3371192514896393,0.4425605237483978,-9.980547904968262,-0.00603670181261905,-0.008751104737544067,0.003821557431664513,2.7860981881322777,8.93495384499696,1.0146306695876004
1731474139.789675,-0.33719924092292786,0.4419511556625366,-9.980554580688477,-0.0062154274827233985,-0.008983296115618107,0.0038101674324281924,2.797283617502039,8.971280756797222,1.019190446666947
1731474139.8395355,-0.3354564905166626,0.445912629365921,-9.973817825317383,-0.00638826250532164,-0.00920982710714502,0.0037977768994754083,2.808560610325262,9.007933316258462,1.0238033986561403
1731474139.8896139,-0.3405797779560089,0.44538143277168274,-9.989174842834473,-0.006555116711508762,-0.00943052620167705,0.003784700285010523,2.801072175659827,9.044492894150501,1.021210075417701
1731474139.9394777,-0.33414551615715027,0.4462050497531891,-9.99086856842041,-0.006715890082275421,-0.009645337094069993,0.0037712950923271,2.812242554295607,9.081129621750701,1.0258137347638125
1731474139.9894018,-0.3440423011779785,0.44702938199043274,-9.984944343566895,-0.0068704694940103445,-0.009854316793866407,0.0037578920556423125,2.804931386048545,9.117534983588305,1.0233070179935675
1731474140.0392613,-0.32870543003082275,0.43953606486320496,-9.982325553894043,-0.007018729517448008,-0.010057620490148583,0.0037447607469691464,2.8160016857416865,9.154174845987558,1.0279045410394925
1731474140.089296,-0.34796392917633057,0.4402678906917572,-9.993621826171875,-0.0071605403426685445,-0.010255465841787497,0.0037321269124016136,2.8269929853715774,9.190586366146546,1.0324858906012722
1731474140.1402464,-0.33399584889411926,0.432169646024704,-9.98773193359375,-0.007295767969225495,-0.010448079876401227,0.0037201748428368595,2.83823470751675,9.227862472796511,1.0371889689997122
1731474140.1902158,-0.339699923992157,0.42898687720298767,-9.98838996887207,-0.00742426584482742,-0.010635640890493289,0.0037090256043651277,2.829820414115058,9.264202621559496,1.0342686155980627
1731474140.2401154,-0.34191736578941345,0.42445263266563416,-9.988052368164062,-0.007545877996839778,-0.010818220645255006,0.0036987362814816112,2.840739121046624,9.300759784122528,1.038873385700031
1731474140.2900033,-0.32970547676086426,0.4250764548778534,-9.985917091369629,-0.0076604497691922955,-0.010995738570424332,0.0036893192232708002,2.8325648097208735,9.336981064414143,1.0360589927119173
1731474140.3400288,-0.32910072803497314,0.4251329004764557,-9.99003791809082,-0.007767856487190992,-0.011167945346248626,0.0036807570136516473,2.82530827068048,9.195340161944777,1.0336208999632397
1731474140.3900661,-0.3384392559528351,0.42610400915145874,-9.983735084533691,-0.007868049586801071,-0.011334437389801229,0.0036730098010582823,2.8359659924672864,9.230948659487014,1.0381727036006785
1731474140.439955,-0.3377346694469452,0.435489296913147,-9.978569030761719,-0.00796106067231438,-0.011494696448754168,0.0036660318716745695,2.8466335534960954,9.266627666544153,1.042746363698338
1731474140.4899478,-0.33423569798469543,0.4322376847267151,-9.991771697998047,-0.008046960322524832,-0.011648151394290691,0.003659800534102063,2.8391239080494284,9.302726447103181,1.0402149556448452
1731474140.5398195,-0.3368098735809326,0.4413033127784729,-9.979137420654297,-0.008125835287037168,-0.011794245516507085,0.003654323263516656,2.849433681580956,9.337541733870752,1.0446728837483465
1731474140.5896668,-0.32903242111206055,0.43979355692863464,-9.979314804077148,-0.008197798689282804,-0.011932491587008293,0.0036496309838706595,2.8598797551954105,9.372855763118537,1.0492073444315655
1731474140.6397073,-0.33598414063453674,0.4474576413631439,-9.982017517089844,-0.008263008693589558,-0.012062516916772542,0.0036457959875451514,2.870393898138648,9.40843947882265,1.0537894062380722
1731474140.6897366,-0.341476172208786,0.44930747151374817,-9.990230560302734,-0.008321668668201953,-0.012184104184793088,0.0036429398438294347,2.8617546427306957,9.443928226964543,1.050819437841611
1731474140.7397206,-0.3397352695465088,0.44789478182792664,-9.97748851776123,-0.008373990838226169,-0.012297223133989232,0.003641202006788111,2.8721478366565134,9.479459290998927,1.0553885595605026
1731474140.7895658,-0.3330007493495941,0.44037196040153503,-9.997563362121582,-0.008420160018463001,-0.012402030245836377,0.00364070839603797,2.8824536443844133,9.514732306520372,1.0599375075311828
1731474140.8395772,-0.03880907967686653,0.5903394818305969,-9.978856086730957,-0.008460610379178628,-0.012498955528730425,0.0036415526061067513,2.8928150004732305,9.550236667063702,1.0645294487151382
1731474140.8895676,-0.0758434385061264,0.5316457748413086,-10.008713722229004,-0.008497046830463487,-0.012589101350402407,0.003643769473130411,2.883091184333924,9.58536044511108,1.0611690172957609
1731474140.9393978,0.48951706290245056,0.8079436421394348,-9.981762886047363,-0.00853422030819399,-0.012674947361354051,0.003647299776556423,2.893258251299561,9.620569103152427,1.0657155704402221
1731474140.9892786,0.7771492004394531,0.6103816628456116,-10.015816688537598,-0.008582561883425873,-0.01276114439802861,0.0036519588839429894,2.883809011766133,9.65570654613974,1.0624858643852937
1731474141.0394018,0.1431780755519867,0.499295175075531,-10.044015884399414,-0.00866083193164168,-0.012854731262423627,0.0036573643257191467,2.8939597078989276,9.69123129754511,1.067066931805944
1731474141.0892773,0.413790225982666,0.48516714572906494,-9.909783363342285,-0.008796126396057946,-0.01296414531391857,0.0036628755954365546,2.9039544778447635,9.726254229286024,1.0715965356858799
1731474141.1401522,0.038903508335351944,0.3011943995952606,-9.996171951293945,-0.00902101021071883,-0.013097620785216951,0.0036677954713163186,2.8943345420431403,9.761973090099023,1.0683375539399738
1731474141.1902132,0.22217567265033722,0.33590275049209595,-10.001534461975098,-0.009370494630187427,-0.013261820775297303,0.0036716637381253464,2.904282069366016,9.7972147554338,1.0728894584462565
1731474141.2402446,0.017560504376888275,0.20069876313209534,-9.97430419921875,-0.009880021054758683,-0.013460834958207386,0.0036742240028513956,2.894719691317455,9.832446395533754,1.0696869352926826
1731474141.2901216,-0.7728275656700134,-0.02461777999997139,-9.977519989013672,-0.010583303502629454,-0.01369532139417362,0.003675272860093925,2.9044682868500478,9.867377405225007,1.0741935276982622
1731474141.3400016,-1.2074174880981445,-0.021463442593812943,-10.009428024291992,-0.011508045730017503,-0.013961417809205089,0.0036746648800828827,2.89509423616853,9.902418224996044,1.071079550041799
1731474141.3900766,-0.23980385065078735,0.27316224575042725,-9.937684059143066,-0.012670848724258464,-0.014250057429311987,0.0036723320633717726,2.9047288051384252,9.93736086489453,1.075583297604154
1731474141.4400213,-0.7082184553146362,0.12128511071205139,-10.163931846618652,-0.014076224550122625,-0.014547858036580614,0.0036681694375529433,2.914376794521683,9.972437693461845,1.0801181951039371
1731474141.4898539,-0.29287877678871155,0.4290388226509094,-9.929959297180176,-0.01571984470420937,-0.014839056125746063,0.0036617093571575266,2.904703612825226,10.007149463064088,1.0768548760210337
1731474141.5398967,-0.5628702044487,0.09986446797847748,-10.001678466796875,-0.017591580902224846,-0.015107111692774582,0.003651969472726027,2.9141947517081332,10.042156390034464,1.0813766020037365
1731474141.5897396,-0.3513105511665344,0.46714502573013306,-10.08678913116455,-0.01967699107863875,-0.015335561068651873,0.003637723091450631,2.9235481613923464,10.076787844404784,1.0858637306014423
1731474141.6397777,-0.5107159614562988,0.16161222755908966,-9.946783065795898,-0.021958226741493364,-0.0155084654349671,0.0036176247804553894,2.9134443626380087,10.111729541037535,1.0825439047700502
1731474141.6896517,-0.4068586826324463,0.43703973293304443,-9.962201118469238,-0.024414682149958206,-0.015610777491474957,0.0035902313384816188,2.9226302700848152,10.146362855340886,1.0870272255863167
1731474141.7396317,-0.49801453948020935,0.2526971399784088,-10.004266738891602,-0.027023474131917524,-0.015628630079954874,0.003554329993813752,2.9318233348066243,10.181227045972348,1.0915544516742224
1731474141.789641,-0.37864023447036743,0.4197238087654114,-9.953781127929688,-0.02975989498393057,-0.015549579004300372,0.0035091614651662118,2.940873888152882,10.215779651099462,1.096055030540846
1731474141.8394883,-0.42949461936950684,0.29616859555244446,-9.941106796264648,-0.03259799672675123,-0.015362807025435122,0.003454402990212507,2.9297671430436036,10.250346122965638,1.092387173231461
1731474141.8893626,-0.41107162833213806,0.3372349739074707,-10.000696182250977,-0.035511236675040025,-0.015059152455280264,0.003390211654390661,2.919159861112529,10.284747635744129,1.0890284416460516
1731474141.9393225,-0.3805420398712158,0.7001015543937683,-9.957939147949219,-0.03847297044222828,-0.014631284333956716,0.003317192469017187,2.927844394304675,10.319374285074797,1.0935140254086575
1731474141.9893405,-0.4000968039035797,0.667378306388855,-9.877378463745117,-0.04145683570620005,-0.014074794854142595,0.003236325113275502,2.9173231747629016,10.353909439584479,1.0902776501974487
1731474142.0393183,-0.4872780740261078,1.1421082019805908,-9.997286796569824,-0.04443701002756683,-0.013390194865400148,0.0031491105682262517,2.9257519605722044,10.388585890662057,1.0947637704284718
1731474142.0892508,-0.4453103244304657,0.9864438772201538,-9.849359512329102,-0.047388146935350255,-0.012584978246511946,0.0030577153026544197,2.9339839245878285,10.42288942216113,1.0992135284313331
1731474142.139246,-0.5104879140853882,0.7967690229415894,-10.028023719787598,-0.05028516531359845,-0.011674593163144035,0.0029649006027010648,2.9230284936408695,10.457392156862248,1.0958686305287062
1731474142.1901712,-0.3782177269458771,0.7711344957351685,-9.996058464050293,-0.053103283387864075,-0.010681257307314842,0.0028737266640435407,2.9311142067367517,10.492421332468005,1.1004033704849827
1731474142.2401364,-0.4499201774597168,0.7072227597236633,-10.010408401489258,-0.05581841165346668,-0.009631420811468533,0.002787033279529138,2.9202430421648082,10.52683642403983,1.0971388490767269
1731474142.2900872,-0.3696022629737854,0.713841438293457,-10.044113159179688,-0.058407692340627516,-0.008553668921257921,0.0027070186632951647,2.927816952003922,10.561132098964537,1.1015679755443597
1731474142.3400176,-0.42195576429367065,0.5679761171340942,-9.984193801879883,-0.06084989827624537,-0.007477369240744656,0.0026351168964910787,2.9352871587789044,10.59561543172194,1.1060306332556515
1731474142.3899982,-0.30900314450263977,0.6061761379241943,-10.027217864990234,-0.06312570163143123,-0.006431504607395738,0.002572064690866246,2.94254106549164,10.629793921535912,1.1104625459617303
1731474142.4399173,-0.36433690786361694,0.5541598200798035,-9.993165969848633,-0.0652179833543538,-0.005443647570901169,0.002518058770337747,2.9306999419297806,10.664265096868565,1.1068966320745854
1731474142.4898849,-0.36433690786361694,0.5541598200798035,-9.993165969848633,-0.06711207739733896,-0.004539320510567539,0.0024729062668067277,2.937536415299568,10.698323493861492,1.1112972522755227
1731474142.4898849,-0.3449501693248749,0.5600143671035767,-10.049895286560059,-0.06879574356425996,-0.003741691816317519,0.002436113357467075,2.9375950766986794,10.69861929352909,1.1113355049537932
1731474142.5398262,-0.3187732696533203,0.5636372566223145,-10.002037048339844,-0.07025904299130731,-0.003071472192675473,0.0024068553288136294,2.9256798319763146,10.73261008907393,1.1078040702744865
1731474142.5898345,-0.30297085642814636,0.5662887096405029,-10.012564659118652,-0.07149438078714318,-0.002546971126926876,0.002383920032665467,2.9143089775742936,10.76670859441847,1.1045696576626867
1731474142.6396751,-0.3056734502315521,0.5174658894538879,-10.006267547607422,-0.07249662356867856,-0.002184167170094272,0.0023657998491640442,2.9205450315155863,10.801106996623377,1.1089733490205917
1731474142.689624,-0.32618317008018494,0.5069574117660522,-9.982719421386719,-0.07326307906583437,-0.0019966256421944904,0.002350860242629897,2.9265495062028224,10.83522098391027,1.113347150012074
1731474142.7396877,-0.273434042930603,0.514680802822113,-9.964303016662598,-0.07379332503841196,-0.001995318738266455,0.0023375174622492488,2.932484375836648,10.869998066818306,1.117812587182848
1731474142.7895157,-0.2996521592140198,0.5227103233337402,-9.985552787780762,-0.07408906071592168,-0.0021885817429809187,0.002324436540146862,2.9200170124604092,10.903617082643773,1.1142054876411402
1731474142.8395174,-0.3358599841594696,0.5379204750061035,-9.958097457885742,-0.07415397890526267,-0.002582297499332145,0.002310647714446106,2.9254685947703263,10.938144046592349,1.1186204817495682
1731474142.8894358,-0.336078017950058,0.4931144118309021,-9.98670482635498,-0.07399345246024926,-0.0031801498650342484,0.002295549257129193,2.9306522392870336,10.971938585531158,1.115132858098088
1731474142.939421,-0.33337661623954773,0.5128029584884644,-10.005820274353027,-0.07361410808960252,-0.003983758824876945,0.00227882821663971,2.935754611496687,11.006605128161942,1.1195483567156868
1731474142.989331,-0.3498041331768036,0.4721747934818268,-9.94282341003418,-0.07302352924647006,-0.004992696414524633,0.0022603349305426513,2.9405479273288613,11.040387721397957,1.1238582618091681
1731474143.0392566,-0.32534632086753845,0.5132566094398499,-9.986802101135254,-0.07223009511353773,-0.006204517460133618,0.002240067109941998,2.945231517206151,11.074655239871,1.1282374019220933
1731474143.0892653,-0.3674081265926361,0.5218324065208435,-10.014200210571289,-0.07124285922591794,-0.0076149258055411536,0.002218211408746228,2.949728170754447,11.10860026288045,1.1244797131302837
1731474143.1392438,-0.40713658928871155,0.5078936219215393,-9.99518871307373,-0.07007135311205377,-0.009218082084461754,0.0021950045462803525,2.9540789488958463,11.143014774815622,1.1288619045438566
1731474143.1901145,-0.3748840391635895,0.5032426118850708,-9.95654582977295,-0.06872525517254337,-0.011006875900030107,0.0021705778651352975,2.958283982404124,11.177281455786309,1.1252599249540314
1731474143.2401328,-0.41319382190704346,0.513997495174408,-10.000679969787598,-0.06721411033018335,-0.01297305612230562,0.002145036493308655,2.9622880600508554,11.211156580994864,1.1218932321417965
1731474143.2901106,-0.4174082279205322,0.5009680390357971,-9.988465309143066,-0.0655472042615857,-0.015107331501398254,0.0021185674452024526,2.9660988680948264,11.245252511631826,1.1262018206414666
1731474143.3401623,-0.4119400978088379,0.5024043917655945,-9.968817710876465,-0.0637334682769458,-0.017399495386342733,0.002091405463421449,2.969762760135395,11.279446544252883,1.1305332585365757
1731474143.3899338,-0.3861069083213806,0.4877097010612488,-9.973749160766602,-0.06178144778416152,-0.019838519335484348,0.0020638318714111315,2.973227939480818,11.31318894802197,1.1348184588630548
1731474143.4400024,-0.3813762664794922,0.4656544327735901,-10.00214672088623,-0.059699442780223363,-0.02241258860135346,0.002036231667617008,2.976615600147245,8.799806423965578,1.1312252497390145
1731474143.489819,-0.3586125075817108,0.4547431170940399,-9.964475631713867,-0.05749574265092888,-0.025109073949337445,0.002009060355464853,2.9797881713533014,8.825074742540243,1.1354941641918244
1731474143.5397732,-0.3586125075817108,0.4547431170940399,-9.964475631713867,-0.05517883494009872,-0.027914488430505466,0.0019828101083746935,2.982850185817764,8.850517405363835,1.1398087156895902
1731474143.5397732,-0.3363964855670929,0.4302753210067749,-9.970362663269043,-0.05275755459483649,-0.03081450376822759,0.0019580893871828054,2.982883320874474,8.850798777520037,1.139856525093835
1731474143.5897393,-0.3230259418487549,0.4246014356613159,-10.018203735351562,-0.05024119776825285,-0.03379400267810077,0.0019356431407768979,2.985781905530532,7.405793694733756,1.1360950070210503
1731474143.6397502,-0.3195480704307556,0.4174511432647705,-9.99730110168457,-0.04763962221300788,-0.0368371240537727,0.001916171046489461,2.9885963469836914,7.426303999209886,1.1403990193887026
1731474143.6896462,-0.29733991622924805,0.400546669960022,-9.969202995300293,-0.044963314112280224,-0.03992732778555468,0.0019001457260216766,2.9912656292575224,7.446499037784316,1.1446616042666502
1731474143.7396011,-0.2849956750869751,0.3818894624710083,-10.001726150512695,-0.04222342541574369,-0.043047467942233575,0.0018878468355153055,2.993869372603551,7.4666355468356365,1.1409181796236445
1731474143.789569,-0.2620607912540436,0.3989132344722748,-10.011852264404297,-0.03943182339000556,-0.04617985654677616,0.0018794425275176997,2.9963388473430537,7.486694644437966,1.1451760557368904
1731474143.8395295,-0.3114404082298279,0.37750130891799927,-9.98075008392334,-0.03660109614757552,-0.04930638228166324,0.0018749381327893965,2.9987422184759898,7.506569429184594,1.1415410333848282
1731474143.8895874,-0.29066282510757446,0.38888999819755554,-10.001361846923828,-0.03374438342517548,-0.05240869562710521,0.0018741455743602731,3.001034382097,7.5264264972870105,1.1457875235548025
1731474143.939539,-0.31284046173095703,0.36997202038764954,-10.00731372833252,-0.030875071910569013,-0.055468390013146934,0.001876735415885144,3.003247808622393,7.546167101666384,1.150042678425718
1731474143.9893997,-0.27976566553115845,0.3753986358642578,-10.026233673095703,-0.02800654918445189,-0.05846715128015052,0.0018822134314499138,3.0053764161431613,7.565662203636342,1.1542800939000988
1731474144.0392823,-0.2954639196395874,0.3394887149333954,-9.958551406860352,-0.02515209744692272,-0.06138686526362466,0.001889864390452804,3.007467028019506,7.584932922991217,1.150368274950906
1731474144.089266,-0.5322554707527161,-0.19363191723823547,-10.011695861816406,-0.022324629248113983,-0.06420917485385784,0.00189884641848931,3.0094768082735817,7.60418064106366,1.15459675402071
1731474144.139285,-0.5322554707527161,-0.19363191723823547,-10.011695861816406,-0.019535775010779053,-0.06691364866678771,0.0019083200118589238,3.011462567759688,7.623188332891697,1.1507742492715525
1731474144.139285,-0.4975226819515228,-0.47324222326278687,-10.109478950500488,-0.01679468164165426,-0.06947512350755738,0.0019173093340422625,3.0114765279862494,7.623325544082832,1.1508046167131472
1731474144.1902807,-0.6517626047134399,-0.1517183631658554,-10.05496883392334,-0.014107410338797175,-0.07186210857330097,0.0019243022182807029,3.0134197591943206,7.642511631440845,1.1550739037443216
1731474144.2401178,-0.6517626047134399,-0.1517183631658554,-10.05496883392334,-0.011476757759358268,-0.07403736244976558,0.0019269718186393,3.0153232012280404,7.661078785746099,1.1513095372158306
1731474144.2401178,-0.7958483099937439,-0.4603233337402344,-10.047149658203125,-0.008901885149322353,-0.07595975920868732,0.0019222801607263122,3.015338084341548,7.661227180062571,1.1513428641748942
1731474144.2899477,-0.3774668574333191,0.1904527246952057,-9.920002937316895,-0.00637821851131983,-0.07758587543971115,0.00190687744904228,3.0171717179255797,7.679492887283471,1.1554686335686497
1731474144.3399312,-0.7103548049926758,-0.2533815801143646,-10.023809432983398,-0.003898365399170844,-0.07887157977706963,0.00187765122065603,3.2450029463853403,7.697792218726677,1.1518069534796396
1731474144.389945,-0.5084047317504883,0.20593859255313873,-9.930323600769043,-0.0014533642312517033,-0.07977407237944142,0.0018321611089231725,3.2476806876608064,7.71595566299173,1.1559778927403845
1731474144.4399543,-0.6116470098495483,0.06604569405317307,-9.929553985595703,0.0009667418798670017,-0.08025360709601945,0.001768817853604965,3.462480760145686,7.7338021893675055,1.1523729914515017
1731474144.489831,-0.5259138345718384,0.24936124682426453,-9.96333122253418,0.003372639111904256,-0.08027487874760214,0.001687002569178887,3.6640206842539094,7.751377000087078,1.1489800839533078
1731474144.5398407,-0.5633005499839783,0.1612505167722702,-9.892698287963867,0.005775331874203015,-0.07980812342006696,0.001587128179515505,3.668227993612093,7.768959144811271,1.15311046125698
1731474144.5897121,-0.5227437615394592,0.1753193736076355,-9.91405963897705,0.008185753771336225,-0.07882952591028256,0.0014706294457292215,3.6724338773885155,7.786265455208177,1.1572262008368888
1731474144.6397834,-0.530639111995697,0.1455938071012497,-9.948212623596191,0.01061445403609709,-0.07732100239321636,0.0013399547959887384,3.676682751388721,7.803456806564764,1.161364522420768
1731474144.6897333,-0.4877649247646332,0.19532594084739685,-9.93302059173584,0.0130713107235118,-0.0752697443776085,0.0011983925040137235,3.869634175410805,7.820282966903468,1.1577055560029084
1731474144.7396362,-0.4850020408630371,0.15887004137039185,-9.961091995239258,0.015565234591346096,-0.07266787838658907,0.0010497439423409506,3.8746276176566057,7.837061277924305,1.161811367845701
1731474144.7895703,-0.4850020408630371,0.15887004137039185,-9.961091995239258,0.018103900880581725,-0.06951221557241669,0.0008980451008683442,3.879646644738332,7.853608694846281,1.165906279151256
1731474144.7895703,-0.042006008327007294,0.42955347895622253,-9.968608856201172,0.0206932207973982,-0.06580414804549266,0.0007473518766619562,3.8796854563209897,7.853735411936497,1.1659378111356786
1731474144.8395107,0.20982344448566437,0.5299987196922302,-9.996824264526367,0.023335603356346046,-0.06155029048516266,0.0006015498260123139,4.0634870832339,7.869966602170911,1.16215649200772
1731474144.8894217,-0.2961362600326538,0.27400559186935425,-10.028383255004883,0.02602754649971965,-0.05676354593798368,0.00046413655743465223,4.069277786880051,7.886234789422891,1.1662328882005308
1731474144.9395008,-0.07620701938867569,0.45252323150634766,-9.962984085083008,0.028759178268912666,-0.05146313126471899,0.00033800134741405585,4.24352665417569,7.902298823929321,1.1625428912607445
1731474144.989377,-0.3626199960708618,0.24273060262203217,-10.05359172821045,0.03151617026649549,-0.045673440869835706,0.00022535278941687806,4.250061602258301,7.918289439387563,1.1665863464387014
1731474145.0394049,-0.1496284306049347,0.48473837971687317,-10.041500091552734,0.0342817764617748,-0.0394229313045589,0.00012768784985329773,4.415440134377712,6.72415130300685,1.1629493902579289
1731474145.0892012,-0.3409866988658905,0.2217046469449997,-10.007319450378418,0.037037972385984996,-0.03274343350790132,4.566653627042808e-05,4.422693261935852,6.736256616782723,1.166951025723006
1731474145.1393504,-0.19522902369499207,0.4383619427680969,-10.02239990234375,0.039766073596466514,-0.025669562223169712,-2.0869703690573354e-05,4.579975461251448,5.92171178421632,1.1634046727101206
1731474145.1891997,-0.3174585700035095,0.26658883690834045,-9.997493743896484,0.04244714892042147,-0.018238093759074384,-7.266567714479322e-05,4.587939509711232,5.931189608954107,1.1673659535614973
1731474145.2401588,-0.2567730247974396,0.41878947615623474,-9.975645065307617,0.04506237175092756,-0.010487467356594194,-0.00011080092595101306,4.596242866715142,5.940901518699276,1.1714401205621867
1731474145.290124,-0.31867489218711853,0.322895348072052,-10.004502296447754,0.04759337798085788,-0.002457441709353311,-0.00013646998076765433,4.604500021262619,5.950406693888384,1.1754341251770002
1731474145.3400424,-0.2900391221046448,0.4151308536529541,-9.99188232421875,0.05002260942371341,0.005811172774584459,-0.0001508559825207843,4.755857980362433,5.959869957163853,1.1715694379619515
1731474145.390102,-0.331870973110199,0.35072141885757446,-9.961592674255371,0.052333589333819465,0.014276761028535935,-0.00015510652301409803,4.764932918402678,5.969462415177479,1.175557367657505
1731474145.4399805,-0.31109046936035156,0.4003080129623413,-9.982954025268555,0.05451113953588342,0.022897191084335404,-0.0001502573369963931,4.909034935772665,5.97892467360541,1.1717199204205355
1731474145.4899025,-0.31109046936035156,0.4003080129623413,-9.982954025268555,0.056541517974559974,0.03163011297116907,-0.00013713610839176385,4.9188191830743,5.988582547063852,1.1756577251582256
1731474145.4899025,-0.3297779858112335,0.40445318818092346,-9.977746963500977,0.058412453986712236,0.04043319196406146,-0.00011637923059200135,4.918922218873905,5.988683934160946,1.1756988913791075
1731474145.5398126,-0.3312694728374481,0.4171616733074188,-9.975252151489258,0.06011317185578781,0.04926430578233607,-8.848640858046076e-05,4.928752840016825,5.99834493962113,1.1795967630363045
1731474145.589731,-0.3365127444267273,0.42672958970069885,-9.98169231414795,0.06163446213355567,0.05808175900012595,-5.382780239271221e-05,5.06694343576756,6.008116265678796,1.1756608174470327
1731474145.6397784,-0.6444383859634399,0.252627432346344,-9.986760139465332,0.06296900967888144,0.06684464412756831,-1.2659135351802156e-05,5.0776873641680815,6.018210460716298,1.179586609493362
1731474145.6896195,-0.5891392230987549,0.3251998722553253,-9.954066276550293,0.06411239267098338,0.07551358399100722,3.484977644006199e-05,5.088512678084465,6.02840969947422,1.1834843040111487
1731474145.739691,-0.7718563675880432,0.09749940782785416,-9.974160194396973,0.06506443876486094,0.08405174443592692,8.865091460458097e-05,5.099632376312106,6.038934220880976,1.1874293430994853
1731474145.7895942,-0.46285444498062134,0.407083123922348,-9.982929229736328,0.06582987385283012,0.09242561571515862,0.00014886790656499293,5.23279150913942,6.049406323235,1.1832186531322968
1731474145.839546,0.17480438947677612,0.5993920564651489,-9.956948280334473,0.06641700023929771,0.10060472875105311,0.00021576037282843182,5.244607934614047,6.06032806604564,1.187109934846248
1731474145.8895202,-0.4296962022781372,0.3416212499141693,-10.036373138427734,0.06683434246342884,0.10856018499442446,0.0002896272236384577,5.256504535507559,6.071352321020226,1.1829892043729142
1731474145.9394314,-0.10667605698108673,0.5735830664634705,-9.944799423217773,0.06708810163269557,0.11626355852830482,0.00037067927286560257,5.268675700635117,6.08283633329934,1.1868584336347634
1731474145.9893925,-0.4261827766895294,0.25164923071861267,-9.998679161071777,0.06718233945059254,0.12368708158681123,0.00045898268865922625,5.2808854818106425,6.094424313929806,1.1827995322672027
1731474146.0393891,-0.4261827766895294,0.25164923071861267,-9.998679161071777,0.06712035116025908,0.13080459845395812,0.0005545125176648282,5.293389736465438,6.10652456967602,1.186640330552092
1731474146.0393891,-0.1757666915655136,0.5858380794525146,-10.030649185180664,0.06690571331605949,0.13759254804490273,0.0006570997619789622,5.293501991465258,6.106633944861889,1.1866745833698162
1731474146.0892906,-0.36952340602874756,0.26452311873435974,-9.984543800354004,0.06654242208041296,0.14402998772078662,0.0007662648163293423,5.305936969263684,6.11884677456944,1.19044500038539
1731474146.1392066,-0.2180897742509842,0.5275964140892029,-9.984308242797852,0.06603437051484135,0.15009796883324,0.0008812100743458082,5.318694996892386,6.13157960288367,1.194265707361909
1731474146.1892066,-0.35027265548706055,0.3020928204059601,-9.998504638671875,0.06538512776853389,0.15577938118817863,0.001000994484171709,5.3317197685746125,6.144798667432825,1.1981191145425265
1731474146.2392662,-0.24522694945335388,0.4789474606513977,-9.97572135925293,0.06459807218528102,0.16105911389351651,0.0011246698401491226,5.344780748783585,6.158211666540034,1.1936749718427906
1731474146.2900531,-0.32880857586860657,0.3587845265865326,-9.992473602294922,0.06367651091155124,0.16592412557153796,0.001251321893277913,5.358245933140528,6.172363036290527,1.1975359655485012
1731474146.3401139,-0.28920209407806396,0.4533703923225403,-9.996732711791992,0.06262377976607819,0.17036342868769994,0.0013800807239880129,5.371724620651871,6.186720259576702,1.193201950501228
1731474146.3900425,-0.32036682963371277,0.38436904549598694,-9.975886344909668,0.06144336754589938,0.174368033171872,0.0015101037431504865,5.385263466172266,6.201471613643208,1.1969708425830863
1731474146.4399643,-0.3222068250179291,0.4288286566734314,-9.992498397827148,0.06013904812411308,0.17793092007484038,0.0016405764677148427,5.399137207509338,6.216866103203839,1.200794119523315
1731474146.4898868,-0.3282969295978546,0.4256960153579712,-9.982223510742188,0.05871499536013675,0.1810470176879603,0.0017707475596075585,5.412890887124231,6.232408323559761,1.204547996009287
1731474146.5398424,-0.3282969295978546,0.4256960153579712,-9.982223510742188,0.05717587042175015,0.18371311858044526,0.00189994515037023,5.4269302315722685,6.248501084081679,1.1999809345484447
1731474146.5398424,-0.3342430889606476,0.41899538040161133,-9.977553367614746,0.05552685346820252,0.185927785458167,0.0020275902826211866,5.427042622903904,6.2486316059444675,1.2000109470568074
1731474146.5898244,-0.3272224962711334,0.4375999867916107,-9.990431785583496,0.0537736286117245,0.18769131068930744,0.0021532161489806814,5.441019839181781,6.264950386858023,1.1956261520190163
1731474146.6398294,-0.3272224962711334,0.4375999867916107,-9.990431785583496,0.05192233691721423,0.18900566068432348,0.0022764442670502464,5.455407246777515,6.282133295971759,1.1993926734816434
1731474146.6398294,-0.348007470369339,0.42216381430625916,-9.980985641479492,0.04997951870565234,0.18987437928041084,0.0023969311672689007,5.455518857058265,6.2822678419756555,1.1994217809781127
1731474146.6897447,-0.3311549723148346,0.43346843123435974,-9.981561660766602,0.047952094723482316,0.19030253777960304,0.002514358467652241,5.4697325804899055,6.299564365949634,1.2031164436420758
1731474146.7396312,-0.3635404109954834,0.40990909934043884,-9.988479614257812,0.04584737733138495,0.19029673995868757,0.0026284641002878263,5.484277024600806,6.317593816110652,1.2068732189201203
1731474146.789546,-0.32311975955963135,0.4552238881587982,-9.978585243225098,0.04367306174365074,0.18986510156568398,0.0027390521305653568,5.498837703388934,6.335976453488285,1.2106122161574575
1731474146.8395026,-0.3543110489845276,0.4205108880996704,-9.987153053283691,0.041437161988023434,0.1890171460518918,0.002845982565658836,5.513581456662091,6.354859626694494,1.205916297798244
1731474146.8894835,-0.33690303564071655,0.44204410910606384,-9.983466148376465,0.03914791326028565,0.18776366650235188,0.0029491656571077568,5.5284620048545206,6.374328569606303,1.209666985942425
1731474146.939377,-0.3456494212150574,0.4204249382019043,-9.974058151245117,0.036813699815315425,0.18611664445017978,0.0030485609422837186,5.54337356613201,6.3941119509734285,1.2050519536077313
1731474146.9893372,-0.32335811853408813,0.44455331563949585,-9.994388580322266,0.03444298379574763,0.18408920173346086,0.003144184570560908,5.558422422094851,6.414489606519453,1.2087828389352655
1731474147.0392928,-0.3419918715953827,0.4153200089931488,-9.980100631713867,0.03204419538104994,0.18169552954247453,0.0032360974004837263,5.573527780173425,6.4352875230663455,1.2125151370027663
1731474147.0892532,-0.33232659101486206,0.44813141226768494,-9.970808982849121,0.029625640113020636,0.17895080618737386,0.0033243855569682797,5.588752996278243,6.456595354098294,1.2162661980569225
1731474147.1392598,-0.3414287269115448,0.42118310928344727,-9.989472389221191,0.027195464940301086,0.175871104270102,0.003409185441526774,5.604011366253356,6.478224620582371,1.2114566752517368
1731474147.1892078,-0.32821929454803467,0.43675288558006287,-9.983247756958008,0.0247616407844434,0.17247328927336814,0.003490696970400662,5.619324428622602,6.5003420861241334,1.2151811955052534
1731474147.239118,-0.3308393657207489,0.41653814911842346,-9.989508628845215,0.022331915559991575,0.16877494508664104,0.0035691346404168696,5.634692830807856,6.522879463794309,1.2189137075636443
1731474147.2890556,-0.3308393657207489,0.41653814911842346,-9.989508628845215,0.0199137487159814,0.1647943364183176,0.0036446757122143136,5.650116243640899,6.545766412547162,1.214205935830064
1731474147.2890556,-0.3233639597892761,0.44228991866111755,-9.99915599822998,0.017514260551656922,0.16055036005273324,0.003717427484717907,5.6502667355140845,6.5459920596248375,1.214242130478478
1731474147.34003,-0.3317860960960388,0.42187803983688354,-9.981391906738281,0.015140199037688089,0.156062418940357,0.0037874015499322227,5.665970966597075,6.569711683283537,1.2180193205096548
1731474147.389953,-0.3199501931667328,0.43816444277763367,-9.984302520751953,0.012797915318071645,0.1513502550167179,0.0038545323553956664,5.681463860497535,6.593444401070068,1.2217468288347844
1731474147.4399762,-0.3348630368709564,0.410004585981369,-9.995926856994629,0.010493351284395143,0.14643384112894453,0.003918730563748334,5.697100366776675,6.617726513644208,1.225511618993537
1731474147.4898822,-0.3348630368709564,0.410004585981369,-9.995926856994629,0.008232053932552084,0.14133335718453546,0.0039798862334546195,5.712585291828665,6.642024214364138,1.2206801669858842
1731474147.4898822,-0.31965500116348267,0.4335654675960541,-9.987404823303223,0.006019206896398181,0.13606918509296592,0.00403782465994784,5.712705845829513,6.642215164851174,1.2207089998883631
1731474147.5398347,-0.33629316091537476,0.42236918210983276,-9.98745346069336,0.0038596293888401626,0.13066181399617724,0.004092305538627175,5.728162811496906,6.666852067660184,1.2244097546145205
1731474147.5897639,-0.32917505502700806,0.4344494938850403,-9.999245643615723,0.0017577577088435847,0.12513166437376236,0.004143061776107031,5.576217852771277,6.691904984385254,1.2198381225013235
1731474147.6397233,-0.3516184091567993,0.42074695229530334,-9.990751266479492,-0.000282324416144441,0.11949894637910066,0.004189803847887124,5.5912221884728295,6.717353292976017,1.2235574115478334
1731474147.6896822,-0.3516184091567993,0.42074695229530334,-9.990751266479492,-0.002256800277202544,0.1137835904819113,0.00423220281744598,5.6062270907847696,6.743098584095137,1.2272881186459832
1731474147.6896822,-0.3454195261001587,0.43337929248809814,-9.982441902160645,-0.004162031148942592,0.1080052075414611,0.004269913053879712,5.60632911930266,6.743274647537554,1.227313527183847
1731474147.739603,-0.3505779504776001,0.42843934893608093,-9.977140426635742,-0.0059945298635752115,0.10218301653887486,0.004302635706379323,5.46172930328108,6.76904284107505,1.2225923001425256
1731474147.7895708,-0.3442579209804535,0.44717955589294434,-10.014467239379883,-0.0077509966408421446,0.09633572512477324,0.004330155627180834,5.476193304843591,6.795372975499892,1.226322717695522
1731474147.839557,-0.2940550446510315,0.5944892764091492,-9.976007461547852,-0.009428412134225602,0.09048126030586623,0.004352292793027757,5.339818513918421,6.821805459484542,1.2217281846356856
1731474147.889536,-0.20518560707569122,0.54371577501297,-9.946371078491211,-0.011024334966406271,0.08463617908447724,0.004368892135006703,5.353688594297797,6.848539173726099,1.225442556234053
1731474147.939503,-0.43645983934402466,0.24578015506267548,-9.995434761047363,-0.01253726872612551,0.07881534673007098,0.0043799650071382895,5.224910208121848,6.875423196584039,1.2207556336134666
1731474147.9893682,-0.2412494719028473,0.5809628963470459,-10.00178050994873,-0.013966573072271494,0.07303257922154432,0.004385749327540032,5.238230021113331,6.902557926317801,1.2244612794646235
1731474148.0393229,-0.4226839542388916,0.305077463388443,-9.972904205322266,-0.015312026367494104,0.06730139497677701,0.004386555089278595,5.251478174244356,6.929795391376168,1.2281680291005492
1731474148.0892675,-0.17636924982070923,0.6643232107162476,-9.994385719299316,-0.016573664794788796,0.061634926382708566,0.004382653141720648,5.264656532069822,6.9571301045516,1.2318771471731655
1731474148.1391916,-0.017241640016436577,0.4965020716190338,-10.021503448486328,-0.01775231752139481,0.056045272649960384,0.0043742678467518096,5.139808884528389,6.984610763208291,1.2269477951925356
1731474148.1891968,0.08745230734348297,0.6030604839324951,-10.011589050292969,-0.018851025160174922,0.05054280612788142,0.004361477854143986,5.022837525553135,7.012234680053746,1.2221253944805623
1731474148.2391913,-0.9778934717178345,0.07814757525920868,-9.990920066833496,-0.019875697940481888,0.04513628636914868,0.00434409672244449,5.035153680664276,7.040397749605129,1.2258602197678683
1731474148.289004,-0.13256236910820007,0.6477596163749695,-9.916261672973633,-0.02083292619597112,0.039834100491569,0.004321796305355527,5.047153102357746,7.068056325169585,1.2295249212910484
1731474148.3390393,-0.5607509613037109,0.18505153059959412,-10.030675888061523,-0.021727252386898356,0.034645199351182994,0.004294423593645013,5.059254681621535,7.096165092277799,1.2332477194571063
1731474148.3899746,-0.24053697288036346,0.6703055500984192,-9.993346214294434,-0.022561021163855097,0.029578859072422317,0.004262087410484193,4.945687565555136,7.124660983929099,1.2283842665440354
1731474148.4399455,-0.4149532914161682,0.18424800038337708,-9.922703742980957,-0.0233354737693592,0.02464413221889742,0.004224988521709773,4.957257255529004,7.152950916233158,1.2321005648936507
1731474148.4898977,-0.32263457775115967,0.564312756061554,-10.011099815368652,-0.024051326532407463,0.019849706563019882,0.004183438172077466,4.849063083254182,7.1811367592019755,1.2272773915438346
1731474148.539939,-0.4096713662147522,0.33358514308929443,-9.978320121765137,-0.02470894499595857,0.015203975440394549,0.004137964721902138,4.860086935352367,7.2094876592475945,1.2309777864314457
1731474148.5898108,-0.33266475796699524,0.4822407364845276,-9.983787536621094,-0.025308332052610905,0.010714918187479917,0.004089201083258029,4.756888394911523,7.237637467317246,1.2262344844965616
1731474148.6398258,-0.36633315682411194,0.4079146981239319,-10.017582893371582,-0.025849160557211304,0.006389886311510527,0.004037736306510861,4.767473004221074,7.2662522398496945,1.22995123577349
1731474148.6896837,-0.37975364923477173,0.41329842805862427,-9.984230041503906,-0.026330905878337127,0.00223552451206363,0.003984034811337998,4.669037689568888,7.2942287640788726,1.2252702439289058
1731474148.7397082,-0.3236582279205322,0.45023560523986816,-9.957239151000977,-0.026752928930714175,-0.0017422215315440327,0.003928423437084254,4.679062455021207,7.322703478733716,1.2289561373937086
1731474148.7895982,-0.4094269871711731,0.40006208419799805,-10.010847091674805,-0.027114530411849972,-0.005538100407534145,0.0038712124956953317,4.584911045814267,7.350837540380978,1.224382268381873
1731474148.8395123,-0.3341081142425537,0.49790847301483154,-9.974881172180176,-0.027414981799377798,-0.00914762434438672,0.003812770925434722,4.495912858487941,7.379072296766583,1.2200376259658696
1731474148.8895173,-0.40162166953086853,0.3858509361743927,-9.979796409606934,-0.027653507170452982,-0.012567182901648832,0.003753477312144677,4.504995551213052,7.407353807558528,1.223673896602567
1731474148.9394271,-0.33520281314849854,0.49349677562713623,-9.995915412902832,-0.027829297714127465,-0.015794089895081624,0.0036937085127359843,4.514036910563318,7.435687192319899,1.2273307110286715
1731474148.989394,-0.39363962411880493,0.3769837021827698,-9.9759521484375,-0.027941576462434222,-0.018826526668923305,0.0036338510829092507,4.5230353556075835,7.4640624231261965,1.2310077680084461
1731474149.0393794,-0.32641667127609253,0.49767252802848816,-9.984671592712402,-0.02798967179911365,-0.021663457811497637,0.0035742876966813,4.435802063724304,7.491996324148577,1.2264485845089697
1731474149.0893095,-0.39658495783805847,0.40310895442962646,-9.991823196411133,-0.027973087968404524,-0.024304605219873064,0.0035154012865025617,4.444272650217977,7.520066654930969,1.2300873283271017
1731474149.139286,-0.31508591771125793,0.49019932746887207,-9.974615097045898,-0.027891555518914386,-0.026750480010586813,0.0034575708268763795,4.452693120181548,7.548138080129367,1.233743161527571
1731474149.1892076,-0.3865351676940918,0.38851404190063477,-9.984769821166992,-0.027745078883663576,-0.029002376452230135,0.003401168318062392,4.368186686252093,7.576213508928497,1.2291635321783911
1731474149.2392628,-0.3284973204135895,0.4553205966949463,-9.989445686340332,-0.027533977770166772,-0.031062251085813977,0.003346573840737219,4.376169405569883,7.604199604786888,1.2328133891373425
1731474149.2891707,-0.36882221698760986,0.4021817743778229,-9.976908683776855,-0.027258893299832884,-0.032932553295741934,0.0032941645866222096,4.383999804923745,7.631809764845232,1.2364327076499018
1731474149.3390863,-0.36882221698760986,0.4021817743778229,-9.976908683776855,-0.02692075722238888,-0.03461608661400898,0.003244309014203233,4.391820248964669,7.659538029342501,1.2400866079099853
1731474149.3390863,-0.339903861284256,0.46282950043678284,-9.997218132019043,-0.026520731219729518,-0.03611592257347813,0.003197386337541855,4.391888963739528,7.659782339445897,1.2401188884974388
1731474149.3890233,-0.36403632164001465,0.4146801829338074,-9.983406066894531,-0.026060189310042968,-0.03743545219457011,0.0031537595352764906,4.399561067538167,7.6871085938672685,1.2352822091498858
1731474149.4399798,-0.36403632164001465,0.4146801829338074,-9.983406066894531,-0.025540743874310202,-0.03857848881889977,0.003113723527683807,4.407438393199931,7.7153242844244625,1.2390093075869277
1731474149.4399798,-0.3282560706138611,0.4430561661720276,-9.990992546081543,-0.024964237804093403,-0.039549228292981256,0.003077505038846041,4.407509162052538,7.715578399582817,1.239042972134388
1731474149.489963,-0.3282560706138611,0.4430561661720276,-9.990992546081543,-0.024332796648401316,-0.04035221010632249,0.003045272594308551,4.415082029426429,7.742829187544579,1.2426634876678284
1731474149.489963,-0.34830936789512634,0.4099680185317993,-9.985173225402832,-0.023648954327508687,-0.040992376564275936,0.0030171181689543597,4.4151470529655565,7.743063676998693,1.242694731487423
1731474149.5398574,-0.3367198407649994,0.4484230577945709,-9.979958534240723,-0.022915667875516094,-0.041475055204201645,0.0029930640245046823,4.422627282396152,7.77011067019953,1.237795139835102
1731474149.5898209,-0.3511849343776703,0.42940324544906616,-9.9827299118042,-0.022136209565641142,-0.04180588897724989,0.00297311175754159,4.430151605096728,7.797394784749119,1.2414304934249458
1731474149.639785,-0.3449540138244629,0.44740235805511475,-9.993281364440918,-0.021314061624341525,-0.041990840038714186,0.002957272889705376,4.437639857098228,7.8246406015300085,1.2450821842408986
1731474149.689714,-0.348348468542099,0.4309273660182953,-9.968509674072266,-0.020452843904249316,-0.042036207331269136,0.0029455584184548784,4.445009997976566,7.85159608019631,1.2401530318188383
1731474149.7397473,-0.3465837836265564,0.4344233572483063,-9.99363899230957,-0.019556265695618233,-0.04194858708229749,0.0029379808185318584,4.452393133378661,7.878621567959981,1.2437859803767068
1731474149.7896135,-0.35121646523475647,0.43669408559799194,-9.989757537841797,-0.018628093969931064,-0.04173479997126066,0.002934557667559448,4.459686237213164,8.388507695533672,1.238951135869415
1731474149.839714,-0.3436480164527893,0.4485608637332916,-9.986307144165039,-0.017672123775154116,-0.0414018456823916,0.0029352694134234677,4.466960673483704,8.602273428527877,1.2343446078959068
1731474149.8895714,-0.3596985638141632,0.44395580887794495,-9.989258766174316,-0.016692148994333196,-0.040956913681227,0.002940025429207997,4.474163255776689,8.63058004639276,1.2379150572406519
1731474149.9394937,-0.3596985638141632,0.44395580887794495,-9.989258766174316,-0.01569191263359966,-0.04040739768299759,0.0029486728133992306,4.4813915241425395,8.659045280423069,1.2415258095866049
1731474149.9394937,-0.3440133035182953,0.440993994474411,-9.989282608032227,-0.014675045915964878,-0.03976086112010989,0.0029610052365405507,4.4814344190350015,8.659214363842796,1.2415473184589128
1731474149.9894161,-0.3629949986934662,0.4327376186847687,-9.978323936462402,-0.013645053904726659,-0.03902496161003571,0.0029767734618287526,4.488495556923674,8.687066111018039,1.2451000255547318
1731474150.0394707,-0.35161831974983215,0.4358040392398834,-9.977865219116211,-0.012605326685792529,-0.03820735946601761,0.002995729652798354,4.49563638897357,8.830027773855152,1.2403064116475284
1731474150.0892787,-0.3588835597038269,0.44195646047592163,-9.983288764953613,-0.011559124677285025,-0.03731564515348793,0.0030176838033541455,4.50273072735298,8.858345667678922,1.2438908922803327
1731474150.1392915,-0.3525645434856415,0.4376795291900635,-9.988021850585938,-0.010509564296999337,-0.03635731628912469,0.003042513312487845,4.509768946599525,8.886457482001063,1.247468410373757
1731474150.1892414,-0.3610277473926544,0.4366692900657654,-9.989734649658203,-0.00945961877896492,-0.03533977385936647,0.0030701159370805854,4.516824906592467,8.988418102819779,1.2426168669084028
1731474150.239233,-0.35390523076057434,0.44004589319229126,-9.980785369873047,-0.008412113262021514,-0.034270297440562446,0.003100363224591564,4.523826108543323,9.016569874782057,1.246183193954015
1731474150.2891834,-0.34808841347694397,0.4356316924095154,-9.990507125854492,-0.007369727958915055,-0.03315601381212381,0.003133096374698715,4.530779992931335,9.044526484478615,1.2497430683408552
1731474150.3391497,-0.3495331108570099,0.4318283796310425,-9.987534523010254,-0.006335032849950472,-0.03200386723187321,0.0031681364092946886,4.537749027797172,9.119181629888876,1.24482298255307
1731474150.3889644,-0.34229859709739685,0.43807172775268555,-9.979005813598633,-0.00531053424464,-0.030820580845053236,0.0032052841118573364,4.544680987448951,9.147126271705396,1.2483716364119146
1731474150.4399717,-0.35194361209869385,0.43843650817871094,-9.987793922424316,-0.004298699647150562,-0.029612633206813843,0.0032443356281682215,4.55177276821349,9.206387797421412,1.2436101534614605
1731474150.4899325,-0.3497510850429535,0.43838438391685486,-9.9824857711792,-0.003301947195531997,-0.02838626575779237,0.00328510508147744,4.558695917801091,9.256119827303518,1.2389745389542768
1731474150.5399475,-0.3440338671207428,0.4448617100715637,-9.980924606323242,-0.002322615054383719,-0.0271474980019938,0.0033274289434259675,4.565640153788245,9.284129063767354,1.2425064001891821
1731474150.5898569,-0.3435697555541992,0.4436219334602356,-9.993441581726074,-0.0013629536957916926,-0.025902141930654002,0.0033711621776014895,4.572558495116999,9.311986264861929,1.2460357783135585
1731474150.6397717,-0.3434273302555084,0.4445556402206421,-9.981748580932617,-0.00042514602809081976,-0.024655816121538762,0.0034161608659468217,4.579458027974435,9.349889472502506,1.2413362190638617
1731474150.6896904,-0.34205594658851624,0.4357181191444397,-9.985618591308594,0.0004886813590501089,-0.02341393730793669,0.003462263849393885,4.586364741599526,9.37760568427526,1.2448468297833373
1731474150.7397027,-0.3368449807167053,0.4365089237689972,-9.985532760620117,0.0013764591344782246,-0.022181675832392972,0.0035093016091912455,4.474595563666229,9.408901409851241,1.2402463798141858
1731474150.7896504,-0.3370206654071808,0.44003918766975403,-9.988101959228516,0.002236167201239247,-0.020963902948798425,0.003557106283042805,4.481119871502489,9.436547636657561,1.2437486219075122
1731474150.839731,-0.34878137707710266,0.4350849390029907,-9.995030403137207,0.0030658338136665512,-0.019765167647672912,0.0036054939177439793,4.3753554982963525,9.462624754399064,1.2392109778192952
1731474150.8894904,-0.34958556294441223,0.43955448269844055,-9.992443084716797,0.0038635817507397933,-0.018589696540776197,0.0036542285074732885,4.381487506763253,9.490025796271059,1.242683370913258
1731474150.9395454,-0.33814793825149536,0.4347154200077057,-9.992836952209473,0.004627695890951978,-0.01744139313671495,0.003702994274966724,4.387695892361322,9.517675498182728,1.2462022029899393
1731474150.9894862,-0.33814793825149536,0.4347154200077057,-9.992836952209473,0.005356633760815524,-0.016323832143497464,0.0037513961880954734,4.393883295596912,9.545134084330689,1.2497113854130435
1731474150.9894862,-0.3534073531627655,0.43426117300987244,-9.98823356628418,0.006048993650396938,-0.015240249142743415,0.0037989813581394208,4.39391934884427,9.54529378980479,1.2497318381788032
1731474151.0393903,-0.3534073531627655,0.43426117300987244,-9.98823356628418,0.006703536142897425,-0.014193533441540722,0.003845270542401055,4.40007230817667,9.562478438300714,1.2449676978083744
1731474151.0393903,-0.35689619183540344,0.43784937262535095,-9.982269287109375,0.007319262343764115,-0.0131862354281236,0.0038897978618225564,4.400107223726569,9.562632325693706,1.2449873306239005
1731474151.089344,-0.35689619183540344,0.43784937262535095,-9.982269287109375,0.00789547074476389,-0.01222058970723475,0.003932152796741676,4.406327558418195,9.589989076002421,1.248484356163229
1731474151.089344,-0.34376397728919983,0.4424741268157959,-9.984296798706055,0.00843175618461901,-0.011298548488444452,0.003972011909384629,4.406363676336507,9.590147580110349,1.2485046576973335
1731474151.1394033,-0.34376397728919983,0.4424741268157959,-9.984296798706055,0.008927950804734502,-0.010421818004737852,0.004009144611378467,4.412547807222352,9.604081212286482,1.243809764566581
1731474151.1394033,-0.34501925110816956,0.4349685609340668,-9.980411529541016,0.0093840398675358,-0.009591882648539834,0.0040434008759963206,4.412583993583883,9.604239087699924,1.2438299114153804
1731474151.1892505,-0.35001081228256226,0.4367660880088806,-9.98748779296875,0.009800117382915231,-0.008809996455066388,0.004074702361951946,4.418804711047728,9.631315432579921,1.2472916071417253
1731474151.2393665,-0.35077399015426636,0.4410512447357178,-9.983784675598145,0.010176399449020069,-0.008077159990302608,0.004103030800092801,4.425127748522525,9.658707263521379,1.2508065649306328
1731474151.2891529,-0.35077399015426636,0.4410512447357178,-9.983784675598145,0.010513255107659984,-0.007394126638265666,0.004128409569132951,4.4314110684478205,9.6858457673341,1.246071924593853
1731474151.2891529,-0.3346041738986969,0.4414082169532776,-9.978825569152832,0.010811205512556207,-0.006761434801569785,0.0041509009384487535,4.431463934902617,9.686073141993296,1.2461010009785454
1731474151.339152,-0.3532467186450958,0.44168803095817566,-9.982125282287598,0.011070878844515412,-0.006179432207771732,0.004170622592604334,4.437773604772198,9.713143715561348,1.2495689170757547
1731474151.38902,-0.3532467186450958,0.44168803095817566,-9.982125282287598,0.011292985591266172,-0.0056482861467371,0.0041877573456304655,4.4441092981435,9.740242209465878,1.244906775601105
1731474151.38902,-0.3444956839084625,0.44681721925735474,-9.989038467407227,0.011478350706482357,-0.005167994137845731,0.004202536145014595,4.4441488736225665,9.740410755422957,1.2449282900389576
1731474151.4390323,-0.3444956839084625,0.44681721925735474,-9.989038467407227,0.011627926053596688,-0.004738406672373014,0.0042151968930226056,4.450539173113058,9.767558270491303,1.2483996206092447
1731474151.4390323,-0.3412024676799774,0.45108357071876526,-9.988518714904785,0.011742744978460158,-0.004359259629130537,0.004225941794322232,4.45059471392987,9.76779363305164,1.2484297685927719
1731474151.4888942,-0.35135704278945923,0.44728460907936096,-9.988907814025879,0.011823881892303219,-0.0040302012185031814,0.0042349179446787115,4.456961706359414,9.794757221635281,1.2438224746060997
1731474151.5399947,-0.3428148031234741,0.43845781683921814,-9.985496520996094,0.01187245470125739,-0.0037507910650801486,0.00424222305200872,4.463565639516121,9.822534737398296,1.247367460042751
1731474151.589838,-0.35130253434181213,0.43799132108688354,-9.989453315734863,0.011889642785129892,-0.003520456734108039,0.004247921075349096,4.470037931976664,9.849624004047753,1.2508364288149114
1731474151.6397727,-0.34227749705314636,0.4340595602989197,-9.994230270385742,0.011876691319321682,-0.00333843274770132,0.004252046361485531,4.4765451965920615,9.876776886513804,1.2461990268877547
1731474151.6898038,-0.345090389251709,0.4354267120361328,-9.992863655090332,0.011834898241688166,-0.003203722991215056,0.004254583210329926,4.4831156747402074,9.90401205903632,1.2496790991684
1731474151.7628806,-0.345090389251709,0.4354267120361328,-9.992863655090332,0.011765592224144342,-0.003115096175752384,0.0042554425386510004,4.492732536086288,9.943690803532599,1.246708301414965
1731474151.7628806,-0.3515869379043579,0.4293767511844635,-9.992466926574707,0.011670125134195753,-0.003071098171266723,0.004254462041018932,4.492774588607258,9.943863493845752,1.2467303178668534
1731474151.7896523,-0.3438718020915985,0.40278133749961853,-9.977875709533691,0.011549887169282692,-0.0030700337394738253,0.004251435490696761,4.496293707383066,9.958296865713422,1.248572099248464
1731474151.839626,-0.3230764865875244,0.15276339650154114,-9.979936599731445,0.011406291500086416,-0.0031096469815853948,0.004246177085302469,4.502931167155993,9.985473649311093,1.2440764683361412
1731474151.8895721,-0.3230764865875244,0.15276339650154114,-9.979936599731445,0.011240676354005032,-0.0031861456528433038,0.004238594664540213,4.509577911501571,10.012516183220336,1.2475173388882288
1731474151.8895721,-0.22208143770694733,0.187400683760643,-10.070066452026367,0.01105409061417321,-0.0032930395051356132,0.004228638817409568,4.5096155662285415,10.012669038259283,1.2475368207638577
1731474151.939552,-0.22208143770694733,0.187400683760643,-10.070066452026367,0.010846895187842164,-0.0034208104000867227,0.004215980316713812,4.516315662723654,10.03980770562443,1.251001575644676
1731474151.939552,-0.3626958727836609,-0.3957504630088806,-10.0033597946167,0.010618441017616042,-0.0035569104677102255,0.00419963044921484,4.51637354735105,10.040041652409581,1.2510314938298528
1731474151.989412,-0.49128592014312744,-0.6028002500534058,-10.101073265075684,0.01036750352019038,-0.003684209006841211,0.004177883299045249,4.522954473893688,10.066633685114274,1.2464028347812437
1731474152.039409,-0.49128592014312744,-0.6028002500534058,-10.101073265075684,0.010093530769527494,-0.0037780409506821266,0.004148375974958013,4.529700721401339,10.093781518415954,1.2420343317785927
1731474152.039409,-0.33004650473594666,0.15001556277275085,-9.991525650024414,0.00979761940584695,-0.0038051297228542903,0.004108033126324813,4.529741442544429,10.0939447511996,1.242054980254675
1731474152.0893848,-0.33004650473594666,0.15001556277275085,-9.991525650024414,0.00948227771581375,-0.0037267711779834277,0.004053321520020141,4.536491484120021,10.120950591853703,1.2454767829247804
1731474152.0893848,-0.42409035563468933,-0.23452405631542206,-9.928579330444336,0.00915052808693334,-0.003503714630225132,0.0039809307440794115,4.536531405540686,10.121110004527608,1.2454970147730833
1731474152.139399,-0.42409035563468933,-0.23452405631542206,-9.928579330444336,0.008805565322954442,-0.003098133017251961,0.003888410913920919,4.543301945637425,10.148098188063756,1.2489275530383939
1731474152.139399,-0.3635537326335907,0.16380023956298828,-9.96257495880127,0.008451012156892108,-0.002472939808936179,0.0037744923667454126,4.543339794613392,10.148248793195593,1.248946726604965
1731474152.1892323,-0.3635537326335907,0.16380023956298828,-9.96257495880127,0.008090941604113708,-0.0015923134502763376,0.0036390404953806905,4.550097475135674,10.175096653129271,1.2523694710753457
1731474152.1892323,-0.3265819549560547,0.03705446049571037,-9.926668167114258,0.007729492677960829,-0.000423790008808944,0.0034828055423307396,4.5501386148835286,10.17525984601603,1.2523903047908598
1731474152.2392316,-0.3265819549560547,0.03705446049571037,-9.926668167114258,0.007370465737352997,0.0010606906712459017,0.0033073007295540474,4.556997293997799,10.202431188860453,1.2558630938562643
1731474152.2392316,-0.34383344650268555,0.2610261142253876,-9.951214790344238,0.007017093210721219,0.00288502995871793,0.0031148230845575247,4.557038405831646,10.202593844840386,1.2558839070033434
1731474152.2891235,-0.35642221570014954,0.23940710723400116,-9.95168685913086,0.0066720286063148004,0.005068755801429373,0.0029083599394369806,4.56377017223985,10.22925181161042,1.2511354883382928
1731474152.3392637,-0.35642221570014954,0.23940710723400116,-9.95168685913086,0.006337507132351966,0.00762619126602314,0.002691357505984303,4.5706708938272,10.256479410940434,1.2545957633041491
1731474152.3392637,-0.3735845685005188,0.305618554353714,-9.976515769958496,0.006015525871964534,0.010566066370257619,0.002467505763660247,4.570711870855072,10.2566409602151,1.2546163070322232
1731474152.389072,-0.3662432134151459,0.2762035131454468,-9.98367977142334,0.005707968757619013,0.013891658786398597,0.002240544564140617,4.437466982051102,10.283513056464873,1.2500731379513936
1731474152.4390504,-0.3853393793106079,0.2848801612854004,-9.992253303527832,0.005416691462343832,0.01760106740448851,0.002014048055215573,4.443907659749331,10.31070344165819,1.2535013797606989
1731474152.4890246,-0.3853393793106079,0.2848801612854004,-9.992253303527832,0.005143588590700125,0.021687631916613086,0.0017912507292482836,4.319442917247423,10.337909701016047,1.2491128746898927
1731474152.4890246,-0.3745778203010559,0.2969180941581726,-9.987142562866211,0.004890640433304895,0.02614044426759763,0.0015749709809817491,4.319483424249294,10.338092921592837,1.249135757358884
1731474152.539969,-0.3745778203010559,0.2969180941581726,-9.987142562866211,0.0046598912017653,0.03094479863115503,0.0013676203536890773,4.32559866145459,10.36576595363562,1.2525886615769128
1731474152.539969,-0.36941108107566833,0.32635197043418884,-10.017279624938965,0.004453359415455012,0.036082571722420936,0.0011712264387434873,4.325638360047537,10.365945682944687,1.2526110663811705
1731474152.5898287,-0.3613957464694977,0.32036691904067993,-9.987659454345703,0.004272941698022712,0.041532548223320004,0.000987399524829753,4.33162725365843,10.39308681757572,1.2559892776519903
1731474152.6398501,-0.3613957464694977,0.32036691904067993,-9.987659454345703,0.004120329258403364,0.04727073801433475,0.0008173201497086647,4.213931777378675,10.342331122435457,1.251478622435874
1731474152.6398501,-0.3558109700679779,0.3377763330936432,-10.017905235290527,0.003996937658738635,0.053270747700361665,0.0006618084797667664,4.2139801023042756,10.342565106320587,1.251507538811966
1731474152.6896672,0.11172740161418915,0.9410831928253174,-9.988750457763672,0.0039034425168923033,0.05950361625474789,0.0005213595424173097,4.21953711611011,10.369520836378122,1.254830506265789
1731474152.7397246,0.11172740161418915,0.9410831928253174,-9.988750457763672,0.0038381496590452324,0.06593607309279839,0.00039614803476908423,4.109029676339375,10.324766420151043,1.2503725515902637
1731474152.7397246,0.6022413969039917,1.6053311824798584,-9.950591087341309,0.003794377801675025,0.07252747373757903,0.0002861503831067555,4.1090667573525135,10.324959217819865,1.2503960676077113
1731474152.7897217,0.45707929134368896,1.1785728931427002,-9.883322715759277,0.0037579651790711735,0.07922703448534008,0.00019144295042584217,4.1143331655575635,10.352415436433716,1.2537331875980835
1731474152.8396256,0.18722468614578247,0.8254978060722351,-10.014012336730957,0.003706270238095735,0.08597355268649802,0.0001125346629052561,4.119632008770601,10.380197921331085,1.2570853528540176
1731474152.889567,-0.2138817459344864,0.33085402846336365,-10.020838737487793,0.0036100901212594238,0.09269922952459073,5.0311200955503106e-05,4.124950436212726,10.40825859999766,1.2604443218997492
1731474152.939633,-0.2138817459344864,0.33085402846336365,-10.020838737487793,0.00343801328233643,0.09933602507301173,5.505332339189616e-06,4.019095242945041,10.436444519581524,1.255742866814204
1731474152.939633,-0.84199458360672,-0.42900434136390686,-10.077438354492188,0.0031610087837448016,0.10582147843321381,-2.1795242362618612e-05,4.019118737886372,10.436579017763648,1.2557586127831861
1731474152.9894435,-1.1347620487213135,-0.6553553342819214,-10.159132957458496,0.002756687645669347,0.11210364491126251,-3.247985457321216e-05,4.024019251818319,10.464750114744893,1.259040564214647
1731474153.0395005,-0.5375619530677795,0.026560742408037186,-10.053828239440918,0.0022129107854384684,0.11814490346698578,-2.877589889261814e-05,4.029075392350606,10.494128239914302,1.2543404191069778
1731474153.0893981,-0.6419805884361267,-0.14039817452430725,-10.018117904663086,0.0015282563777076282,0.12392194797511104,-1.4260893274485264e-05,4.033976959565809,10.522826867471686,1.2575845365540934
1731474153.13939,-0.6419805884361267,-0.14039817452430725,-10.018117904663086,0.0007092784172155104,0.1294223932564192,6.730449588055851e-06,4.038958842479233,10.55229421120963,1.260879968116937
1731474153.13939,-0.48468977212905884,0.17504572868347168,-9.904268264770508,-0.00023215223247924853,0.13464172294531537,2.986926915061119e-05,4.038990757206367,10.552483994597774,1.2609010754728773
1731474153.1893013,-0.5061772465705872,0.20886747539043427,-9.975037574768066,-0.0012804194019390967,0.13958106481800872,5.1451146425620495e-05,4.0439246862927165,10.582005828411905,1.2641653192710205
1731474153.2392278,-0.504601240158081,0.35937514901161194,-9.961531639099121,-0.00241751921384305,0.1442446073451773,6.875071196834972e-05,4.0488951566959335,10.61212680237345,1.2674569340688135
1731474153.2890863,-0.5235366225242615,0.4285810589790344,-9.942535400390625,-0.0036240100690885183,0.14863726006839012,8.000195546837945e-05,4.053818855957201,10.642431624997844,1.2622994930109634
1731474153.3391986,-0.5182399153709412,0.41647854447364807,-9.95583724975586,-0.004879417742638642,0.15276312549722545,8.425481006806617e-05,4.058777982733414,10.673335239555444,1.2655630397649236
1731474153.3890479,-0.5484158992767334,0.4480695128440857,-9.937871932983398,-0.006162469799073829,0.15662473858409015,8.132282758830231e-05,4.063693180146895,10.704498112654049,1.2605033120617597
1731474153.4390175,-0.5478430390357971,0.4370619058609009,-9.939542770385742,-0.007451293981850148,0.16022294963759817,7.174579058236692e-05,4.068624289283878,10.736202683527749,1.2637366573271493
1731474153.4889638,-0.5263280868530273,0.4694240391254425,-9.992203712463379,-0.008723613265479165,0.1635570925464,5.6689985007161027e-05,4.073510480480652,10.768217835574998,1.2587513749487544
1731474153.5389593,-0.5467596054077148,0.46723413467407227,-9.985711097717285,-0.009957027136926025,0.16662517095364038,3.77027624783712e-05,4.078402779350812,10.800773704513137,1.2619560785098736
1731474153.5898702,-0.551529049873352,0.4757702946662903,-9.996859550476074,-0.011129320256352625,0.16942403194250732,1.6378185954697144e-05,4.083318979725041,10.83416742155052,1.2570840371590377
1731474153.6398945,-0.5152885317802429,0.4587487578392029,-9.976001739501953,-0.012218705861044708,0.17194958624705808,-5.844801933564164e-06,4.088157457321335,10.867596245779744,1.260258559095679
1731474153.6898081,-0.5710768699645996,0.47691261768341064,-10.003650665283203,-0.013204058204328212,0.17419710041526762,-2.7709463464623245e-05,4.092917832319623,10.901207189091974,1.2553849453036412
1731474153.7397523,-0.525538980960846,0.48766395449638367,-9.994609832763672,-0.01406511556655192,0.17616146978033873,-4.814185071309496e-05,4.097673875223276,10.935467226044388,1.2507079548383768
1731474153.789613,-0.5084438323974609,0.5185731053352356,-9.965476989746094,-0.014782659589028014,0.17783736270687098,-6.626213509189569e-05,4.102380597996099,10.969995191434418,1.25380051804977
1731474153.8396065,-0.5292466878890991,0.4623800218105316,-9.98769760131836,-0.015338784132404287,0.17921929528586322,-8.131412503959561e-05,4.10705092758931,11.004974097970114,1.2568935670322676
1731474153.88953,-0.48913973569869995,0.46731847524642944,-9.979022026062012,-0.015717166927480444,0.18030184846207578,-9.256465195812543e-05,4.111712170054012,11.040627531055991,1.2600061743992237
1731474153.9395475,-0.4685397744178772,0.5056860446929932,-9.99309253692627,-0.01590327883872276,0.18108001299260537,-9.929946177674796e-05,4.116288625520371,11.076467609307283,1.2551064745361917
1731474153.9894257,-0.45702219009399414,0.4998912811279297,-9.956080436706543,-0.015884639252876684,0.1815493694000352,-0.00010085578222942847,4.120824686665284,11.112750699685181,1.2503789884618812
1731474154.0394197,-0.4022035002708435,0.5028836131095886,-9.970311164855957,-0.015651104118658853,0.1817060696996272,-9.656997078056983e-05,4.125353506696396,11.149654683889754,1.253419506580606
1731474154.089314,-0.42270535230636597,0.48164358735084534,-9.983999252319336,-0.015195114626483939,0.1815468748985894,-8.569585520534077e-05,4.129834793539924,11.186937670037274,1.2564537069067094
1731474154.1392968,-0.38456615805625916,0.5007065534591675,-9.960416793823242,-0.014511849722670504,0.181069318047046,-6.741462977958581e-05,4.134288812748881,11.224755830373915,1.2594943897994169
1731474154.1892097,-0.3837924003601074,0.4896668791770935,-10.00211238861084,-0.013599246984050203,0.18027186017819868,-4.0904762779366336e-05,4.138688732127869,11.262860517060302,1.262521861649658
1731474154.2391903,-0.3806689977645874,0.47306615114212036,-10.001392364501953,-0.012457943519731734,0.179153991978124,-5.441611675067841e-06,4.143081957535282,11.301639332977627,1.265567102305954
1731474154.2891269,-0.5227342247962952,0.9770021438598633,-9.972333908081055,-0.011091015624999716,0.17771590396661088,3.9479100280938304e-05,4.147410444760118,11.340653449804007,1.2603939203711285
1731474154.3391964,-0.6536251306533813,1.1910713911056519,-9.957026481628418,-0.009503149023756501,0.1759566942443277,9.415578288187366e-05,4.151746837948593,11.380307681060057,1.2634058558212227
1731474154.389024,-0.5680765509605408,0.5152410864830017,-9.884139060974121,-0.007699342488992419,0.17387194825263474,0.00015894433793614868,4.15604554643117,11.420249793059822,1.2664068356477982
1731474154.438984,-0.8518714904785156,1.0223649740219116,-10.114818572998047,-0.005683790755053712,0.17145356718309332,0.0002344805981646065,4.160302132654524,11.460494213554048,1.261167873038375
1731474154.4890203,-0.5428992509841919,0.5303182005882263,-9.948053359985352,-0.0034592286687148773,0.16869169430753156,0.0003214177033879043,4.164600996303691,11.501559439808657,1.2641571917079337
1731474154.4890203,-0.5428992509841919,0.5303182005882263,-9.948053359985352,-0.0010270433629618989,0.1655766119428536,0.00042003913283754346,4.165950433542609,11.5145518484262,1.265096777577677
1731474154.8706543,-0.253031849861145,0.3442539572715759,-9.981415748596191,0.001611399391068435,0.16210069351482834,0.0005304084960770047,3.8144765169253487,11.827157187926053,1.2628317327419536
1731474154.9205117,-0.23775433003902435,1.9156547784805298,-9.855184555053711,0.004452699341693878,0.15825900941782686,0.0006527792169062715,3.7068180989974655,11.871798571634523,1.2576701064146603
1731474154.9705315,-0.4001409411430359,0.5899046659469604,-9.77047061920166,0.007489862684863859,0.1540462357595968,0.0007880537173614306,3.709537185415226,11.916103284436554,1.2605036844294308
1731474155.020408,-0.1947299689054489,1.112312912940979,-10.022409439086914,0.010712048153147734,0.14945354839655972,0.0009383034033773941,3.6090094577964735,11.961896527203619,1.2554307832827758
1731474155.0704117,-0.1947299689054489,1.112312912940979,-10.022409439086914,0.0141049488086806,0.1444693368671235,0.001106530526130621,3.611435466609717,12.0066467798395,1.2582193661303496
1731474155.0704117,-0.21322882175445557,0.8714746236801147,-10.088143348693848,0.01765082127586701,0.13908082018071732,0.001295478512674137,3.611451800541587,12.006947131814595,1.2582380182148367
1731474155.1203022,-0.2239534556865692,0.9041865468025208,-9.905142784118652,0.021328565028134808,0.1332748422835243,0.001506721914642076,3.6139759429030525,12.053033433085828,1.2610914108560591
1731474155.1704328,-1.3943976163864136,-0.5810168385505676,-10.084527969360352,0.025115362363246983,0.12704046128395383,0.001740724071131172,3.6165311417361226,12.098957523699681,1.2639187751583127
1731474155.2202253,-0.5982986688613892,0.3721615672111511,-10.063822746276855,0.02899071277881316,0.12037425693341954,0.001997107334080038,3.6192192282794595,12.146339590583674,1.2668211804209235
1731474155.2702136,-0.46314603090286255,0.03619835898280144,-10.011496543884277,0.03293960577334562,0.11328456235307369,0.002274521281990575,3.5231295773718547,12.191739523449469,1.26133101198769
1731474155.320184,-0.5183843374252319,0.10595713555812836,-10.015792846679688,0.03695126021541565,0.10579124649395502,0.0025706057101556835,3.5256829866400508,12.240117705743279,1.2642368495307652
1731474155.3702235,-0.11161405593156815,0.15249505639076233,-10.028287887573242,0.04101581529799325,0.09792349658670911,0.0028823257023224418,3.4358093431936356,12.286162304436802,1.2588370437055088
1731474155.4200754,-0.11161405593156815,0.15249505639076233,-10.028287887573242,0.04512185637180062,0.08971819203302656,0.003206235625493737,3.4381890031896414,12.333511576083525,1.2616339590957426
1731474155.4200754,0.01588253118097782,0.03391246125102043,-10.020575523376465,0.04925447520225265,0.081218513689532,0.0035385425121369505,3.438269887113543,12.335086515643793,1.2617269027930844
1731474155.469965,0.01588253118097782,0.03391246125102043,-10.020575523376465,0.05339403452309443,0.07247295579279871,0.0038751739571495944,3.440692748523076,12.381106336240467,1.2644422066716874
1731474155.469965,-0.25383296608924866,0.3448643088340759,-9.974748611450195,0.05751624845134064,0.0635345201261709,0.004211934009656518,3.4407101180501254,12.381428558119467,1.2644612154788997
1731474155.5198517,-0.10165785253047943,0.2227284014225006,-9.922452926635742,0.06159350640488875,0.05445904969638784,0.004544807279752533,3.44334840157565,12.429021317828264,1.267270497265544
1731474155.5699394,-0.1839110553264618,0.4192267656326294,-9.99095344543457,0.06559654566494003,0.04530302394434988,0.00487035817287924,3.3582259303343514,12.477208026654637,1.2618150924860925
1731474155.6198208,-0.19280876219272614,0.3612631559371948,-9.950533866882324,0.06949549495264651,0.03612184247780889,0.005185921108167976,3.361046541496787,12.527417819033264,1.2647559960514785
1731474155.6698928,-0.00384950777515769,0.6912849545478821,-9.922014236450195,0.07326033472668812,0.026968475169925708,0.005489548267199975,3.2811476492159772,12.573391229901825,1.2592608606684268
1731474155.7207956,-0.00384950777515769,0.6912849545478821,-9.922014236450195,0.07686083570528679,0.017891832749057472,0.00578004831939309,3.2067728711116654,12.622869014536164,1.2541833529392725
1731474155.7207956,0.744889497756958,1.6483407020568848,-9.939879417419434,0.08026541598084216,0.008934266584216545,0.0060571112058411675,3.206794552902407,12.623263784845935,1.2542061583534556
1731474155.770732,0.3141680657863617,1.1341841220855713,-10.00156307220459,0.08343881933734085,0.00012799589187500755,0.006321201478869394,3.209499564186034,12.670671762730652,1.2569525180272585
1731474155.8206358,-0.22723086178302765,1.8611536026000977,-9.893811225891113,0.08634101694595095,-0.008507971623012553,0.0065732435666718755,3.212498881384774,12.71948203451411,1.2597969625027168
1731474155.8706558,-0.4820658564567566,1.1263463497161865,-9.909140586853027,0.08893033806409252,-0.01696866507280391,0.006814521059467447,3.215651557065915,12.767230043529175,1.2625978843959471
1731474155.9206085,-0.4820658564567566,1.1263463497161865,-9.909140586853027,0.09116907931086761,-0.025261355741742122,0.007046897602653526,3.1450401744067857,12.815251778237927,1.2573185181348896
1731474155.9206085,-0.49431735277175903,1.4234706163406372,-9.892594337463379,0.09302725114892553,-0.033402050047163095,0.007272972350623518,3.145060215364512,12.815545587066865,1.2573357447383662
1731474155.970523,-0.07631285488605499,0.5004467964172363,-10.070384979248047,0.09448303956296178,-0.04141219492451959,0.007495878913784971,3.079034913953094,12.863142816206555,1.2522470708777151
1731474156.0204434,-0.24069371819496155,-0.35270124673843384,-10.206377029418945,0.09552098679597283,-0.04931441240056926,0.007718479312112381,3.082448305116208,12.911110149052753,1.2550659082457685
1731474156.0704284,-0.24069371819496155,-0.35270124673843384,-10.206377029418945,0.09612982646436202,-0.05712502225549138,0.007941979624007724,3.0860999832229625,12.95893459975734,1.2579036798228542
1731474156.0704284,-0.6625279188156128,-0.9579870700836182,-10.202309608459473,0.09630200093850166,-0.06484654618205382,0.008164808827264928,3.0861225813651014,12.959220667133355,1.2579207394614822
1731474156.1203353,-0.7205891013145447,-0.26662561297416687,-10.021163940429688,0.09603522702324478,-0.07246425811341892,0.008382584507915774,3.0899935374241334,13.00662422417313,1.2607634117037543
1731474156.170457,-0.539745032787323,-0.3440362215042114,-10.02015209197998,0.09533445270344422,-0.07994731157958002,0.008589143293330676,3.0273267602225866,11.98997959566151,1.2556023555927363
1731474156.220292,-0.7099660634994507,-0.18074804544448853,-9.97559928894043,0.09421229727031433,-0.0872529464824325,0.008777923745907941,3.0314896218020615,12.034691672147016,1.258478521707011
1731474156.270222,-0.4648881256580353,-0.01231425255537033,-9.95477294921875,0.09268800269773703,-0.09433107235069542,0.008942952881697438,2.9724766127191677,11.203195146252519,1.2533922773523238
1731474156.320121,-0.6345815658569336,0.11943099647760391,-9.89240837097168,0.09078604524230365,-0.10112796412625069,0.009079378459622235,2.976980727690036,11.246076133865465,1.256334742643537
1731474156.370157,-0.4727819561958313,0.4156271815299988,-9.890789985656738,0.08853488599056687,-0.1075896956914065,0.009183871737658283,2.9213513797596957,10.531835611736877,1.2513139561772242
1731474156.419992,-0.4727819561958313,0.4156271815299988,-9.890789985656738,0.0859658635706519,-0.11366545399408012,0.009254911156445828,2.925987300038767,10.571286863659687,1.254197104599636
1731474156.419992,-0.4746846556663513,0.4383656084537506,-9.960733413696289,0.08311211961492587,-0.11931006391210167,0.009292734333994588,2.926018951555392,10.571549198013352,1.254216422177396
1731474156.4700122,-0.4082532823085785,0.4868992269039154,-9.922954559326172,0.08000764882878962,-0.12448516107881663,0.009298932018373297,2.9308528042096866,10.61063644446098,1.2571175917362536
1731474156.5199811,-0.4082532823085785,0.4868992269039154,-9.922954559326172,0.07668657435884502,-0.12915938851050565,0.009276002392281575,2.8781055754704172,9.984778240567902,1.2521469514657857
1731474156.5199811,-0.42095184326171875,0.46034306287765503,-9.94420051574707,0.07318254854327233,-0.1333082602925298,0.009227133858006366,2.8781485308716,9.985100149351846,1.2521722173737186
1731474156.5699735,-0.3570947051048279,0.568742036819458,-9.979055404663086,0.0695283242280689,-0.13691386168926134,0.009156042914916366,2.8831982159292915,10.02211672043234,1.255102537652816
1731474156.6198468,-0.35170891880989075,0.5658196806907654,-10.006991386413574,0.06575540818165133,-0.13996462379161745,0.00906663211724329,2.833332954566782,9.473199665811954,1.2502110219311349
1731474156.6698449,-0.35522300004959106,0.5524300336837769,-9.985919952392578,0.06189367620375476,-0.1424552490211674,0.008962580795189318,2.8385331635903066,9.508109689305433,1.2531561705750796
1731474156.7197773,-0.3219449818134308,0.549161434173584,-9.999293327331543,0.057971100577248885,-0.1443864154816989,0.008847113013553738,2.843896849639315,9.542752880207095,1.2561313165091588
1731474156.7707493,-0.28970977663993835,0.5290778875350952,-9.999696731567383,0.05401358449420163,-0.1457641472412739,0.008722969173017497,2.8494857918681062,9.577553598372187,1.25917439215311
1731474156.8206139,-0.3143123984336853,0.5126650929450989,-10.002466201782227,0.050044773047782556,-0.14659907935040004,0.008592427451524696,2.8015865624894998,9.08263974328444,1.2542285549738421
1731474156.870688,-0.2599155902862549,0.5240530371665955,-9.9974946975708,0.046085921296878954,-0.14690575431730085,0.008457314981076302,2.756473896489409,8.646210879207231,1.2494564520623586
1731474156.9205627,-0.2969132363796234,0.4891177713871002,-9.995007514953613,0.042155874063639416,-0.14670200357476876,0.008319050302651562,2.761893076636939,8.676333782170648,1.2523954889671067
1731474156.9705002,-0.2969132363796234,0.4891177713871002,-9.995007514953613,0.03827114118139413,-0.14600839251472847,0.008178717284370076,2.7189750850917873,8.28469933520137,1.2476982431979355
1731474156.9705002,-0.2292598932981491,0.49995648860931396,-10.004132270812988,0.034446045490192825,-0.14484770022641033,0.008037126467933333,2.7190080939703143,8.28487371797861,1.2477161781975665
1731474157.0204966,-0.2579132318496704,0.4924958348274231,-10.007848739624023,0.0306927671650319,-0.14324451393492885,0.007894826669867194,2.7245507253068064,8.313772101354763,1.2507166864408559
1731474157.0704823,-0.24598565697669983,0.4703907370567322,-10.037233352661133,0.0270212932852367,-0.14122491838186518,0.007752053704230928,2.7301628697740883,8.342304263832398,1.253735411437274
1731474157.1203732,-0.2604096531867981,0.4892358183860779,-9.96359920501709,0.023439515276135456,-0.13881616070318345,0.007608684975905838,2.7359035698435936,8.370810796417473,1.2568083817998579
1731474157.1703653,-0.2412901222705841,0.49372807145118713,-10.008519172668457,0.019953462261975984,-0.13604634095882265,0.0074643419673041285,2.694131799613363,8.398330338257972,1.2519538459734056
1731474157.2202988,-0.25269076228141785,0.49582356214523315,-9.967084884643555,0.01656750639306024,-0.13294422593027755,0.007318600030068604,2.654789115766968,8.426011899306415,1.2473544449832221
1731474157.2702527,-0.29472479224205017,0.49913355708122253,-9.967273712158203,0.013284567817555059,-0.1295391201427685,0.007171148253063413,2.6602688796805616,8.453037728312152,1.2503682884957055
1731474157.3201697,-0.2970694601535797,0.489962100982666,-10.00029182434082,0.010106445133095027,-0.12586070259787333,0.007021876870099099,2.665811542452327,8.479913343036838,1.2534183817173947
1731474157.370167,-0.34497785568237305,0.48454904556274414,-9.985206604003906,0.007034249833534124,-0.12193881386262859,0.006870853759991732,2.6714353292251127,8.506763516392814,1.2565187740278922
1731474157.4200604,-0.34497785568237305,0.48454904556274414,-9.985206604003906,0.0040688253897805905,-0.11780321283239889,0.006718212679644857,2.6328236933887013,8.53273517738992,1.2517169697373367
1731474157.4200604,-0.33604687452316284,0.4833928644657135,-9.957088470458984,0.0012110543963972788,-0.11348335194544394,0.006564132554467148,2.633035798909681,8.533753699173868,1.2518363685541114
1731474157.4700716,-0.3997398614883423,0.48361581563949585,-10.031452178955078,-0.0015379803572400927,-0.10900820418549077,0.006408890310815523,2.638270053787092,8.558765435078953,1.2547915206145117
1731474157.5199513,-0.34380197525024414,0.5006750226020813,-9.992836952209473,-0.004176889700811557,-0.10440614411502566,0.0062527781566313525,2.6014359289392646,8.585010068822035,1.2501633607728377
1731474157.570007,-0.40116724371910095,0.47793707251548767,-9.987176895141602,-0.006703905866993641,-0.09970487235381359,0.006095944506408934,2.6066261596416,8.610051647651005,1.2531821191241692
1731474157.6199002,-0.3695700168609619,0.49243950843811035,-9.979872703552246,-0.009116893109470284,-0.09493133005160101,0.005938409713457884,2.571262555866799,8.63544887325903,1.2485833472022019
1731474157.6698487,-0.41193339228630066,0.5345649719238281,-9.984530448913574,-0.011413371223474775,-0.09011162671527473,0.005780212435784592,2.57632362001516,8.660254331546742,1.251628676809734
1731474157.7197323,-0.39578092098236084,0.5249258279800415,-9.9964017868042,-0.013590509441360744,-0.08527110011414919,0.005621476063122094,2.542260783088832,8.68496773154166,1.247068365212202
1731474157.7697887,-0.4148857295513153,0.5152393579483032,-10.009360313415527,-0.015645126706794788,-0.08043442291047687,0.005462348903010979,2.5471497588828185,8.709465873692242,1.250125018405246
1731474157.8206913,-0.38384121656417847,0.5252273082733154,-9.947656631469727,-0.01757374769534763,-0.07562555794800284,0.005302935816606569,2.514632389291023,8.73489626196638,1.2457765637229055
1731474157.8705866,-0.37471675872802734,0.512197732925415,-9.963825225830078,-0.019372772079945026,-0.07086760309890754,0.005143396508751001,2.519196868502752,8.758432123944699,1.248756111140297
1731474157.9205194,-0.39332878589630127,0.548274040222168,-9.980907440185547,-0.021038716155330463,-0.06618267667783038,0.004984139595485873,2.5239568244862984,8.78306751542716,1.2519099425462938
1731474157.970504,-0.3940364420413971,0.5331264734268188,-9.951216697692871,-0.022568367190149027,-0.061591895183020315,0.0048258703122143354,2.528433874016705,8.806357605972641,1.2549234457428116
1731474158.0204077,-0.3720216453075409,0.5273372530937195,-10.012054443359375,-0.023958816466035465,-0.05711537688431036,0.004669496022253703,2.5330830608152395,8.830701643492477,1.2581051551937548
1731474158.070431,-0.36154696345329285,0.5203379988670349,-9.981355667114258,-0.025207535759733637,-0.052772155806724785,0.004515978815055003,2.500108850386394,8.85362416851967,1.2532511021941406
1731474158.1203873,-0.33269548416137695,0.5211107134819031,-9.980409622192383,-0.026312578096286857,-0.048580021986240875,0.004366190653049635,2.504484357216684,8.877599945622157,1.2564103488474547
1731474158.170318,-0.3207956552505493,0.5135068893432617,-9.99845027923584,-0.02727283060098685,-0.04455538995396203,0.004220877134209233,2.472795017001195,8.900411522342864,1.2516381721605672
1731474158.2202368,-0.30687013268470764,0.5224953889846802,-9.994780540466309,-0.028088240574898705,-0.04071322260437594,0.004080666289891794,2.442725838832548,8.924103146407003,1.2471735583168995
1731474158.2701979,-0.3119085729122162,0.5182780623435974,-9.960308074951172,-0.02875995111568291,-0.037067002308940784,0.003946055697707854,2.4464665245798547,8.946631174988843,1.250152670342145
1731474158.3202002,-0.3232634663581848,0.5220323204994202,-9.994431495666504,-0.029290295767814452,-0.03362873971336301,0.003817473898292033,2.4503280150559346,8.970243117018258,1.253296952569196
1731474158.3702445,-0.28144803643226624,0.5371149778366089,-9.997028350830078,-0.029682695098721217,-0.030409008805305095,0.0036953418298238437,2.420677995951397,8.992704479759595,1.2486431065043597
1731474158.4200966,-0.28144803643226624,0.5371149778366089,-9.997028350830078,-0.029941608870839548,-0.027417022375731584,0.0035800007656727087,2.424193241471462,9.015628773180099,1.2517033974999503
1731474158.4200966,-0.31811031699180603,0.5085797905921936,-9.998974800109863,-0.030072545840225465,-0.024660701929253577,0.0034716105225170704,2.4242775736362314,9.01618395396844,1.2517777362642153
1731474158.4701083,-0.2963423728942871,0.5248386859893799,-9.973089218139648,-0.030081938699487693,-0.022146648924957164,0.0033701487756318217,2.395568030501921,9.038360850686688,1.2471495282170852
1731474158.5199509,-0.2880183458328247,0.5108221173286438,-10.006240844726562,-0.029976922507988654,-0.01988006498172995,0.003275486749825882,2.3988142769340355,9.06108576198731,1.250184601313391
1731474158.5699735,-0.2980497181415558,0.49068212509155273,-9.973512649536133,-0.02976521648953927,-0.01786470562585939,0.0031874471099708613,2.402021306334671,9.084016380857745,1.2532616661531668
1731474158.6198955,-0.2980497181415558,0.49068212509155273,-9.973512649536133,-0.02945506129883723,-0.016102821010965593,0.003105841057596877,2.4051342678624907,9.106764197631685,1.2563278487363696
1731474158.6198955,-0.31672346591949463,0.5230117440223694,-9.992152214050293,-0.029055080574308695,-0.014595118780861945,0.0030305335783240798,2.4051540768662294,9.106910569204715,1.256347621052572
1731474158.6698563,-0.3087119460105896,0.5085582733154297,-10.039146423339844,-0.02857408796715126,-0.013340880725295906,0.0029614129671367037,2.3766568203712874,8.641148034207095,1.2515912989766504
1731474158.719787,-0.37044280767440796,0.5171928405761719,-9.983965873718262,-0.028020869247165944,-0.012338169618583163,0.0028981956443088585,2.379519701269781,8.662591458140998,1.2546397401462694
1731474158.769825,-0.35450124740600586,0.50801682472229,-9.950888633728027,-0.02740389855519473,-0.011583966095094655,0.0028403607946331667,2.3519915514238376,8.247508985257923,1.249961730779262
1731474158.8206687,-0.35450124740600586,0.50801682472229,-9.950888633728027,-0.026731065360825867,-0.01107422572570687,0.0027874210155961693,2.354652064332443,8.268079595663917,1.2530357137459531
1731474158.8206687,-0.3457523584365845,0.5308553576469421,-10.02107048034668,-0.02600958868483754,-0.010803937158015892,0.0027391924279326872,2.354668116879257,8.268205260855586,1.25305452780576
1731474158.8708599,-0.3598632216453552,0.5240755081176758,-9.973990440368652,-0.025246090386986983,-0.01076724433375673,0.002695707412904473,2.357225938063091,8.288464476407533,1.256093083448962
1731474158.9206185,-0.3598632216453552,0.5240755081176758,-9.973990440368652,-0.024446651522335414,-0.01095760024443977,0.002656999904244964,2.3597002258007174,8.308522066313419,1.259112049700231
1731474158.9206185,-0.37419551610946655,0.5006221532821655,-9.971975326538086,-0.023616795414795617,-0.01136784028825778,0.0026231058965122188,2.3597159051270955,8.308650657679982,1.2591314388611454
1731474158.970634,-0.3892771303653717,0.5268489718437195,-10.022506713867188,-0.02276142686824746,-0.011990163998566547,0.002594128361885193,2.332380913033497,8.328650817527382,1.2542668352140494
1731474159.0204418,-0.42074161767959595,0.5047159194946289,-9.953629493713379,-0.02188472109138209,-0.012816135172191108,0.0025701568485370233,2.3346535928849788,8.348753318507876,1.257282547490995
1731474159.0705018,-0.4061630666255951,0.5313308238983154,-9.978107452392578,-0.020989975786866535,-0.013836751304731776,0.002551226231230718,2.3083310607518377,8.368843760450453,1.252507024518785
1731474159.1203768,-0.40526318550109863,0.5140536427497864,-10.022367477416992,-0.0200795439200148,-0.015042544366401381,0.0025373856753845856,2.2831129552158678,8.388905209602441,1.2479002347887134
1731474159.170345,-0.3965300917625427,0.502784788608551,-9.966509819030762,-0.01915493352399312,-0.016423656107874295,0.0025286544060134034,2.285041469300722,8.408873658383573,1.2508688107019474
1731474159.2203305,-0.38581791520118713,0.508468508720398,-9.955740928649902,-0.018217008911766877,-0.01796984187942613,0.0025249688897318896,2.2869275677199536,8.42884193650262,1.253850021450338
1731474159.2702694,-0.3934820294380188,0.535594642162323,-9.982986450195312,-0.017266193951784147,-0.019670480798836494,0.0025263275345069848,2.288771414442191,8.448784940069567,1.2568407826229389
1731474159.3201983,-0.35386738181114197,0.5342658758163452,-9.970437049865723,-0.016302652807705924,-0.021514717962587828,0.0025329107595842178,2.263847214419942,8.468633319877101,1.2520474032873
1731474159.3701587,-0.3599652647972107,0.5136325359344482,-9.988588333129883,-0.015326490475186035,-0.023491654535791457,0.0025450189047829387,2.265516597092915,8.488441869720251,1.2550152002858872
1731474159.4200087,-0.32312655448913574,0.5253065824508667,-10.006949424743652,-0.014337988686941496,-0.025590412581497007,0.002562944706199164,2.2414303049499744,8.508297301246364,1.2502969060031326
1731474159.4701254,-0.32851725816726685,0.5242536067962646,-9.958294868469238,-0.013337827303305112,-0.02780011201924316,0.0025868677416446446,2.2429334286606277,8.527883855387627,1.2532321616684137
1731474159.5200732,-0.32851725816726685,0.5242536067962646,-9.958294868469238,-0.012327229847078125,-0.030109890277040984,0.002616887466303023,2.244413808644615,8.547518374003467,1.2561918960775313
1731474159.5200732,-0.2989529073238373,0.5134327411651611,-9.978981018066406,-0.011308011359657468,-0.03250894786991629,0.0026531915613977513,2.2444256433610197,8.54767669557501,1.256215834525342
1731474159.5699933,-0.2976040542125702,0.528435468673706,-10.035711288452148,-0.010282607668088601,-0.03498656460294289,0.0026960691565470363,2.245859123137568,8.566979451813204,1.2591442369507517
1731474159.6201284,-0.2584826648235321,0.5214108228683472,-9.999695777893066,-0.009254164699502437,-0.037532124514373114,0.002745648179437471,2.2221088457179987,8.586505838000635,1.2542394467404128
1731474159.6698892,-0.29298895597457886,0.5123870372772217,-9.98195743560791,-0.008226632450247726,-0.04013516130022334,0.0028016787974176815,2.223426221721942,8.605836593995926,1.2571821843501698
1731474159.7198591,-0.2805013358592987,0.5189118385314941,-9.997715950012207,-0.007204739047627642,-0.04278537144640006,0.0028636103662403496,2.2247308986439123,8.625160948526206,1.260146886266778
1731474159.7697053,-0.25231388211250305,0.526025652885437,-9.983038902282715,-0.0061938529399982924,-0.04547261839864783,0.002930769978865157,2.2015647427298335,8.644016856570564,1.2551268359010297
1731474159.8196115,-0.2625800669193268,0.5331252813339233,-9.989421844482422,-0.005199899437634775,-0.04818699840474827,0.003002443301370357,2.202772341464949,8.663403175478047,1.2581185684339253
1731474159.870672,-0.25197145342826843,0.5226522088050842,-10.016423225402832,-0.0042293473690517445,-0.05091894036769104,0.0030778770752978328,2.203947997799088,8.682342951981404,1.2610683973397525
1731474159.9206076,-0.25197145342826843,0.5226522088050842,-10.016423225402832,-0.003289143892564463,-0.05365925413623869,0.003156198012062783,2.205112800199742,8.701128581427405,1.2640223907038697
1731474159.9206076,-0.2829984724521637,0.5082409381866455,-9.991646766662598,-0.002386571324208683,-0.05639910253713182,0.003236305702481914,2.2051199111678264,8.701243259732928,1.2640405129488794
1731474159.9705005,-0.28480449318885803,0.5353925824165344,-9.947487831115723,-0.0015290148209658608,-0.05912995736349755,0.003316944114974035,2.182368918263802,8.719651021199802,1.258859756132975
1731474160.0204332,-0.2747306227684021,0.5366898775100708,-10.02096939086914,-0.0007236881017211947,-0.06184363368965019,0.003396940924045617,2.160735462298963,8.739762964521589,1.2541627425050348
1731474160.0705328,-0.2890772521495819,0.5572153329849243,-9.990310668945312,2.2544931397663117e-05,-0.06453242588138436,0.0034752988414589185,2.161639303082163,8.756430300198403,1.256812846321061
1731474160.120394,-0.2890772521495819,0.5572153329849243,-9.990310668945312,0.0007032558571850925,-0.06718926975659184,0.0035510760561228392,2.162632166440317,8.774565770784298,1.2597296904448378
1731474160.120394,-0.30816128849983215,0.5108066201210022,-9.969518661499023,0.0013125521185662426,-0.06980780960196539,0.0036233492226663286,2.1626388912794705,8.774687925816453,1.259749459245715
1731474160.1703773,-0.3075338900089264,0.5318730473518372,-9.989680290222168,0.001845210792683702,-0.07238227976197653,0.0036913236465673043,2.163630319591084,8.79256555015135,1.2626617904769406
1731474160.220353,-0.3075338900089264,0.5318730473518372,-9.989680290222168,0.00229679110891071,-0.07490731789551486,0.0037543921475409687,2.142289836352173,8.81036411764839,1.2575426418204247
1731474160.220353,-0.3376113772392273,0.514896035194397,-9.994827270507812,0.0026637029059482474,-0.07737789301437598,0.0038120773945730024,2.14229573037571,8.810476581676554,1.2575611311908301
1731474160.2703774,-0.34983736276626587,0.5286862254142761,-9.962014198303223,0.002943299457270441,-0.0797892979836383,0.003863977548867014,2.1432223277986564,8.82798811136667,1.2604611724821522
1731474160.3201654,-0.3544542193412781,0.5517596006393433,-9.99022388458252,0.003134023286913302,-0.08213715513356142,0.003909809055251492,2.122644731040794,8.845244270972461,1.2553892065930998
1731474160.370143,-0.3516252934932709,0.5374683141708374,-9.990341186523438,0.003235497260647955,-0.08441750620405024,0.003949451955291975,2.102891997025276,8.862410067904882,1.2505218220397056
1731474160.4202018,-0.35329899191856384,0.519231379032135,-9.9598970413208,0.0032484881966698886,-0.08662689439354332,0.003982917766785031,2.1037040718164364,8.87946133192451,1.2534142921103022
1731474160.4702244,-0.3345542550086975,0.5284436941146851,-9.966591835021973,0.0031747772434257845,-0.08876230099421925,0.004010363419823375,2.1045215955598433,8.896238496551863,1.2563075301848907
1731474160.5200076,-0.3345542550086975,0.5284436941146851,-9.966591835021973,0.003016971924760097,-0.09082103229006769,0.0040321847415605355,2.1053485624003208,8.912824893077456,1.2592167941696277
1731474160.5200076,-0.3611922562122345,0.5078816413879395,-10.020652770996094,0.0027783270309914903,-0.09280067095532257,0.004049003086298633,2.1053537968375258,8.912928675321588,1.2592351565436632
1731474160.570008,-0.3498118817806244,0.5143244862556458,-10.008946418762207,0.0024626773360739156,-0.09469902981478161,0.00406144583739523,2.085918222672348,8.929039258189166,1.2541828686793859
1731474160.6198819,-0.33152875304222107,0.5191381573677063,-9.96742057800293,0.0020744221248404876,-0.09651408855495139,0.0040699221849073665,2.0866844805561366,8.945109241611442,1.2570718929768403
1731474160.6699362,-0.3189314603805542,0.520063042640686,-9.994635581970215,0.0016183916160684546,-0.09824399442733789,0.004074647002042872,2.06789839079497,8.960932001657426,1.2521314159294015
1731474160.7198498,-0.31146132946014404,0.49782794713974,-9.991044998168945,0.0010996016704065284,-0.09988709812869728,0.004075792564842742,2.068608578175567,8.976608431604111,1.2550270072403962
1731474160.7696915,-0.27925825119018555,0.5191643238067627,-9.976333618164062,0.0005230092596990378,-0.10144193734589822,0.004073534152478282,2.0504044819488225,8.947016735941963,1.2501169257606528
1731474160.8196826,-0.26903486251831055,0.5131709575653076,-9.989280700683594,-0.00010672364471201075,-0.10290721439060987,0.0040680495806677194,2.051047474971558,8.962136523623556,1.252987993111854
1731474160.8696597,-0.2614664137363434,0.5186227560043335,-10.001703262329102,-0.0007854572208919944,-0.10428183749041688,0.004059528688096311,2.0334202543177033,8.891931198008258,1.2482023696840943
1731474160.9207711,-0.2614664137363434,0.5186227560043335,-10.001703262329102,-0.0015097113697363173,-0.10556497995545172,0.004048112761263934,2.034008577362699,8.90664970888271,1.2511314165179233
1731474160.9207711,-0.2740640342235565,0.5009732246398926,-9.956851959228516,-0.002276666221507354,-0.10675609614111826,0.004033842042175108,2.034012708028891,8.906752418203647,1.2511520896193542
1731474160.9705622,-0.274027019739151,0.5083372592926025,-10.000702857971191,-0.003084051572092545,-0.1078548794553279,0.004016737927940637,2.016913590339259,8.843480482859109,1.24637516597831
1731474161.02048,-0.274027019739151,0.5083372592926025,-10.000702857971191,-0.003929995013690916,-0.10886120415470082,0.003996880494181667,2.000516275058279,8.787934183127772,1.2418179521072594
1731474161.02048,-0.2422710508108139,0.5382094979286194,-10.02502155303955,-0.0048129332129436125,-0.1097751420538101,0.003974303475008458,2.00051863166717,8.788006642338788,1.2418333201505423
1731474161.070523,-0.2966766655445099,0.5066756010055542,-9.966814994812012,-0.005731603859650344,-0.11059706212044633,0.003948850381102461,2.00094107285408,8.801076665224585,1.2446393217087206
1731474161.1204453,-0.24885393679141998,0.5543649792671204,-9.974495887756348,-0.006685000008785297,-0.11132772002802291,0.003920239040579155,2.001352733616612,8.814016647680866,1.247486969568724
1731474161.1704516,-0.2737577557563782,0.5325854420661926,-10.017370223999023,-0.007672279992207158,-0.11196832233968709,0.003888246569891317,2.0017431394814778,8.826572133891874,1.2503208810533235
1731474161.2202854,-0.2737577557563782,0.5325854420661926,-10.017370223999023,-0.00869271994967203,-0.11252057922922845,0.0038526973773979623,1.9854734865372152,8.773310951727144,1.2455979954687937
1731474161.2202854,-0.2906055152416229,0.5151991844177246,-9.989680290222168,-0.009745644355638619,-0.1129866610834958,0.003813279157524073,1.985475636281931,8.773396620238625,1.2456181681408254
1731474161.2703397,-0.3137006163597107,0.5183002948760986,-9.986680030822754,-0.010830264974907692,-0.11336905091391873,0.0037695114305032968,1.985761003533748,8.785161539059354,1.248426143483809
1731474161.3202085,-0.3137006163597107,0.5183002948760986,-9.986680030822754,-0.01194547721137603,-0.11367040805508304,0.0037209015420872934,1.9699417717882413,8.736384385639283,1.2437683997969857
1731474161.3202085,-0.3133438229560852,0.5345419645309448,-10.003192901611328,-0.01308970281143457,-0.11389352095651598,0.003667056861473286,1.9699435217978498,8.736489862033277,1.2437947208962574
1731474161.370244,-0.3098906874656677,0.528404951095581,-10.000290870666504,-0.01426085361729601,-0.11404134461170554,0.0036076571474728102,1.9546515198182248,8.69249046977376,1.2392649456852969
1731474161.4202275,-0.3098906874656677,0.528404951095581,-10.000290870666504,-0.015456395165473672,-0.11411704956292167,0.003542375671063448,1.9547293480257086,8.703271252556448,1.2420818035799366
1731474161.4202275,-0.33454248309135437,0.49304723739624023,-9.936529159545898,-0.016673411361680962,-0.1141239852881227,0.003470902118672854,1.954729736309625,8.703342269618856,1.2421006427274017
1731474161.470167,-0.3619610667228699,0.5299280881881714,-10.047443389892578,-0.01790856713358467,-0.11406555107753678,0.0033930736047866777,1.9547648527121955,8.713632277896185,1.2448715244025654
1731474161.5199888,-0.36124423146247864,0.5293492674827576,-9.995766639709473,-0.01915795631899777,-0.11394512212082733,0.003308853299596389,1.9547544829883734,8.723771451134416,1.247686165230658
1731474161.570011,-0.3769206404685974,0.5511707663536072,-9.91990852355957,-0.020416961365992584,-0.11376613937362787,0.0032182018320628778,1.9395071847111847,8.733617039278997,1.243023553851672
1731474161.6198852,-0.3783719837665558,0.543317973613739,-9.976374626159668,-0.02168021891426549,-0.11353226360561045,0.003121242357298188,1.9393400498660969,8.74321472669604,1.245831351339735
1731474161.6698837,-0.24439649283885956,0.7247949242591858,-9.980547904968262,-0.02294178576489512,-0.11324761660374841,0.0030185278496971703,1.9391174588860323,8.752510370739678,1.2486413967823506
1731474161.7198694,0.5133981704711914,1.6614665985107422,-9.919093132019043,-0.02419638049947089,-0.11291822442846537,0.0029110290081812316,1.9240230618081935,8.761533062879108,1.2439330182967094
1731474161.769799,0.2999531030654907,1.1952157020568848,-10.016883850097656,-0.02544256801101734,-0.11255560388240993,0.002800039278219663,1.9236281627820084,8.77022416423037,1.2467138210866189
1731474161.8197489,0.4892212450504303,1.505788803100586,-9.938413619995117,-0.02668614975367114,-0.11218011388224408,0.0026870985275506817,1.923166362519878,8.778677589856766,1.249515035023282
1731474161.8706505,-0.516516387462616,-0.022402653470635414,-9.965340614318848,-0.027940450824076556,-0.11182014127252385,0.002573887563693494,1.9082008330647109,8.786981530879332,1.2447952450283462
1731474161.9206002,-0.9550522565841675,-0.21024510264396667,-10.16689682006836,-0.02922192009959543,-0.11150571592757257,0.002462037100455467,1.8936717294312029,8.794869417238791,1.2401953698589514
1731474161.9705899,-0.7593311667442322,-0.04050649330019951,-10.03207015991211,-0.030543089693295358,-0.11125981185271824,0.0023525621245033884,1.8928950331400143,8.802453410658746,1.2429443391781019
1731474162.0203743,-0.5015047788619995,0.2697582244873047,-10.028075218200684,-0.031908100368093564,-0.11109376354800041,0.0022453183235750292,1.878614623794868,8.809718337760565,1.2383702103184204
1731474162.0706327,-0.6376875638961792,0.10086476802825928,-9.939265251159668,-0.0333132565782352,-0.11100867724758393,0.002139252062590727,1.877616844085396,8.816850671415143,1.2411394204407147
1731474162.1203902,-0.4812456965446472,0.29825708270072937,-9.977543830871582,-0.03474956489162303,-0.11099860473440823,0.0020331615023923793,1.876544342983361,8.823627692201747,1.2438841281847015
1731474162.1703827,-0.5795964598655701,0.24074093997478485,-9.958183288574219,-0.03620444881199453,-0.11105265508281276,0.0019262292540388089,1.8753849910868068,8.830118247544737,1.2466297981193288
1731474162.2203078,-0.5795964598655701,0.24074093997478485,-9.958183288574219,-0.03766264436797599,-0.11115636634967721,0.0018181620930951517,1.8610025939488863,8.836325710125106,1.2419029590389632
1731474162.2203078,-0.508014976978302,0.46040502190589905,-9.957934379577637,-0.03910674341429556,-0.11129283635777465,0.0017091641693855054,1.860989399158109,8.836385235202163,1.2419296350104105
1731474162.2702415,-0.508804440498352,0.4490143060684204,-9.982624053955078,-0.04051776066995223,-0.11144402612534088,0.0015998752147661744,1.859610526225128,8.842245183148107,1.2446189184800527
1731474162.320172,-0.48865872621536255,0.4541880786418915,-9.978496551513672,-0.04187591470883562,-0.11159223635600726,0.001491232268197651,1.8581112307668035,8.84790731224572,1.2473479493303483
1731474162.370213,-0.5410983562469482,0.4174778163433075,-9.919493675231934,-0.043161278135866,-0.1117209840091902,0.0013843501083536283,1.8437601230648164,8.853301404629887,1.2425711080989965
1731474162.4201007,-0.47556886076927185,0.47924375534057617,-9.938119888305664,-0.04435410594255158,-0.11181513547239122,0.0012806103791002657,1.8419964262357733,8.858412749825954,1.2452801590365772
1731474162.47022,-0.47460830211639404,0.529241681098938,-10.030539512634277,-0.04543510964405741,-0.11186098200147235,0.0011817648204869974,1.8401224489601202,8.863239909916283,1.2479895859566499
1731474162.5199964,-0.4850676357746124,0.5224998593330383,-9.974165916442871,-0.04638584880579415,-0.11184659709674993,0.0010896903817080303,1.8257841405862707,8.867780847689518,1.2431443486578047
1731474162.5699408,-0.48955443501472473,0.4771479666233063,-9.996931076049805,-0.04718904061107235,-0.11176214019098249,0.001006014854913933,1.8236334777404948,8.872050509986703,1.2458286365579994
1731474162.6199024,-0.4665283262729645,0.4885329604148865,-9.979948997497559,-0.04782867926140253,-0.11159974830636951,0.0009320196230959733,1.8094667217899612,8.876031389673606,1.2410357183703966
1731474162.669962,-0.46965348720550537,0.5105751752853394,-9.998185157775879,-0.048290142012010075,-0.11135321668068267,0.0008687134805760984,1.795571345089096,8.879737269574285,1.2364077374649258
1731474162.7198188,-0.4509274959564209,0.5246589779853821,-10.004263877868652,-0.04856035863043959,-0.11101785974317714,0.0008168457322805178,1.7929665171702562,8.883183986741388,1.2390474846880228
1731474162.7698064,-0.4414564073085785,0.5083518624305725,-9.974061965942383,-0.04862798021183327,-0.11059054948579485,0.0007768780325345358,1.7902584671182955,8.886331824808025,1.241671352470425
1731474162.8197534,-0.41812509298324585,0.5166147947311401,-9.975350379943848,-0.04848353879910202,-0.1100696915003997,0.0007490403149994259,1.776392734922165,8.889200460441618,1.236973109260611
1731474162.8696876,-0.38708367943763733,0.5227304100990295,-9.974908828735352,-0.048119630462895815,-0.10945509182546354,0.0007334767710736395,1.7733833666720502,8.891819086855998,1.2395884785729747
1731474162.9196005,-0.36882284283638,0.5231413841247559,-9.979649543762207,-0.04753113040374597,-0.10874783166587007,0.0007303436138222106,1.75960240983914,8.894135961992927,1.2349318736074582
1731474162.970591,-0.3273898661136627,0.5379171371459961,-10.020581245422363,-0.04671541199324714,-0.10795018814169088,0.0007397692278528233,1.7562567114064682,8.896244549122164,1.2375669176999466
1731474163.0204976,-0.3273898661136627,0.5379171371459961,-10.020581245422363,-0.0456725244478695,-0.10706557445605912,0.0007616771312385746,1.7528717726621057,8.898034520308451,1.24014331466975
1731474163.0204976,-0.3707225024700165,0.505232036113739,-9.976547241210938,-0.04440521243894764,-0.10609844713722524,0.0007956125967470401,1.7528540395151107,8.898043053841537,1.240156593359469
1731474163.070438,-0.3476724922657013,0.5362069010734558,-9.949875831604004,-0.04291865399807241,-0.10505411983147678,0.0008408288022761405,1.7493756913958813,8.899561484500476,1.242722503487968
1731474163.1203568,-0.3835640251636505,0.5246970653533936,-9.991329193115234,-0.04122003264996399,-0.10393856712624588,0.0008965921151589458,1.735523998401442,8.900819701349564,1.237904252960368
1731474163.1703653,-0.3614824414253235,0.5287243723869324,-9.99287223815918,-0.039318154026120884,-0.10275832131647632,0.0009623337135236089,1.731778597148341,8.901831035345863,1.240462234703278
1731474163.2202575,-0.377625972032547,0.5039097666740417,-9.963214874267578,-0.037223154545239855,-0.10152037547562028,0.0010375578116082432,1.718068085223403,8.902574166244253,1.2356928300928995
1731474163.2702463,-0.3766827881336212,0.5053097605705261,-10.006082534790039,-0.034946273242471494,-0.10023200053242076,0.0011217647368528053,1.7140922485937073,8.903080274489945,1.2382314148193443
1731474163.3201778,-0.37935033440589905,0.516689121723175,-9.970401763916016,-0.032499648324986814,-0.09890054852645548,0.0012144462148601755,1.700553934404663,8.903323824590045,1.233525878056268
1731474163.3702471,-0.40080633759498596,0.4964871406555176,-10.002296447753906,-0.02989610595267822,-0.09753334012043038,0.0013150602455650486,1.696381006971003,8.903334334569424,1.2360403524945793
1731474163.4201424,-0.38300633430480957,0.5083088278770447,-10.015450477600098,-0.02714894277936014,-0.09613760314152786,0.0014229752016162052,1.692152890392337,8.903103696961166,1.2385486943867312
1731474163.470025,-0.443865567445755,0.4779611825942993,-10.014248847961426,-0.024271701525144882,-0.09472038411983308,0.0015373568371797731,1.6788442733049493,8.902623029382905,1.2337766750980703
1731474163.5200374,-0.3783123791217804,0.5307408571243286,-9.943964958190918,-0.021277943261888265,-0.09328846285808481,0.0016571176650064406,1.6744461426770383,8.901918764117866,1.2362720990369829
1731474163.569949,-0.4149475693702698,0.529784619808197,-9.995633125305176,-0.018181110388502782,-0.09184838929066874,0.001781100362576428,1.6613999844738754,8.900972337492062,1.231560157546235
1731474163.6199312,-0.4006003737449646,0.5575022101402283,-9.984058380126953,-0.014994518038931096,-0.09040667183626541,0.001908294246489552,1.6486223934934987,8.899792292929387,1.2270195242901893
1731474163.6698508,-0.4396592080593109,0.5405032634735107,-9.956144332885742,-0.01173130985823307,-0.0889699680121072,0.0020378634422734167,1.6440642834830999,8.898412522955454,1.2294561308053713
