Timestamp,IMU_Linear_Acc_X,IMU_Linear_Acc_Y,IMU_Linear_Acc_Z,Filtered_X,Filtered_Y,Filtered_Z,Pose_X,Pose_Y,Pose_Z
1739326272.4964254,0.03178052604198456,0.7631704807281494,-10.022298812866211,4.1213235310530046e-08,1.3062363172029256e-06,-6.547291416759397e-09,0.9539073707300298,2.492052845332701,-7.433318318376409e-09
1739326272.546752,-0.010908814147114754,0.765127420425415,-10.018908500671387,3.2579717641075374e-07,1.1543434496870067e-05,-5.480457618325329e-08,0.9537009862899016,2.4923461275262864,-7.666871528959589e-09
1739326272.5964427,-0.03847985342144966,0.753372073173523,-10.025917053222656,1.2589647999550572e-06,5.143393530153593e-05,-2.3716093158430064e-07,0.9503099351248803,2.4919758554075777,-2.507037185117093e-09
1739326272.646372,-0.075781911611557,0.742132306098938,-10.024394035339355,3.2150390413825275e-06,0.00015772799765980723,-7.250956541824816e-07,0.9497572043434849,2.492502735930918,-3.2244249158965682e-09
1739326272.6964827,-0.0716271847486496,0.7392581105232239,-10.030472755432129,6.145792908773807e-06,0.00038149724213922963,-1.787067966036027e-06,0.9494381995770448,2.492806952095704,-4.235747903876838e-09
1739326272.7465005,-0.05692571401596069,0.725893497467041,-10.043753623962402,9.334020657603892e-06,0.0007851509652794243,-3.8179337228608375e-06,0.9484329408240056,2.492798147140741,-1.456940258916527e-09
1739326272.796446,-0.032946206629276276,0.718952476978302,-10.03471565246582,1.1441301875433375e-05,0.001439730468404093,-7.387621882001551e-06,0.9482202814381877,2.4930461856158503,-5.743084775762658e-09
1739326272.8472493,0.004959456622600555,0.7003092169761658,-10.04233169555664,1.0799829318236415e-05,0.0024224499153463327,-1.3273192162206582e-05,0.9467293775137389,2.493842506769484,-9.74374575009079e-09
1739326272.8963645,0.036110881716012955,0.6981768012046814,-10.046332359313965,5.834201031559094e-06,0.003814462182898266,-2.2452038541040267e-05,0.9456059222218992,2.494573607707987,-1.0440499882169933e-08
1739326272.946376,0.06310538202524185,0.6897039413452148,-10.04687213897705,-4.490919140794133e-06,0.00569886626853261,-3.609300970422852e-05,0.9451364837094778,2.4949258162845767,-4.517846414019017e-08
1739326275.9462247,0.02367030642926693,0.6984164118766785,-9.979256629943848,-2.0349459409589012e-05,0.008158982678358719,-5.5492440850091624e-05,0.8985033100762606,2.527644847319373,-6.276216522704153e-05
1739326275.9970737,0.0035826668608933687,0.6933435797691345,-9.964773178100586,-4.104893435554875e-05,0.011276897362074689,-8.18359437893109e-05,0.8980742966993959,2.5281381401569933,-6.48173899111783e-05
1739326276.047059,0.0035826668608933687,0.6933435797691345,-9.964773178100586,-6.533419176948837e-05,0.015132232234059219,-0.0001159147404247575,0.9030743818924232,2.518065112660568,-2.0962663747417563e-05
1739326279.0966394,0.037225306034088135,0.7702184915542603,-10.06760025024414,-9.169216058843654e-05,0.019801149613334228,-0.00015813668763603561,0.8735615274447838,2.530106108742015,-0.00018194717701367099
1739326279.1466541,0.0037921699695289135,0.7665433883666992,-10.05114459991455,-0.00011843191015327095,0.02535568462594652,-0.00020894540247141656,0.8764860381619507,2.5177384113965555,-8.687328229799671e-05
1739326279.1966567,-0.03624005615711212,0.7522644996643066,-10.03896713256836,-0.0001437261721026185,0.03186328656146644,-0.0002693073138248121,0.8761415194597635,2.518128030966937,-9.109826179989359e-05
1739326279.2466424,-0.03624005615711212,0.7522644996643066,-10.03896713256836,-0.0001658578363556019,0.03938625069752169,-0.00034085139869191453,0.8759760476275558,2.5183287823015448,-9.324347626222084e-05
1739326282.2963622,0.2147674858570099,0.7649338841438293,-10.051137924194336,-0.00018330584121217753,0.04798103288527117,-0.00042572006368190126,0.8560776108995201,2.5370200715515607,-0.0004974480298264819
1739326282.3463027,0.18820233643054962,0.7751866579055786,-10.054302215576172,-0.00019403209291151476,0.057697700301679415,-0.0005264444374034073,0.8558109329472549,2.5390130824392902,-0.0005178257951716325
1739326282.3963585,0.1673087477684021,0.7808219194412231,-10.061698913574219,-0.00019438531528694178,0.06857959481789169,-0.0006459167830886617,0.8555531870437474,2.5409953431056675,-0.0005380395805757068
1739326282.4462907,0.13101793825626373,0.7787236571311951,-10.07181167602539,-0.00017874450274994714,0.08066310870369373,-0.0007873845315303164,0.858254706638861,2.4967128296298293,-0.00012820868271236254
1739326282.496319,0.0753815770149231,0.7734084129333496,-10.075247764587402,-0.00014005797478421872,0.0939774872373765,-0.0009544438435461528,0.8581370348627583,2.4970093632024133,-0.00013227606929036906
1739326282.5461996,0.020430538803339005,0.7614398002624512,-10.063356399536133,-7.069595849048226e-05,0.10854469586787377,-0.0011509356558567197,0.8580473110825492,2.4857357799419963,-3.612696770729244e-05
1739326282.5962007,-0.032880689948797226,0.7518945336341858,-10.046921730041504,3.668614576775131e-05,0.12437947606490564,-0.001380542873394149,0.8574282247055017,2.4824547015455525,-1.4681239817283959e-05
1739326282.646191,-0.09902404993772507,0.7440938949584961,-10.040006637573242,0.0001883436941143904,0.14148953082815785,-0.0016461843206352074,0.8572341748413538,2.4823743400921434,-1.6412040019791312e-05
1739326282.6962335,-0.09902404993772507,0.7440938949584961,-10.040006637573242,0.00038876153073435864,0.15987562282047474,-0.0019496139510364495,0.857009049999603,2.4823497947723707,-1.9242823377282e-05
1739326282.7462401,-0.19362854957580566,0.7056571245193481,-10.03139591217041,0.0006401614060569434,0.17953154660424853,-0.0022913590218646344,0.856711910928143,2.4802074243976753,-4.879743948251234e-06
1739326282.7962887,-0.21226531267166138,0.6977738738059998,-10.012974739074707,0.0009421420374273185,0.20044405410585364,-0.0026707850940387123,0.8565472020733782,2.4802324063503076,-8.103931915196611e-06
1739326282.8462286,-0.206285297870636,0.6945979595184326,-10.002567291259766,0.00129141633479504,0.22259280290836495,-0.0030861240390955037,0.8559485256591004,2.4791090711632275,-3.237638073356871e-06
1739326282.8962426,-0.1894509196281433,0.6678622364997864,-9.987316131591797,0.001681851857495526,0.2459504218733934,-0.0035344589027656004,0.8551947736431041,2.478229522436669,-3.1682983837212168e-06
1739326282.9461358,-0.15443475544452667,0.6582975387573242,-9.977095603942871,0.0021049187275286683,0.270482682094958,-0.0040117135448745084,0.854954593628808,2.478257546507587,-7.508866742258703e-06
1739326282.9962611,-0.08851215988397598,0.6426063776016235,-9.97618293762207,0.0025504116586467012,0.29614870181470776,-0.004512680191333262,0.8547031996129484,2.4784597069840943,-1.4676189414647161e-05
1739326283.046173,-0.03359857574105263,0.6503034234046936,-9.979589462280273,0.003007348925091403,0.32290121968959284,-0.005031113484827666,0.8545143560030686,2.476949787023872,-4.845953165034974e-06
1739326283.096144,0.043757155537605286,0.6525284051895142,-9.975540161132812,0.003464994116098727,0.3506869048256346,-0.005559977904072481,0.8543599752515632,2.477210447643282,-1.3165038994744364e-05
1739326283.1461544,0.12085320055484772,0.6569215059280396,-9.985916137695312,0.003913937789734462,0.379446517964253,-0.006091955380082755,0.8537743521417455,2.476052223444188,-4.690624602373224e-06
1739326283.196241,0.19013045728206635,0.670385479927063,-9.994824409484863,0.004347147976474092,0.4091150097796519,-0.006620075709468697,0.8535874223736893,2.4762826184357,-1.2142366672804212e-05
1739326283.246157,0.23964089155197144,0.6929693818092346,-10.017227172851562,0.0047608186595825604,0.4396219492005775,-0.0071381552928418,0.8528964256181446,2.475178825215048,-6.59320331905119e-06
1739326283.2962048,0.26864540576934814,0.723859429359436,-10.025845527648926,0.0051548778585698805,0.47089236677172563,-0.0076410002772464005,0.8526426121657523,2.4755320892681527,-1.7150766436077812e-05
1739326283.3461654,0.28842854499816895,0.7509612441062927,-10.048317909240723,0.005533135950165181,0.5028477661273054,-0.008124534613443582,0.8521776209564298,2.474186930464161,-7.915335341362861e-06
1739326283.3961458,0.29162049293518066,0.7744124531745911,-10.05955696105957,0.005903125768018537,0.5354071298239527,-0.008585910379561554,0.8512378045366102,2.4730323238824976,-6.731508060291802e-06
1739326283.4461515,0.26228854060173035,0.8060681223869324,-10.066794395446777,0.006275687460407579,0.5684878538847692,-0.009023581778803831,0.8506431752562401,2.472217971941229,-7.88399659320745e-06
1739326286.3968031,0.06251265108585358,0.7016041874885559,-10.092938423156738,0.00666415869401805,0.6020064821025852,-0.009437332827970721,0.8252309042086425,3.127713460182754,-0.010717949137012725
1739326286.4467573,0.10542477667331696,0.7296968102455139,-10.090364456176758,0.007083011425044884,0.635879039462219,-0.00982827783807218,0.8251918977046552,3.140007320628264,-0.010912921183235532
1739326286.4961834,0.11172279715538025,0.7402848601341248,-10.079658508300781,0.007546461147596617,0.6700211183277066,-0.010198812291798774,0.8222008614597659,2.6713598102799634,-0.0035263044742928954
1739326286.5467374,0.11172279715538025,0.7402848601341248,-10.079658508300781,0.008067871282621193,0.7043482413775991,-0.010552350894147952,0.8220610418224059,2.6794964473692446,-0.003656398992848233
1739326286.5958388,0.10945557057857513,0.7525417804718018,-10.032756805419922,0.008659929687319181,0.7387766862745463,-0.010892676807202083,0.8201184824380695,2.5111366333041687,-0.0010100616978188212
1739326286.6457696,0.0974588543176651,0.7516291737556458,-10.009332656860352,0.009334955966148608,0.7732244126870418,-0.011223051072811487,0.8190650676623263,2.4704604997247674,-0.0003785856756202333
1739326286.697187,0.07900667935609818,0.7443007230758667,-9.982142448425293,0.010104927676347429,0.8076116775937326,-0.0115455079015118,0.8187367133040063,2.471789497280643,-0.000402440641399526
1739326286.7458215,0.06422175467014313,0.7353811860084534,-9.967520713806152,0.010981229001301846,0.8418612794244902,-0.011860516524669854,0.8185126876716019,2.4730025220384775,-0.0004231243392387558
1739326286.795866,0.06422175467014313,0.7353811860084534,-9.967520713806152,0.011974330108679345,0.8758986339466395,-0.012166886868707885,0.8175044047224366,2.4522004939644826,-0.00010092282948655641
1739326286.8466923,0.04538324102759361,0.7070493698120117,-9.950396537780762,0.013093542408540614,0.9096518165919754,-0.012461822943450437,0.8173309234968541,2.4531610701014106,-0.00011598636232791212
1739326286.8957386,0.04538324102759361,0.7070493698120117,-9.950396537780762,0.01434685399638086,0.9430515723780308,-0.012741063878343655,0.8164556491405577,2.447395076056092,-3.469051311331946e-05
1739326286.9456944,0.009355733171105385,0.6839717626571655,-9.96040153503418,0.0157407896942137,0.9760312963952206,-0.01299906614365421,0.8161867145348988,2.448136631003305,-4.712323881707156e-05
1739326286.995808,0.009355733171105385,0.6839717626571655,-9.96040153503418,0.01728025423931391,1.0085270267064061,-0.013229248153618709,0.8153985850774813,2.445830518556054,-1.9303842870689752e-05
1739326287.0466647,-0.03959224745631218,0.6733860969543457,-9.982516288757324,0.018968355983082268,1.040477475908594,-0.013424298665431246,0.8150302384217023,2.447118836875811,-3.941663791829013e-05
1739326290.096348,0.022663021460175514,0.7559708952903748,-10.027778625488281,0.020806130646982328,1.0718241243982276,-0.013576620844462383,0.791653834123148,3.6749401115251197,-0.015786938512917202
1739326290.1463094,-0.03573492914438248,0.7240250706672668,-10.017610549926758,0.022792003335870177,1.1025113740831407,-0.013679056421835348,0.7920071965146777,3.7155947244265777,-0.016303597918526275
1739326290.196304,-0.08839549124240875,0.703668475151062,-10.01032829284668,0.02492108965964179,1.132486654543099,-0.013725640539457927,0.792513965369638,3.7722699083304905,-0.01702333431556934
1739326290.2462268,-0.13816618919372559,0.6722379326820374,-10.002890586853027,0.027184672409106384,1.1617003713906557,-0.013711904423533004,0.7765166573731515,2.756112933841421,-0.004122662690836052
1739326290.2963107,-0.1532355099916458,0.6479225754737854,-9.988656044006348,0.02956999638658974,1.1901057391337955,-0.013634734823340912,0.7764966100668165,2.7646309287133577,-0.004230234876789666
1739326290.3462932,-0.15914657711982727,0.6279911994934082,-9.990739822387695,0.03206035988005248,1.2176586099890687,-0.013492119918322153,0.7718982775297107,2.519775786688457,-0.0011254006909647983
1739326290.3962803,-0.13305093348026276,0.6110497117042542,-9.979114532470703,0.03463551268340298,1.2443173620372654,-0.013282934179676196,0.7715769471467824,2.5240921157364262,-0.001179223104838712
1739326290.4463065,-0.10357794910669327,0.6054540872573853,-9.973458290100098,0.03727234223278998,1.2700428709984628,-0.013006766170796944,0.7712732230464949,2.5295779212290346,-0.0012455792933749388
1739326290.4962318,-0.053288958966732025,0.6104996204376221,-9.978949546813965,0.03994577063438197,1.294798580819989,-0.01266377506942238,0.771055556202446,2.5346578841101945,-0.0013054920274406347
1739326290.5462172,-0.0067689926363527775,0.6276150345802307,-9.985836029052734,0.04262976668052292,1.3185506926168569,-0.01225460175116912,0.7693004411423875,2.448461220662984,-0.0002219916556422566
1739326290.596335,0.05111655592918396,0.6404147148132324,-9.992438316345215,0.04529838097973457,1.3412684660179715,-0.011780362061471015,0.7673373150931995,2.4377291309776066,-8.753591294740543e-05
1739326290.6462605,0.1088101789355278,0.6727147698402405,-9.998241424560547,0.047926884425572,1.3629245826212235,-0.011242688924272628,0.7663424587941234,2.433722823522195,-3.873570118635839e-05
1739326290.6962762,0.14661966264247894,0.699303388595581,-10.006891250610352,0.05049322492717422,1.3834955283237182,-0.010643781205080617,0.7657762674398292,2.435465651603576,-5.446077495227678e-05
1739326290.746235,0.17813117802143097,0.7387186288833618,-10.029716491699219,0.05297949918050448,1.402961985442592,-0.00998646097114169,0.764735792391915,2.4322664985361966,-2.0164390937689954e-05
1739326290.796338,0.18089817464351654,0.7714622020721436,-10.048544883728027,0.05537272160201833,1.4213092241268528,-0.009274269111116347,0.764316243472675,2.4340177403759986,-3.360272548787249e-05
1739326290.8462539,0.1820252537727356,0.7882896065711975,-10.054254531860352,0.057664773084707126,1.4385274417602871,-0.008511589993791166,0.7639098303501326,2.43671580033149,-5.304978684684003e-05
1739326290.896247,0.16087491810321808,0.8145096302032471,-10.058534622192383,0.05985193575615033,1.4546119728307312,-0.007703726619507634,0.7633711694594166,2.4316404603465385,-1.290816126068802e-05
1739326290.9462647,0.12827134132385254,0.8166506886482239,-10.052311897277832,0.06193424031209962,1.4695633375737285,-0.006856863876616326,0.7617511915805931,2.4312535509263458,-8.97769864864014e-06
1739326290.9962747,0.07573611289262772,0.8276057243347168,-10.039905548095703,0.06391465731479878,1.4833871451379332,-0.005977921867525905,0.761342976603368,2.4332359228564666,-1.8864090988997327e-05
1739326291.0461955,0.03972604125738144,0.8110270500183105,-10.034186363220215,0.06579817496120825,1.4960938591972313,-0.005074329192246736,0.7599732235341334,2.4313918187049195,-8.066862509899064e-06
1739326291.0962367,-0.013251998461782932,0.7977767586708069,-10.028419494628906,0.06759086603842408,1.5076984235681707,-0.004153772042606186,0.7596037248779803,2.4333515674035517,-1.5399370006207652e-05
1739326291.1462486,-0.06007957458496094,0.7743715047836304,-10.027313232421875,0.06929903249351416,1.5182197617445894,-0.003223982335650158,0.7592641428487311,2.4362586089190965,-2.5109791540351536e-05
1739326291.1962147,-0.08968205004930496,0.7497202157974243,-10.012711524963379,0.07092828355962766,1.5276802669542937,-0.0022925628445031377,0.7585141415224171,2.4313600420431793,-5.708005771524323e-06
1739326291.2461662,-0.10852262377738953,0.7166584730148315,-10.012287139892578,0.0724822833317471,1.5361054575432367,-0.0013667921622671705,0.7564855711175393,2.431066268941253,-3.4712480394882986e-06
1739326291.296302,-0.10116638988256454,0.6885637640953064,-10.008687019348145,0.07396151580716019,1.5435237190214415,-0.00045342486041200175,0.7556420515599322,2.4331964204264978,-5.9381412130786905e-06
1739326291.346164,-0.08359967172145844,0.6568057537078857,-10.009446144104004,0.07536286178665502,1.5499658655466797,0.0004414252284156533,0.7551416187212028,2.431101939510083,-1.7020180876905005e-06
1739326291.3961945,-0.05031276494264603,0.6419680714607239,-10.003220558166504,0.07668006773424241,1.5554645243135654,0.001312310008258915,0.7547806211553763,2.4331278765979665,-1.7314053832987724e-06
1739326291.446241,-0.016252387315034866,0.6209249496459961,-10.01016902923584,0.07790458091451774,1.560053562300741,0.002154439216854981,0.7544443378303197,2.4362826006745975,-6.509145633585732e-07
1739326291.4962516,0.019082888960838318,0.6143246293067932,-10.00365161895752,0.07902644117543975,1.5637676513013261,0.002963658538255588,0.7540614800169555,2.4312668611296258,8.964022338914803e-07
1739326291.5461528,0.04397161304950714,0.6056339144706726,-10.004253387451172,0.08003512707436405,1.5666419555108444,0.0037364183755438226,0.7539107391358648,2.4335949890344546,4.499731691504573e-06
1739326291.5962548,0.04397161304950714,0.6056339144706726,-10.004253387451172,0.08092025230810608,1.5687119230713447,0.004469749087471646,0.7525906184430007,2.4307972198595547,2.405834095008193e-06
1739326291.64617,0.0978083461523056,0.6521179676055908,-10.007257461547852,0.08167207075112713,1.5700132046869646,0.005161232881542305,0.7510939397066436,2.4305968718271167,3.472251498898296e-06
1739326291.6961672,0.11825404316186905,0.6666205525398254,-9.994046211242676,0.08228189775588995,1.570581763003304,0.00580896880997577,0.7505864063645836,2.4334040042595584,1.243591302574912e-05
1739326291.7461965,0.12431260198354721,0.6962127089500427,-10.008691787719727,0.08274271261178506,1.5704540816833434,0.006411547741655365,0.7503365073043351,2.4357225339373403,2.0307023754136564e-05
1739326291.7961605,0.11953623592853546,0.7303661108016968,-10.005105018615723,0.08305016230231196,1.56966724178878,0.00696800921869417,0.7493726146985011,2.4307390204067403,6.208658425696513e-06
1739326291.846162,0.10949406027793884,0.7576290369033813,-10.006180763244629,0.0832035773038369,1.568258889414769,0.007477760143876423,0.7476045914758097,2.430401100191151,6.4694257748890025e-06
1739326291.896157,0.0931859165430069,0.7905817031860352,-10.031595230102539,0.08320624224611084,1.5662673149314958,0.007940483683697125,0.7469437783511017,2.432802266950416,1.78271885418873e-05
1739326291.9460664,0.0684056207537651,0.812770664691925,-10.024710655212402,0.0830648906595697,1.5637316462670545,0.008356027221609108,0.7465056438390221,2.4353147041719025,3.0062008235632507e-05
1739326291.996106,0.04204021021723747,0.8186371326446533,-10.031888961791992,0.08278894595477847,1.560691992488372,0.008724281528947591,0.746346169642149,2.4306752160120193,9.65900530240375e-06
1739326292.0460513,0.01610739715397358,0.8153890371322632,-10.042119026184082,0.0823897629218303,1.5571894269630326,0.009045107628858339,0.7461377519769101,2.432727669509745,2.084438481179207e-05
1739326292.0961497,0.006379387807101011,0.798149585723877,-10.035439491271973,0.08187992730642882,1.5532657771744487,0.009318298486385202,0.745913727779126,2.4371712747137653,4.5754978390598156e-05
1739326292.1460698,-0.02228357084095478,0.7796103954315186,-10.023170471191406,0.08127267102500216,1.5489632499530068,0.009543575953146016,0.745098673666448,2.4301981918969826,8.688485372791469e-06
1739326292.1960745,-0.05120181292295456,0.7489570379257202,-10.024860382080078,0.0805813809931454,1.5443239512837932,0.009720664990045449,0.7437345316918692,2.429844268150765,7.78907678027668e-06
1739326292.2460997,-0.05120181292295456,0.7489570379257202,-10.024860382080078,0.07981915547415752,1.539389378864555,0.009849396978244555,0.7434009535204595,2.4317358509472458,1.969717868545258e-05
1739326292.2960982,-0.07073520869016647,0.6950898766517639,-10.020197868347168,0.07899828727638315,1.5341999867407852,0.009929769628982673,0.7419161750648482,2.430410103206807,1.2656736123881864e-05
1739326292.3459725,-0.08007971942424774,0.6670675873756409,-10.020514488220215,0.07812939937938809,1.5287948445427124,0.009961980095976947,0.7416319347418175,2.4321387237219003,2.3897951684459023e-05
1739326292.3961053,-0.06776031851768494,0.6563056111335754,-10.008890151977539,0.07722044323185796,1.5232113198995272,0.009946467631085322,0.7413094561877945,2.435242677744429,4.4101234659773685e-05
1739326292.4460087,-0.07008939981460571,0.6440262794494629,-10.011725425720215,0.07627628997517791,1.5174847871306398,0.009883963729452792,0.7405252016436231,2.430122001648474,1.1742010860215422e-05
1739326292.4961762,-0.040042366832494736,0.635692298412323,-10.01634407043457,0.0752990371118914,1.5116484355167732,0.009775521132096277,0.7403181481398988,2.4325187094038347,2.7419988742612852e-05
1739326292.5459526,-0.006077165715396404,0.6407330632209778,-10.016565322875977,0.07428859829213115,1.505733190017452,0.009622490167737273,0.7390752764180609,2.4298384422205417,1.0591857604826422e-05
1739326292.5960696,0.03745102509856224,0.6438995003700256,-10.002344131469727,0.07324339483379756,1.4997677322713083,0.00942647284835784,0.7376899826656633,2.429529845661825,9.125173588330631e-06
1739326292.646004,0.07946428656578064,0.6516478657722473,-10.00633430480957,0.0721611193696452,1.493778611924203,0.009189320394158016,0.7373264611713791,2.431328297074585,2.0643442763145197e-05
1739326292.6961684,0.1432405710220337,0.6783259510993958,-10.014837265014648,0.0710395033980658,1.4877904268018893,0.008913150175632111,0.7369662267057883,2.4343271033888736,3.951747769039599e-05
1739326292.7459247,0.18359901010990143,0.685495138168335,-10.016030311584473,0.06987705690704486,1.4818260656016198,0.008600304216101227,0.7360504566235381,2.4298232278468896,1.1272320174262618e-05
1739326292.7960744,0.2009681910276413,0.7053667306900024,-10.021288871765137,0.06867370364968804,1.4759069790031936,0.008253256230512837,0.735869242504587,2.431737237779872,2.266043566254088e-05
1739326292.8459313,0.2098224014043808,0.7255297303199768,-10.02079963684082,0.06743140959136242,1.470053424648706,0.007874536001441364,0.7346391400784053,2.429639320360011,9.58188277769444e-06
1739326292.8961794,0.2098224014043808,0.7255297303199768,-10.02079963684082,0.06615520040720023,1.464284668293769,0.007466709311790421,0.7333794798305081,2.429439942170651,7.974026886566468e-06
1739326292.945958,0.15544182062149048,0.7589414715766907,-10.023404121398926,0.06485424619710842,1.4586191368244827,0.007032395103638688,0.7330411021763485,2.43131441591335,1.768337120418764e-05
1739326292.9959338,0.11538437008857727,0.7730221152305603,-10.02546501159668,0.06354195396265527,1.4530745570188077,0.0065742668837886304,0.7327231434324379,2.4342373903335575,3.234656339274736e-05
1739326293.045898,0.06130452826619148,0.7891879081726074,-10.024843215942383,0.062234956571289884,1.4476681167715129,0.006095020479894617,0.7318760028410141,2.4296819230155586,8.329435833386319e-06
1739326293.0959547,0.0046994430013000965,0.7940021753311157,-10.033416748046875,0.06095178150999292,1.4424165937242877,0.005597331221134774,0.7301118343458854,2.429486172399975,6.673214387590324e-06
1739326293.1460104,-0.0463157556951046,0.787090003490448,-10.024320602416992,0.059711610081212924,1.4373363778327364,0.005083813461068893,0.7288012694673535,2.4293642466031335,5.587646223605352e-06
1739326293.1960285,-0.09471875429153442,0.7764145135879517,-10.027386665344238,0.05853317606861299,1.4324433666010334,0.004556998807758568,0.7281892135537751,2.431524939017155,1.341033239119222e-05
1739326293.2460234,-0.1385323703289032,0.7722699046134949,-10.030855178833008,0.05743384677960872,1.4277527603963809,0.004019337915914372,0.7274729280615614,2.429562013872077,5.486921821779775e-06
1739326293.2959828,-0.15188416838645935,0.7485559582710266,-10.015013694763184,0.05642892433654165,1.423278818701649,0.0034732072961602472,0.7270578650159778,2.431446852859519,1.11020705306598e-05
1739326293.3459506,-0.1510859727859497,0.7241567969322205,-10.007274627685547,0.05553122889975361,1.4190345934647595,0.0029209468434103123,0.7266603506328226,2.4342820996841303,1.8907836689651733e-05
1739326293.3960075,-0.13325364887714386,0.697881817817688,-9.997346878051758,0.054750707070875884,1.4150315921702217,0.0023649343488135453,0.7254248084087367,2.4290746772815437,2.6911065738580126e-06
1739326293.4459112,-0.09924961626529694,0.6692602634429932,-9.994298934936523,0.054093467864539044,1.41127934896405,0.0018076107611518719,0.7241467735910768,2.4292332179771567,2.386917653566568e-06
1739326293.4958696,-0.05253222584724426,0.6574517488479614,-9.990589141845703,0.053560628999505276,1.4077850023376757,0.0012514332055003176,0.7236401653752569,2.4311242460838454,4.995364597756814e-06
1739326293.5459833,-0.006991670001298189,0.6468945145606995,-9.996569633483887,0.05314821827556606,1.4045530491881535,0.0006988327845912327,0.722812173976515,2.4298855321532287,2.1820062389447446e-06
1739326293.5958936,0.03825981542468071,0.6355271339416504,-9.990370750427246,0.05284821444676906,1.4015853205909505,0.00015219775856026077,0.7225801288317102,2.431511561263774,3.277683934545993e-06
1739326293.6460938,0.10238315165042877,0.642263650894165,-10.002575874328613,0.05264986069292016,1.3988810919771795,-0.00038614942106838265,0.7223251388428933,2.434240385068746,4.537803389399759e-06
1739326293.6958685,0.10238315165042877,0.642263650894165,-10.002575874328613,0.05254083302242476,1.396437278514464,-0.000913996025263974,0.7217050110441876,2.4297550550747022,6.469733566916789e-07
1739326293.7459667,0.17062824964523315,0.6628463268280029,-10.035114288330078,0.052508187148043825,1.3942487176826488,-0.00142932594112325,0.7214989740088449,2.4323142608767254,-4.170698283685856e-07
1739326293.79585,0.1732536107301712,0.6734296083450317,-10.030014991760254,0.05253908413408062,1.392308526614281,-0.001930464903898366,0.7205803154683628,2.4294048742722003,-4.985830648858243e-07
1739326293.8459322,0.17250286042690277,0.689893901348114,-10.037426948547363,0.052621326982921005,1.3906084989965772,-0.002416224823983038,0.7192009429805124,2.4292141344255023,-1.1498856652417769e-06
1739326293.8961465,0.17250286042690277,0.689893901348114,-10.037426948547363,0.05274363699230127,1.3891394796137944,-0.0028859626504546603,0.7187611168289515,2.43117839839023,-4.3060052588268526e-06
1739326293.9459164,0.1323593705892563,0.724712610244751,-10.040836334228516,0.052895916658675726,1.387891701640759,-0.003339514662468958,0.7183750314206228,2.434047779054237,-9.534928118211814e-06
1739326293.995933,0.10310955345630646,0.7389981150627136,-10.032784461975098,0.05307004123572192,1.3868551715804598,-0.003776965900533438,0.7179224298981223,2.4296339126169575,-3.034290519795209e-06
1739326294.0459218,0.0727422907948494,0.752525806427002,-10.024622917175293,0.05326085155654448,1.386020099926187,-0.004198318392943047,0.7166911235302245,2.4292329638751182,-2.8496013921689007e-06
1739326294.096179,0.027760734781622887,0.7572404146194458,-10.015766143798828,0.05346634202030411,1.3853772168129055,-0.0046032486327069804,0.7161705907767192,2.43099907487815,-7.955228509084035e-06
1739326294.1458805,0.008536781184375286,0.762014627456665,-10.009011268615723,0.05368697161260946,1.38491789928184,-0.004991009298191917,0.7152804336989269,2.4297160753526166,-5.206109171704681e-06
1739326294.1958082,-0.013955616392195225,0.7769639492034912,-10.005833625793457,0.0539248058778948,1.3846341949184413,-0.00536039550064377,0.7150410017344353,2.4313602832818404,-1.08955342703224e-05
1739326294.2458146,-0.02584807388484478,0.7812466621398926,-10.011490821838379,0.05418285099815617,1.3845188308407512,-0.005709752190205884,0.7147833988299195,2.434148416221761,-2.0984647912690487e-05
1739326294.2958188,-0.02584807388484478,0.7812466621398926,-10.011490821838379,0.054464585866406054,1.384565219869984,-0.006037040038406685,0.7138313814972274,2.429658909451479,-6.049829436562672e-06
1739326294.345841,-0.05056348070502281,0.7741847634315491,-10.019041061401367,0.05477364599370633,1.38476741634681,-0.006339946337233134,0.7135452970379789,2.432598246150762,-1.8417895540747126e-05
1739326294.395845,-0.0452243909239769,0.7679367065429688,-10.013063430786133,0.05511358832088276,1.385119995154257,-0.00661600356865499,0.7124251338154716,2.4291665344197546,-4.741189109712452e-06
1739326294.4458303,-0.0476020909845829,0.7657831907272339,-10.019939422607422,0.055487710189429634,1.3856178873069258,-0.006862684960503242,0.7121007332532036,2.430865994859184,-1.2582888613774133e-05
1739326294.4961886,-0.031055087223649025,0.7364623546600342,-10.019619941711426,0.05589880181341775,1.3862562175468536,-0.007077504518748206,0.7107707250644308,2.4293978843599313,-6.505359248133591e-06
1739326294.5459602,-0.022407634183764458,0.723529040813446,-10.017606735229492,0.05634854195491705,1.3870301460341616,-0.007258185833791684,0.710273062611252,2.4320353201389526,-1.975029664042672e-05
1739326294.5957873,-0.016085321083664894,0.6891168355941772,-10.019269943237305,0.05683673228203624,1.3879346732347355,-0.007402852020056038,0.7100349781895318,2.4340319761823466,-2.992589285751569e-05
1739326294.645763,0.007780249696224928,0.6658875942230225,-10.017864227294922,0.05736103151775108,1.388964374380823,-0.007510115713173132,0.7093048285908043,2.4295319094482655,-8.251334008420419e-06
1739326294.6961133,0.029155954718589783,0.6553735136985779,-10.01337718963623,0.05791729698839951,1.3901131056949687,-0.0075790618806578424,0.7080487174214986,2.4292069407772425,-7.3146735618068986e-06
1739326294.745858,0.04926108196377754,0.6332689523696899,-10.004718780517578,0.05850013508998444,1.391373783705531,-0.007609181436510944,0.7077688074957729,2.430965553198661,-1.6935606812181903e-05
1739326294.795826,0.06945927441120148,0.618114709854126,-10.01742172241211,0.059103429385991266,1.3927382659352077,-0.007600290703064025,0.7062702941558937,2.4293176672427816,-8.768459565594455e-06
1739326294.845849,0.08314958214759827,0.6091951727867126,-10.004716873168945,0.059720795223179274,1.394197289607382,-0.007552477413642463,0.7058725941020523,2.4312975713247797,-1.9702041417773964e-05
1739326294.8961556,0.09438396990299225,0.6198505759239197,-10.009846687316895,0.06034594037728417,1.3957404845037238,-0.007466074215268078,0.7054924908742984,2.434370363503999,-3.653458648571539e-05
1739326297.9454925,0.2489621639251709,0.7806293368339539,-10.080760955810547,0.06097305759351429,1.3973566555608563,-0.007341692828975455,0.731343297165956,4.045811020292544,-0.008502207436749872
1739326297.995429,0.26400768756866455,0.7909297347068787,-10.0856351852417,0.061597508410669743,1.399034576669287,-0.007180450953452303,0.7333425066291948,4.101258431930367,-0.008793471427791764
1739326298.0454035,0.25931671261787415,0.7956081628799438,-10.09087085723877,0.06221689175769819,1.4007640628285847,-0.006984253413828218,0.6861829373585103,2.9746208402808954,-0.002872415287423186
1739326298.0954494,0.20847748219966888,0.7832081317901611,-10.062925338745117,0.06283235608908525,1.4025367422809647,-0.0067556964393605135,0.6704515609729275,2.6337690862660508,-0.001081168753626735
1739326298.145449,0.14639295637607574,0.7396870851516724,-10.046347618103027,0.06344953588002478,1.4043462746803799,-0.006497563637051914,0.6638151558665131,2.508881174474354,-0.0004245995374953246
1739326298.1964028,0.06665260344743729,0.719048798084259,-10.014616012573242,0.06407826540581697,1.4061880696960394,-0.00621231318661788,0.6631179021071532,2.5131221836886075,-0.00044580267179131065
1739326298.2454174,0.0005765344831161201,0.6781384348869324,-9.984172821044922,0.06473120093829313,1.4080586996119637,-0.005901726706532501,0.6602396547160138,2.4527865072366333,-0.0001289746058049393
1739326298.2963805,-0.06860844790935516,0.6421551704406738,-9.975107192993164,0.06542221799391838,1.4099552629595569,-0.0055666360357272526,0.6598995569299843,2.4550321019550236,-0.00013910794096344035
1739326298.3464086,-0.12829618155956268,0.6062547564506531,-9.960799217224121,0.06616502534022278,1.4118748022336436,-0.005206737599999277,0.659535969101926,2.4584793283502333,-0.00015409934536066798
1739326298.3963168,-0.16450805962085724,0.6001304388046265,-9.969183921813965,0.0669720538954458,1.4138138131825009,-0.004820557008888871,0.6576027340770958,2.4319322771485976,-1.9245669899128123e-05
1739326298.4463694,-0.16168752312660217,0.5954272747039795,-9.967585563659668,0.0678536929710794,1.415767945041358,-0.004405556770178609,0.6563777075830762,2.4307386240002886,-1.1705267156058274e-05
1739326298.4963777,-0.14390410482883453,0.6175376176834106,-9.989291191101074,0.06881797143847464,1.4177319531989978,-0.003958350245316186,0.6560773167047393,2.432365356340594,-1.694046769530603e-05
1739326298.5463998,-0.0922841876745224,0.6415082216262817,-10.009661674499512,0.06987069745023389,1.4196998855818612,-0.003475001525330144,0.6551376922540767,2.429918690682399,-6.623543530392023e-06
1739326298.5962827,-0.044519297778606415,0.6865189075469971,-10.041586875915527,0.0710156864727863,1.4216653567953972,-0.002951449376547788,0.6548123997963419,2.4318877793887745,-1.1731522788423602e-05
1739326301.5960834,0.0506700836122036,0.6978116035461426,-9.994831085205078,0.07225445644344639,1.4236216487135933,-0.0023840427118027273,0.6916964689848545,4.03151510877078,-0.00268690574208398
1739326301.646001,0.05931861326098442,0.752040445804596,-10.035439491271973,0.07358565570458307,1.4255616694916027,-0.0017699554644048814,0.651047250464251,3.200062348944916,-0.0012936933812794887
1739326301.6959522,0.07010293006896973,0.8101147413253784,-10.044329643249512,0.07500512093877595,1.4274781770035387,-0.001107344028113791,0.6517623600316798,3.2198671010164466,-0.0013263190652106447
1739326301.7460084,0.056305233389139175,0.8607994914054871,-10.064455032348633,0.07650646661228236,1.4293644052429966,-0.00039543254463981966,0.6529650314855685,3.2527093022402105,-0.0013792589361773377
1739326301.7960398,0.04249882698059082,0.8937232494354248,-10.070762634277344,0.07808154239940163,1.4312147947093146,0.00036537053801199076,0.6212948024965272,2.6088186961193456,-0.00030230530592593704
1739326301.8461857,0.009911278262734413,0.9042836427688599,-10.075918197631836,0.07972062693334146,1.4330255299373031,0.0011734130889302114,0.6213707701952934,2.6154978667393243,-0.0003106747318531462
1739326301.8959553,-0.029603775590658188,0.89715975522995,-10.055456161499023,0.08141245582908828,1.4347947621446269,0.00202585405139263,0.6135192868173209,2.4782919512463457,-8.226870184901836e-05
1739326301.9459577,-0.06158120930194855,0.8636794686317444,-10.050775527954102,0.08314412850570493,1.436522497706639,0.0029188490163030603,0.6132774830987398,2.482105589562684,-8.23496206279633e-05
1739326301.9959745,-0.09577567875385284,0.8137609958648682,-10.030264854431152,0.08490097616961513,1.4382101804475373,0.003847833687950027,0.6106350608203178,2.4424899997339247,-2.1043918363595604e-05
1739326302.0460196,-0.10332898050546646,0.7720134854316711,-10.012886047363281,0.08666649427065709,1.4398600420132837,0.00480783740523776,0.6103322037349588,2.445300075884626,-1.6044954814569035e-05
1739326302.096201,-0.08877648413181305,0.7207254767417908,-10.00925350189209,0.08842240172045597,1.4414743926088522,0.005793755546167699,0.610154237422636,2.4482884660209754,-9.142924831580343e-06
1739326302.1459882,-0.04326304793357849,0.6911798119544983,-10.0206937789917,0.0901488538949218,1.443055056098623,0.006800460638614999,0.6087126081907068,2.432241080129005,6.220168900290302e-07
1739326302.195948,-0.0065606641583144665,0.6654221415519714,-10.006081581115723,0.09182489109951121,1.4446030021554688,0.007822739610414003,0.6072989800759743,2.4297316309073214,3.7143358444090603e-06
1739326302.2459438,0.03553107753396034,0.65696120262146,-10.019558906555176,0.09342916859301037,1.4461181023381977,0.00885523741973639,0.6070485764493186,2.431292920230062,1.1616252051877512e-05
1739326302.29602,0.07379098981618881,0.6469355225563049,-10.015810012817383,0.09494081306098578,1.447598995524634,0.009892489525120427,0.6055663351785077,2.428966562282285,7.84816492452726e-06
1739326302.3459234,0.10956665128469467,0.6263898015022278,-10.037657737731934,0.09634020613506594,1.4490430705500392,0.010928950508891094,0.6052259449913585,2.4310363967968054,2.149140712441742e-05
1739326302.3958554,0.14286834001541138,0.6216239929199219,-10.038474082946777,0.09760962672841095,1.4504465021948798,0.011958964817315811,0.6049654871406509,2.4338826614730444,4.141177278686219e-05
1739326302.4461563,0.16055302321910858,0.6064459085464478,-10.024272918701172,0.09873374003478518,1.451804299829327,0.012976734421253855,0.6040643511285673,2.4286419542979623,1.1652034481128335e-05
1739326302.495936,0.14470849931240082,0.6017738580703735,-10.02601146697998,0.0996998825929399,1.4531103842698256,0.0139763731746686,0.6022974106677269,2.428288494647721,1.2152563964304383e-05
1739326302.5459008,0.11908980458974838,0.5901102423667908,-10.021071434020996,0.10049805682904121,1.4543576930973916,0.014952039963752916,0.6008254627813469,2.4284225725608075,1.6062504927678038e-05
1739326302.5958345,0.11908980458974838,0.5901102423667908,-10.021071434020996,0.10112065111486157,1.4555383056662976,0.01589806139955045,0.5996942897696916,2.427796105342315,1.1611432513891053e-05
1739326302.6461804,0.08259601891040802,0.5813363194465637,-10.001115798950195,0.1015622062706352,1.4566434646803599,0.016809022704335968,0.5992484881205864,2.4295117508744295,3.0375322732000202e-05
1739326302.6958313,0.027925614267587662,0.6288955211639404,-9.982440948486328,0.10181958439569107,1.4576633013990645,0.01767987704197909,0.598866143755833,2.432108495669289,5.9571343660939464e-05
1739326302.7461238,0.0018930159276351333,0.6713503003120422,-9.997383117675781,0.10189224335697195,1.4585865586580364,0.01850608374199353,0.5984157907253267,2.428068425361749,2.002035440980801e-05
1739326302.7957833,-0.019438086077570915,0.7004450559616089,-10.010140419006348,0.10178203425378665,1.4594008834000363,0.019283678884512337,0.5964847694035018,2.427311072883634,1.7138358270414127e-05
1739326302.8458235,-0.020531082525849342,0.7237724661827087,-10.041403770446777,0.10149263149009544,1.460093586549684,0.02000917646894458,0.5951771932474544,2.427053579791316,1.835831621877117e-05
1739326302.89582,-0.022767428308725357,0.7815264463424683,-10.04468822479248,0.10102905713808022,1.460652396726791,0.020679337284414356,0.594593038131828,2.4286692708249733,4.211510476382775e-05
1739326302.945836,-0.01193072646856308,0.8326612710952759,-10.052950859069824,0.10039741992384613,1.4610661379165442,0.021290946439165456,0.59401969179412,2.427125450402056,2.5157726119935992e-05
1739326302.9958217,-0.00899425521492958,0.8457173705101013,-10.046443939208984,0.0996047900915475,1.4613253946826552,0.02184070866793154,0.5937236744539458,2.4288041486092506,5.0700119498919995e-05
1739326303.046146,-0.009083441458642483,0.8582231402397156,-10.045513153076172,0.09865913318172895,1.4614230085048576,0.022325268441873873,0.5932467442018285,2.426642667894493,2.401779220731671e-05
1739326303.0961487,-0.009083441458642483,0.8582231402397156,-10.045513153076172,0.09756923310278029,1.4613542667153039,0.022741296650958538,0.593115201383812,2.428693987678377,5.6201349883334205e-05
1739326303.1459105,-0.009769917465746403,0.8547393083572388,-10.02470874786377,0.09634458061923148,1.4611168444450597,0.023085600660289717,0.592129908294794,2.4266134857204786,3.1496572399013385e-05
1739326303.1957653,-0.007406500168144703,0.841340959072113,-10.00426197052002,0.09499516846847851,1.460710838746021,0.023355284424099294,0.5919941740450322,2.4284446915973255,6.15730387432314e-05
1739326303.245798,-0.004255333449691534,0.8082399964332581,-9.993392944335938,0.09353107035239894,1.4601393538039442,0.023547985904133557,0.5910284891721814,2.426058528774706,2.8457742417337994e-05
1739326303.295757,-0.0007244525477290154,0.7709879875183105,-9.99549388885498,0.09196193397346153,1.4594092770838702,0.02366210612189873,0.5908672862127813,2.427574602255751,5.393317847010711e-05
1739326306.295636,0.01775699481368065,0.5994861721992493,-9.958792686462402,0.09029674301912224,1.4585311425547753,0.02369694469720833,0.6545271686401879,4.061802717784749,0.026687574823434455
1739326306.345677,0.0904095396399498,0.5882502198219299,-9.94853401184082,0.0885439720091962,1.4575178249522263,0.023652808056888474,0.6061084782892273,3.206873671490228,0.012762473578623592
1739326306.3954961,0.12148598581552505,0.6440327167510986,-9.974593162536621,0.08671204105405322,1.4563830440611052,0.023531113466629693,0.6076839738401293,3.235395466287473,0.013224068982125442
1739326306.445573,0.1552416980266571,0.7032022476196289,-10.001436233520508,0.08480989771869576,1.4551407006739787,0.02333431813989993,0.6095750893932,3.2695537055281014,0.01377677619328549
1739326306.495574,0.13994209468364716,0.7160611152648926,-10.015267372131348,0.08284744969884525,1.4538050915756153,0.023065599029268767,0.5715754861443695,2.6084319007445584,0.0030069113551183654
1739326306.5461857,0.12173174321651459,0.7559559941291809,-10.057236671447754,0.08083565018563463,1.4523913411362834,0.02272843453367988,0.5719204455783751,2.6164736619883664,0.0031347221903912457
1739326306.595445,0.10648050904273987,0.8179248571395874,-10.059087753295898,0.0787862519561016,1.4509156895332707,0.022326214467744642,0.5633278290976809,2.476908634452579,0.0008513546320927932
1739326306.6454723,0.09536254405975342,0.8294347524642944,-10.061159133911133,0.07671140745125102,1.4493957315521793,0.021861947485602735,0.5633850187588454,2.4818458124132525,0.0009254458743163754
1739326306.695458,0.06942325830459595,0.8727295994758606,-10.060917854309082,0.07462334983232673,1.447850643131173,0.02133819560393511,0.5608366278550051,2.440723814898822,0.0002495454066311838
1739326306.7454503,0.03997349739074707,0.8663738965988159,-10.07366943359375,0.07253429538617699,1.4463013294223956,0.0207572904852726,0.5608352258536748,2.442543687144049,0.00027482864374640267
1739326306.795408,0.028842458501458168,0.8115191459655762,-10.078521728515625,0.0704564333205601,1.4447703615408174,0.02012162915499999,0.5608738903022623,2.4457832056285387,0.0003200128735040222
1739326306.846207,0.047568179666996,0.7716141939163208,-10.041808128356934,0.06840179628592515,1.4432814732092247,0.01943382552686109,0.559510296403535,2.4304426231053506,4.6322307273366603e-05
1739326306.895423,0.052336856722831726,0.7320958971977234,-10.030291557312012,0.06638210554620283,1.441858663210789,0.018696807573680814,0.559486362820393,2.4323706874280187,6.79523740928542e-05
1739326306.9455285,0.0274342130869627,0.7493816018104553,-10.041685104370117,0.06440871382317168,1.4405253015102277,0.017913973719644725,0.5594950298915898,2.435312908328121,0.00010210845402295522
1739326306.9953644,0.07344714552164078,0.6933333873748779,-10.042585372924805,0.06249255958143876,1.4393035139575507,0.01708926625454921,0.5590650384929358,2.431217699415595,3.0069093820883977e-05
1739326307.0453784,0.11452297121286392,0.6635551452636719,-10.041309356689453,0.06064419319963466,1.4382137418518464,0.016227088284448667,0.5590847650194591,2.4340131204206594,5.996735500515191e-05
1739326307.0953548,0.11452297121286392,0.6635551452636719,-10.041309356689453,0.05887400523104683,1.4372743051523837,0.015332183905443265,0.5591253752936656,2.4365521797808474,8.734639875641859e-05
1739326307.1454387,0.17791587114334106,0.613696813583374,-10.040678977966309,0.05719252577519193,1.4365010360523518,0.014409554930949036,0.5588577314781723,2.4329451491517147,2.6890404515221743e-05
1739326307.1953542,0.1928771585226059,0.5897975564002991,-10.013785362243652,0.05561067825281678,1.435907019796525,0.013464420817594287,0.5588938023842276,2.434873620733328,4.4822744266705787e-05
1739326307.245408,0.22011998295783997,0.5190375447273254,-9.984662055969238,0.054140144231020926,1.4355019931158333,0.012502207943413534,0.558852850985902,2.4341552417317938,1.9716773662865298e-05
1739326307.295386,0.19369174540042877,0.4633530378341675,-9.961210250854492,0.052793987332180256,1.4352907452742465,0.01152847515482761,0.5590202406517992,2.435059970073439,1.3447691083956658e-05
1739326307.345421,0.13457199931144714,0.4993549585342407,-9.945160865783691,0.051587154119353884,1.4352711125754292,0.010548788816476876,0.5591263667049863,2.4373642263219697,2.86259533102529e-05
1739326307.3953161,0.07485197484493256,0.5811156630516052,-9.927617073059082,0.05053618801816106,1.435433301839634,0.009568726335813491,0.559277414747867,2.4408665209459435,5.2091516009139646e-05
1739326309.5950992,0.11688552051782608,0.8074838519096375,-10.029462814331055,0.04965828027533924,1.4357611660966596,0.008593921131780986,0.6398338758913671,4.154360976994581,0.009821850997506267
1739326313.146104,0.07024984061717987,0.5636685490608215,-9.948006629943848,0.0489704259479604,1.4362343759969982,0.0076298772383306965,0.704218181469835,4.51257738014859,0.009579042126025145
1739326316.1453238,0.10716341435909271,0.6846073865890503,-10.00141716003418,0.04848897085825139,1.4368299872019956,0.006681702891574,0.716850052073074,4.768263571838385,0.008422407878407248
1739326318.9950466,0.02733530104160309,0.9026080965995789,-10.125389099121094,0.04822930506419498,1.4375232379728888,0.005753898384728749,0.7022720317596135,5.500774069864534,0.008204426499393996
1739326322.3461895,0.016070397570729256,0.9455722570419312,-10.077580451965332,0.04820546738167302,1.4382888591006093,0.004849905709880785,0.7070482375452383,6.009400703302644,0.0070182651436993876
1739326325.64526,0.06151125580072403,0.8151203989982605,-9.967947959899902,0.048429703234865874,1.4391028321326138,0.003971709411716597,0.7241485197197841,6.156414373750605,0.005169770733100771
1739326325.6952543,0.044264283031225204,0.7530177235603333,-9.9741792678833,0.04891227311379476,1.4399430505839104,0.0031201834186598207,0.6906677944167093,5.1424395973577575,0.0024501855594200386
1739326325.7451744,-0.033707644790410995,0.8298875689506531,-10.005790710449219,0.049661243723750845,1.4407890433999238,0.002295864960896554,0.6918263536894727,5.174113775277314,0.0025287583999420663
1739326325.79517,-0.04007265344262123,0.8709391951560974,-10.011981964111328,0.0506814182149842,1.4416226254247548,0.0014993551618801737,0.6702190515292886,4.5038314157497386,0.0007225997488561983
1739326325.8452053,-0.055935777723789215,0.7628928422927856,-10.00162410736084,0.051972752303937726,1.4424295673298335,0.0007313039501428376,0.6655686150679245,4.340574639740338,0.0002692584196622778
1739326328.6448302,-0.3494296967983246,0.6100605726242065,-9.95608901977539,0.05352934920272646,1.4432002064287277,-7.609287696578367e-06,0.747496970864934,6.317975241910833,1.2864947123750734e-05
1739326331.6446552,-0.04160210117697716,0.8440666198730469,-10.008909225463867,0.05533905565231574,1.4439284568286548,-0.000716554423847986,0.7177156809797778,7.037385374248085,-0.0008697051836423264
1739326334.8451445,0.04384720325469971,0.6537270545959473,-9.990042686462402,0.05738392138341375,1.444610850494634,-0.0013944865217317198,0.7804764057755873,7.4050509412297,-0.0018009506871582632
1739326337.7948334,0.018186697736382484,0.7674616575241089,-10.070066452026367,0.05964200272328926,1.445246233083434,-0.0020403152770234,0.8756291648947102,7.966917921780267,-0.00330462572535517
1739326340.594774,0.09205745160579681,0.6580005288124084,-9.992889404296875,0.06208935419379222,1.4458354338307484,-0.0026532000292547866,0.9777688800817423,7.3341421973627,-0.003639736624994266
1739326343.9941318,-0.14920328557491302,0.5330512523651123,-9.949207305908203,0.06470097067646033,1.4463806072096994,-0.0032326269965893433,0.9819736366766533,7.576743948569227,-0.004932733957386857
1739326347.0447683,-0.06994841247797012,0.8254435658454895,-10.095420837402344,0.06745070482506635,1.4468844852281246,-0.0037782061663759127,0.8945339583756078,7.534044035820446,-0.005013384473649367
1739326349.5947351,0.1159278005361557,0.8008586764335632,-10.030942916870117,0.07031103085492248,1.4473503376148549,-0.00428969577789466,0.9020339739119534,7.765750723628614,-0.006195536045850715
1739326353.3939219,-0.006876599509268999,0.7680551409721375,-10.080222129821777,0.07325373368350946,1.447782658502145,-0.004767323320192076,0.969764533654626,7.71100311870366,-0.0069920312477956045
1739326353.5442212,-0.019051088020205498,0.7008723020553589,-10.052427291870117,0.07625115434197052,1.4481870927278433,-0.005211829554027645,0.9733460858078076,7.771891384394157,-0.007192536044359143
1739326353.743902,0.11361667513847351,0.6531197428703308,-10.004878997802734,0.07927692582528813,1.448569204381439,-0.005624138689725012,0.9768875168891089,7.832173164218662,-0.007391429210902094
1739326353.7939565,0.12211785465478897,0.6572815775871277,-10.006855964660645,0.08230645299221778,1.4489332841400473,-0.006004946657478902,0.8805753642362236,6.068906355652941,-0.0017099742647690066
1739326353.8439312,0.1300780177116394,0.6855121850967407,-9.993688583374023,0.08531756351227288,1.4492818885946994,-0.0063543970117654,0.8814632567772847,6.082856047182488,-0.0017580287044242447
1739326353.893914,0.12141843140125275,0.6885302662849426,-9.996491432189941,0.08829090993199569,1.4496159704882265,-0.006671946104967699,0.8612700441542165,5.675544150939404,-0.0004679717061660735
1739326356.6446586,-0.02215622551739216,0.6771057844161987,-9.960966110229492,0.09120978843002277,1.4499352385407438,-0.006956359352741798,0.9827414214670666,7.065227018756388,-0.008310830481405879
1739326359.9942796,0.20528312027454376,0.7052897214889526,-9.98607063293457,0.09405960884406715,1.4502384591674529,-0.007205710534193987,1.0241605305641637,7.692998144117176,-0.01235116910866034
1739326360.1941996,0.0375700518488884,0.7009579539299011,-9.98074722290039,0.09682761965015994,1.4505236911760506,-0.007417418943511196,0.9150851310822958,6.0827510638341264,-0.004344816682431738
1739326360.2442286,-0.024827132001519203,0.7242546081542969,-10.003693580627441,0.0995028356631736,1.4507885418277064,-0.007588410396253911,0.8776348899181249,5.536695459554164,-0.0016644466575658988
1739326363.0939853,-0.10271397978067398,0.681959867477417,-10.013066291809082,0.10207540953060477,1.4510303857329647,-0.007715371050763049,0.9471279577627901,6.568004071528115,-0.008881750866380074
1739326366.1434796,0.06653463840484619,0.6863983869552612,-10.02023696899414,0.10453564489544624,1.4512464114956622,-0.007795086776245033,0.9916343409236197,6.70195519686971,-0.010296758495046993
1739326369.344111,-0.05710446089506149,0.7140073776245117,-9.96742057800293,0.10687344668528832,1.4514335176755866,-0.007824887011095343,1.0151123390441903,6.435954109214403,-0.009749003051104124
1739326369.3940902,-0.04560299962759018,0.7007502913475037,-9.956439971923828,0.10907811867637802,1.4515882824052484,-0.007802947337484902,1.020463870372745,6.502086315510956,-0.010117432165958803
1739326369.444195,-0.02459249272942543,0.6896259784698486,-9.966666221618652,0.11113818523792043,1.4517070683647355,-0.007728220178427523,1.0249265461127615,6.557296252537534,-0.0104247989094611
1739326369.4941168,-0.02459249272942543,0.6896259784698486,-9.966666221618652,0.11304145431136656,1.4517860928713409,-0.0076002276613998205,0.9121635748541507,5.107901851799897,-0.0024925410451756445
1739326369.5441716,0.011009288020431995,0.667650580406189,-10.005369186401367,0.11477541343354883,1.4518214152915567,-0.0074190170323092065,0.9131278409651448,5.119034553121948,-0.0025572502046721846
1739326369.5941951,0.05350422114133835,0.6641637086868286,-10.014229774475098,0.11632775587966268,1.451808899753706,-0.0071852881477207035,0.9144824089565998,5.134744366067211,-0.002647861203861174
1739326369.644103,0.09306666254997253,0.6803411245346069,-10.049017906188965,0.1176869815165146,1.4517441965201954,-0.006900601077579805,0.8848809413384423,4.749072019269517,-0.0005529487723323045
1739326369.694087,0.1266324818134308,0.677708625793457,-10.053165435791016,0.11884303666473175,1.4516228165217813,-0.006567576335931229,0.8852033474373923,4.751827608583262,-0.0005713769157116634
1739326369.744019,0.13986577093601227,0.6816818714141846,-10.060935974121094,0.11978784942573649,1.451440290771877,-0.006190011518156574,0.8795273367160887,4.6709814496114666,-0.000153791023950512
1739326369.7940311,0.15903235971927643,0.688653826713562,-10.064453125,0.12051566322120225,1.4511923211970017,-0.00577287480561573,0.8786323705521765,4.649471770113536,-6.23919330838507e-05
1739326369.844063,0.1773625761270523,0.706411600112915,-10.060993194580078,0.12102340106985528,1.4508749416351816,-0.005322119172447817,0.8790021569841394,4.650357253618049,-7.415002421476705e-05
1739326369.894132,0.17228302359580994,0.7252411246299744,-10.037870407104492,0.12131152489506741,1.4504847929410047,-0.004844204908357556,0.8793680757715011,4.651938589717469,-8.65499722455055e-05
1739326369.9441001,0.143179252743721,0.7280348539352417,-10.029267311096191,0.12138504965145469,1.450019467351396,-0.004345427851907167,0.8784362500135224,4.634865460089492,-1.8948201554437235e-05
1739326369.9941595,0.11977934092283249,0.741773784160614,-10.025490760803223,0.12125371151782222,1.4494777400982168,-0.0038314194054520426,0.8787788373881597,4.626852218425491,-9.278759885963928e-06
1739326373.0937624,-0.18646439909934998,0.6648075580596924,-9.915818214416504,0.12093095430740652,1.4488595618664777,-0.0033068755070240746,1.0299512519245324,6.144042622398286,-0.0038273988165627303
1739326373.1437516,-0.14993610978126526,0.6692630052566528,-9.931121826171875,0.12043201804247769,1.448165763273142,-0.002775202551525164,0.9544267096609504,5.260544510304586,-0.0017902179740599267
1739326373.1941574,-0.10743352770805359,0.6836824417114258,-9.950057029724121,0.11977200025083878,1.4473976315494614,-0.002238142632181543,0.9150289495552678,4.794165986902222,-0.0007232654449894374
1739326373.2437055,-0.05848870798945427,0.6877795457839966,-9.968299865722656,0.11896506982026003,1.4465566954278084,-0.0016957847087858621,0.9159813904558561,4.803496577965581,-0.000746619451244254
1739326373.2942038,0.010571442544460297,0.696277916431427,-9.991183280944824,0.11802485622985827,1.445644771530214,-0.001146969436026277,0.8963542707087808,4.567764810846216,-0.00021014755134724273
1739326373.3436668,0.0965263694524765,0.6941815614700317,-10.015946388244629,0.1169652319950286,1.4446640598177263,-0.0005897885729359921,0.8967532903832725,4.570600929827714,-0.00021702278159618798
1739326373.394107,0.16496507823467255,0.7067357301712036,-10.044422149658203,0.11580114923355184,1.4436171903071155,-2.205496216877871e-05,0.8972669313045474,4.574577827521371,-0.00022496602371285059
1739326373.443657,0.22258339822292328,0.7199429869651794,-10.065019607543945,0.11454946633621815,1.4425072717376857,0.0005582650187379829,0.8905487590817343,4.492750276337498,-4.713840673970306e-05
1739326373.4939046,0.2796143889427185,0.7293210625648499,-10.092192649841309,0.11322968457952329,1.4413380063899568,0.001152687313422936,0.8908000817667913,4.494285708580472,-4.8238822105261465e-05
1739326373.544197,0.30749669671058655,0.7449313402175903,-10.117080688476562,0.11186447757667252,1.440113841815951,0.0017619194795091787,0.8895919336904201,4.474317087596658,-1.2356331451068721e-05
1739326373.5937173,0.3005433976650238,0.7682027220726013,-10.132963180541992,0.11047981437372469,1.4388400885772794,0.002385621787788059,0.8895855004744959,4.467702456671201,-3.435149888622514e-06
1739326373.643614,0.2679581642150879,0.7831459045410156,-10.135116577148438,0.10910456996369385,1.4375230112967288,0.0030222468104773525,0.8898573875604104,4.468601139915425,-2.8989799469209336e-07
1739326373.6941879,0.22263434529304504,0.7883040308952332,-10.123112678527832,0.10776970527263136,1.436169900691366,0.0036690279687856954,0.8901891991082718,4.470430046059177,4.962554443805293e-06
1739326373.743686,0.1625278741121292,0.7925278544425964,-10.107137680053711,0.10650717875326104,1.4347890707426743,0.004322148953728781,0.8898030585778658,4.461501390001264,2.3831194948521514e-06
1739326373.7937205,0.07902900129556656,0.786749005317688,-10.092846870422363,0.10534872478953254,1.4333897512859137,0.004977048872714759,0.8902609753144451,4.456339405783028,3.571074280339571e-06
1739326373.8436341,0.07902900129556656,0.786749005317688,-10.092846870422363,0.10432464226394737,1.4319819021930136,0.0056287585830234,0.8905636707848451,4.452899145973131,3.5535497993970796e-06
1739326373.8941863,-0.03429644927382469,0.7564284205436707,-10.026816368103027,0.10346277198955417,1.4305759686050574,0.006272219867029041,0.8909026134982815,4.452785845725928,1.0336613339314893e-05
1739326373.943635,-0.0831642746925354,0.7371277809143066,-9.995980262756348,0.10278764366671927,1.429182556520987,0.006902686582853762,0.8909126214555262,4.449173420538744,5.689495769085718e-06
1739326373.9941802,-0.12294251471757889,0.7138456702232361,-9.961207389831543,0.10231937272656988,1.427812028073542,0.007516151099998282,0.8912017738120886,4.449715079913946,1.524638873861144e-05
1739326374.0436447,-0.15034715831279755,0.6805592179298401,-9.946369171142578,0.10207189074819567,1.42647407058006,0.008109450931547456,0.8911640896606747,4.446248456997536,7.882718485499959e-06
1739326374.0936494,-0.1582157462835312,0.667604923248291,-9.930405616760254,0.10205112755487737,1.4251772951815194,0.008680047981147021,0.8916450881161141,4.442118058048804,6.818471467137755e-06
1739326374.1436343,-0.13568799197673798,0.6510968208312988,-9.932530403137207,0.10225443469577818,1.4239289262031736,0.009225884853694112,0.8919829105273134,4.442275290733035,1.754590268428992e-05
1739326374.1936102,-0.1279890537261963,0.6425907611846924,-9.937728881835938,0.10267138386400097,1.4227346304049477,0.009745408661738298,0.8922016517589566,4.437920153543641,1.1022208216089261e-05
1739326374.2435274,-0.1279890537261963,0.6425907611846924,-9.937728881835938,0.10328503723397232,1.421598473711075,0.01023756190810609,0.8924194533000219,4.4359616568183355,7.784044833010174e-06
1739326374.2936444,-0.07076407968997955,0.6374719738960266,-9.96884536743164,0.10407318204555087,1.420522975313357,0.010701679907050385,0.8926908527393259,4.436574280034323,1.971168034535973e-05
1739326374.3434951,-0.042019885033369064,0.6573556661605835,-9.976624488830566,0.10500956525195687,1.4195092454945593,0.011137309628336754,0.8930516285557569,4.438161674887191,3.9701752869486824e-05
1739326374.393594,-0.0005845961859449744,0.6637867093086243,-9.9900541305542,0.10606517993652484,1.4185572060732428,0.011543981053398837,0.8928961464227271,4.432950732129113,1.3471260893787565e-05
1739326374.4435377,0.02335481159389019,0.6831382513046265,-10.017793655395508,0.10720948062703349,1.417665878334713,0.011920999539548026,0.8931233535987487,4.434266014185963,2.919334925005719e-05
1739326374.493644,0.055564526468515396,0.7092096209526062,-10.021235466003418,0.10841141179297309,1.4168337031901244,0.01226726904237465,0.8932595062509385,4.429301170338731,1.2860019345910262e-05
1739326374.5435152,0.08863242715597153,0.7380088567733765,-10.044240951538086,0.1096404503517545,1.4160589120315803,0.012581215930245844,0.8936878861094246,4.426911550180882,1.0881183453383191e-05
1739326374.5936003,0.1146613359451294,0.7637872695922852,-10.051023483276367,0.11086806140747778,1.4153399869672731,0.012860974073636629,0.8940012653930209,4.42791357519296,2.7801085769313866e-05
1739326374.643507,0.13237421214580536,0.7765089869499207,-10.064592361450195,0.11206929212397253,1.4146761196950832,0.013104717449845718,0.8943220952936729,4.429493290961989,4.876233999239247e-05
1739326374.693514,0.15209248661994934,0.7811002135276794,-10.081703186035156,0.11322365997789367,1.4140674938589364,0.013310805668821812,0.8941777121411643,4.4237937206160955,1.5320397372894358e-05
1739326374.743502,0.1562650501728058,0.782375693321228,-10.088068008422852,0.11431521846564077,1.4135153355838321,0.013477683960042702,0.8944187381453742,4.425185473890851,3.384994954759922e-05
1739326374.793666,0.16333535313606262,0.7742099165916443,-10.08069896697998,0.11533229926457692,1.4130218066027402,0.013603746185282081,0.894640883342136,4.420516366193996,1.992592877906854e-05
1739326374.843484,0.15897615253925323,0.7654780149459839,-10.086483001708984,0.11626716548790175,1.4125898068467562,0.01368729738883042,0.894909657550106,4.421816132737865,4.004495878315999e-05
1739326374.8936028,0.15897615253925323,0.7654780149459839,-10.086483001708984,0.11711559984016376,1.4122227310914233,0.013726592098380532,0.8949141410471332,4.416651347515776,1.1762580239488644e-05
1739326374.9434915,0.1415688544511795,0.7390936613082886,-10.05931282043457,0.1178764510019353,1.4119242212537093,0.013719902399014954,0.8952138873051529,4.417600316330686,3.1578018974067544e-05
1739326374.9936345,0.10482176393270493,0.727940022945404,-10.05722427368164,0.11855111853291003,1.4116979055097483,0.01366564851587333,0.8955650595901344,4.419438990472996,5.891276030034149e-05
1739326375.043473,0.07289566099643707,0.7127338647842407,-10.03974437713623,0.11914293163829845,1.4115471136688449,0.013562588557512054,0.8953388125275177,4.413349077986314,1.3136649919739966e-05
1739326375.093466,0.028774529695510864,0.7076963782310486,-10.016677856445312,0.11965638753893075,1.4114745987100343,0.013409980052429674,0.8955948784587375,4.414659699650089,3.25843159454497e-05
1739326375.143448,-0.02274617925286293,0.6994718313217163,-10.000897407531738,0.12009621853959612,1.4114822659193564,0.013207668587809057,0.8956828774800504,4.4100940389495396,1.538077667989243e-05
1739326375.1935172,-0.07748666405677795,0.6902469396591187,-9.975279808044434,0.12046639298796748,1.411570938183413,0.012956152714127213,0.8959199465704488,4.406895391179603,1.2497303049414238e-05
1739326375.243425,-0.13014522194862366,0.687116801738739,-9.961848258972168,0.12076929396253391,1.4117402403907002,0.012656700078256965,0.8962018167644682,4.40774243794787,3.115257987377888e-05
1739326375.2936835,-0.17424660921096802,0.6884448528289795,-9.95576000213623,0.1210051627611103,1.4119886148397691,0.012311492353703397,0.8965594412381964,4.409541156016807,5.7918898857252996e-05
1739326375.3434837,-0.19489647448062897,0.6854425072669983,-9.958547592163086,0.12117175208805038,1.412313414198525,0.011923690030130869,0.8962391417958078,4.402834838442263,1.3006636452221255e-05
1739326375.3934994,-0.1856357455253601,0.6943058967590332,-9.963833808898926,0.12126422614265933,1.4127110341883098,0.011497365595140328,0.896541495313221,4.404530747072401,3.567040473869099e-05
1739326375.443432,-0.14855128526687622,0.6947260499000549,-9.97546672821045,0.12127540267662426,1.4131770720521286,0.011037334076795932,0.8964663231716825,4.399968195976731,1.3962722282912983e-05
1739326375.4934788,-0.08772587031126022,0.6972672343254089,-9.981889724731445,0.12119636676574541,1.4137064962669592,0.010548927820637651,0.8966239047333227,4.397193790983254,1.1672089785524779e-05
1739326375.543407,-0.017121944576501846,0.7064247727394104,-9.997232437133789,0.12101739182162302,1.4142938070112923,0.010037755937028886,0.8967599924737489,4.397769377593954,2.0297850116256455e-05
1739326375.5936182,0.06473349034786224,0.7127338647842407,-10.023391723632812,0.12072903818912356,1.4149331933589926,0.009509455132363441,0.8970911350105195,4.399776161561905,4.265338175715924e-05
1739326375.6434128,0.12930023670196533,0.716672956943512,-10.039779663085938,0.12032336722780934,1.4156187044862805,0.008969430497108055,0.8967230265555313,4.392952986219645,9.44602844684674e-06
1739326375.693534,0.2004980742931366,0.7200940251350403,-10.052891731262207,0.11979529155022947,1.4163444249975528,0.00842265001960249,0.8969628359526743,4.389684382735091,9.791920505223078e-06
1739326375.7433848,0.23827964067459106,0.7263133525848389,-10.073817253112793,0.11914382137916243,1.417104625855934,0.007873524776482644,0.8972307645068299,4.390404450320402,2.2703513518510323e-05
1739326375.7934844,0.2568477988243103,0.7383539080619812,-10.07201862335205,0.11837274050864807,1.4178938783282033,0.0073258053671355385,0.8976173418923177,4.392333349537822,4.284506958477739e-05
1739326375.8434005,0.2204287201166153,0.7381002306938171,-10.06344985961914,0.11749056022421386,1.418707146551887,0.006782503751301438,0.8971455097445957,4.386846894604329,8.311404883160707e-06
1739326375.8935065,0.17768487334251404,0.7366035580635071,-10.062830924987793,0.11650990813554571,1.419539851515379,0.0062459278634940975,0.8973869250703936,4.388269082862769,1.9652237383839623e-05
1739326375.94336,0.12536650896072388,0.7380985617637634,-10.054283142089844,0.11544652683316081,1.4203878775762264,0.005717807783146905,0.8976652011178475,4.390390501949695,3.3087771342984666e-05
1739326375.9941797,0.07074220478534698,0.7415746450424194,-10.04529857635498,0.11431809294321833,1.4212475414272343,0.005199439457551476,0.8973577153699682,4.383344216713839,8.047546486013344e-06
1739326376.0433226,0.011520122177898884,0.7256549000740051,-10.023025512695312,0.11314304601846908,1.4221155528056593,0.004691844794620368,0.8975049160605895,4.380483757928242,5.903941655266681e-06
1739326376.0941784,-0.035569265484809875,0.7162864208221436,-10.00979995727539,0.11193951729721582,1.4229889346768907,0.004195973421211427,0.8977349735489296,4.381788049087328,1.3437460820898044e-05
1739326376.1433315,-0.07129228115081787,0.716218888759613,-10.003047943115234,0.11072442640995678,1.4238648905130507,0.00371291603917226,0.8975321611448107,4.377104003301297,5.035927035701493e-06
1739326376.1934633,-0.08368106931447983,0.7099705934524536,-9.99962043762207,0.10951263714664873,1.4247406803171772,0.003244019978960142,0.8976964637558484,4.37807897237456,1.040829512665442e-05
1739326376.243284,-0.10053704679012299,0.7130498290061951,-9.981460571289062,0.10831586381774566,1.4256135406975932,0.002790820716421635,0.8979511310993868,4.380140487655251,1.834547295608555e-05
1739326376.2933517,-0.10837888717651367,0.7092959880828857,-9.991497039794922,0.10714156127014904,1.4264806403169628,0.002354886488412649,0.897577918386444,4.373634126590978,5.2817902720452115e-06
1739326376.343304,-0.10010050237178802,0.7088029384613037,-9.986705780029297,0.10599252960504567,1.427339071490468,0.0019377306879152698,0.8977598184858356,4.375281505705039,9.649274385195365e-06
1739326376.3933947,-0.08377287536859512,0.7119339108467102,-9.993460655212402,0.10486732599195593,1.4281858699773113,0.0015407861587544164,0.8975441870472002,4.370309608242817,3.378797995894715e-06
1739326376.4433293,-0.07433854043483734,0.7207647562026978,-10.011982917785645,0.10376099547477843,1.429018059926767,0.0011653590834852954,0.897563029747255,4.367685606729516,2.8137989117527955e-06
1739326379.3940663,-0.11204297095537186,0.7127026319503784,-10.000057220458984,0.10266577863184943,1.4298327245275257,0.0008125410977001496,1.0050799468138778,5.880330539739954,0.0009232570285677367
1739326379.443989,0.02947702631354332,0.7205395102500916,-10.051379203796387,0.10157174832514822,1.4306270674491255,0.0004830973458152341,0.9433048586355193,5.033022957193101,0.000437701804641702
1739326382.29418,-0.02354365959763527,0.6580953001976013,-9.954371452331543,0.10046757975897387,1.43139839210605,0.00017739210964013964,0.9874042001238074,6.0349469054395755,0.0002574676065466257
1739326382.4436562,-0.02852952480316162,0.6671205163002014,-10.036988258361816,0.09934136219341634,1.4321439265028175,-0.000104540398987917,0.9201801035637195,5.051977344320358,0.00011995750867060321
1739326385.4433837,-0.04635517671704292,0.5965778827667236,-10.01840877532959,0.0981810162169779,1.4328605259569143,-0.0003628872792915963,0.9394249284916679,5.762569224899812,-0.00040810220672710134
1739326388.8429236,-0.23359137773513794,0.5350920557975769,-9.95983600616455,0.09697420320491607,1.4335442070243978,-0.0005980453620446756,0.9329666116133268,5.554183202953693,-0.0007259425694938031
1739326388.8930726,-0.253959983587265,0.5238171219825745,-9.971003532409668,0.09570779922196254,1.4341893381646442,-0.0008104667505242343,0.9370489603991979,5.613276034488301,-0.0007516631996508268
1739326388.9432197,-0.22290781140327454,0.5255571603775024,-9.979825973510742,0.09436724296925444,1.4347878165353007,-0.001000339200671059,0.8565753639711813,4.371697669795249,-0.00024215165630271301
1739326388.9932764,-0.17340277135372162,0.54403156042099,-10.011337280273438,0.09293644336226248,1.4353288778891593,-0.001167490169001002,0.8334023432252083,4.001295319769593,-9.274315052951343e-05
1739326389.0430646,-0.17340277135372162,0.54403156042099,-10.011337280273438,0.09139840687136484,1.4357995462027666,-0.0013115933530297487,0.8338380288521385,4.0049562237453955,-9.529101683551423e-05
1739326389.0931313,-0.030193645507097244,0.5910847187042236,-10.055807113647461,0.08973615388054723,1.4361852983600336,-0.001432458879984384,0.8238978821254116,3.8328723575507944,-2.7498749024305416e-05
1739326389.1429071,0.06486911326646805,0.6370627880096436,-10.072578430175781,0.08793382485896367,1.4364707970188428,-0.0015303228337642273,0.8244046128103268,3.834320131910739,-3.043860597608475e-05
1739326389.1931643,0.15614405274391174,0.6753057837486267,-10.073055267333984,0.08597805093543395,1.4366407242414132,-0.0016061206413170736,0.8248985691202262,3.8364547483198326,-3.39502352022018e-05
1739326389.2429154,0.21923816204071045,0.721399188041687,-10.091850280761719,0.08385926841275597,1.4366806252031619,-0.0016616504293079752,0.8215151578369265,3.7728958365181664,-7.759863799717587e-06
1739326389.2938747,0.261312335729599,0.7596935033798218,-10.091917991638184,0.08157261101106042,1.4365776418759753,-0.0016996019916685277,0.8218026582105459,3.7735143381324483,-1.022652351612888e-05
1739326389.343161,0.268314927816391,0.8031367659568787,-10.094393730163574,0.0791182993970106,1.4363211159324776,-0.0017235193977830012,0.8218018192261684,3.7539990133399903,-3.245510039390147e-06
1739326389.3931453,0.25242599844932556,0.8324312567710876,-10.063008308410645,0.07650182631726729,1.4359032668710896,-0.0017376378358084088,0.8221711669088525,3.7536743983768086,-5.4903097505159445e-06
1739326389.4429736,0.21078276634216309,0.8478562831878662,-10.041332244873047,0.07373448945423049,1.4353202821910673,-0.0017464406199933723,0.8225500655872723,3.742758124336376,-2.1240550327216175e-06
1739326389.4931676,0.15151013433933258,0.8545063138008118,-10.010958671569824,0.07083394928949834,1.4345734759720459,-0.0017540187736460595,0.8229739024107852,3.742217855471781,-4.8017027633145365e-06
1739326389.543246,0.08030310273170471,0.8598352074623108,-9.983803749084473,0.06782373290004287,1.4336696581083648,-0.0017635297640794427,0.8233709269399787,3.74263452890217,-8.109592038415039e-06
1739326389.5938847,0.0007082500960677862,0.8415482044219971,-9.970064163208008,0.06473163504216645,1.4326206440636955,-0.0017768718648667173,0.8242794169336491,3.723853013485144,-1.595747157292907e-06
1739326389.6438832,-0.06334732472896576,0.8086609840393066,-9.95907974243164,0.06158784890044891,1.4314424244426227,-0.001794515120167223,0.825443662526799,3.714937004506536,-1.6752409792306945e-06
1739326389.69314,-0.11326680332422256,0.7930750250816345,-9.974188804626465,0.05842329855419438,1.4301542253285389,-0.0018154843214395415,0.8259964856063818,3.713040723022494,-3.9577818374357185e-06
1739326389.7438502,-0.14502684772014618,0.771895170211792,-9.970901489257812,0.0552683073974387,1.428777554422691,-0.0018375058265874384,0.826824655713984,3.704889329721704,-2.1115801638875977e-06
1739326389.793956,-0.14502684772014618,0.771895170211792,-9.970901489257812,0.05215167599898857,1.4273353711880825,-0.0018572486701797838,0.8272913811993539,3.7037590819239834,-4.505337539659364e-06
1739326389.8428843,-0.13963621854782104,0.7168580293655396,-10.022025108337402,0.0491001823895916,1.425851398180202,-0.0018705987919284519,0.827960311694932,3.7034599680268276,-9.306308284380983e-06
1739326389.8931663,-0.12401556223630905,0.6906965374946594,-10.039002418518066,0.046138443756476535,1.424349451941002,-0.0018730318338587967,0.8275142040736271,3.69762560903317,-2.0140999619409148e-06
1739326389.9428174,-0.10950519889593124,0.6684166789054871,-10.059378623962402,0.043288679749521636,1.422852594743522,-0.0018600917375153365,0.8277645280438934,3.697971839391127,-4.5947745291545935e-06
1739326389.992817,-0.061152663081884384,0.6524097919464111,-10.078757286071777,0.04056968005622876,1.4213819648132584,-0.0018278225640430078,0.8286126554884529,3.6892744007854956,-1.9818886208601673e-06
1739326390.0428553,-0.022756818681955338,0.6416223049163818,-10.082674026489258,0.03799545503096768,1.419955602100032,-0.0017730620173427836,0.8293082013733185,3.6823210475626804,-2.0784188984763366e-06
1739326390.0942075,-0.022756818681955338,0.6416223049163818,-10.082674026489258,0.035574906151311335,1.4185878752032963,-0.0016935936006406064,0.829575165351684,3.682003284127665,-4.159579859549669e-06
1739326390.1427915,0.04389412701129913,0.6250035166740417,-10.056239128112793,0.03331256538169417,1.4172895505076677,-0.0015881344059792946,0.8299488681268982,3.68254992903147,-8.00159670419879e-06
1739326390.192802,0.07066620886325836,0.6281619071960449,-10.037238121032715,0.03120958719482006,1.416068075231572,-0.0014561453799327448,0.8305666453473668,3.6737237695469207,-1.8046459575705514e-06
1739326390.2429206,0.09737332165241241,0.6280888319015503,-10.02119255065918,0.029264697361788813,1.4149278744751566,-0.001297520889438601,0.8308101249352093,3.6739333451724367,-3.573529664157069e-06
1739326390.294158,0.09764349460601807,0.6258281469345093,-10.012898445129395,0.027474992062480108,1.4138706792024882,-0.0011122796240044576,0.8317178362260972,3.665246038662824,-1.5862471422379924e-06
1739326390.343784,0.09621971845626831,0.6250040531158447,-9.990177154541016,0.02583645488724099,1.4128958671916025,-0.0009003349661037941,0.8320670275844686,3.6651526581254834,-3.386740825695481e-06
1739326390.3937607,0.08619629591703415,0.6261956095695496,-9.967180252075195,0.024344216812132564,1.4120007814156712,-0.0006613088399608577,0.8329010275837125,3.6561233281959287,-1.1241968053539032e-06
1739326390.443766,0.07395251840353012,0.6322999596595764,-9.967242240905762,0.02299265077920537,1.411181033935999,-0.0003943503634282917,0.8333779985739876,3.655044389310761,-2.2966526206624226e-06
1739326390.493836,0.07136067748069763,0.6473656296730042,-9.964914321899414,0.021775549406856817,1.4104308071070253,-9.81078265021144e-05,0.8337789889512608,3.655012404994383,-3.405894491580572e-06
1739326390.5437212,0.045762836933135986,0.6736579537391663,-9.977398872375488,0.020686741651733544,1.4097431494766042,0.00022891810099538368,0.8344154269394354,3.648504502034749,-6.349785113308374e-07
1739326390.59378,0.033172156661748886,0.7087148427963257,-9.997217178344727,0.019720907737007073,1.4091103219572532,0.0005877722296179916,0.8353133780253063,3.641620945838336,-1.3721196000981146e-07
1739326390.6437485,-0.00665264530107379,0.7507311701774597,-10.026735305786133,0.01887386760832722,1.4085242775770594,0.0009785810443234753,0.8356946362721033,3.6411655690826543,4.6621083192721847e-07
1739326390.6942747,-0.025001006200909615,0.8081716299057007,-10.05837631225586,0.018142242619614186,1.4079772675930458,0.0014002969808618788,0.8372012407654388,3.6323802638704796,4.684798709939312e-07
1739326390.743714,-0.03706333786249161,0.8646481037139893,-10.091889381408691,0.017522958629915902,1.4074625087382149,0.0018504794476784648,0.837913000805319,3.631392540816271,2.683431201137616e-06
1739326390.7937233,-0.023531295359134674,0.9044734835624695,-10.104609489440918,0.017012896011312114,1.4069748388088055,0.0023250859863417762,0.8384639294321465,3.6316212865553505,5.786653587879128e-06
1739326390.8438365,-0.0247653778642416,0.9391825795173645,-10.122252464294434,0.016608758783178634,1.4065112479701485,0.0028183603702601726,0.8388975497531918,3.62203454251953,1.3338909856818559e-06
1739326390.8936648,0.003337510395795107,0.9589979648590088,-10.114497184753418,0.016307119260026832,1.4060711937544803,0.003322870117340994,0.8413204536573479,3.6104513755276657,2.4551901155642947e-06
1739326390.9438343,0.03011578507721424,0.9373639822006226,-10.110809326171875,0.016104580336562098,1.4056566593367226,0.0038296969664614617,0.8426501243643136,3.6064663374395143,7.813736204636199e-06
1739326390.9936948,0.06964833289384842,0.8946572542190552,-10.073868751525879,0.01599804816119601,1.4052718892785472,0.0043287748713745754,0.8426387427918477,3.604381097532458,2.783346489580237e-06
1739326391.0436907,0.085245780646801,0.8276750445365906,-10.045190811157227,0.015985082095741454,1.4049229178376235,0.004809445857788217,0.843214522947505,3.603542954889069,7.904608060674763e-06
1739326391.0937777,0.10285932570695877,0.7461867928504944,-9.999808311462402,0.01606422740129865,1.4046172527515512,0.005261334522242632,0.8438298366367359,3.6036169851880246,1.670362226900335e-05
1739326391.143708,0.09308477491140366,0.670098602771759,-9.96390438079834,0.01623520830847717,1.4043636169174813,0.005675360215045272,0.8443913458294827,3.594590024489104,5.951175647744462e-06
1739326391.1937284,0.037910956889390945,0.5858485102653503,-9.937821388244629,0.016498848518434986,1.4041712122974488,0.006044489156795783,0.8447390540518646,3.594722044270053,1.3391985384473282e-05
1739326391.2436743,-5.56335762667004e-05,0.5104942321777344,-9.921647071838379,0.01685664155613196,1.4040485310496447,0.006364093497977137,0.8461611736190621,3.5866356357071916,7.2354888446651015e-06
1739326391.2935839,-0.05170496553182602,0.4643508493900299,-9.921914100646973,0.017310071548438305,1.40400220794782,0.0066320357105468745,0.8476214002690573,3.5795936481551234,5.235790462774249e-06
1739326391.3436856,-0.09482914954423904,0.4371744990348816,-9.913938522338867,0.01785989821696589,1.4040362096613221,0.006848563061387626,0.8481787434984336,3.578891820746752,1.3157584916135647e-05
1739326391.3936503,-0.1421208381652832,0.4407287836074829,-9.934083938598633,0.01850553129771952,1.4041514536055502,0.007016061015842978,0.8486708652451874,3.5789569216268102,2.3352456931284157e-05
1739326391.443578,-0.14587338268756866,0.4644829332828522,-9.972768783569336,0.019244551432569125,1.4043458636263877,0.007138676078305449,0.8493769978552066,3.5801071638011552,4.302868424495406e-05
1739326391.4936473,-0.11775457859039307,0.5114960074424744,-10.001919746398926,0.020072506871259763,1.4046148072181992,0.00722177780117979,0.849874724195923,3.5679689575488913,1.0902271309304824e-05
1739326391.5441632,-0.06659667938947678,0.6019456386566162,-10.048759460449219,0.02098312958047967,1.4049518581741522,0.00727130963354088,0.8515637602708003,3.5610886400193285,9.94203261860183e-06
1739326391.594266,-0.017252979800105095,0.7087240815162659,-10.091813087463379,0.021968856754930616,1.4053497577688132,0.007293169351846682,0.8520257355480635,3.5611957487832027,2.014840845970877e-05
1739326391.6436203,0.047080352902412415,0.7974789142608643,-10.133899688720703,0.023021300921311404,1.4058013016024262,0.007292743224938208,0.8525532956602534,3.562185173166634,3.601144008493994e-05
1739326391.6935585,0.047080352902412415,0.7974789142608643,-10.133899688720703,0.024131576325596676,1.4063000016712446,0.007274604584259342,0.8529547317847048,3.5635121041613558,5.085489423310503e-05
1739326391.7435946,0.14851266145706177,0.9161906242370605,-10.150988578796387,0.025290725388746223,1.4068406445666488,0.007242320544871662,0.853582624332215,3.56650000437447,7.843705443933455e-05
1739326391.793518,0.17219343781471252,0.9550726413726807,-10.134597778320312,0.02649036236289075,1.4074198990822606,0.007198375086908039,0.8550748230966893,3.5417829650736716,5.432918803689556e-06
1739326391.8435862,0.17568066716194153,0.9576990008354187,-10.11473560333252,0.027723340467233192,1.40803690254244,0.007144257200690944,0.8559882570096096,3.539466161194791,1.6970338950607993e-05
1739326391.8939211,0.15289025008678436,0.9188913702964783,-10.08764934539795,0.028984098050402522,1.408693477359632,0.007080722883093199,0.8565400355193789,3.538773278051165,2.7170016392113838e-05
1739326391.9439368,0.12041310220956802,0.852255642414093,-10.039999008178711,0.030268535636650426,1.4093937309774107,0.007008194167168052,0.8577594382070624,3.5311135184159186,1.0054509519902173e-05
1739326391.9937687,0.09341545403003693,0.7962661981582642,-9.997565269470215,0.03157358191914509,1.4101431698111684,0.006927252376688735,0.8581233762698195,3.5311934855045775,1.780549815655815e-05
1739326392.0435896,0.09341545403003693,0.7962661981582642,-9.997565269470215,0.032896693647315664,1.410947683547028,0.006839137596349358,0.8586882690616503,3.532247565891533,3.393457509898907e-05
1739326392.093614,0.034247901290655136,0.6749989986419678,-9.920008659362793,0.03423544105293071,1.4118126868040146,0.006746133341055576,0.860081718302694,3.5208603289693228,7.212509155489731e-06
1739326392.1434937,0.013959555886685848,0.6141117811203003,-9.906496047973633,0.03558716273982983,1.4127422410308432,0.006651704706293785,0.8605564041931956,3.520841733640525,1.604033223078173e-05
1739326392.1934788,-0.009225738234817982,0.5735096335411072,-9.911334991455078,0.036948681257602964,1.413737859758599,0.0065601139959844176,0.8623374036955322,3.5097111928900553,7.301536490994081e-06
1739326392.2435691,-0.028375886380672455,0.5695182681083679,-9.930858612060547,0.03831614023247892,1.4147973996351006,0.006475565555942606,0.8647335330055536,3.502399394120391,7.552810459624645e-06
1739326392.2941403,-0.03584054484963417,0.5928887128829956,-9.953771591186523,0.03968491642959217,1.415914707682466,0.006401496036349994,0.8654868758609162,3.5018409458254265,1.6541802266806275e-05
1739326392.343459,-0.033038582652807236,0.6179063320159912,-9.99575138092041,0.04104957047828382,1.4170800527418974,0.006340246839697548,0.8661594239963666,3.5020331293218883,2.7380599581743127e-05
1739326392.3934371,-0.033038582652807236,0.6179063320159912,-9.99575138092041,0.042403899424660094,1.4182809057356078,0.006292846074574797,0.8669661500435724,3.491492547231469,6.630844281512728e-06
1739326392.4434528,-0.07034173607826233,0.690261721611023,-10.073772430419922,0.0437410517389699,1.4195027577163732,0.006258791275840147,0.86750000424552,3.4912617078027672,1.5425726071413675e-05
1739326392.4934998,-0.04916307330131531,0.7348234057426453,-10.11462688446045,0.045053587789694344,1.4207299769161186,0.006235791431408526,0.8691497210224012,3.480596175567526,8.152555475814938e-06
1739326392.5434482,-0.021880613639950752,0.7660787105560303,-10.121809959411621,0.04633355670865859,1.4219467484487798,0.0062194479197444814,0.8698413534531512,3.4803267079433033,2.032498561986866e-05
1739326392.5941386,-0.019753698259592056,0.7810997366905212,-10.137292861938477,0.047572750946479385,1.4231379086186784,0.006203083041410205,0.8718611625729934,3.471976009243961,7.09449933743198e-06
1739326392.643544,-0.019753698259592056,0.7810997366905212,-10.137292861938477,0.04876304801550706,1.4242894757367954,0.00617785514097957,0.8726389314211919,3.4715108169508464,1.5642140396783077e-05
1739326392.6934876,-0.006520125083625317,0.7711376547813416,-10.093798637390137,0.04989663235743545,1.4253890329570194,0.006133278763268289,0.8735059589472816,3.471978175505712,2.89754724942291e-05
1739326392.7441587,-0.006520125083625317,0.7711376547813416,-10.093798637390137,0.0509660776045214,1.4264263478275607,0.00605845312891987,0.8741381869456843,3.461328355527589,9.246510427320096e-06
1739326392.7933788,0.014462986029684544,0.7041859030723572,-10.011534690856934,0.05196439801078226,1.4273940542938492,0.0059436897405222055,0.8762309027068579,3.4541077969688225,6.822051594736569e-06
1739326392.8436077,0.040641624480485916,0.6761090159416199,-9.988515853881836,0.052885177525901626,1.428287678103192,0.005781690104011269,0.877037419405677,3.4539724833362975,1.6805522005491932e-05
1739326392.8934963,0.054929833859205246,0.6475386023521423,-9.952265739440918,0.05372280964078318,1.4291049483240368,0.00556808660824405,0.8784812818972506,3.4453462104447414,5.679377354806695e-06
1739326392.9434562,0.08124243468046188,0.6269182562828064,-9.937362670898438,0.05447277080010367,1.42984501081878,0.005301648238906365,0.8790543616163617,3.444932610227132,1.177791679077628e-05
1739326392.9942498,0.0995732843875885,0.6382805109024048,-9.934978485107422,0.05513185263654623,1.4305078794562485,0.004984262910197911,0.8796479994484138,3.4451862786140732,2.02117570837953e-05
1739326393.0434833,0.13733632862567902,0.6584643721580505,-9.941954612731934,0.05569836178623122,1.431094159887825,0.004620710101317614,0.8806812228246895,3.4343589562439147,5.111941181744656e-06
1739326393.0934038,0.15503399074077606,0.7015467882156372,-9.962764739990234,0.05617231469306551,1.4316050615464024,0.0042182523285322175,0.8833915460644151,3.4237944225655084,3.312883192604298e-06
1739326393.1434581,0.15024018287658691,0.7382215857505798,-9.983893394470215,0.056555578040376794,1.4320426470630354,0.0037860900455537138,0.886235743859761,3.4139774295751053,4.663712903717932e-06
1739326393.1941934,0.13729411363601685,0.756917417049408,-10.011890411376953,0.05685183201950269,1.432410178112121,0.00333474386144808,0.8872973832064333,3.408809774810206,4.647069635798309e-06
1739326393.2436306,0.10530298203229904,0.7888950109481812,-10.042426109313965,0.05706639166446415,1.4327123922018858,0.0028753572172098966,0.8881584787755337,3.407739159287622,9.598729432253698e-06
1739326393.2934337,0.10530298203229904,0.7888950109481812,-10.042426109313965,0.05720614411992737,1.43295562474294,0.0024188652037164683,0.8890443048272999,3.4075345068340277,1.6075823317802668e-05
1739326393.3434935,0.008736499585211277,0.8328553438186646,-10.071613311767578,0.057279544859959994,1.4331478077307023,0.0019752014052448977,0.8888016021211055,3.401788393220372,4.178837790251268e-06
1739326393.3934758,-0.06820683181285858,0.8237659335136414,-10.098645210266113,0.057296163306408944,1.4332984233468988,0.0015528062163636014,0.8908078116563664,3.3936460489489657,1.8256421188135775e-06
1739326393.4433694,-0.12993541359901428,0.8094019889831543,-10.089554786682129,0.05726564730569644,1.4334183921417494,0.0011584060608328998,0.8931577621169275,3.3826274201383213,1.3905271742478797e-06
1739326393.4933167,-0.16431689262390137,0.7880290150642395,-10.083852767944336,0.05719660753905761,1.4335197770210615,0.0007969678619303799,0.894327261477359,3.379239580350836,1.1046536164087712e-06
1739326393.5433962,-0.1812104731798172,0.7502892017364502,-10.06689739227295,0.05709585877593774,1.433615291943461,0.0004718525719469567,0.8953992601882816,3.377120437211193,2.2715753347333112e-06
1739326393.5934014,-0.1668911874294281,0.715637743473053,-10.043508529663086,0.05696810493808633,1.433717709339069,0.00018512216868895885,0.8963240181501129,3.3761133160591426,3.4265139241230157e-06
1739326393.6435306,-0.1279604434967041,0.6787899136543274,-10.028697967529297,0.056816035634038836,1.4338392399767357,-6.208947751239007e-05,0.8977395085165547,3.3758922441200547,5.164938033047429e-06
1739326393.6933274,-0.06591908633708954,0.6460419297218323,-10.00890064239502,0.05664079619822045,1.4339909534838648,-0.00026920613885678883,0.8958213307418176,3.373072575401608,6.650441349387922e-07
1739326393.7433193,0.004228685051202774,0.6142603158950806,-9.991147994995117,0.05644275585682883,1.4341822937358109,-0.00043588594387232503,0.897042337763956,3.36708947400601,1.0968834282628296e-07
1739326393.7934089,0.06547252088785172,0.5974946022033691,-9.977290153503418,0.05622239551912381,1.4344205432603965,-0.0005618125262562909,0.8976263216421275,3.366950065531046,-3.7919990660148597e-07
1739326393.8433597,0.1280951201915741,0.5933777093887329,-9.984647750854492,0.05598107055289643,1.4347099574460975,-0.0006467277026979652,0.8981826333571469,3.367738699906804,-1.198021319608816e-06
1739326393.8932638,0.171895831823349,0.615199625492096,-9.992527961730957,0.05572156531130046,1.4350508763088938,-0.000690676864766541,0.8987414081352015,3.369282605656495,-2.3453770225979886e-06
1739326393.9433694,0.1763618141412735,0.6566258668899536,-9.996671676635742,0.05544849628334275,1.4354395951437076,-0.0006942257659491982,0.8994381665382647,3.3720956188787805,-4.176783469634732e-06
1739326393.9933205,0.17543292045593262,0.6873373985290527,-10.026403427124023,0.05516848609812226,1.4358690808388073,-0.0006585549693166753,0.9004207530361603,3.3530220068535823,-2.6718085623981046e-07
1739326394.0433445,0.14951756596565247,0.7310691475868225,-10.040261268615723,0.054889998565858536,1.4363299790416546,-0.000585552380117468,0.902308470915072,3.3443543518202796,-4.61607478812422e-07
1739326394.0933409,0.11898766458034515,0.7771215438842773,-10.039365768432617,0.05462289009602374,1.4368115868428974,-0.00047793729644191187,0.9031440057465507,3.342719346891663,-1.2318386380578479e-06
1739326394.1433337,0.07284422218799591,0.8086970448493958,-10.046167373657227,0.05437778619803427,1.4373027450903288,-0.0003393114203733493,0.90481506749349,3.33539418606891,-5.958756100546875e-07
1739326394.193326,0.004801844712346792,0.8295626640319824,-10.06014347076416,0.05416534124770593,1.4377925955001294,-0.00017411029836907727,0.9054717125566879,3.3348902758596655,-1.0722839031319811e-06
1739326394.2433488,-0.03391207009553909,0.8508007526397705,-10.057994842529297,0.053995427765107726,1.4382711296492325,1.2464700219437325e-05,0.9064073304811122,3.3353465523149746,-1.7728246375496766e-06
1739326394.2932558,-0.08005642890930176,0.8448389768600464,-10.054781913757324,0.053876372000467104,1.438729519735314,0.00021452194469883282,0.9067724086299616,3.3282956467386318,-2.801727422358193e-07
1739326397.2929416,0.019783902913331985,0.7851824164390564,-10.078131675720215,0.05381431792082399,1.4391604012342403,0.00042565391358431807,1.0190626042043875,4.674550855104141,0.0004792635999467695
1739326397.343105,0.019338471814990044,0.8230875134468079,-10.090214729309082,0.05381267869754354,1.439558458543632,0.0006392603592193587,1.021722716509598,4.730539945468442,0.0004966763687431511
1739326397.3928454,-0.01191701926290989,0.83147794008255,-10.083352088928223,0.053871759322156015,1.4399212506025718,0.0008488902699209092,1.0241142299552863,4.781061192531869,0.0005125641711587326
1739326397.4429245,-0.05207096040248871,0.8356215953826904,-10.062829971313477,0.05398867240993338,1.4402496644465093,0.0010484516891745741,0.9680766870509533,3.481978051083786,0.00012403137039634633
1739326397.4928465,-0.06419418752193451,0.8213228583335876,-10.027176856994629,0.05415741531473883,1.440547752025043,0.0012323771133270975,0.9572469235951453,3.215131533586306,4.592958967370611e-05
1739326397.5429528,-0.07250799983739853,0.8018342852592468,-10.007770538330078,0.054369001849749264,1.440822232788411,0.0013958881042586853,0.9577456773476712,3.2199362508760694,4.920170917033711e-05
1739326397.5928397,-0.051694054156541824,0.7636198997497559,-9.980673789978027,0.05461174619428869,1.4410818589805103,0.0015353095387088081,0.9532279279428815,3.0985839761145284,1.3795318342528107e-05
1739326397.6430478,-0.031108859926462173,0.7251471281051636,-9.962190628051758,0.05487176068716362,1.4413366818930988,0.0016483243376542239,0.9535665401084445,3.0991603008571666,1.613828076023362e-05
1739326397.6929414,0.012860629707574844,0.7103109359741211,-9.966985702514648,0.0551336288887922,1.4415972918234263,0.0017341196642293995,0.9538798329485041,3.1004481033503986,1.9037663297159718e-05
1739326397.7429502,0.012860629707574844,0.7103109359741211,-9.966985702514648,0.05538115563523024,1.441874185258731,0.0017933808495900212,0.9524719768442146,3.0551196728649646,4.953757456974746e-06
1739326397.7928262,0.09573258459568024,0.6994085907936096,-9.999265670776367,0.05559809044894064,1.4421773758724563,0.0018281067355021075,0.9527272185471011,3.0559008187165633,8.251743571991466e-06
1739326397.8428502,0.09933317452669144,0.716582715511322,-10.019018173217773,0.05576902619367906,1.4425161154482857,0.0018412389396928086,0.9528252318144127,3.040637393029123,2.839504839199008e-06
1739326397.8928132,0.10526172071695328,0.7326543927192688,-10.053924560546875,0.05588079037789627,1.4428984780106515,0.0018361071715654019,0.953161532425379,3.0320315339377117,1.7388083308724381e-06
1739326397.9429073,0.08704793453216553,0.751317024230957,-10.063774108886719,0.05592382643026461,1.4433309410318307,0.001815822072536699,0.9533969285251406,3.031399343798536,3.898775672938047e-06
1739326397.9928167,0.07919256389141083,0.7654069066047668,-10.079045295715332,0.05589265153945899,1.4438183340329405,0.0017828345486563466,0.9536385945636593,3.0315658615299097,6.77493722394348e-06
1739326400.8925297,-0.0007065890240482986,0.7994537353515625,-9.983899116516113,0.05578537709502179,1.444364146177911,0.0017388211514817284,1.0144383638556087,4.679979004962166,0.0023133678916645033
1739326404.2431438,-0.07407106459140778,0.9091730117797852,-10.091846466064453,0.05560277766229739,1.4449710234203579,0.0016848839459225175,0.9250861692027796,4.316460823884594,0.0021266224349225653
1739326407.292915,-0.008779482915997505,0.7566526532173157,-10.082921981811523,0.05534724449464688,1.4456413279936438,0.001621699959073589,0.841123297412387,4.104969332576967,0.001992881913797512
1739326407.3431826,-0.013181212358176708,0.773971438407898,-10.082253456115723,0.055022098885838394,1.4463773000050064,0.0015493626061507029,0.8424866060680131,4.166043351876107,0.002064393636152025
1739326407.3930118,-0.010941803455352783,0.7460425496101379,-10.058789253234863,0.0546314590218117,1.447180639707885,0.0014672444475174328,0.8437883749560254,4.223641327658273,0.002131704097183476
1739326407.4429114,0.018805010244250298,0.704395592212677,-10.041431427001953,0.05418029293336412,1.4480520237877994,0.0013741594697959383,0.7993375996889216,2.815480979972697,0.0005161992628595442
1739326407.4928212,0.034431394189596176,0.6508521437644958,-10.006335258483887,0.05367444717227855,1.4489907768061845,0.0012687006345343998,0.787723570331654,2.52417815997835,0.00018987746752135794
1739326407.5429015,0.055799700319767,0.6038651466369629,-9.97862720489502,0.05312068269777992,1.4499943861205031,0.0011495923987598297,0.7864553538473309,2.52671745258593,0.00019678404334121105
1739326407.5929286,0.08797386288642883,0.5849864482879639,-9.962372779846191,0.052526632686459344,1.4510577039940007,0.0010159376392242774,0.7811147922234879,2.4010726106167173,5.4975427477774846e-05
1739326407.6428313,0.08797386288642883,0.5849864482879639,-9.962372779846191,0.051900688896250144,1.4521722003525344,0.0008673134084642635,0.7802452003582688,2.402435061611731,5.819966080613977e-05
1739326407.692798,0.053687214851379395,0.6402434706687927,-9.978628158569336,0.05125188959257117,1.453325858435153,0.0007037740963499667,0.7795434711280882,2.4044631226586737,6.139725143731656e-05
1739326407.7428434,0.04252330958843231,0.6945168375968933,-9.991280555725098,0.050589697100228315,1.4545038452138588,0.0005257667644943144,0.7768097258028939,2.3590784413347596,1.31116412491618e-05
1739326407.792806,0.01835121400654316,0.759949803352356,-10.026765823364258,0.0499236183405347,1.4556896215105346,0.00033392687057343757,0.7762791254900689,2.360148521997868,1.4292003672062518e-05
1739326407.8428388,-0.014372690580785275,0.8280743956565857,-10.059577941894531,0.04926279489120066,1.4568661670045495,0.00012876921117840054,0.7734942283605835,2.345483642942393,3.9153010517829e-06
1739326407.8930144,-0.056985873728990555,0.8596267700195312,-10.071538925170898,0.04861559670355227,1.4580171187054973,-8.966938017523961e-05,0.772604430868514,2.346467169420286,4.421492336323715e-06
1739326407.942765,-0.056985873728990555,0.8596267700195312,-10.071538925170898,0.04798921230120038,1.459127632893982,-0.00032210598285149837,0.7700836234147196,2.336936602670559,1.0962634567055268e-06
1739326407.9928174,-0.05929182842373848,0.828262209892273,-10.095417022705078,0.04738936622521614,1.4601847882978003,-0.0005701129495497403,0.7691791077836855,2.337379710887528,7.667690541338651e-07
1739326408.0428138,-0.04319588094949722,0.7838296890258789,-10.060898780822754,0.0468202880573635,1.4611774896087588,-0.000836083926467871,0.7684424734664559,2.338613196449775,8.139080811688979e-08
1739326408.0927918,0.012385673820972443,0.7334015369415283,-10.031571388244629,0.04628489580175583,1.462096119549075,-0.0011230076248195807,0.7646903712137275,2.3231684536753106,-3.535565874179034e-07
1739326408.1427412,0.06408769637346268,0.6764389276504517,-9.999746322631836,0.045785115826876506,1.4629323425929737,-0.0014339005515898674,0.7635755141920653,2.3225774093789053,-1.6879118581521712e-06
1739326408.192721,0.0976472795009613,0.6521750688552856,-9.970348358154297,0.04532233341979952,1.4636790601091723,-0.0017710608378129007,0.7621062288397987,2.3232951535517925,-5.1963546392418154e-06
1739326408.2428014,0.10557734221220016,0.6620172262191772,-9.966236114501953,0.044897907643398946,1.4643302095890887,-0.0021355213713954288,0.7604789076758124,2.3155894284309277,-2.0459992914663484e-06
1739326411.2924535,0.0917007327079773,0.762747049331665,-10.02673625946045,0.04451353624224082,1.464880589101099,-0.0025269005150267173,0.6882365941732482,3.7693377334507856,-0.002912345896539861
1739326411.3423378,0.10661005228757858,0.645126461982727,-10.002792358398438,0.044171339253848245,1.465326011954754,-0.0029436391328366797,0.674868362933436,2.8846755841169505,-0.0013335838030978124
1739326411.3923895,0.10770910233259201,0.5344485640525818,-9.97192096710205,0.04387378806797206,1.4656632929962716,-0.0033833482167429573,0.674267975106499,2.9100607202033637,-0.0013812690122916452
1739326411.442344,0.09596452116966248,0.45392757654190063,-9.94639778137207,0.043623631492781825,1.4658894604679222,-0.00384289460848337,0.67382211536216,2.930318445437686,-0.001419674662366672
1739326411.4924524,0.05460822954773903,0.4137602150440216,-9.933704376220703,0.04342376401432148,1.4660005669572111,-0.0043182322797031885,0.6642567297728967,2.311249749223655,-0.00031699319416995806
1739326411.5423858,0.0293547585606575,0.3908430337905884,-9.954697608947754,0.04327692486527261,1.4659908480826749,-0.004804276811774139,0.6637886313015116,2.3168780232030195,-0.0003302025253700692
1739326411.59241,0.0293547585606575,0.3908430337905884,-9.954697608947754,0.043185304552107,1.4658524504860775,-0.0052949986622577785,0.6592451134290462,2.1807175369742606,-9.066422615950082e-05
1739326411.6422942,0.01039657462388277,0.4187501072883606,-9.983633995056152,0.04315025069005251,1.4655753016079347,-0.005783754854809358,0.655775263189567,2.1476254904496543,-3.799614368629027e-05
1739326411.6923983,0.017694320529699326,0.46984052658081055,-10.010909080505371,0.043172127558600455,1.4651464656775732,-0.00626386740062675,0.6547468324492823,2.149410235188003,-4.817031037590286e-05
1739326411.7423108,0.0032668334897607565,0.5468050837516785,-10.020519256591797,0.043250270815408075,1.4645493890890733,-0.006729316663993828,0.6539870948530758,2.1515054080558227,-5.916283175321348e-05
1739326411.7924283,0.0035792472772300243,0.6053993701934814,-10.028026580810547,0.043383007269315044,1.4637642458652267,-0.007175227129435133,0.6527376254730735,2.129605819218256,-1.582953968483631e-05
1739326411.8423016,0.003559676930308342,0.6901072859764099,-10.043052673339844,0.04356771929459152,1.4627694013209593,-0.007598029149457333,0.6521598141152273,2.131554003023344,-2.9034376201787628e-05
1739326411.892357,0.0011363374069333076,0.7866190671920776,-10.057276725769043,0.04380094078785622,1.4615431146288813,-0.007995478188717034,0.6493373226693033,2.123654355958916,-1.2348476785894981e-05
1739326411.942289,-0.01424036081880331,0.8950378894805908,-10.055929183959961,0.044078461599158986,1.4600651519609609,-0.00836665698069547,0.648745620371179,2.124925785578855,-2.2366288317697332e-05
1739326411.9924154,-0.01424036081880331,0.8950378894805908,-10.055929183959961,0.04439539334795809,1.4583182388255966,-0.008711928223222943,0.6458592549714162,2.119396353265938,-9.522998485487657e-06
1739326412.042351,-0.02569098211824894,0.9964826703071594,-10.070843696594238,0.04474620199233577,1.4562891020651716,-0.009032817240661363,0.644949125092022,2.1204406862993683,-2.0637524998855464e-05
1739326412.0924268,-0.013537759892642498,1.0067284107208252,-10.067547798156738,0.045124760276416,1.4539690688693536,-0.0093318855916372,0.6438064059411606,2.123024507894817,-4.282892777264658e-05
1739326412.1423001,-0.023139599710702896,0.9980868101119995,-10.051473617553711,0.04552444978692636,1.451354351690323,-0.009612604391953786,0.6399023434323731,2.1129148120688273,-7.165666070857852e-06
1739326415.193203,0.036430731415748596,0.631842851638794,-10.03695011138916,0.04593831539896073,1.4484461317340598,-0.009879084257920012,0.5781619209580474,3.711229695351859,-0.011306456262214258
1739326415.242952,0.036430731415748596,0.631842851638794,-10.03695011138916,0.046359279979705716,1.4452508030896976,-0.01013554824988379,0.5568837863840689,2.8532632110190153,-0.005387775102969668
1739326415.2931612,0.003123774891719222,0.5811251401901245,-9.977644920349121,0.04678035289973241,1.4417803265117592,-0.01038570218005703,0.5570204116211753,2.8820538575745624,-0.005586139832192009
1739326415.3431888,-0.011952152475714684,0.5581812262535095,-9.943534851074219,0.04719466567324394,1.43805195755093,-0.010632210129781917,0.5404039736065034,2.3036290542227684,-0.0015945565901829587
1739326415.392883,-0.011952152475714684,0.5581812262535095,-9.943534851074219,0.04759532902338015,1.4340872626240455,-0.01087630124708986,0.5335559411274475,2.1603212294867253,-0.0006042329281079568
1739326415.4430614,-0.05014488101005554,0.5532445907592773,-9.916775703430176,0.0479752865268262,1.4299110889434188,-0.011117548979669843,0.5324737375330718,2.164894821996407,-0.0006362108643395357
1739326415.4931343,-0.05579223856329918,0.5786349773406982,-9.931392669677734,0.048327205712280163,1.4255508266291859,-0.011353866274108651,0.5313343897255981,2.170852201026076,-0.0006787454146578882
1739326415.5432131,-0.039876773953437805,0.6230754256248474,-9.958316802978516,0.04864339468947608,1.4210359452977985,-0.011581683669041293,0.5281159048695097,2.0945376279301002,-0.00014757654811523572
1739326415.5930111,-0.005180743522942066,0.697688102722168,-9.985346794128418,0.0489158868673736,1.4163978225717941,-0.011796322465274699,0.5239286082860616,2.082386966821895,-6.091736413200276e-05
1739326415.642878,0.030063705518841743,0.7764479517936707,-10.019927978515625,0.049136788333357335,1.4116698782992332,-0.011992525930971946,0.5215269930053588,2.078173400371562,-2.9389209482703583e-05
1739326415.6931732,0.06994488090276718,0.8634874224662781,-10.059059143066406,0.04929879120700324,1.4068879261789322,-0.012165033607914275,0.5202053621668541,2.080369062556089,-4.615887851226242e-05
1739326415.7431626,0.11463837325572968,0.9156709313392639,-10.091365814208984,0.04939584291929541,1.4020905286303307,-0.01230908805333669,0.5188158258497572,2.0768429198210625,-1.7878602466533635e-05
1739326415.7928743,0.1415538489818573,0.9533981084823608,-10.098556518554688,0.04942412309830285,1.3973190686026888,-0.012420727358061883,0.5178534128425156,2.079115564308078,-3.625603751758306e-05
1739326415.8429043,0.17053654789924622,0.9589623212814331,-10.099363327026367,0.04938307942143839,1.3926174351097123,-0.012496824014426028,0.5170629568523621,2.081847117746326,-5.9016036659525234e-05
1739326415.8932042,0.1676691472530365,0.9202439188957214,-10.086772918701172,0.04927592298450742,1.3880314296254492,-0.012535012112655132,0.5138056121181168,2.077040163635691,-1.0997551870466406e-05
1739326415.9431589,0.13535809516906738,0.8671571016311646,-10.07709789276123,0.04910943815154336,1.3836079041623865,-0.012533581136882372,0.5108901349110028,2.0778232400307903,-1.1145561812149922e-05
1739326415.9929373,0.0868610143661499,0.8006218671798706,-10.052774429321289,0.04889334928084758,1.3793935971399804,-0.01249130545426472,0.5096637899292403,2.0800041859857017,-2.7808932586333382e-05
1739326416.0428865,0.034144025295972824,0.7324182987213135,-10.036998748779297,0.048639409425489055,1.375433801323691,-0.01240721191234247,0.5069293457115679,2.0788088156115916,-1.333956034412544e-05
1739326416.0931413,-0.02359091304242611,0.6719675064086914,-10.019392013549805,0.048360354751536196,1.3717710580021454,-0.012280329284985273,0.5057609658186665,2.0810865045966955,-3.161172403383908e-05
1739326416.142882,-0.061204276978969574,0.6296703815460205,-10.012327194213867,0.048068890976610885,1.368444027158839,-0.01210947576672321,0.5047069115331324,2.084061443718239,-5.623543885643262e-05
1739326416.1931932,-0.0876295194029808,0.6057963371276855,-10.025629997253418,0.04777685205056456,1.3654866539755095,-0.011893146401031602,0.504384706044125,2.0799215755581812,-1.4645134911956697e-05
1739326416.2429147,-0.08296070992946625,0.58315509557724,-10.026747703552246,0.0474946447263936,1.362927685200897,-0.011629543191158777,0.5038824340720307,2.0819591194144773,-3.0964165973156e-05
1739326416.293198,-0.05154327675700188,0.5745587348937988,-10.016246795654297,0.047230902944933185,1.360790181430014,-0.011316765238334301,0.5011876154960736,2.0808777608583946,-1.3716741268629678e-05
1739326416.3432071,-0.015191484242677689,0.5666871070861816,-10.003816604614258,0.04699208931306732,1.3590903735666235,-0.010953149122032286,0.49910986865657114,2.081362453845185,-1.1512270085335804e-05
1739326416.3929257,0.02407797798514366,0.5528260469436646,-10.009090423583984,0.046782166885715286,1.357836240523321,-0.010537612383880523,0.4983338616103266,2.0836161311959813,-2.7589551404595262e-05
1739326416.4429672,0.04004444554448128,0.5468557476997375,-9.988215446472168,0.04660278709768889,1.357027045403301,-0.010069781362813052,0.49766508296472484,2.0864660893445937,-4.8305049275911936e-05
1739326416.4927585,0.055871110409498215,0.5533910393714905,-9.9966459274292,0.046453897434853786,1.356653983689155,-0.009549899981381631,0.49648851052809706,2.083085769930253,-1.4170939974881846e-05
1739326416.5427551,0.017945222556591034,0.5890383124351501,-9.992475509643555,0.046334267151518886,1.356701229265582,-0.008978692893683821,0.4925234067099498,2.084176883449647,-1.0288255418453232e-05
1739326416.593167,-0.004082864616066217,0.6315485835075378,-10.023039817810059,0.04624168718198411,1.3571471115962197,-0.008357309675770447,0.48962934811131603,2.0854769119627443,-1.0879666352470168e-05
1739326416.642906,-0.02018638700246811,0.6744955778121948,-10.016145706176758,0.04617290378966126,1.3579654264750145,-0.007687377439637839,0.4877121964978853,2.085955239191282,-9.024631742950565e-06
1739326416.6932743,-0.02752794325351715,0.7102121114730835,-10.016888618469238,0.04612349805470093,1.3591267611430844,-0.006971079968048827,0.4867084532733805,2.0883180819774645,-2.0421540842276234e-05
1739326416.7427423,-0.0017815673490986228,0.7455347180366516,-10.020785331726074,0.0460879020462089,1.3605996967151324,-0.006211159362029917,0.48588055019176657,2.091066276774016,-3.3711504315818865e-05
1739326416.7927337,0.0410630963742733,0.7789267301559448,-10.015401840209961,0.04605964662555895,1.3623518322994448,-0.005410850444746483,0.4853437461972683,2.0875644972222145,-9.174863717268158e-06
1739326416.8427973,0.08145604282617569,0.79246586561203,-10.00590705871582,0.04603198025644848,1.3643508241148334,-0.004573800851835528,0.4850019763318494,2.089128579677717,-1.5194382517103977e-05
1739326416.8928323,0.1267913430929184,0.8021895885467529,-10.006674766540527,0.04599897454347239,1.3665657761256518,-0.003703987098330314,0.48225440871890635,2.0885982703323496,-5.986192802645146e-06
1739326416.9428315,0.15299484133720398,0.8157476782798767,-10.012503623962402,0.045956773422665784,1.3689686844137277,-0.002805644845909846,0.481426856027686,2.0907079488717812,-1.1250458040881026e-05
1739326416.9928021,0.16562680900096893,0.8284564018249512,-10.018009185791016,0.04590434365444246,1.3715351691431703,-0.0018832360551619806,0.479787882130093,2.0901545764972287,-4.402360672903541e-06
1739326417.0428336,0.17070381343364716,0.8515743017196655,-10.02719497680664,0.04584357652417602,1.3742444716337818,-0.0009414508576131797,0.4790396175410771,2.092579515237196,-7.7427479879315e-06
1739326417.0928056,0.17070381343364716,0.8515743017196655,-10.02719497680664,0.045779048982109334,1.3770792446244222,1.477473086136514e-05,0.478334351290505,2.095823317162251,-1.13139389865365e-05
1739326417.1432133,0.0923713967204094,0.8269937634468079,-10.060546875,0.0457175904366877,1.380025292562562,0.000980229255815446,0.4753237402685499,2.0918838787313763,-9.206241406631304e-07
1739326417.192755,0.04347939416766167,0.8043921589851379,-10.05971908569336,0.04566756201190192,1.383071145124247,0.0019493544237205035,0.4742312801742537,2.0941612454299325,-1.6480705780977384e-07
1739326417.2426744,0.0071613984182477,0.7855678796768188,-10.06588363647461,0.04563789111815755,1.3862074717756963,0.002916158378824565,0.4731712096438986,2.0973069708747842,2.126640622794512e-06
1739326417.2927332,-0.03450736030936241,0.7674227356910706,-10.068222999572754,0.045637152870452544,1.3894264789180921,0.0038742018575522864,0.47233671429856555,2.0943239246580987,1.709324387794084e-06
1739326417.3427653,-0.06296141445636749,0.7279530763626099,-10.057808876037598,0.045672885331685106,1.3927213717124778,0.004816676134931875,0.4717141719382173,2.0969640283809747,7.047392159550603e-06
1739326417.3931494,-0.08784835785627365,0.6740667223930359,-10.034661293029785,0.04575095749612362,1.396085711205242,0.00573658715707993,0.4711565812160202,2.1004536972985313,1.5835133940501377e-05
1739326417.4427655,-0.10521787405014038,0.6352643966674805,-10.017539978027344,0.045874675734277275,1.3995124007287134,0.006627112513159377,0.469622407240936,2.0955760389928435,3.971395089931501e-06
1739326417.4926748,-0.11764977872371674,0.599588930606842,-10.007292747497559,0.04604384320186013,1.4029925275408788,0.0074820484189970895,0.46912014047517114,2.0981236526013918,1.353606641429458e-05
1739326417.5427036,-0.10783882439136505,0.5658892393112183,-9.996928215026855,0.046254410845577854,1.4065146424735877,0.008296134097197334,0.4673833860775398,2.0970737755576496,6.387539445755272e-06
1739326417.5926394,-0.08821870386600494,0.5325894951820374,-9.998491287231445,0.04649883171311165,1.4100645702370964,0.00906518417052106,0.46472192917838834,2.0984576243992685,7.571355800902626e-06
1739326417.6427345,-0.05965519696474075,0.5320344567298889,-10.009522438049316,0.046766747775696386,1.413625462076789,0.009786084349660856,0.4640515192316251,2.1003650827342715,1.6869871742411578e-05
1739326417.6926208,-0.015246846713125706,0.5534458756446838,-10.014518737792969,0.04704579618061542,1.4171780320478073,0.010456678626637097,0.4631602828293937,2.1039643436860227,3.6662764583244484e-05
1739326417.7426014,0.027236750349402428,0.5755213499069214,-10.019978523254395,0.04732248344462608,1.4207010577258676,0.011075591375362204,0.46170482464150225,2.101103235194586,1.2485092556386004e-05
1739326417.7926736,0.07446801662445068,0.6188635230064392,-10.036039352416992,0.04758307260040477,1.424172099342919,0.01164204506938794,0.4612775942607278,2.1034265296424937,2.7376536861524874e-05
1739326417.8426669,0.11863615363836288,0.6586724519729614,-10.036314010620117,0.04781441610387555,1.4275683238238437,0.012155686323732602,0.4588976111214919,2.102188316465214,9.897799582282985e-06
1739326417.8926084,0.1382111757993698,0.7096573710441589,-10.036758422851562,0.04800466334874593,1.430867357307168,0.012616437290211124,0.45637972139605903,2.1038566363682656,1.2333858190533525e-05
1739326417.9426227,0.15330633521080017,0.7474315762519836,-10.027578353881836,0.04814397588323982,1.4340481696271687,0.013024415280162412,0.4556147029937279,2.1062794815662027,2.911883767899706e-05
1739326417.9926677,0.16338667273521423,0.7691547870635986,-10.016453742980957,0.04822560646344811,1.4370920250203472,0.013379926422060423,0.455007619673467,2.108916780268177,4.884779813284008e-05
1739326418.0428052,0.16461369395256042,0.7705548405647278,-10.003068923950195,0.04824707403219251,1.4399832955747618,0.01368352031429496,0.45347371160280814,2.106439201673616,1.672398892948755e-05
1739326418.0931983,0.1581725776195526,0.7719054818153381,-9.99363899230957,0.0482105740180088,1.442709796203842,0.013936096090608825,0.453005318336627,2.108926871901595,3.6358336302190475e-05
1739326418.1431503,0.12225140631198883,0.7709473371505737,-9.97736930847168,0.048122495466457825,1.4452626574753047,0.014139027234859942,0.4507625848970561,2.108012134471988,1.698409554964014e-05
1739326418.1931798,0.12225140631198883,0.7709473371505737,-9.97736930847168,0.04799258942197104,1.4476360240587094,0.014294266527937789,0.45016197712871575,2.110455038539252,3.662531851741057e-05
1739326418.2425911,0.05719464644789696,0.7736425995826721,-9.989702224731445,0.047833093584496174,1.4498267432487455,0.014404382755516613,0.44801570940764,2.109331602902046,1.4674180225534406e-05
1739326418.2925954,0.019268492236733437,0.7942372560501099,-10.004182815551758,0.04765782402340606,1.4518340949263497,0.014472470599377285,0.44712691103627566,2.1122179145928452,3.745932383820401e-05
1739326418.342596,-0.01088842935860157,0.8192671537399292,-10.029435157775879,0.047481233845798984,1.453659620171138,0.014501930384077134,0.446418116478144,2.115522313218716,6.542785915249848e-05
1739326418.3925638,-0.024159010499715805,0.8426597714424133,-10.04957103729248,0.047317586100681895,1.4553070716203962,0.014496171407408056,0.44329160229958564,2.1126006098215653,1.1509826677114862e-05
1739326418.4428265,-0.03713032603263855,0.8608300685882568,-10.082099914550781,0.04718038763606851,1.4567824249692147,0.014458288992597448,0.44016770827247675,2.1151075921701707,1.540194745447432e-05
1739326418.4927406,-0.03753151372075081,0.8523796796798706,-10.090928077697754,0.04708189384699696,1.4580939355488165,0.014390813528240214,0.43890160272184503,2.118401332215296,3.90450074176587e-05
1739326418.5425751,-0.054864004254341125,0.8398878574371338,-10.105494499206543,0.04703228075580081,1.4592523097445376,0.014295695998538707,0.4378085852733607,2.116989422231254,1.460632825193761e-05
1739326418.5932522,-0.07022318989038467,0.8062654137611389,-10.099690437316895,0.047038643070703864,1.4602708080007216,0.014174501337260914,0.4371513359801793,2.1192781401244005,3.160919368203072e-05
1739326418.6424973,-0.07546532154083252,0.7455392479896545,-10.093405723571777,0.04710448970655643,1.461164884478341,0.014028579559503759,0.43646610095175953,2.1226272246007283,5.841383119308129e-05
1739326418.6925306,-0.061895452439785004,0.6655421257019043,-10.072896003723145,0.04722988504945464,1.4619512974789648,0.013859167391362628,0.43579151489280815,2.1187705293133607,1.3595993300666075e-05
1739326418.7431586,-0.027779947966337204,0.5796944499015808,-10.037308692932129,0.04741191367979375,1.4626469360422116,0.013667553897050341,0.43255658567185723,2.1211673402773825,1.4223184722746543e-05
1739326418.7932403,-0.0021206624805927277,0.5117854475975037,-10.01567268371582,0.04764531754468513,1.463267588923376,0.013455358323854088,0.4307450284031803,2.1229694228568365,1.4552463025823645e-05
1739326418.8428233,0.04226455092430115,0.45715150237083435,-9.975382804870605,0.04792324127850852,1.463826856466975,0.013224860672292525,0.4291451560365475,2.1239278042950733,1.2553658662196226e-05
1739326418.8924801,0.04226455092430115,0.45715150237083435,-9.975382804870605,0.04823795996360855,1.4643354019336519,0.012979295719571165,0.42841438317052444,2.126316908533754,2.8749474514021082e-05
1739326418.942507,0.07350461930036545,0.43828266859054565,-9.938068389892578,0.04858146877258354,1.4648006565300267,0.012723041955754999,0.42763719142800705,2.1299231377211747,5.5110636718630056e-05
1739326418.992636,0.06116001680493355,0.47017398476600647,-9.953514099121094,0.04894588450424853,1.4652269407597611,0.012461689638177313,0.42726600471902704,2.126280319332622,1.5062465770639643e-05
1739326419.0424676,0.04712262377142906,0.5237049460411072,-9.96394157409668,0.04932373274980559,1.4656156162991683,0.01220185456558429,0.42693684415923105,2.128635073370492,3.208294066026528e-05
1739326419.0925136,0.04897243157029152,0.6260467767715454,-9.980692863464355,0.04970826458296765,1.4659647411338892,0.011950487278715751,0.42552757621868553,2.1282746617307624,1.4336276596275289e-05
1739326419.1424487,0.0485532209277153,0.7376818656921387,-10.030983924865723,0.05009378981010277,1.4662686939946987,0.011713868549668924,0.4233947579980845,2.129400109406536,1.3455455696659622e-05
1739326419.1924806,0.05450732260942459,0.8303858041763306,-10.06013298034668,0.05047583606413704,1.4665188977619175,0.011496824435704784,0.42269875600578,2.1325463381582823,3.4415141074371526e-05
1739326419.2424822,0.078345388174057,0.8790558576583862,-10.07271957397461,0.05085112582458192,1.4667054982464092,0.011302308884153065,0.4222543142353651,2.1354312544585574,5.4485409847773217e-05
1739326419.2925198,0.09828011691570282,0.8793562650680542,-10.071612358093262,0.05121756961386579,1.4668188796799886,0.01113124389301608,0.42153943976952024,2.1313128179365655,1.1848132454961222e-05
1739326419.3425782,0.09979994595050812,0.8589958548545837,-10.050100326538086,0.05157433385945228,1.4668504649907523,0.010982610339824388,0.41961309245293954,2.133743261375964,1.1507157901948183e-05
1739326419.3924627,0.11140695214271545,0.8209015727043152,-10.040253639221191,0.05192187570521141,1.4667928622492326,0.010853764073365892,0.4188512053545132,2.136925466141117,2.7914304846804105e-05
1739326419.442841,0.1282561868429184,0.8068341612815857,-10.0167236328125,0.05226190048651595,1.4666396132218293,0.010740869575492225,0.4182514247655023,2.1403592508499916,4.740530219238886e-05
1739326419.4931676,0.11337117105722427,0.8049814105033875,-10.005284309387207,0.05259728463218702,1.466384857828921,0.010639345474346307,0.41716688310741595,2.136303512902661,1.3737258437347082e-05
1739326419.5431688,0.09224191308021545,0.8142332434654236,-10.011911392211914,0.0529319227288779,1.4660231481439365,0.010544244634257495,0.41663556394149076,2.1393564941012886,3.165050754857176e-05
1739326419.593179,0.049981240183115005,0.7991244792938232,-10.013059616088867,0.05327040109999573,1.465549692024,0.010450541555350393,0.4162339893472364,2.1426892036651113,5.230601865346813e-05
1739326419.6425397,0.0029252548702061176,0.789071261882782,-10.025073051452637,0.05361749414438546,1.4649613410135378,0.010353393880933332,0.4149589041846503,2.1381116154262765,1.2999704510617915e-05
1739326419.6931386,-0.030911462381482124,0.7581334710121155,-10.023407936096191,0.05397756666900035,1.4642578260656611,0.010248380201093185,0.412906672478937,2.139702251245205,1.1528389901121659e-05
1739326419.7431662,-0.0776485949754715,0.7443460822105408,-10.026838302612305,0.054353992346577985,1.4634421681090806,0.010131600630037372,0.41249180008241876,2.1418008264070143,2.332387085037063e-05
1739326419.792382,-0.07888204604387283,0.7222760915756226,-10.03756332397461,0.05474869192602866,1.4625201818791826,0.009999640619003233,0.4100347415787741,2.142329870329946,1.2141931445546745e-05
1739326419.8423674,-0.0822279304265976,0.6784734129905701,-10.04382610321045,0.05516189035002872,1.4614997443174313,0.009849482160140135,0.4093097638806541,2.145190229908566,2.694178771829341e-05
1739326419.8923764,-0.07467243820428848,0.6489779949188232,-10.051458358764648,0.055592143856676685,1.4603900785387371,0.009678395107748716,0.4085685791168767,2.149351641366718,5.009526036446708e-05
1739326419.9424212,-0.056567806750535965,0.6471788287162781,-10.055317878723145,0.05603657303587345,1.4592010705949625,0.009483835087769768,0.40778712786993,2.1447237890937565,9.804529291999535e-06
1739326419.992346,-0.025334177538752556,0.6444411873817444,-10.053196907043457,0.05649122125501857,1.457942767318213,0.00926337746849263,0.40733783378547905,2.147491233578351,2.4168036441126947e-05
