Timestamp,IMU_Linear_Acc_X,IMU_Linear_Acc_Y,IMU_Linear_Acc_Z,Filtered_X,Filtered_Y,Filtered_Z,Pose_X,Pose_Y,Pose_Z
1731474136.25901,-0.34130141139030457,0.4240894317626953,-9.983531951904297,-2.635860978351382e-05,-0.0001454826207717232,6.952735655833342e-05,2.0335347941825663,6.5389512231872144,0.7318917178000499
1731474136.3090398,-0.34130141139030457,0.4240894317626953,-9.983531951904297,-3.1565891257494944e-05,-0.00018707717158700395,8.967119383159356e-05,2.033794170173739,6.539789973075527,0.7319852227609966
1731474136.3588867,-0.27416113018989563,0.43637028336524963,-9.988398551940918,-4.351364403779929e-05,-0.00028946670846314784,0.00014097145319422563,2.090169957063447,6.540589934473342,0.7523370022071868
1731474136.408835,-0.46316227316856384,0.3740302622318268,-9.99268913269043,-5.071182015153435e-05,-0.0003500039223616731,0.00017259534350220644,2.0903163425226876,6.541051422268727,0.7523897763250932
1731474136.4588637,-0.46316227316856384,0.3740302622318268,-9.99268913269043,-5.895446691874751e-05,-0.00041624290290133084,0.00020837962309282632,2.092690640754865,6.548536505058853,0.753245762046909
1731474136.4588637,-0.7430660724639893,0.23497319221496582,-10.004386901855469,-6.715590991985126e-05,-0.00048708797617772983,0.000248311683223659,2.0927363553547718,6.548680622102929,0.7532622434492188
1731474136.5088224,-0.1835746020078659,0.5284029841423035,-9.957141876220703,-7.208932034734892e-05,-0.0005604684507064339,0.00029225600103707035,2.10293797279642,6.580841201831574,0.7569406094485481
1731474136.5587819,-0.32869449257850647,0.37620213627815247,-10.047292709350586,-6.895360583280413e-05,-0.0006336210307219511,0.0003399933063334402,2.113207776407588,6.613215801409501,0.7606444149831105
1731474136.6086814,-0.3212164640426636,0.5026140809059143,-9.98022747039795,-5.317020497095305e-05,-0.0007038759848845336,0.00039118193919425773,2.163436036597727,6.64546599418988,0.7788363206530299
1731474136.6586556,-0.3097893297672272,0.373074471950531,-9.942727088928223,-2.1426646491551022e-05,-0.0007691231034175586,0.00044532579380177057,2.1738554806219157,6.677771189704603,0.7825967214474449
1731474136.7085814,-0.3097893297672272,0.373074471950531,-9.942727088928223,2.840271263824367e-05,-0.0008276871070455249,0.0005020159946555408,2.212961011372543,6.710050195693731,0.7968816501953816
1731474136.7085814,-0.36415764689445496,0.45885133743286133,-10.01577377319336,9.749012844956127e-05,-0.0008779814607905684,0.0005612169060823431,2.213017897705775,6.710224661644043,0.7969021989484558
1731474136.7586725,-0.3174515664577484,0.43460458517074585,-9.97563648223877,0.00018627805005478644,-0.0009184527970967683,0.0006231762926407666,2.2235332155341156,6.74247245975929,0.8007012877045875
1731474136.808501,-0.3174515664577484,0.43460458517074585,-9.97563648223877,0.00029468647749255326,-0.0009478587724145019,0.0006881610502080818,2.2546446468072228,6.774655278336258,0.8121815309809535
1731474136.808501,-0.37348827719688416,0.42250683903694153,-9.971975326538086,0.0004221740072724047,-0.0009654087647185845,0.000756405512110801,2.2546978281545926,6.774817259572571,0.8122007674100798
1731474136.858473,-0.3333224654197693,0.4560640752315521,-10.020543098449707,0.0005678476107634828,-0.0009706883187125896,0.0008281587952319903,2.2652791028714994,6.807042631124188,0.8160289388858714
1731474136.9084017,-0.3716474175453186,0.4254069924354553,-9.993083000183105,0.0007306642236611209,-0.0009636203422013066,0.0009035823828527961,2.2910602774481306,6.840159964214039,0.8255460944250758
1731474136.9583972,-0.30855798721313477,0.4505065679550171,-9.975634574890137,0.000909519698102953,-0.0009444720511992714,0.0009826239122261897,2.301433256456213,6.87161111814932,0.829303473538407
1731474137.0092394,-0.33945232629776,0.44332513213157654,-10.006049156188965,0.001103173142418619,-0.0009138351236866469,0.001065059105253062,2.322496714900052,6.9044293293169785,0.8371924618751182
1731474137.0592687,-0.30693483352661133,0.45724576711654663,-9.974886894226074,0.0013101146254610521,-0.0008726185032920912,0.001150585166690592,2.3332020323907052,6.936817848741253,0.8410760787023416
1731474137.1091747,-0.30693483352661133,0.45724576711654663,-9.974886894226074,0.0015284708920322953,-0.0008220700639920986,0.0012388687305834726,2.350676496948649,6.969053872566124,0.8476405599062705
1731474137.1091747,-0.3404017686843872,0.42924872040748596,-9.97957992553711,0.0017559824346259985,-0.0007637629428959448,0.0013296218024505951,2.350740539452305,6.9692475263362095,0.8476638196700605
1731474137.159192,-0.3404017686843872,0.42924872040748596,-9.97957992553711,0.0019901119625357626,-0.0006994755161917176,0.0014226634389677487,2.3613604479176176,7.001352004560055,0.8515217613395508
1731474137.159192,-0.33027854561805725,0.4503231644630432,-9.993732452392578,0.002228252134118325,-0.0006310236656380817,0.0015178930418510113,2.361428235061688,7.001556874960885,0.8515463922285256
1731474137.2090607,-0.33027854561805725,0.4503231644630432,-9.993732452392578,0.002467845933016735,-0.0005602116006052544,0.0016152090354770545,2.3720314582675344,7.033592657493554,0.8554000298265193
1731474137.2090607,-0.3312438130378723,0.4298307001590729,-9.984983444213867,0.0027063821415585242,-0.000488884173840406,0.0017144349804387132,2.3720969768796083,7.033790549204596,0.8554238474151653
1731474137.2591295,-0.3312438130378723,0.4298307001590729,-9.984983444213867,0.002941383147435526,-0.00041890176068568106,0.0018153110914360367,2.385979320559982,7.065938280018536,0.8606824823578305
1731474137.2591295,-0.32849225401878357,0.44427555799484253,-9.991825103759766,0.003170422234334346,-0.0003520369986808094,0.0019175359008975269,2.386042228225374,7.066128562862083,0.8607053716407681
1731474137.308942,-0.32849225401878357,0.44427555799484253,-9.991825103759766,0.00339113908202044,-0.0002899439758390959,0.002020780827791522,2.3966249170860867,7.098126021935833,0.8645569093868785
1731474137.308942,-0.3466336131095886,0.43178790807724,-9.988767623901367,0.0036012623633289104,-0.00023420246368953645,0.00212466991628064,2.3966929355308224,7.098331596521596,0.8645816707369605
1731474137.3589773,-0.3466336131095886,0.43178790807724,-9.988767623901367,0.003798682292884937,-0.00018631413560436566,0.0022287761023797622,2.4084034878742666,7.130492367615704,0.8690522327784554
1731474137.3589773,-0.3226473927497864,0.4400995373725891,-9.986501693725586,0.003981530107018802,-0.00014764540896627503,0.002332644883599921,2.4084679739026402,7.130687785707776,0.8690757316106749
1731474137.4088914,-0.3226473927497864,0.4400995373725891,-9.986501693725586,0.004148149101063381,-0.00011941152010865903,0.0024358217660484763,2.4190518050207714,7.1627452458845715,0.8729336448776716
1731474137.4088914,-0.3401765823364258,0.42628738284111023,-10.006254196166992,0.00429699242756066,-0.00010270017207444915,0.002537853912935311,2.419116456127043,7.162940972213145,0.8729572178497079
1731474137.4588525,-0.3401765823364258,0.42628738284111023,-10.006254196166992,0.004426610249281299,-9.84514024137134e-05,0.0026382317429491623,2.4290005087965554,7.195055041159833,0.8767631221874871
1731474137.4588525,-0.32638588547706604,0.4399968981742859,-9.992179870605469,0.004535722545494912,-0.00010740665808709848,0.00273631142586767,2.4290656816683525,7.19525308617739,0.876786911878651
1731474137.50879,-0.3352645933628082,0.4304140508174896,-9.980989456176758,0.0046232407302108,-0.00013011306536617016,0.0028313326031259973,2.4395992634542107,7.227244664123484,0.8806333378298506
1731474137.5588923,-0.3352645933628082,0.4304140508174896,-9.980989456176758,0.004688236520725763,-0.00016696492944900127,0.002922544022532652,2.4502751199545725,7.259632635359945,0.8845346581530793
1731474137.5588923,-0.33292460441589355,0.43939563632011414,-9.997173309326172,0.004729937325278339,-0.00021821899412946395,0.0030093085529262725,2.450338533276916,7.259824908023149,0.8845578406160329
1731474137.6086698,-0.3363683819770813,0.4308415949344635,-9.980420112609863,0.004747739230092885,-0.0002840054931656684,0.003091104729943787,2.4580428821859495,7.496592014408367,0.8875400924239822
1731474137.6586838,-0.3363683819770813,0.4308415949344635,-9.980420112609863,0.0047412102051380195,-0.0003643453729766099,0.0031675003066543137,2.4685465131578703,7.529453188134691,0.8913861411442413
1731474137.6586838,-0.3302421271800995,0.4421899914741516,-9.979595184326172,0.004710088252262992,-0.00045915330698648887,0.0032381789308252814,2.4686132495497985,7.5296618573832275,0.8914105888162539
1731474137.7086177,-0.3302421271800995,0.4421899914741516,-9.979595184326172,0.004654261883100653,-0.000568263135649338,0.0033029773841004193,2.474903365266277,7.689683842552899,0.8939064370891296
1731474137.7086177,-0.3371421694755554,0.43059173226356506,-9.996553421020508,0.004573740158320583,-0.0006914752848956156,0.003361871132381216,2.4753404026458643,7.691079101949059,0.8940667833892894
1731474137.758543,-0.3371421694755554,0.43059173226356506,-9.996553421020508,0.0044686526646936205,-0.0008285533527390279,0.003414898235976005,2.4854473356265387,7.723327810114724,0.8977770752655584
1731474137.758543,-0.3301190137863159,0.4375700056552887,-9.977168083190918,0.004339270912918777,-0.000979176437207489,0.00346207880620936,2.485520320975168,7.7235605623553765,0.8978038832613793
1731474137.8085432,-0.3301190137863159,0.4375700056552887,-9.977168083190918,0.00418599913836751,-0.001142929156625223,0.003503428934600572,2.495998824982915,7.756958826549572,0.9016551423404533
1731474137.8085432,-0.34019094705581665,0.43010377883911133,-9.982741355895996,0.0040093428226255015,-0.0013193314751980976,0.0035390481733827616,2.4960664187889123,7.757174153427682,0.901680001402602
1731474137.8584952,-0.34019094705581665,0.43010377883911133,-9.982741355895996,0.00380991436448281,-0.001507842650493492,0.003569158158629405,2.5065712189656724,7.790621291394505,0.9055460590036819
1731474137.8584952,-0.33192288875579834,0.43809831142425537,-9.991263389587402,0.0035884661659095927,-0.0017078404177096143,0.0035940639285240846,2.5066421727684896,7.7908470928748015,0.905572190163724
1731474137.9083514,-0.34595686197280884,0.4304082989692688,-9.981121063232422,0.003345895420749264,-0.0019186262995777676,0.003614098724242643,2.5103540790214964,7.824844527547904,0.9071573741560693
1731474137.9583144,-0.34595686197280884,0.4304082989692688,-9.981121063232422,0.003083242023823266,-0.002139445051866795,0.0036296037307585885,2.520608830546663,7.857752702915355,0.9109449608203926
1731474137.9583144,-0.3420066237449646,0.443705290555954,-9.989968299865723,0.0028017122248643394,-0.0023694926198017763,0.0036409412532327884,2.520674654421235,7.857963843167207,0.9109692920750644
1731474138.0092392,-0.34163692593574524,0.42966023087501526,-9.989768028259277,0.0025026823372834746,-0.0026079393100813426,0.003648486568138843,2.5234614740459858,7.892003541030872,0.912016636254608
1731474138.0592258,-0.34163692593574524,0.42966023087501526,-9.989768028259277,0.0021876607764596007,-0.002853949709501472,0.0036525856470187856,2.5338383944382654,7.92561115852545,0.915859878597627
1731474138.0592258,-0.33824580907821655,0.44014066457748413,-9.97556209564209,0.0018582443722958235,-0.003106667227973186,0.00365353939522372,2.533902222634328,7.9258178014693295,0.9158835402517052
1731474138.1091983,-0.341629296541214,0.4363786280155182,-9.98953914642334,0.001516084712203855,-0.0033652159091053855,0.0036516399148684496,2.5442466074154337,7.959297286571313,0.919722143579875
1731474138.1591976,-0.341629296541214,0.4363786280155182,-9.98953914642334,0.0011628657087428681,-0.0036287372320223266,0.0036471965158233768,2.5546297251017482,7.992882617305826,0.9235829747336048
1731474138.1591976,-0.3402191698551178,0.43175989389419556,-9.978646278381348,0.0008002945880292371,-0.0038964044336173686,0.003640516397978284,2.554697026282176,7.993100250231299,0.923608026003147
1731474138.209059,-0.3476492762565613,0.432100772857666,-9.985774040222168,0.0004300990341417363,-0.0041674010665029,0.003631897919574643,2.5649997401381976,8.026409425440356,0.9274472580326277
1731474138.2590916,-0.3476492762565613,0.432100772857666,-9.985774040222168,5.403504002487592e-05,-0.004440896450422605,0.0036216501184361933,2.564354599308484,8.060020861965171,0.927268798617128
1731474138.2590916,-0.33999305963516235,0.4344528317451477,-9.983550071716309,-0.00032610174732762565,-0.004716039868419707,0.003610091164231673,2.5644175392380673,8.06022705035595,0.9272923315652675
1731474138.3088815,-0.33999305963516235,0.4344528317451477,-9.983550071716309,-0.0007084980575937025,-0.004991974534529603,0.0035975362093295907,2.5745446386308535,8.093399688763416,0.9310835468172544
1731474138.3088815,-0.34422069787979126,0.4327370822429657,-9.9750337600708,-0.001091371650548032,-0.00526785592422652,0.003584308020357476,2.574608430664049,8.093608627302011,0.9311074580952227
1731474138.3589008,-0.34422069787979126,0.4327370822429657,-9.9750337600708,-0.0014729947798792819,-0.005542858515858373,0.0035707710918497595,2.584792130595852,8.126962478653024,0.934929750978172
1731474138.3589008,-0.3437175154685974,0.44072937965393066,-9.988846778869629,-0.001851686686308949,-0.005816179532675203,0.003557356777295316,2.5848570516961247,8.127175103857422,0.9349541507624617
1731474138.4087975,-0.3437175154685974,0.44072937965393066,-9.988846778869629,-0.0022258097542836273,-0.006087064847395757,0.003544529015481603,2.582622641281715,8.160625766100656,0.9341471839541713
1731474138.4087975,-0.34332624077796936,0.4315757751464844,-9.98684024810791,-0.0025937793993519795,-0.006354841610612221,0.003532708598842349,2.5826854246857174,8.160834684436209,0.9341708430064378
1731474138.458818,-0.34332624077796936,0.4315757751464844,-9.98684024810791,-0.0029540767764328867,-0.006618907895335969,0.0035222317528076147,2.5926675449885868,8.19405518850501,0.9379381863144738
1731474138.458818,-0.33988749980926514,0.436118483543396,-9.992659568786621,-0.0033052621985990346,-0.006878689543657849,0.0035133514081780812,2.592727633200183,8.194255186027787,0.9379608986143093
1731474138.5087607,-0.33988749980926514,0.436118483543396,-9.992659568786621,-0.0036459946477963782,-0.007133625120797547,0.0035062322403033508,2.602720068378334,8.22752018169889,0.941743913598949
1731474138.5087607,-0.3460216820240021,0.428290456533432,-9.99396800994873,-0.003975047679325952,-0.007383179193466296,0.0035009303676620434,2.602775694067069,8.227705395143838,0.9417650065050758
1731474138.5588555,-0.3460216820240021,0.428290456533432,-9.99396800994873,-0.004291299345575288,-0.007626832632659113,0.0034973825106765603,2.5992115205234727,8.261184742578532,0.9403919794346833
1731474138.5588555,-0.32766076922416687,0.4385663866996765,-9.993430137634277,-0.0045937194214539095,-0.007864057496202743,0.003495412070461722,2.599292310352182,8.261458678683937,0.9404227011244607
1731474138.6086557,-0.32766076922416687,0.4385663866996765,-9.993430137634277,-0.004881415675757474,-0.008094333906015863,0.003494744771819766,2.6091576604207,8.294920006839519,0.944180900374094
1731474138.6086557,-0.3306537866592407,0.4353063106536865,-9.987985610961914,-0.0051537190321711505,-0.008317201311256378,0.003495032648757136,2.609206113581389,8.295084402634771,0.9441993915935646
1731474138.6586676,-0.3306537866592407,0.4353063106536865,-9.987985610961914,-0.005410218187093299,-0.008532281423732496,0.0034958903654214567,2.6051445021654147,8.327991700050955,0.9425410096685698
1731474138.6586676,-0.3333236277103424,0.4373985528945923,-9.995209693908691,-0.005650729056149241,-0.008739265337656139,0.003496928549539625,2.6051933575441932,8.3281606886785,0.9425597007106564
1731474138.7086084,-0.3333236277103424,0.4373985528945923,-9.995209693908691,-0.005875248113166022,-0.008937904319843825,0.0034977526120581748,2.6017901211092265,8.361443386587386,0.9413677231861292
1731474138.7086084,-0.3319365978240967,0.4339129328727722,-9.97912311553955,-0.006083915353109295,-0.009128010944997125,0.003497948838675345,2.6018362105813497,8.36160591824388,0.9413854387333374
1731474138.758562,-0.3319365978240967,0.4339129328727722,-9.97912311553955,-0.006276992494470094,-0.009309449321289924,0.003497124520465155,2.611217501881922,8.394704261235946,0.9449986359132315
1731474138.758562,-0.333381712436676,0.4398839473724365,-9.9823637008667,-0.006454851467867433,-0.009482119836625998,0.003494987463575588,2.6112681904459087,8.394883182289464,0.9450181980121432
1731474138.8085184,-0.333381712436676,0.4398839473724365,-9.9823637008667,-0.006617959323742411,-0.00964596643729282,0.00349138127618228,2.620665126311414,8.42806961025964,0.948652235225855
1731474138.8085184,-0.3302189111709595,0.438150554895401,-9.991358757019043,-0.006766860717470753,-0.009801001003032116,0.0034862565102540067,2.6207216931177446,8.428269485584618,0.9486741563482832
1731474138.8586066,-0.3302189111709595,0.438150554895401,-9.991358757019043,-0.006902171867768666,-0.009947311055927327,0.0034796120507475468,2.6301326995865746,8.461540748822433,0.9523288622540482
1731474138.8586066,-0.3308621346950531,0.44120118021965027,-9.983616828918457,-0.007024583398512106,-0.01008504898990912,0.0034714443441526627,2.6301849985647556,8.461725744839006,0.9523492150567315
1731474138.8586066,-0.3308621346950531,0.44120118021965027,-9.983616828918457,-0.007134855511203246,-0.01021442815146894,0.003461744313158501,2.618412255501696,8.471992759496414,0.9479131763032128
1731474138.8586066,-0.3308621346950531,0.44120118021965027,-9.983616828918457,-0.007233803094398439,-0.010335728924295544,0.0034505329907478085,2.618456812838407,8.472153813179306,0.9479305486072228
1731474139.2399957,-0.3308621346950531,0.44120118021965027,-9.983616828918457,-0.007322280426310559,-0.010449299107206383,0.0034378855717602463,2.6579255298649445,8.715137810636147,0.9640537093829713
1731474139.2399957,-0.3376094102859497,0.43933042883872986,-9.987139701843262,-0.007401163039866788,-0.010555543421493379,0.0034239271083424854,2.6579715429042223,8.7153123844754,0.9640722733405446
1731474139.2900891,-0.3376094102859497,0.43933042883872986,-9.987139701843262,-0.007471314094471606,-0.010654906002452585,0.0034088117465200197,2.6666813492794095,8.748379587171396,0.9675942782191667
1731474139.2900891,-0.3423849642276764,0.43753117322921753,-9.985186576843262,-0.007533539197291578,-0.010747849925834803,0.003392700105343984,2.6667322240570814,8.748572865347478,0.9676148976288578
1731474139.3398674,-0.3423849642276764,0.43753117322921753,-9.985186576843262,-0.0075885476612416215,-0.010834837939120781,0.003375751518999474,2.658121845137345,8.78128487227076,0.9645145695129969
1731474139.3398674,-0.34360605478286743,0.4366273581981659,-9.992426872253418,-0.007636928996862892,-0.010916316927865011,0.0033581238886443436,2.658168012131043,8.78146530785022,0.9645333937917945
1731474139.389985,-0.34360605478286743,0.4366273581981659,-9.992426872253418,-0.007679145521779264,-0.010992707223354775,0.003339953631355706,2.666611049996266,8.814487244094185,0.9679840852159829
1731474139.389985,-0.3389294445514679,0.4368346929550171,-9.979833602905273,-0.007715542331473549,-0.011064397091685474,0.0033213318942783114,2.6666569531205884,8.814666907551842,0.9680028900789152
1731474139.4397805,-0.3389294445514679,0.4368346929550171,-9.979833602905273,-0.007746376155290381,-0.011131742087166274,0.0033023300739599727,2.675209123371873,8.848164599610296,0.9715147617225941
1731474139.4397805,-0.3331068754196167,0.42958614230155945,-9.990646362304688,-0.007771857771353769,-0.011195061051646247,0.0032830541049413547,2.675251432339715,8.848330440801739,0.9715321769287104
1731474139.4898527,-0.3331068754196167,0.42958614230155945,-9.990646362304688,-0.007792196897397182,-0.011254613938361604,0.0032636447799771788,2.6834580043348026,8.880521285364468,0.9749178850176416
1731474139.4898527,-0.335146963596344,0.4248596131801605,-9.98840618133545,-0.007807636272006132,-0.011310565780191253,0.0032442261565352845,2.6835129867651175,8.880737112523807,0.9749406205274074
1731474139.539713,-0.335146963596344,0.4248596131801605,-9.98840618133545,-0.007818459938835792,-0.011362957320849448,0.003224876061303509,2.6729832748485833,8.913360832511685,0.9711101949295251
1731474139.539713,-0.3328384459018707,0.4296468496322632,-9.984148025512695,-0.007824982389454869,-0.011411696975187863,0.0032056385729187713,2.6730324418780835,8.913560163323801,0.9711306597993828
1731474139.5897124,-0.3308675289154053,0.4361976087093353,-9.986226081848145,-0.007827545287251183,-0.011456589514226616,0.003186550296537872,2.6636186164870725,8.946654520570153,0.9677930188828906
1731474139.639718,-0.3300713300704956,0.44613346457481384,-9.986385345458984,-0.00782652989065397,-0.011497409759901997,0.0031676585955219697,2.6714328767452655,8.97938865402513,0.971077323376496
1731474139.6895943,-0.3355879783630371,0.4400116503238678,-9.9830961227417,-0.007822365359407522,-0.011533994369485644,0.0031490260283250577,2.6792609470556648,9.01223343834742,0.9743834425900197
1731474139.7396622,-0.3371192514896393,0.4425605237483978,-9.980547904968262,-0.0078155104375006,-0.011566298093898569,0.00313073701470455,2.687146333271995,9.04537239090044,0.9777300386181732
1731474139.789675,-0.33719924092292786,0.4419511556625366,-9.980554580688477,-0.007806414392196356,-0.011594395680292864,0.003112918007826552,2.694931597923454,9.07814367183385,0.9810502293745523
1731474139.8395355,-0.33719924092292786,0.4419511556625366,-9.980554580688477,-0.007795486782787213,-0.011618463318483638,0.0030957549677611586,2.702679399060944,9.110809856432112,0.9843703772778155
1731474139.8395355,-0.3354564905166626,0.445912629365921,-9.973817825317383,-0.007783090405167058,-0.011638767079511319,0.0030795000877778243,2.702729429513137,9.11102096530409,0.984391868539535
1731474139.8896139,-0.3405797779560089,0.44538143277168274,-9.989174842834473,-0.007769545003932256,-0.011655661839228986,0.0030644710868665257,2.6896175988251265,9.143585786683422,0.9795579491516062
1731474139.9394777,-0.33414551615715027,0.4462050497531891,-9.99086856842041,-0.0077551274692455215,-0.011669594908710688,0.003051016529670477,2.697087038801011,9.176376862381314,0.9827999255298733
1731474139.9894018,-0.3440423011779785,0.44702938199043274,-9.984944343566895,-0.007740068559806261,-0.011681103209999374,0.003039446859877683,2.6844276299158527,9.208918600269437,0.9781542865643061
1731474140.0392613,-0.32870543003082275,0.43953606486320496,-9.982325553894043,-0.00772455373110591,-0.011690796759896087,0.003030000847885797,2.691557416337637,9.241529066823542,0.9812907765669768
1731474140.089296,-0.34796392917633057,0.4402678906917572,-9.993621826171875,-0.007708731220016603,-0.011699321771835514,0.003022863759419447,2.698704916324034,9.274279629559365,0.9844511330541068
1731474140.1402464,-0.33399584889411926,0.432169646024704,-9.98773193359375,-0.007692712518279687,-0.011707306553562275,0.003018170547534319,2.7059661488216267,9.307612181794582,0.987678359413987
1731474140.1902158,-0.339699923992157,0.42898687720298767,-9.98838996887207,-0.007676564411597683,-0.011715302587033433,0.003015984890823875,2.691847893923543,9.340101896883883,0.9824178465529152
1731474140.2401154,-0.34191736578941345,0.42445263266563416,-9.988052368164062,-0.0076603126217003464,-0.011723726078587722,0.0030162992287412842,2.6986408483161615,9.372726011644373,0.985481269586355
1731474140.2900033,-0.32970547676086426,0.4250764548778534,-9.985917091369629,-0.007643953156939229,-0.011732811684977277,0.003019054782118061,2.685081537948362,9.405132521850492,0.9804455078172594
1731474140.3400288,-0.32910072803497314,0.4251329004764557,-9.99003791809082,-0.007627481686780825,-0.01174259577820502,0.003024157278069128,2.67291493950242,9.200526169736214,0.975995695759821
1731474140.3900661,-0.3384392559528351,0.42610400915145874,-9.983735084533691,-0.007610940469572258,-0.011752930768048873,0.003031485012928872,2.679099012689798,9.23119588849367,0.9788587580195846
1731474140.439955,-0.3377346694469452,0.435489296913147,-9.978569030761719,-0.007594423290271501,-0.011763524677784437,0.003040906135772105,2.6852830593045143,9.26193039826053,0.9817382120638117
1731474140.4899478,-0.33423569798469543,0.4322376847267151,-9.991771697998047,-0.007578035221046054,-0.01177400305701834,0.0030523082189980034,2.672843325438248,9.29276250219793,0.9771106409988399
1731474140.5398195,-0.3368098735809326,0.4413033127784729,-9.979137420654297,-0.0075618708391784455,-0.0117839765270686,0.0030656060627904077,2.678655263842505,9.323022659223874,0.9798630540685593
1731474140.5896668,-0.32903242111206055,0.43979355692863464,-9.979314804077148,-0.007546025511726184,-0.011793096215579977,0.003080735610925208,2.6844913645668607,9.35347652394791,0.982643307444285
1731474140.6397073,-0.33598414063453674,0.4474576413631439,-9.982017517089844,-0.007530615197244329,-0.011801099300365856,0.0030976724763956227,2.6903443891198915,9.384087476808121,0.9854483068005562
1731474140.6897366,-0.341476172208786,0.44930747151374817,-9.990230560302734,-0.0075157777895412305,-0.01180785042986878,0.0031164404274458134,2.676636548505309,9.414620879237212,0.9802684568848404
1731474140.7397206,-0.3397352695465088,0.44789478182792664,-9.97748851776123,-0.007501637990650923,-0.011813374108616673,0.003137080543930106,2.682201353968305,9.445255133796314,0.9829860217963281
1731474140.7895658,-0.3330007493495941,0.44037196040153503,-9.997563362121582,-0.007488272296351974,-0.011817855151041438,0.0031596203170150745,2.687700828214178,9.475602967829522,0.985688614937631
1731474140.8395772,-0.03880907967686653,0.5903394818305969,-9.978856086730957,-0.0074759870408256145,-0.011821726330654356,0.003184055347524915,2.6932239639933435,9.506155200069509,0.9884199938728178
1731474140.8895676,-0.0758434385061264,0.5316457748413086,-10.008713722229004,-0.0074663410798411125,-0.011826068146962857,0.0032103233714431316,2.678152085421483,9.536396059600838,0.9827287492015802
1731474140.9393978,0.48951706290245056,0.8079436421394348,-9.981762886047363,-0.007463922389431454,-0.011833314749284417,0.0032382693901170856,2.683329937053732,9.566723736392179,0.9853463389565019
1731474140.9892786,0.7771492004394531,0.6103816628456116,-10.015816688537598,-0.007478983496061882,-0.011848048898497214,0.0032676147132513255,2.668918125961146,9.596930205303691,0.9799296011119601
1731474141.0394018,0.1431780755519867,0.499295175075531,-10.044015884399414,-0.007530091969125643,-0.011877219855922879,0.0032978849016620515,2.673847080629706,9.62753165304783,0.9824811223619774
1731474141.0892773,0.413790225982666,0.48516714572906494,-9.909783363342285,-0.0076441380046338055,-0.011929155127786892,0.003328349905536334,2.6786801105055753,9.657624963869994,0.9850009677707603
1731474141.1401522,0.038903508335351944,0.3011943995952606,-9.996171951293945,-0.00785346916074641,-0.01201195997003219,0.003358225694311809,2.664113928962109,9.688355164591703,0.9795434459702268
1731474141.1902132,0.22217567265033722,0.33590275049209595,-10.001534461975098,-0.008192868987143883,-0.012132150599476912,0.003386968257617321,2.6686919948154277,9.718696806682242,0.9819958077047544
1731474141.2402446,0.017560504376888275,0.20069876313209534,-9.97430419921875,-0.008697542132624345,-0.012293653143483628,0.00341424067123713,2.654519364768198,9.748995057087015,0.9767768985948697
1731474141.2901216,-0.7728275656700134,-0.02461777999997139,-9.977519989013672,-0.00940095807810317,-0.012496946708195397,0.003439762484590744,2.6587676342538056,9.77906569833581,0.9791248050342465
1731474141.3400016,-1.2074174880981445,-0.021463442593812943,-10.009428024291992,-0.01033056949203058,-0.012737975925364194,0.003463314903290883,2.6452740748591728,9.809335679060355,0.9741562092552433
1731474141.3900766,-0.23980385065078735,0.27316224575042725,-9.937684059143066,-0.011502720929565597,-0.013007468058011258,0.0034847604115456413,2.649236246628725,9.839383551066996,0.9764245497484738
1731474141.4400213,-0.7082184553146362,0.12128511071205139,-10.163931846618652,-0.012921663852344499,-0.013291823326563913,0.003503928510535914,2.653171783321596,9.869427341874754,0.9787037571070737
1731474141.4898539,-0.29287877678871155,0.4290388226509094,-9.929959297180176,-0.014582806120584546,-0.013575050328802775,0.0035202901347710608,2.6398917407177818,9.89926367854425,0.9736209258039576
1731474141.5398967,-0.5628702044487,0.09986446797847748,-10.001678466796875,-0.016475753879497273,-0.013840372080120712,0.003532805713300914,2.643544459935491,9.929376713794845,0.9758277608505185
1731474141.5897396,-0.3513105511665344,0.46714502573013306,-10.08678913116455,-0.018585798616959356,-0.014071080082580322,0.0035401955991231243,2.647119639810065,9.959174152582914,0.978022771714454
1731474141.6397777,-0.5107159614562988,0.16161222755908966,-9.946783065795898,-0.020894825532946526,-0.014250984054954906,0.003541065718829996,2.6331513471121526,9.989188971872036,0.9729330388833802
1731474141.6896517,-0.4068586826324463,0.43703973293304443,-9.962201118469238,-0.023381963686332382,-0.014364779789836905,0.0035339285692748035,2.636394123879435,10.018977020500296,0.9750519463519887
1731474141.7396317,-0.49801453948020935,0.2526971399784088,-10.004266738891602,-0.02602406673461855,-0.014398338938341984,0.003517531420134559,2.63960192845132,10.048977235464914,0.977197359181444
1731474141.789641,-0.37864023447036743,0.4197238087654114,-9.953781127929688,-0.028796166707480416,-0.014338952958857506,0.0034910793601555337,2.642711636028777,10.078661017291113,0.9793314015402463
1731474141.8394883,-0.42949461936950684,0.29616859555244446,-9.941106796264648,-0.03167205908611775,-0.014175538205252925,0.0034542182928472354,2.628105115843529,10.108357802019015,0.9738695620831939
1731474141.8893626,-0.41107162833213806,0.3372349739074707,-10.000696182250977,-0.034624949146096484,-0.013898665575900127,0.003407078215357351,2.6140843417902166,10.137906830753982,0.9689892845001093
1731474141.9393225,-0.3805420398712158,0.7001015543937683,-9.957939147949219,-0.03762794568393793,-0.013500736705109435,0.0033502412306674455,2.6165026458640623,10.167649704901777,0.9709656666430364
1731474141.9893405,-0.4000968039035797,0.667378306388855,-9.877378463745117,-0.04065444545265134,-0.012977077358617476,0.0032846682087874692,2.6029407478583324,10.197314832137778,0.9663378147769545
1731474142.0393183,-0.4872780740261078,1.1421082019805908,-9.997286796569824,-0.04367839159774041,-0.012327933863945593,0.0032118453262089696,2.604948050329639,10.227112875473829,0.968249578147177
1731474142.0892508,-0.4453103244304657,0.9864438772201538,-9.849359512329102,-0.04667421030847015,-0.011560538361954822,0.0031339281445403777,2.6068233219042978,10.2565863223427,0.9701502988646519
1731474142.139246,-0.5104879140853882,0.7967690229415894,-10.028023719787598,-0.04961660071809587,-0.010690080895475903,0.003053670821372936,2.5936162630644555,10.286156696411203,0.9654675490256264
1731474142.1901712,-0.3782177269458771,0.7711344957351685,-9.996058464050293,-0.05248056935235425,-0.00973852543032071,0.0029741300732302224,2.5950870164576125,10.316301597870757,0.9673408405115801
1731474142.2401364,-0.4499201774597168,0.7072227597236633,-10.010408401489258,-0.055241823468695085,-0.008732073500559453,0.002898145724580306,2.582567844509041,10.345823989868615,0.9628822343445965
1731474142.2900872,-0.3696022629737854,0.713841438293457,-10.044113159179688,-0.05787731088207181,-0.007699067561503417,0.002827919384999278,2.5835596984806073,10.375397050625716,0.9646531457128126
1731474142.3400176,-0.42195576429367065,0.5679761171340942,-9.984193801879883,-0.06036561913795189,-0.006668638863674964,0.0027648917406361225,2.5844023238315965,10.40490689871984,0.9664283333933716
1731474142.3899982,-0.30900314450263977,0.6061761379241943,-10.027217864990234,-0.06268724452270896,-0.0056695409049470225,0.0027098091572526125,2.585090975840243,10.43438351115227,0.9682092751845447
1731474142.4399173,-0.36433690786361694,0.5541598200798035,-9.993165969848633,-0.06482490171213345,-0.004729124434898787,0.0026628808959359316,2.5722659549630604,10.463743722230843,0.9634353199506407
1731474142.4898849,-0.36433690786361694,0.5541598200798035,-9.993165969848633,-0.06676376816831844,-0.003872698046372175,0.0026239293387065763,2.5724673849357007,10.493068169172062,0.9651354137497753
1731474142.4898849,-0.3449501693248749,0.5600143671035767,-10.049895286560059,-0.06849145711238935,-0.003123224779685495,0.002592478452187987,2.5724682742347613,10.493288619881044,0.9651482211119277
1731474142.5398262,-0.3187732696533203,0.5636372566223145,-10.002037048339844,-0.06999789308770502,-0.002501218799496487,0.0025677236754344584,2.560009564699254,10.522466303856223,0.9606117813514935
1731474142.5898345,-0.30297085642814636,0.5662887096405029,-10.012564659118652,-0.07127535464116966,-0.002024802186288203,0.002548475198087141,2.548331026573056,10.551769384098407,0.9565527954855901
1731474142.6396751,-0.3056734502315521,0.5174658894538879,-10.006267547607422,-0.07231859186061326,-0.0017097754920685853,0.0025332497446356435,2.547711272384794,10.581313459515803,0.958127840262624
1731474142.689624,-0.32618317008018494,0.5069574117660522,-9.982719421386719,-0.07312480594339604,-0.0015695356728471768,0.002520438951448756,2.546916150448762,10.610610650286498,0.9596962108197815
1731474142.7396877,-0.273434042930603,0.514680802822113,-9.964303016662598,-0.0736934780412192,-0.0016148963756159298,0.0025084868892864933,2.5459260617610346,10.640275187050749,0.9612907939252203
1731474142.7895157,-0.2996521592140198,0.5227103233337402,-9.985552787780762,-0.07402622059390299,-0.0018540442890103187,0.0024960878845507713,2.5341091372296933,10.669346962575876,0.9569417193132187
1731474142.8395174,-0.3358599841594696,0.5379204750061035,-9.958097457885742,-0.07412664929897957,-0.0022927237046313177,0.002482302767536049,2.532613232156825,10.699134160614506,0.9584773034413813
1731474142.8894358,-0.336078017950058,0.4931144118309021,-9.98670482635498,-0.0740000694130852,-0.0029344900242356466,0.0024665615281121477,2.5310037730460913,10.727843449888693,0.9543420501738844
1731474142.939421,-0.33337661623954773,0.5128029584884644,-10.005820274353027,-0.07365304936378432,-0.003780844882726578,0.002448583889359153,2.5291459800345972,10.757450069795029,0.9558071703948304
1731474142.989331,-0.3498041331768036,0.4721747934818268,-9.94282341003418,-0.07309312341691734,-0.004831252044188467,0.0024282536550057562,2.5271302037517183,10.786663216151036,0.9572593958046598
1731474143.0392566,-0.32534632086753845,0.5132566094398499,-9.986802101135254,-0.07232863041557266,-0.006083168077169835,0.0024056026328655652,2.5249210194822,10.816044674283441,0.9587266750011376
1731474143.0892653,-0.3674081265926361,0.5218324065208435,-10.014200210571289,-0.07136859213490265,-0.007532208482858807,0.0023808520478147757,2.5225631068384757,10.845050455775263,0.9543718485637777
1731474143.1392438,-0.40713658928871155,0.5078936219215393,-9.99518871307373,-0.07022251663504857,-0.009172455335526228,0.002354273513221582,2.519984817543638,10.874544117680406,0.9557824412456534
1731474143.1901145,-0.3748840391635895,0.5032426118850708,-9.95654582977295,-0.06890006683408892,-0.01099672929955529,0.0023260334430891903,2.5172631683254885,10.903759142854382,0.9517314340490806
1731474143.2401328,-0.41319382190704346,0.513997495174408,-10.000679969787598,-0.06741077983629565,-0.012996719735682121,0.002296272074297276,2.5144251367379575,10.932480189057694,0.9481067848684827
1731474143.2901106,-0.4174082279205322,0.5009680390357971,-9.988465309143066,-0.06576394082800835,-0.01516308509613697,0.0022652114337988996,2.511344820932095,10.961765959811613,0.9493946787798168
1731474143.3401623,-0.4119400978088379,0.5024043917655945,-9.968817710876465,-0.06396848760962376,-0.01748557740085445,0.0022331210529690456,2.5080964050106695,10.991061510769025,0.9506904479204216
1731474143.3899338,-0.3861069083213806,0.4877097010612488,-9.973749160766602,-0.062032978701777514,-0.019953135582560476,0.002200316699358851,2.5047250509037995,11.020014079446678,0.9519785768593453
1731474143.4400024,-0.3813762664794922,0.4656544327735901,-10.00214672088623,-0.05996573347046821,-0.02255392068575192,0.002167217356715291,2.5012244630976426,7.044934539149496,0.9482768793489036
1731474143.489819,-0.3586125075817108,0.4547431170940399,-9.964475631713867,-0.057775066553954,-0.025275287380903528,0.0021343119477084936,2.497554677387449,7.043935058350315,0.9495135454312068
1731474143.5397732,-0.3363964855670929,0.4302753210067749,-9.970362663269043,-0.0554695162151082,-0.028103718432287064,0.002102120109271271,2.4937090916576263,7.04285952280637,0.9507670748472096
1731474143.5897393,-0.3230259418487549,0.4246014356613159,-10.018203735351562,-0.05305806182442026,-0.03102477330834607,0.0020712137324303066,2.4898166546105767,5.505472850268393,0.9471204392526211
1731474143.6397502,-0.3195480704307556,0.4174511432647705,-9.99730110168457,-0.05055030155767095,-0.03402308944180685,0.0020421267836573734,2.485691597688683,5.493978452052594,0.9483265815661188
1731474143.6896462,-0.29733991622924805,0.400546669960022,-9.969202995300293,-0.04795653928426108,-0.037082450873908844,0.002015209077395763,2.481481667652692,5.482501171704887,0.949526685910832
1731474143.7396011,-0.2849956750869751,0.3818894624710083,-10.001726150512695,-0.04528781780099448,-0.040185876212139225,0.0019906562604084443,2.4772020626782294,5.470765104607675,0.946014423479043
1731474143.789569,-0.2620607912540436,0.3989132344722748,-10.011852264404297,-0.04255596424117601,-0.04331569658160511,0.001968587387656763,2.4727644027085303,5.4590785685903125,0.9471665444875884
1731474143.8395295,-0.3114404082298279,0.37750130891799927,-9.98075008392334,-0.03977359143958565,-0.046453687909254714,0.0019489899318870026,2.4682780955023107,5.447128132218904,0.9439395468937377
1731474143.8895874,-0.29066282510757446,0.38888999819755554,-10.001361846923828,-0.036953924539904454,-0.04958126904836246,0.0019316857335309604,2.4636342453973037,5.435186538681577,0.9450494681643747
1731474143.939539,-0.31284046173095703,0.36997202038764954,-10.00731372833252,-0.034110492158793596,-0.05267969532914293,0.0019163797871468878,2.458883944730657,5.423072148480073,0.9461683530757983
1731474143.9893997,-0.27976566553115845,0.3753986358642578,-10.026233673095703,-0.03125687618743202,-0.05573021983553304,0.0019026337457060134,2.454087152944855,5.410911704180889,0.9472837935923409
1731474144.0392823,-0.2954639196395874,0.3394887149333954,-9.958551406860352,-0.02840660141352589,-0.05871421223035375,0.0018898068304855874,2.449276914835125,5.398452100148188,0.9438412519832919
1731474144.089266,-0.5322554707527161,-0.19363191723823547,-10.011695861816406,-0.025572867196085484,-0.06161272648623616,0.0018771475016198312,2.444323903801481,5.3859590128729895,0.9449122437815815
1731474144.139285,-0.4975226819515228,-0.47324222326278687,-10.109478950500488,-0.022767662199624686,-0.06440442844036198,0.0018638321042897018,2.439376206461311,5.373152779409534,0.9416060842932426
1731474144.1902807,-0.6517626047134399,-0.1517183631658554,-10.05496883392334,-0.020000508996857895,-0.0670625242663744,0.0018486236566774093,2.434206596951081,5.360074534028445,0.9426513822579574
1731474144.2401178,-0.7958483099937439,-0.4603233337402344,-10.047149658203125,-0.017277377924897933,-0.06955337474723416,0.0018294963813535604,2.429183227296049,5.346978679647251,0.9395218673402007
1731474144.2899477,-0.3774668574333191,0.1904527246952057,-9.920002937316895,-0.014600104735157559,-0.07183772685984993,0.0018038193269885186,2.4240404950181342,5.333836742984313,0.9405007375711878
1731474144.3399312,-0.3774668574333191,0.1904527246952057,-9.920002937316895,-0.011967209980450833,-0.07387370731493981,0.001769091289084822,3.187559856024258,5.3203645507034025,0.9375399756103303
1731474144.3399312,-0.7103548049926758,-0.2533815801143646,-10.023809432983398,-0.009375730941458096,-0.07562013230370046,0.0017236265328538398,3.187579904228281,5.320283839354277,0.9375456031716697
1731474144.389945,-0.5084047317504883,0.20593859255313873,-9.930323600769043,-0.006821854551215959,-0.07703792569965366,0.0016666335688567784,3.190894326760699,5.306810531082621,0.9384804218712559
1731474144.4399543,-0.6116470098495483,0.06604569405317307,-9.929553985595703,-0.004300321592728858,-0.07809016239403241,0.0015979881734177071,3.8195177473690816,5.292897994214725,0.9356693137297906
1731474144.489831,-0.5259138345718384,0.24936124682426453,-9.96333122253418,-0.0018043251998246719,-0.07874293162549625,0.0015182449432844928,4.336119223513101,5.278866129388249,0.9331249055625009
1731474144.5398407,-0.5633005499839783,0.1612505167722702,-9.892698287963867,0.000674006527707888,-0.0789665930351064,0.001428724315665662,4.351749155550941,5.264713478040103,0.9339859496882109
1731474144.5897121,-0.5227437615394592,0.1753193736076355,-9.91405963897705,0.0031431537423469535,-0.07873633078461068,0.0013315268852213556,4.3673009402671905,5.250440059525693,0.9348458556562276
1731474144.6397834,-0.530639111995697,0.1455938071012497,-9.948212623596191,0.005611827231488577,-0.07803207407387582,0.0012295482598052056,4.382993219685856,5.23585122003141,0.9357161330170524
1731474144.6897333,-0.4877649247646332,0.19532594084739685,-9.93302059173584,0.008088621141369332,-0.07683817039227792,0.0011263270347337112,4.837263748969674,5.221010370490622,0.9330230019992918
1731474144.7396362,-0.4877649247646332,0.19532594084739685,-9.93302059173584,0.010581662336601225,-0.07514319896317896,0.0010257638665200682,4.8575414213274195,5.206117873886157,0.9338489773389986
1731474144.7396362,-0.4850020408630371,0.15887004137039185,-9.961091995239258,0.0130982955713481,-0.0729399262358738,0.0009319339506961744,4.857706970353932,5.205995600245759,0.933855726763191
1731474144.7895703,-0.042006008327007294,0.42955347895622253,-9.968608856201172,0.015644507934042408,-0.07022535189796658,0.0008489248392959505,4.877826860215635,5.191062820993212,0.9346762754806976
1731474144.8395107,0.20982344448566437,0.5299987196922302,-9.996824264526367,0.01822313617546739,-0.0670013526704436,0.0007805898105630642,5.2724632448273265,5.175650182238134,0.9319816372277699
1731474144.8894217,-0.2961362600326538,0.27400559186935425,-10.028383255004883,0.020831404864956007,-0.06327572363749748,0.00073025785047992,5.296740217082347,5.160245876612417,0.9327690706423438
1731474144.9395008,-0.2961362600326538,0.27400559186935425,-10.028383255004883,0.023460621423875748,-0.05906209506462114,0.0007004451209934743,5.6364535914087615,5.144477724074183,0.9302133701425025
1731474144.9395008,-0.07620701938867569,0.45252323150634766,-9.962984085083008,0.02609835458773649,-0.054378613106837406,0.0006927164588697595,5.636708812479289,5.1443330579075965,0.930220290356921
1731474144.989377,-0.3626199960708618,0.24273060262203217,-10.05359172821045,0.02873016759672351,-0.049247000447614764,0.0007078125506013149,5.664053496690007,5.128792672400837,0.9309616431632974
1731474145.0394049,-0.3626199960708618,0.24273060262203217,-10.05359172821045,0.031340361022728636,-0.043692064650565285,0.0007457507949617706,5.959322598010582,4.118027920994667,0.9285237998738821
1731474145.0394049,-0.1496284306049347,0.48473837971687317,-10.041500091552734,0.033912891802883205,-0.03774098481951772,0.0008056782070619278,5.959478490593075,4.117912862758289,0.9285274454981484
1731474145.0892012,-0.3409866988658905,0.2217046469449997,-10.007319450378418,0.03643184311642568,-0.03142297915185978,0.0008858071828310295,5.989672152162015,4.095622470090162,0.9292335805132381
1731474145.1393504,-0.3409866988658905,0.2217046469449997,-10.007319450378418,0.03888139027188711,-0.024769117307261425,0.0009836724131355619,6.248754315142671,3.536951691329243,0.9269140702734733
1731474145.1393504,-0.19522902369499207,0.4383619427680969,-10.02239990234375,0.04124611917713023,-0.017811601047519186,0.0010964658487588495,6.2490441190033295,3.536722352241888,0.9269200478788686
1731474145.1891997,-0.3174585700035095,0.26658883690834045,-9.997493743896484,0.04351124898994373,-0.010583375662877224,0.00122121423361427,6.281587831164535,3.5109977927193006,0.9275917040848913
1731474145.2401588,-0.2567730247974396,0.41878947615623474,-9.975645065307617,0.04566251200875364,-0.0031183305248687274,0.0013548899869186251,6.31526317203706,3.484451378030705,0.9282876561765584
1731474145.290124,-0.31867489218711853,0.322895348072052,-10.004502296447754,0.0476862571621468,0.004548696126603866,0.0014945816980798119,6.348359913817168,3.4584551767998684,0.9289728052323174
1731474145.3400424,-0.31867489218711853,0.322895348072052,-10.004502296447754,0.04956977118430483,0.012382202348763277,0.0016375963745019768,6.57964469312741,3.4323648061483896,0.926531349875458
1731474145.3400424,-0.2900391221046448,0.4151308536529541,-9.99188232421875,0.05130154525772591,0.020346385445987977,0.001781411715438907,6.579862748768559,3.4322039446036494,0.9265353870582959
1731474145.390102,-0.2900391221046448,0.4151308536529541,-9.99188232421875,0.05287136088706878,0.028405307586175925,0.001923639604690878,6.615042840705628,3.4063351551976173,0.9271879031195692
1731474145.390102,-0.331870973110199,0.35072141885757446,-9.961592674255371,0.054270229200362397,0.03652282797370242,0.002062102965205462,6.6152627767321945,3.406173954087175,0.9271919897992931
1731474145.4399805,-0.31109046936035156,0.4003080129623413,-9.982954025268555,0.055490422149422035,0.04466277664077047,0.002194965439732432,6.8189776229164565,3.380462642961031,0.9248668327929994
1731474145.4899025,-0.3297779858112335,0.40445318818092346,-9.977746963500977,0.05652560389895246,0.05278935002468006,0.0023208059628062818,6.856170478504263,3.3546924618176632,0.9254951814295491
1731474145.5398126,-0.3312694728374481,0.4171616733074188,-9.975252151489258,0.05737089670923102,0.060867318701513996,0.002438590053150857,6.893457353593314,3.3290970845669765,0.9261286511563976
1731474145.589731,-0.3365127444267273,0.42672958970069885,-9.98169231414795,0.05802289162368315,0.06886208313429917,0.0025476085190460594,7.074115349304374,3.3036754458708373,0.9238277923649931
1731474145.6397784,-0.6444383859634399,0.252627432346344,-9.986760139465332,0.05847992281153661,0.07673992575239959,0.002647425616824063,7.113226169823585,3.278279908147426,0.9244401108123953
1731474145.6896195,-0.5891392230987549,0.3251998722553253,-9.954066276550293,0.0587430383450707,0.08446870095207633,0.002737836945641558,7.152191797557101,3.253274163423492,0.9250545767592555
1731474145.739691,-0.7718563675880432,0.09749940782785416,-9.974160194396973,0.0588173314209782,0.09201879942123857,0.0028188923002072396,7.19167858133734,3.2282510938779656,0.9256819218900889
1731474145.7895942,-0.46285444498062134,0.407083123922348,-9.982929229736328,0.05871256733573754,0.09936388503195481,0.002890933017123491,7.3507581412977725,3.2037088286747926,0.9233012543361605
1731474145.839546,0.17480438947677612,0.5993920564651489,-9.956948280334473,0.0584418428691845,0.1064805703680461,0.0029545443539075785,7.391564173076315,3.1792159882511557,0.9239038850894808
1731474145.8895202,0.17480438947677612,0.5993920564651489,-9.956948280334473,0.05801767302389522,0.11334667788352784,0.003010518709773099,7.4319339390870915,3.1552938134366366,0.9216637679494534
1731474145.8895202,-0.4296962022781372,0.3416212499141693,-10.036373138427734,0.057448182095932235,0.11993966004882928,0.003059837420739277,7.432200277766006,3.1551375075529813,0.9216675175796921
1731474145.9394314,-0.10667605698108673,0.5735830664634705,-9.944799423217773,0.05673707597208011,0.126236742177952,0.003103515737637074,7.4730373654336315,3.1313714504820576,0.9222453286400122
1731474145.9893925,-0.4261827766895294,0.25164923071861267,-9.998679161071777,0.05588617117687939,0.132215987653789,0.0031424639056335723,7.513763509450279,3.1080069209038967,0.9201329406838282
1731474146.0393891,-0.4261827766895294,0.25164923071861267,-9.998679161071777,0.05489733219964835,0.13785736953846411,0.00317750879907,7.555114438844542,3.084765203534297,0.9206953431337557
1731474146.0393891,-0.1757666915655136,0.5858380794525146,-10.030649185180664,0.053773415939718704,0.14314367352444804,0.003209336851101386,7.555386169083593,3.084613878664586,0.9206990590879089
1731474146.0892906,-0.36952340602874756,0.26452311873435974,-9.984543800354004,0.052518313864635346,0.14806044819847158,0.003238323576652261,7.5962881613371085,3.0620543769040607,0.9212615069232106
1731474146.1392066,-0.2180897742509842,0.5275964140892029,-9.984308242797852,0.05113634007097601,0.1525953129084467,0.0032645224976326002,7.637635139670955,3.0396927972788066,0.9218363648716412
1731474146.1892066,-0.35027265548706055,0.3020928204059601,-9.998504638671875,0.04963192787475176,0.15673774021545933,0.0032878362501057496,7.679141666520737,3.0176980042480293,0.9224198559800508
1731474146.2392662,-0.24522694945335388,0.4789474606513977,-9.97572135925293,0.04800968667909531,0.16047916018654285,0.003308149658964651,7.720888227793031,2.995980012686699,0.9201435010937651
1731474146.2900531,-0.32880857586860657,0.3587845265865326,-9.992473602294922,0.04627445143227749,0.16381297929908345,0.003325367861039302,7.763368824149529,2.974416721214552,0.9207169638069138
1731474146.3401139,-0.28920209407806396,0.4533703923225403,-9.996732711791992,0.04443131817030882,0.1667345184981291,0.0033394239178191855,7.805301929369405,2.953530555450717,0.9185857387460944
1731474146.3900425,-0.28920209407806396,0.4533703923225403,-9.996732711791992,0.04248568155570669,0.16924085337512237,0.0033502405506334702,7.847171840190243,2.9332221789627773,0.9191303129411397
1731474146.3900425,-0.32036682963371277,0.38436904549598694,-9.975886344909668,0.04044323245222009,0.17133061512816417,0.00335769041177864,7.847453245234692,2.9330872784936406,0.9191339964344816
1731474146.4399643,-0.3222068250179291,0.4288286566734314,-9.992498397827148,0.038309976264873605,0.17300396059815942,0.003361636705336263,7.889472921229802,2.9131832487854017,0.9196875977063845
1731474146.4898868,-0.3282969295978546,0.4256960153579712,-9.982223510742188,0.03609234058306925,0.1742626881839923,0.003361996348004997,7.931547451780631,2.8937280168435255,0.9202490505205561
1731474146.5398424,-0.3282969295978546,0.4256960153579712,-9.982223510742188,0.03379725816904919,0.17511021073962202,0.0033587572234834505,7.973813700626198,2.874587436662506,0.9180599053689324
1731474146.5398424,-0.3342430889606476,0.41899538040161133,-9.977553367614746,0.03143215729517,0.17555142246070848,0.0033519883421855626,7.974081351398939,2.8744681980669626,0.9180633234196193
1731474146.5898244,-0.3342430889606476,0.41899538040161133,-9.977553367614746,0.029004916329411573,0.17559264121819088,0.0033418676599401764,8.015950262420011,2.855986668976554,0.9160994697906341
1731474146.5898244,-0.3272224962711334,0.4375999867916107,-9.990431785583496,0.026523802343896646,0.1752415712442457,0.0033286883574931746,8.016198064061006,2.8558790095392426,0.9161024910142266
1731474146.6398294,-0.3272224962711334,0.4375999867916107,-9.990431785583496,0.02399737517629269,0.17450719079092747,0.0033128103067728057,8.058625308772495,2.8376782926392465,0.9166235593681363
1731474146.6398294,-0.348007470369339,0.42216381430625916,-9.980985641479492,0.021434388158475176,0.1733996039941076,0.00329459066392296,8.058898279196443,2.8375626841313815,0.9166269362137263
1731474146.6897447,-0.3311549723148346,0.43346843123435974,-9.981561660766602,0.01884374510790182,0.17192995984502984,0.0032743687221314564,8.100856922582702,2.820012823899719,0.9171497221403814
1731474146.7396312,-0.3635404109954834,0.40990909934043884,-9.988479614257812,0.01623449715691541,0.17011043804066417,0.0032524970253854585,8.143609558960286,2.8025768216994456,0.9176900149436872
1731474146.789546,-0.32311975955963135,0.4552238881587982,-9.978585243225098,0.0136158229134038,0.16795421384892073,0.0032293512319716915,8.185780685159115,2.785810245959415,0.918230492575664
1731474146.8395026,-0.3543110489845276,0.4205108880996704,-9.987153053283691,0.01099695638789299,0.16547534345794868,0.0032053201167993716,8.228300064075787,2.769271004173526,0.9161195402767499
1731474146.8894835,-0.33690303564071655,0.44204410910606384,-9.983466148376465,0.008387084133621563,0.162688619497038,0.00318080020976815,8.271030997125731,2.7531297544243927,0.9166483905028946
1731474146.939377,-0.3456494212150574,0.4204249382019043,-9.974058151245117,0.00579527052080034,0.15960948714414855,0.0031561953071901887,8.313490470883265,2.737439813949117,0.9146339320777896
1731474146.9893372,-0.3456494212150574,0.4204249382019043,-9.974058151245117,0.0032304063613980243,0.1562540183926508,0.0031319426607963182,8.35613464167619,2.7221379238269665,0.9151440487666195
1731474146.9893372,-0.32335811853408813,0.44455331563949585,-9.994388580322266,0.0007011410595430781,0.15263888021978742,0.0031085407528082427,8.356474114392249,2.72201768753954,0.9151481405686817
1731474147.0392928,-0.3419918715953827,0.4153200089931488,-9.980100631713867,-0.0017842177531981298,0.14878124360043424,0.0030865107106965543,8.398765159169628,2.707222142521623,0.9156617365915858
1731474147.0892532,-0.33232659101486206,0.44813141226768494,-9.970808982849121,-0.0042177971624533265,0.1446986606877565,0.003066344623268163,8.441318129116233,2.692695971881023,0.9161862274355079
1731474147.1392598,-0.3414287269115448,0.42118310928344727,-9.989472389221191,-0.006592190093651829,0.1404089612007398,0.0030485237542101917,8.484029191242803,2.6784107697996715,0.9141327535311256
1731474147.1892078,-0.32821929454803467,0.43675288558006287,-9.983247756958008,-0.008900459342162843,0.13593016590608623,0.003033534922127145,8.526552693652098,2.6645831340350274,0.9146392693237431
1731474147.239118,-0.3308393657207489,0.41653814911842346,-9.989508628845215,-0.011136170014278954,0.1312804295549852,0.003021824680355341,8.56907982967396,2.6510787429555607,0.9151536611576605
1731474147.2890556,-0.3233639597892761,0.44228991866111755,-9.99915599822998,-0.013293446194701252,0.12647799982644325,0.0030137419132811837,8.61150715444359,2.6378606293567954,0.9138473896440001
1731474147.34003,-0.3317860960960388,0.42187803983688354,-9.981391906738281,-0.01536701679271967,0.12154114298536449,0.0030094995340650614,8.65488099373089,2.6247121060767413,0.9143700035998421
1731474147.389953,-0.3199501931667328,0.43816444277763367,-9.984302520751953,-0.017352230031881657,0.11648804739220386,0.0030091826256784387,8.697345645190245,2.612126770156675,0.9148897449546741
1731474147.4399762,-0.3348630368709564,0.410004585981369,-9.995926856994629,-0.019245047345451842,0.11133675749033442,0.0030127990449697172,8.740008595384607,2.599755690542342,0.9154200552414208
1731474147.4898822,-0.31965500116348267,0.4335654675960541,-9.987404823303223,-0.021042026515253484,0.10610515046192646,0.0030202940404186703,8.782048276746004,2.5877661209757226,0.9142450169953278
1731474147.5398347,-0.33629316091537476,0.42236918210983276,-9.98745346069336,-0.022740297475960933,0.1008109037145419,0.003031531446339994,8.824650296258117,2.575915008251781,0.9147733441060685
1731474147.5897639,-0.33629316091537476,0.42236918210983276,-9.98745346069336,-0.024337522877918485,0.09547142310261342,0.0030463066945354304,7.756684557748848,2.564458025994333,0.9143299115349814
1731474147.5897639,-0.32917505502700806,0.4344494938850403,-9.999245643615723,-0.025831839706501977,0.09010376614445963,0.0030643667054782104,7.75689839486183,2.564378604816714,0.9143336222303783
1731474147.6397233,-0.3516184091567993,0.42074695229530334,-9.990751266479492,-0.027221807880154873,0.08472456938552407,0.00308539086373425,7.7873956942460145,2.553144302138305,0.9148672558638503
1731474147.6896822,-0.3454195261001587,0.43337929248809814,-9.982441902160645,-0.02850635289046947,0.07934997719797474,0.003108977484378488,7.817960195535025,2.5420634007326397,0.915410964442208
1731474147.739603,-0.3505779504776001,0.42843934893608093,-9.977140426635742,-0.029684688738061633,0.07399558451121557,0.00313469716899154,6.977439457819271,2.5311774891652123,0.9142023794047707
1731474147.7895708,-0.3442579209804535,0.44717955589294434,-10.014467239379883,-0.030756275081133693,0.06867636721133144,0.003162150842416886,6.999066661248812,2.520414579069871,0.914741009732454
1731474147.839557,-0.2940550446510315,0.5944892764091492,-9.976007461547852,-0.03172087557572019,0.06340644397773565,0.0031909350766336185,6.333504740659184,2.5098295453625212,0.9136123474292853
1731474147.889536,-0.20518560707569122,0.54371577501297,-9.946371078491211,-0.032578844618580245,0.05819850338228538,0.003220636598259571,6.347949591644093,2.499408247753406,0.9141435607512073
1731474147.939503,-0.43645983934402466,0.24578015506267548,-9.995434761047363,-0.033331483761611415,0.05306349835723356,0.0032509782064367512,5.808096755589599,2.489107127420571,0.9120340770610588
1731474147.9893682,-0.2412494719028473,0.5809628963470459,-10.00178050994873,-0.033980942498678515,0.048011304495978055,0.0032818831373709004,5.816745508517058,2.4790123518309692,0.9125331931919155
1731474148.0393229,-0.4226839542388916,0.305077463388443,-9.972904205322266,-0.0345297708968127,0.0430514872348874,0.003313324575378977,5.825357506447099,2.4689742773671055,0.9130433257215829
1731474148.0892675,-0.4226839542388916,0.305077463388443,-9.972904205322266,-0.034980527759278006,0.038193551145006166,0.00334523751511111,5.833859902103739,2.459064242544234,0.91356036931518
1731474148.0892675,-0.17636924982070923,0.6643232107162476,-9.994385719299316,-0.035335535973402096,0.03344707180269451,0.0033775940796459125,5.833910991968169,2.459004674652516,0.9135635174750041
1731474148.1391916,-0.17636924982070923,0.6643232107162476,-9.994385719299316,-0.03559734937238453,0.02882097132966569,0.003410418386818433,5.366837466073032,2.449217222413563,0.9115791741887612
1731474148.1391916,-0.017241640016436577,0.4965020716190338,-10.021503448486328,-0.03577004519170347,0.02432196739115065,0.003443663412597924,5.366861182466268,2.449153471271823,0.9115823828090246
1731474148.1891968,-0.017241640016436577,0.4965020716190338,-10.021503448486328,-0.03586045052804433,0.019954128114931993,0.003477046949311745,4.983507131842484,2.4394279830893564,0.9091945706452802
1731474148.1891968,0.08745230734348297,0.6030604839324951,-10.011589050292969,-0.03587886297855707,0.015719696463580474,0.0035099335037344975,4.983505608954066,2.4393718647042504,0.9091971892843956
1731474148.2391913,-0.9778934717178345,0.07814757525920868,-9.990920066833496,-0.03583843280663228,0.011620014289213065,0.003541352070463183,4.983195877278797,2.4296284910458055,0.9096569625563137
1731474148.289004,-0.9778934717178345,0.07814757525920868,-9.990920066833496,-0.035751484854490416,0.007657085702347293,0.0035701624948082343,4.982798471839025,2.4199433403912414,0.910123934175804
1731474148.289004,-0.13256236910820007,0.6477596163749695,-9.916261672973633,-0.03562491498965105,0.003835364670912582,0.003595310165953332,4.982794717845166,2.4198611688903,0.9101279378380367
1731474148.3390393,-0.13256236910820007,0.6477596163749695,-9.916261672973633,-0.03546025690123601,0.00016104615078596247,0.0036161791414523587,4.98230989005962,2.4102125394394767,0.9106025507497383
1731474148.3390393,-0.5607509613037109,0.18505153059959412,-10.030675888061523,-0.03525771533569611,-0.0033604892651597617,0.003632853630807931,4.9823055413004225,2.4101331969105644,0.9106064905540387
1731474148.3899746,-0.5607509613037109,0.18505153059959412,-10.030675888061523,-0.03501788906942492,-0.006725039999357023,0.0036458702666993838,4.642114314437772,2.400318189568197,0.9089085266457706
1731474148.3899746,-0.24053697288036346,0.6703055500984192,-9.993346214294434,-0.034740468063498176,-0.00992795247510683,0.0036556288460837198,4.642081977856352,2.4002387584249174,0.9089123118740668
1731474148.4399455,-0.4149532914161682,0.18424800038337708,-9.922703742980957,-0.03442385601187036,-0.012963938582776204,0.0036621963963607636,4.638077012500146,2.3904911137057505,0.9093806591795937
1731474148.4898977,-0.32263457775115967,0.564312756061554,-10.011099815368652,-0.03406620954827751,-0.01582808450600312,0.0036656314290876616,4.346225334152919,2.380700554242888,0.9077927213732861
1731474148.539939,-0.4096713662147522,0.33358514308929443,-9.978320121765137,-0.033665991258629915,-0.01851619502261188,0.0036662130475594345,4.339245917851893,2.3708919218297475,0.9082521176292325
1731474148.5898108,-0.4096713662147522,0.33358514308929443,-9.978320121765137,-0.03322181832764845,-0.021024708421465813,0.003664334507109168,4.08601599360395,2.361068965126685,0.906767003186081
1731474148.5898108,-0.33266475796699524,0.4822407364845276,-9.983787536621094,-0.03273226298643918,-0.023350531419752157,0.0036604001991172403,4.08595780693643,2.3610084524014625,0.9067697463387383
1731474148.6398258,-0.36633315682411194,0.4079146981239319,-10.017582893371582,-0.03219592680133904,-0.025491058620766525,0.003654808685340031,4.076429799215458,2.3511095384466705,0.907221598620946
1731474148.6896837,-0.37975364923477173,0.41329842805862427,-9.984230041503906,-0.03161169207027301,-0.027444539347245344,0.003647858278305512,3.855304895217174,2.3411408610390563,0.9058292698714632
1731474148.7397082,-0.37975364923477173,0.41329842805862427,-9.984230041503906,-0.030978776228174482,-0.02921020338535596,0.0036396775274200087,3.8435425672343473,2.3310715153992807,0.9062769404893621
1731474148.7397082,-0.3236582279205322,0.45023560523986816,-9.957239151000977,-0.030296654320964393,-0.030788134667861945,0.0036303278865401963,3.843469520324912,2.3310089613142844,0.9062797397520975
1731474148.7895982,-0.4094269871711731,0.40006208419799805,-10.010847091674805,-0.029565110927914626,-0.03217926795964497,0.0036199522872269892,3.6474011002695157,2.320927341399279,0.9049680512667764
1731474148.8395123,-0.3341081142425537,0.49790847301483154,-9.974881172180176,-0.028784285015034917,-0.033385449179704554,0.00360877693651739,3.475489272344195,2.310743525704418,0.9037937502530503
1731474148.8895173,-0.40162166953086853,0.3858509361743927,-9.979796409606934,-0.027954603814425,-0.034409478801031124,0.003597029439047832,3.4601893728135513,2.300415472214656,0.9042252269344612
1731474148.9394271,-0.33520281314849854,0.49349677562713623,-9.995915412902832,-0.027076739636434866,-0.0352550991783922,0.003584929654998159,3.444821207735102,2.290000646838296,0.9046656740320554
1731474148.989394,-0.39363962411880493,0.3769837021827698,-9.9759521484375,-0.026151621193243234,-0.035926883080510036,0.0035727031866675807,3.4294116504327112,2.2795139445772725,0.9051143379337118
1731474149.0393794,-0.32641667127609253,0.49767252802848816,-9.984671592712402,-0.025180457835156028,-0.03643009938117176,0.0035605696874918573,3.2724889616732393,2.268945575096982,0.9038846570475607
1731474149.0893095,-0.39658495783805847,0.40310895442962646,-9.991823196411133,-0.024164764764340426,-0.036770641667965454,0.003548748728561313,3.255661784721145,2.2583161277109487,0.9043273616417604
1731474149.139286,-0.31508591771125793,0.49019932746887207,-9.974615097045898,-0.023106372003481777,-0.03695501911390024,0.0035374571518508036,3.238696229317624,2.2475445643183543,0.9047809928208079
1731474149.1892076,-0.3865351676940918,0.38851404190063477,-9.984769821166992,-0.02200743416336114,-0.036990313631778994,0.003526907473058969,3.096905898708603,2.2369146987581554,0.9035582149919029
1731474149.2392628,-0.3284973204135895,0.4553205966949463,-9.989445686340332,-0.020870437526800525,-0.03688402631771075,0.0035173242112485742,3.07862145573103,2.2259509605060415,0.9040076765482606
1731474149.2891707,-0.36882221698760986,0.4021817743778229,-9.976908683776855,-0.019698175232761746,-0.03664387928401236,0.0035089340566083053,3.060315989814682,2.2149131601120846,0.9044651855164034
1731474149.3390863,-0.339903861284256,0.46282950043678284,-9.997218132019043,-0.018493714714710948,-0.03627770649018558,0.0035019427839944038,3.04194503061028,2.203773508978742,0.9049319010303757
1731474149.3890233,-0.36403632164001465,0.4146801829338074,-9.983406066894531,-0.017260364289064467,-0.03579345750438361,0.0034965162845194482,3.023568637996835,2.1929034531855214,0.903652032877799
1731474149.4399798,-0.36403632164001465,0.4146801829338074,-9.983406066894531,-0.016001607504311635,-0.03519918232830915,0.0034927647675986498,3.0047421606183624,2.181360648348883,0.9041223927249455
1731474149.4399798,-0.3282560706138611,0.4430561661720276,-9.990992546081543,-0.01472103700487817,-0.034502927386740635,0.0034907548500086975,3.004627035083836,2.1812898601132984,0.9041252937462636
1731474149.489963,-0.3282560706138611,0.4430561661720276,-9.990992546081543,-0.013422393397934511,-0.03371269136508502,0.0034905184891491376,2.986236289545736,2.1699501070464886,0.9045926395550572
1731474149.489963,-0.34830936789512634,0.4099680185317993,-9.985173225402832,-0.012109679860573881,-0.03283648155461739,0.003492033553588786,2.986126037492325,2.1698819360170005,0.9045954647459781
1731474149.5398574,-0.3367198407649994,0.4484230577945709,-9.979958534240723,-0.01078716781867485,-0.031882295759642326,0.0034952295738739205,2.9677611652439193,2.1590001153700134,0.9033196421517024
1731474149.5898209,-0.3511849343776703,0.42940324544906616,-9.9827299118042,-0.009459281923453671,-0.030858054135774853,0.0035000356979620006,2.9490977916121794,2.147369333117001,0.9037867938885303
1731474149.639785,-0.3449540138244629,0.44740235805511475,-9.993281364440918,-0.008130489406469012,-0.029771606650780144,0.0035064101862932445,2.930687564347516,2.1358348224293975,0.9042557371365458
1731474149.689714,-0.348348468542099,0.4309273660182953,-9.968509674072266,-0.006805224060521326,-0.028630756202742365,0.0035143288681329732,2.912105926557409,2.124757265700753,0.9029980683117059
1731474149.7397473,-0.3465837836265564,0.4344233572483063,-9.99363899230957,-0.005487835906555329,-0.027443226369538835,0.0035237860524488115,2.893461130154375,2.112958508920503,0.9034666456847958
1731474149.7896135,-0.35121646523475647,0.43669408559799194,-9.989757537841797,-0.004182558723696911,-0.0262165974009919,0.0035347970697480065,2.8748890755085736,6.381045419105331,0.9022867905114899
1731474149.839714,-0.3436480164527893,0.4485608637332916,-9.986307144165039,-0.0028934810485957687,-0.02495827102735073,0.003547354965385812,2.8562029596063194,7.369204210451955,0.9012399810931176
1731474149.8895714,-0.3596985638141632,0.44395580887794495,-9.989258766174316,-0.0016245187457661248,-0.02367549278423693,0.0035613954928405914,2.8376316910298045,7.396461276168309,0.9016906035855885
1731474149.9394937,-0.3440133035182953,0.440993994474411,-9.989282608032227,-0.00037938230139667297,-0.022375376526052433,0.0035768048458302993,2.818986139376334,7.423766166745206,0.9021518859714623
1731474149.9894161,-0.3629949986934662,0.4327376186847687,-9.978323936462402,0.0008384572615808583,-0.021064868661473994,0.003593437261199824,2.800415556524352,7.45090804882941,0.9026202494294079
1731474150.0394707,-0.35161831974983215,0.4358040392398834,-9.977865219116211,0.0020257969704412407,-0.01975066536101627,0.003611152835233076,2.781773320771872,7.966297640728691,0.9015099849282463
1731474150.0892787,-0.3588835597038269,0.44195646047592163,-9.983288764953613,0.0031797269093407758,-0.01843914751600778,0.0036298705624440352,2.7632409617056646,7.996169367791077,0.9019745204938219
1731474150.1392915,-0.3525645434856415,0.4376795291900635,-9.988021850585938,0.004297637271165158,-0.01713637082085324,0.00364957763678119,2.744587807455456,8.026206385462526,0.9024514257403802
1731474150.1892414,-0.3610277473926544,0.4366692900657654,-9.989734649658203,0.005377209739442534,-0.01584807567019361,0.0036702821257709405,2.726025502966886,8.33681614630039,0.9013432363199407
1731474150.239233,-0.35390523076057434,0.44004589319229126,-9.980785369873047,0.0064164141550193165,-0.014579676548427421,0.0036919661216740516,2.7073573171644476,8.368403516050567,0.9018183646898821
1731474150.2891834,-0.34808841347694397,0.4356316924095154,-9.990507125854492,0.007413496733020978,-0.01333624520282647,0.003714581320846173,2.6888535572438412,8.399707028911443,0.9022989767693187
1731474150.3391497,-0.3495331108570099,0.4318283796310425,-9.987534523010254,0.008366936456491926,-0.012122495773972137,0.0037380589126833983,2.670287867515949,8.603706394120486,0.9011957832876472
1731474150.3889644,-0.34229859709739685,0.43807172775268555,-9.979005813598633,0.009275389370102537,-0.010942761264233183,0.003762309241004011,2.651863990725908,8.635745362215705,0.9016728311413267
1731474150.4399717,-0.35194361209869385,0.43843650817871094,-9.987793922424316,0.010137654401344145,-0.009800985238142903,0.0037872371315282177,2.6329763502507286,8.781258140093206,0.9006453262604972
1731474150.4899325,-0.3497510850429535,0.43838438391685486,-9.9824857711792,0.010952674498862893,-0.008700744513138077,0.003812764240101089,2.6145134018985132,8.892370240518357,0.8997228299777351
1731474150.5399475,-0.3440338671207428,0.4448617100715637,-9.980924606323242,0.011719557764335354,-0.007645279513542374,0.003838833164378455,2.5960610413171534,8.925251932213472,0.9001922184870865
1731474150.5898569,-0.3435697555541992,0.4436219334602356,-9.993441581726074,0.012437575695570385,-0.006637523759977785,0.003865403337124852,2.577665024059584,8.958069115447268,0.9006705548573435
1731474150.6397717,-0.3434273302555084,0.4445556402206421,-9.981748580932617,0.013106133630290309,-0.005680132856968299,0.0038924334124837857,2.559290861785863,9.039804126688578,0.8997393200677252
1731474150.6896904,-0.34205594658851624,0.4357181191444397,-9.985618591308594,0.01372475016763831,-0.0047754907110856195,0.003919862677606248,2.540994650825502,9.072595323796957,0.9002171632660443
1731474150.7397027,-0.3368449807167053,0.4365089237689972,-9.985532760620117,0.014293048910800606,-0.003925679337512256,0.0039476197169940625,2.385140541042113,9.13625932825043,0.899336826927674
1731474150.7896504,-0.3370206654071808,0.44003918766975403,-9.988101959228516,0.014810741420418288,-0.003132440166143989,0.003975632224444075,2.3655346148052274,9.169015838170568,0.8998166846111763
1731474150.839731,-0.34878137707710266,0.4350849390029907,-9.995030403137207,0.015277617519850094,-0.002397164474188101,0.004003809064932141,2.24082103023178,9.219703505270417,0.898979110218088
1731474150.8894904,-0.34958556294441223,0.43955448269844055,-9.992443084716797,0.015693582899419228,-0.0017209064380360787,0.004032004136136108,2.220383835656127,9.25215636500409,0.899458844144068
1731474150.9395454,-0.33814793825149536,0.4347154200077057,-9.992836952209473,0.01605871839401278,-0.001104395097161135,0.004059988487259867,2.199775792555235,9.284940194013435,0.8999536673159209
1731474150.9894862,-0.3534073531627655,0.43426117300987244,-9.98823356628418,0.016373296242609442,-0.0005480404232722676,0.004087454824090348,2.17933468936294,9.317520796463496,0.9004556259555268
1731474151.0393903,-0.35689619183540344,0.43784937262535095,-9.982269287109375,0.016637782540380907,-5.193669188670105e-05,0.004114055862678078,2.158968482707013,9.351151213205794,0.8995434071665522
1731474151.089344,-0.34376397728919983,0.4424741268157959,-9.984296798706055,0.016852870259913822,0.00038411763720836713,0.00413946006058421,2.13860602537256,9.38348269627681,0.9000468296241785
1731474151.1394033,-0.34501925110816956,0.4349685609340668,-9.980411529541016,0.01701947951104173,0.0007605781928820051,0.004163398135830444,2.1182004830114214,9.40935324664149,0.8991852314459805
1731474151.1892505,-0.35001081228256226,0.4367660880088806,-9.98748779296875,0.017138702311976176,0.0010781279740291136,0.004185679662870095,2.0979628621415785,9.441298712553763,0.8996898967018518
1731474151.2393665,-0.35077399015426636,0.4410512447357178,-9.983784675598145,0.017211770562806233,0.001337674733421956,0.004206180999325321,2.077615787183245,9.473487994364271,0.9002088913533747
1731474151.2891529,-0.3346041738986969,0.4414082169532776,-9.978825569152832,0.01724005362242679,0.0015403334363986295,0.004224829174563044,2.0574592020460525,9.505431686970944,0.8993296383181953
1731474151.339152,-0.3532467186450958,0.44168803095817566,-9.982125282287598,0.017225028412025375,0.0016873872699819201,0.004241608794342011,2.037302869599813,9.537462502331534,0.8998481213671846
1731474151.38902,-0.3444956839084625,0.44681721925735474,-9.989038467407227,0.017168249879290352,0.0017802523644309149,0.004256569971322698,2.0172145235052046,9.56944093567664,0.8990137242739062
1731474151.4390323,-0.3412024676799774,0.45108357071876526,-9.988518714904785,0.017071354150113655,0.001820441842895944,0.004269797624921917,1.9970438446314323,9.601639850640748,0.8995376589591424
1731474151.4888942,-0.35135704278945923,0.44728460907936096,-9.988907814025879,0.01693605376130343,0.0018095220250936227,0.004281362847401576,1.9770572674087896,9.63359926761576,0.8987423548777882
1731474151.5399947,-0.3428148031234741,0.43845781683921814,-9.985496520996094,0.016764126023214615,0.001749095235494245,0.004291301596996775,1.9565756763067412,9.666442394645294,0.8992802669726718
1731474151.589838,-0.35130253434181213,0.43799132108688354,-9.989453315734863,0.016557417452887302,0.001640837336785208,0.00429962265216427,1.936676892529915,9.698422407575261,0.8998147730763612
1731474151.6397727,-0.34227749705314636,0.4340595602989197,-9.994230270385742,0.016317844030272016,0.0014865583301673295,0.004306311391334883,1.9167529731005988,9.730494482198795,0.8989993818737115
1731474151.6898038,-0.345090389251709,0.4354267120361328,-9.992863655090332,0.01604737431852271,0.0012882396960586153,0.0043113090095097594,1.8968361396735793,9.762641745655596,0.8995396490016142
1731474151.7628806,-0.3515869379043579,0.4293767511844635,-9.992466926574707,0.01574800964916641,0.001048044248675136,0.004314489197965347,1.867849140092126,9.809529666238605,0.8990108112438164
1731474151.7896523,-0.3438718020915985,0.40278133749961853,-9.977875709533691,0.015421782806963161,0.0007683431314038265,0.004315672094061101,1.8572526081734864,9.826712227657364,0.8993027566790931
1731474151.839626,-0.3230764865875244,0.15276339650154114,-9.979936599731445,0.015070739572554961,0.00045203401689915734,0.004314689068503765,1.8374028143665917,9.858928102215547,0.898560780475746
1731474151.8895721,-0.22208143770694733,0.187400683760643,-10.070066452026367,0.014696750259408219,0.00010348342938801637,0.004311377274184364,1.8177038172004887,9.890979643958584,0.8991067868695015
1731474151.939552,-0.3626958727836609,-0.3957504630088806,-10.0033597946167,0.014301161729088517,-0.0002698765519543526,0.0043053598519855974,1.7980087477244746,9.923083459844579,0.8996644393357143
1731474151.989412,-0.49128592014312744,-0.6028002500534058,-10.101073265075684,0.013884873381347406,-0.0006550653221365208,0.004295756345244692,1.7784871902433113,9.954939465255368,0.8988895849642115
1731474152.039409,-0.33004650473594666,0.15001556277275085,-9.991525650024414,0.013449105726020507,-0.0010312274915199086,0.004281052965688904,1.7587771170674202,9.987156207627292,0.8982090253974117
1731474152.0893848,-0.42409035563468933,-0.23452405631542206,-9.928579330444336,0.01299596741918873,-0.001370257560981762,0.0042593023191807005,1.7391562236376594,10.01929934488311,0.8987644223457686
1731474152.139399,-0.3635537326335907,0.16380023956298828,-9.96257495880127,0.012528314675907964,-0.0016400218543557027,0.004228712124690838,1.7195618521508136,10.051447651457558,0.899330608557481
1731474152.1892323,-0.3265819549560547,0.03705446049571037,-9.926668167114258,0.01204941084180805,-0.0018071591593625445,0.0041882044001886765,1.7001021082639431,10.08342092198697,0.8999042509670582
1731474152.2392316,-0.34383344650268555,0.2610261142253876,-9.951214790344238,0.01156258798439899,-0.0018389162866276193,0.004137575109742012,1.6806292348426275,10.11545948564181,0.9004895023921676
1731474152.2891235,-0.35642221570014954,0.23940710723400116,-9.95168685913086,0.011070948607765233,-0.0017047201800804467,0.004077410222106797,1.6611788135689018,10.14748076693834,0.8996540568913237
1731474152.3392637,-0.3735845685005188,0.305618554353714,-9.976515769958496,0.010577339052765727,-0.0013774089920780786,0.0040089075554929215,1.6416463946256692,10.179700158089446,0.9002437663649758
1731474152.389072,-0.3662432134151459,0.2762035131454468,-9.98367977142334,0.010084513734352405,-0.0008339484226609358,0.003933621259197365,1.5762576264067942,10.211541749980064,0.90012538817192
1731474152.4390504,-0.3853393793106079,0.2848801612854004,-9.992253303527832,0.009595266309389644,-5.560254899326746e-05,0.0038532029802621983,1.556457169204343,10.2437027812793,0.9007301531520999
1731474152.4890246,-0.3745778203010559,0.2969180941581726,-9.987142562866211,0.009112487161388684,0.0009722396591227221,0.003769216709259576,1.5094852157274972,10.275738846099074,0.9008226687302499
1731474152.539969,-0.36941108107566833,0.32635197043418884,-10.017279624938965,0.008639165513671294,0.0022602811900099143,0.0036830333837115092,1.4891788966763797,10.308522311155247,0.9014573147057023
1731474152.5898287,-0.3613957464694977,0.32036691904067993,-9.987659454345703,0.008178317729998566,0.003815438634475839,0.003595754616443872,1.469387809257533,10.340515722020378,0.9020856710211059
1731474152.6398501,-0.3558109700679779,0.3377763330936432,-10.017905235290527,0.007732862759645246,0.00564094966175684,0.0035081694872068285,1.4367747446099592,10.216798356914897,0.9016238202661744
1731474152.6896672,0.11172740161418915,0.9410831928253174,-9.988750457763672,0.007305087304123783,0.007736017980545025,0.003420767192390463,1.4170643597915866,10.247013936068468,0.9022520800717795
1731474152.7397246,0.6022413969039917,1.6053311824798584,-9.950591087341309,0.006894525077330594,0.010093382709388192,0.0033338330644255747,1.3913826571545775,10.147925126090092,0.9018266225488661
1731474152.7897217,0.45707929134368896,1.1785728931427002,-9.883322715759277,0.006494195060428355,0.012694885204947635,0.003247749625541268,1.3716581696549721,10.176871886650167,0.9024594233543821
1731474152.8396256,0.18722468614578247,0.8254978060722351,-10.014012336730957,0.006088107124918135,0.015509246151649055,0.003163385624420968,1.3518441759910513,10.206008498306348,0.903103636043628
1731474152.889567,-0.2138817459344864,0.33085402846336365,-10.020838737487793,0.00565275944043152,0.01849535214188076,0.003082062220974076,1.3321491494578812,10.2350340771773,0.9037522430501381
1731474152.939633,-0.84199458360672,-0.42900434136390686,-10.077438354492188,0.0051621261984702484,0.021609401473859195,0.0030049639574266807,1.3168058659598536,10.264227031372045,0.9032009307802339
1731474152.9894435,-1.1347620487213135,-0.6553553342819214,-10.159132957458496,0.004594177970983339,0.024812976531484704,0.002932420850795379,1.2973828809246426,10.293189448878625,0.9038440263487588
1731474153.0395005,-0.5375619530677795,0.026560742408037186,-10.053828239440918,0.003936182756614046,0.02807898832413099,0.0028633861160041966,1.2776021232281582,10.322753865746547,0.9026272873557376
1731474153.0893981,-0.5375619530677795,0.026560742408037186,-10.053828239440918,0.003185564172084786,0.031392150918161,0.002795384821885516,1.2582204063657423,10.351822706253015,0.9032523228383798
1731474153.0893981,-0.6419805884361267,-0.14039817452430725,-10.018117904663086,0.002346950425158924,0.03474527433556457,0.002725015892265048,1.2581024926972195,10.351999825628278,0.9032561471522389
1731474153.13939,-0.6419805884361267,-0.14039817452430725,-10.018117904663086,0.0014295824714813743,0.03813640683710591,0.0026485694210473068,1.238608883185786,10.381331664402317,0.9038917521910823
1731474153.13939,-0.48468977212905884,0.17504572868347168,-9.904268264770508,0.00044644746123233205,0.041567998328985584,0.0025625125167586214,1.2384940506232354,10.381504748181051,0.9038955162167376
1731474153.1893013,-0.5061772465705872,0.20886747539043427,-9.975037574768066,-0.0005865643877140165,0.04504556706898363,0.0024639861264942123,1.2191223713298396,10.410757551473349,0.9045335037630793
1731474153.2392278,-0.504601240158081,0.35937514901161194,-9.961531639099121,-0.0016519266049792572,0.048575283915597754,0.002351149998369469,1.1995426588652802,10.440436884873492,0.9051842458787801
1731474153.2890863,-0.5235366225242615,0.4285810589790344,-9.942535400390625,-0.002731340835749639,0.05216179835034572,0.002223153951898234,1.180107045579979,10.469997899781644,0.9039186221558173
1731474153.3391986,-0.5182399153709412,0.41647854447364807,-9.95583724975586,-0.0038060613351530675,0.05580687358274537,0.0020799860161861998,1.1605095329555495,10.499943745007826,0.9045528270890909
1731474153.3890479,-0.5182399153709412,0.41647854447364807,-9.95583724975586,-0.004857080763578886,0.059508814814541455,0.0019223960967130393,1.1409821159518925,10.529891677181205,0.9035671361788711
1731474153.3890479,-0.5484158992767334,0.4480695128440857,-9.937871932983398,-0.005865333935898533,0.06326258001670584,0.0017518070119244742,1.1408606838532145,10.53007842417228,0.9035709772045036
1731474153.4390175,-0.5478430390357971,0.4370619058609009,-9.939542770385742,-0.006811842433599295,0.06706014149803369,0.0015702376835587805,1.1213606136768866,10.560137426610904,0.9041894725501237
1731474153.4889638,-0.5263280868530273,0.4694240391254425,-9.992203712463379,-0.0076778176071077954,0.07089080637795542,0.0013802289582534298,1.1017523084925545,10.59048826025154,0.9032985163930713
1731474153.5389593,-0.5467596054077148,0.46723413467407227,-9.985711097717285,-0.00844484792486424,0.07474150703446548,0.0011846135239069414,1.0821193076824824,10.621046823994257,0.9039074838562119
1731474153.5898702,-0.551529049873352,0.4757702946662903,-9.996859550476074,-0.009095125148833224,0.07859708916313497,0.0009861829895361019,1.0620916302032688,10.652361554342653,0.9030686513951005
1731474153.6398945,-0.5152885317802429,0.4587487578392029,-9.976001739501953,-0.009611610901206685,0.0824406433852744,0.0007874876440539443,1.0423333209786005,10.683441820908579,0.9036660576207766
1731474153.6898081,-0.5710768699645996,0.47691261768341064,-10.003650665283203,-0.009978197723662685,0.08625390559321479,0.000590811109755995,1.0227144299418807,10.714452779330541,0.9028803377988152
1731474153.7397523,-0.5710768699645996,0.47691261768341064,-10.003650665283203,-0.010179805061034795,0.09001764433200748,0.00039816351111427177,1.0029627705149344,10.745853274063045,0.9021703013627097
1731474153.7397523,-0.525538980960846,0.48766395449638367,-9.994609832763672,-0.010202366173039747,0.09371196133498783,0.0002112229404386478,1.0027858656211202,10.746135541118903,0.9021753548638966
1731474153.789613,-0.5084438323974609,0.5185731053352356,-9.965476989746094,-0.010032960462684756,0.0973165049175535,3.134278016895799e-05,0.9832971874360574,10.777331096616312,0.9027317612566322
1731474153.8396065,-0.5292466878890991,0.4623800218105316,-9.98769760131836,-0.00966014918679721,0.10081065123758219,-0.0001403084413926212,0.9634691944922037,10.80927727384321,0.903297017837592
1731474153.88953,-0.48913973569869995,0.46731847524642944,-9.979022026062012,-0.009074230919129454,0.10417380215003232,-0.00030261808465963124,0.9437791828405699,10.841217837963578,0.9038571302798932
1731474153.9395475,-0.4685397744178772,0.5056860446929932,-9.99309253692627,-0.008267381737344452,0.10738578925558381,-0.00045452597702348225,0.9238969215818023,10.873675504253152,0.9030180551900105
1731474153.9894257,-0.45702219009399414,0.4998912811279297,-9.956080436706543,-0.007233847473509008,0.1104271103928487,-0.0005950574421403962,0.9041406318621628,10.906164971709005,0.9022439127093761
1731474154.0394197,-0.4022035002708435,0.5028836131095886,-9.970311164855957,-0.005970174311697642,0.11327896522619557,-0.0007232711982434667,0.8842407628291235,10.939168654673407,0.9027681793979232
1731474154.089314,-0.42270535230636597,0.48164358735084534,-9.983999252319336,-0.004475405480908976,0.11592334381830144,-0.0008381777505016941,0.8644720521162266,10.972217594330317,0.9032867129469582
1731474154.1392968,-0.38456615805625916,0.5007065534591675,-9.960416793823242,-0.0027511869988503536,0.11834323787605386,-0.000938749153311607,0.844549459706227,11.005801426870683,0.9038068255179014
1731474154.1892097,-0.3837924003601074,0.4896668791770935,-10.00211238861084,-0.0008017467557370728,0.12052284193357748,-0.0010239886110333554,0.8246419064976503,11.039651509043484,0.9043239716296045
1731474154.2391903,-0.3806689977645874,0.47306615114212036,-10.001392364501953,0.001366201629560378,0.12244769725575641,-0.0010930296262170454,0.8047540930889521,11.073772881594515,0.9048379774848248
1731474154.2891269,-0.5227342247962952,0.9770021438598633,-9.972333908081055,0.0037437516878476257,0.1241044012025397,-0.0011452588614975657,0.78492117326071,11.108088575613728,0.903837158385788
1731474154.3391964,-0.6536251306533813,1.1910713911056519,-9.957026481628418,0.006320662104951724,0.12547885108346285,-0.0011803008906178807,0.7650266981911062,11.142873810900294,0.9043263434845714
1731474154.389024,-0.5680765509605408,0.5152410864830017,-9.884139060974121,0.009086677290424075,0.1265538569373779,-0.0011977539658851216,0.745226001153579,11.17784248904045,0.9048107327897799
1731474154.438984,-0.8518714904785156,1.0223649740219116,-10.114818572998047,0.012032664818297888,0.1273089998769193,-0.0011969665940418672,0.7254905621784751,11.213024430249401,0.9037993942570768
1731474154.4890203,-0.5428992509841919,0.5303182005882263,-9.948053359985352,0.015151288011751907,0.12772258528408936,-0.0011772990746714037,0.7055997986829791,11.248897053156298,0.9042620945926507
1731474154.4890203,-0.5428992509841919,0.5303182005882263,-9.948053359985352,0.01843690710278501,0.1277735635989587,-0.001138509293476175,0.6993683982568718,11.260216649792232,0.9044066351771611
1731474154.8706543,-0.253031849861145,0.3442539572715759,-9.981415748596191,0.021884263022387142,0.1274435032050507,-0.0010806016787870778,0.8061666524141223,11.531857837320693,0.90366802949964
1731474154.9205117,-0.23775433003902435,1.9156547784805298,-9.855184555053711,0.02548642871553205,0.12671721415846005,-0.0010034161974276324,0.8506954555864052,11.570886543334982,0.9027267360064272
1731474154.9705315,-0.23775433003902435,1.9156547784805298,-9.855184555053711,0.029233108542000424,0.12557848074174577,-0.0009062439072532265,0.8347828835345732,11.608765924411959,0.9030882486337642
1731474154.9705315,-0.4001409411430359,0.5899046659469604,-9.77047061920166,0.033110156960839535,0.12400405908520262,-0.0007872950292883902,0.8346713551976108,11.609033062083382,0.9030907803787851
1731474155.020408,-0.1947299689054489,1.112312912940979,-10.022409439086914,0.03710028512043473,0.12196411526806394,-0.0006433969754143729,0.8702716894270003,11.648620934321219,0.9021879748296899
1731474155.0704117,-0.1947299689054489,1.112312912940979,-10.022409439086914,0.04118374678516702,0.11942774379799939,-0.0004705942318320316,0.8550615221990001,11.687086439038097,0.9025302118761809
1731474155.0704117,-0.21322882175445557,0.8714746236801147,-10.088143348693848,0.04533832979935164,0.11636599569735666,-0.00026544704929341097,0.8549600234180592,11.687344920411533,0.9025324993361536
1731474155.1203022,-0.2239534556865692,0.9041865468025208,-9.905142784118652,0.04953938160668751,0.11275243373192206,-2.591804359351533e-05,0.8394451251770515,11.72715861264358,0.9028835353136259
1731474155.1704328,-1.3943976163864136,-0.5810168385505676,-10.084527969360352,0.05376139577791391,0.10856549243527988,0.000248707755785347,0.8242857784476972,11.766658891945651,0.903229676218051
1731474155.2202253,-0.5982986688613892,0.3721615672111511,-10.063822746276855,0.057981993393459344,0.10379356713639665,0.0005581142823813897,0.808771060919053,11.807731536785711,0.9035882501842178
1731474155.2702136,-0.46314603090286255,0.03619835898280144,-10.011496543884277,0.06218504343484936,0.09843903769870622,0.0009008426862188209,0.8471050380586054,11.847066917913326,0.9025548865018821
1731474155.320184,-0.5183843374252319,0.10595713555812836,-10.015792846679688,0.06635935044900072,0.09251785318081164,0.0012742732781265463,0.8323904749354663,11.88884835547881,0.9029020717871571
1731474155.3702235,-0.11161405593156815,0.15249505639076233,-10.028287887573242,0.07049529461710252,0.08605712640215712,0.0016749784961310617,0.8643904871101815,11.928494545906192,0.9019301313187402
1731474155.4200754,-0.11161405593156815,0.15249505639076233,-10.028287887573242,0.0745823076294931,0.07909332959708763,0.00209900376226579,0.8509160596285732,11.969511742683599,0.902259349766793
1731474155.4200754,0.01588253118097782,0.03391246125102043,-10.020575523376465,0.0786068840115845,0.07167073484295582,0.002541946721036364,0.8505402707062331,11.970666670058492,0.9022686726873531
1731474155.469965,-0.25383296608924866,0.3448643088340759,-9.974748611450195,0.08255154020292013,0.06383998686322345,0.002999081189021062,0.8376348813784356,12.010713057934602,0.9025949240178909
1731474155.5198517,-0.10165785253047943,0.2227284014225006,-9.922452926635742,0.08639539886323544,0.05565646376689619,0.003465690725191966,0.8245804968905255,12.052009778830032,0.9029380915707501
1731474155.5699394,-0.1839110553264618,0.4192267656326294,-9.99095344543457,0.09011548246998043,0.047178223997524624,0.003937513312204843,0.8559305738228369,12.093597194451998,0.9019449536946849
1731474155.6198208,-0.19280876219272614,0.3612631559371948,-9.950533866882324,0.09368766691212892,0.03846418309415262,0.004410958103044231,0.8433282401935553,12.136695736001037,0.9023041091248291
1731474155.6698928,-0.00384950777515769,0.6912849545478821,-9.922014236450195,0.0970871837914181,0.02957254395055004,0.00488307032313254,0.8707558190545549,12.176812074484225,0.9014080010773322
1731474155.7207956,0.744889497756958,1.6483407020568848,-9.939879417419434,0.10028792536464365,0.020558100025146173,0.005351569925735854,0.8919595948907306,12.219778914911467,0.9006828047876139
1731474155.770732,0.3141680657863617,1.1341841220855713,-10.00156307220459,0.1032598173605965,0.011467563109003827,0.0058148902815268085,0.881496713138256,12.260730767163112,0.901032344358711
1731474155.8206358,-0.22723086178302765,1.8611536026000977,-9.893811225891113,0.10596720226115688,0.0023352968406901388,0.006272003134453118,0.8708204463291097,12.303583337114873,0.9014134373674919
1731474155.8706558,-0.4820658564567566,1.1263463497161865,-9.909140586853027,0.10837186884584873,-0.00681799136600491,0.006722348960961913,0.8608882314893858,12.344494330892713,0.901793162736137
1731474155.9206085,-0.49431735277175903,1.4234706163406372,-9.892594337463379,0.11043876531561281,-0.01598384674798671,0.007166073160709457,0.8840844331645481,12.38585048429162,0.9010042514110217
1731474155.970523,-0.07631285488605499,0.5004467964172363,-10.070384979248047,0.112139488411886,-0.025162603050062946,0.007604063936431745,0.9034073348376465,12.426978376528687,0.9003445095332021
1731474156.0204434,-0.24069371819496155,-0.35270124673843384,-10.206377029418945,0.11345192404483971,-0.03435743828148927,0.008037195835816118,0.8947261083181426,12.46868052664176,0.9007597543384083
1731474156.0704284,-0.6625279188156128,-0.9579870700836182,-10.202309608459473,0.11435876012170523,-0.04356558553088023,0.008464919961521827,0.8863311016174437,12.510276839556374,0.9011955183092553
1731474156.1203353,-0.7205891013145447,-0.26662561297416687,-10.021163940429688,0.11484815601076309,-0.052769922950229406,0.008884303358532786,0.8782304083784527,12.551710469606839,0.9016524622127852
1731474156.170457,-0.539745032787323,-0.3440362215042114,-10.02015209197998,0.11491582950080421,-0.06193648198824406,0.009290449859936779,0.8988833262893592,8.670523698803903,0.9009641963873456
1731474156.220292,-0.539745032787323,-0.3440362215042114,-10.02015209197998,0.11456553590064152,-0.07101780807257799,0.00967773129904482,0.8916692846891011,8.67770341972841,0.9014517977182992
1731474156.220292,-0.7099660634994507,-0.18074804544448853,-9.97559928894043,0.11380781978717616,-0.07995716818010264,0.010040672255149853,0.8916195456053021,8.67775330012655,0.9014553129872529
1731474156.270222,-0.4648881256580353,-0.01231425255537033,-9.95477294921875,0.11265890121003522,-0.08869167978428223,0.01037434755936796,0.9106719306486484,6.911906446061785,0.9008017235313025
1731474156.320121,-0.6345815658569336,0.11943099647760391,-9.89240837097168,0.11113989091998172,-0.097155533457604,0.010674742964237713,0.9042393037879797,6.9045128116619185,0.9013298990503243
1731474156.370157,-0.4727819561958313,0.4156271815299988,-9.890789985656738,0.10927578634690022,-0.10528350526040084,0.010939178970314366,0.9220735456907843,5.806658589493125,0.9007301771191664
1731474156.419992,-0.4727819561958313,0.4156271815299988,-9.890789985656738,0.107094413239399,-0.11301426528956295,0.011166615267600747,0.9165022694679,5.79030574338831,0.9012922244197134
1731474156.419992,-0.4746846556663513,0.4383656084537506,-9.960733413696289,0.10462539528336004,-0.12029289463163546,0.011357622152908583,0.9164655529608207,5.7901943682811075,0.9012961138017019
1731474156.4700122,-0.4082532823085785,0.4868992269039154,-9.922954559326172,0.10189924379500344,-0.1270720480811909,0.011513992618471912,0.9111628738828315,5.773566067883576,0.9018856127781382
1731474156.5199811,-0.4082532823085785,0.4868992269039154,-9.922954559326172,0.09894666841717084,-0.13331213860427213,0.011638313553714946,0.928805551094871,5.014350871396334,0.9012946287482994
1731474156.5199811,-0.42095184326171875,0.46034306287765503,-9.94420051574707,0.09579800913196847,-0.13898118694325315,0.011733764236216318,0.9287753102130353,5.014203663844952,0.9012986061359547
1731474156.5699735,-0.3570947051048279,0.568742036819458,-9.979055404663086,0.09248283499848953,-0.14405450586738605,0.01180396877106059,0.9242044412778828,4.99121362688689,0.90192962108791
1731474156.6198468,-0.35170891880989075,0.5658196806907654,-10.006991386413574,0.08902962136785708,-0.1485144573214383,0.011852667512824582,0.940897671568434,4.4414962369311475,0.9013830331212238
1731474156.6698449,-0.35522300004959106,0.5524300336837769,-9.985919952392578,0.085465385385842,-0.1523503589289778,0.011883320199162073,0.936970313049017,4.413622863486306,0.9020609161179944
1731474156.7197773,-0.35522300004959106,0.5524300336837769,-9.985919952392578,0.08181546054033068,-0.15555817091419966,0.011898897331286294,0.9332744344145578,4.38553450304315,0.9027642735930207
1731474156.7197773,-0.3219449818134308,0.549161434173584,-9.999293327331543,0.07810345904213858,-0.15813987115925313,0.011901896656718326,0.9332531519274233,4.3853670228273325,0.9027685265040643
1731474156.7707493,-0.28970977663993835,0.5290778875350952,-9.999696731567383,0.07435119482099836,-0.16010276742938834,0.011894393957806297,0.9296852281095516,4.356324238221482,0.9035161652106072
1731474156.8206139,-0.3143123984336853,0.5126650929450989,-10.002466201782227,0.0705784986399106,-0.1614588176866413,0.011878030904043269,0.9468744993652009,3.935202689941575,0.9029402866754555
1731474156.870688,-0.2599155902862549,0.5240530371665955,-9.9974946975708,0.06680309015411026,-0.16222394647320054,0.011854010556977263,0.9622839699966332,3.608863651745443,0.90247666886466
1731474156.9205627,-0.2969132363796234,0.4891177713871002,-9.995007514953613,0.06304056311562659,-0.16241743061836444,0.011823145716540442,0.959742647465026,3.5744707762205326,0.9032562121497696
1731474156.9705002,-0.2292598932981491,0.49995648860931396,-10.004132270812988,0.05930440309928262,-0.1620613568777079,0.011785929823958197,0.9742072469635055,3.3125391894756984,0.9028355567534749
1731474157.0204966,-0.2579132318496704,0.4924958348274231,-10.007848739624023,0.055605990145698225,-0.161180124189636,0.011742576233613222,0.9721094453599285,3.2752651007098246,0.903667734926168
1731474157.0704823,-0.24598565697669983,0.4703907370567322,-10.037233352661133,0.051954622350748644,-0.15980001291106402,0.011692986701697543,0.9701449670122437,3.237563335471395,0.9045298450765568
1731474157.1203732,-0.2604096531867981,0.4892358183860779,-9.96359920501709,0.048357658061461355,-0.15794879670510908,0.011636714076448808,0.9683132392161107,3.1996146661043885,0.9054176150532286
1731474157.1703653,-0.2412901222705841,0.49372807145118713,-10.008519172668457,0.044820752890264125,-0.1556554163503482,0.011573069582422768,0.9830534692242884,3.1611573874963765,0.9048896694410138
1731474157.2202988,-0.25269076228141785,0.49582356214523315,-9.967084884643555,0.04134806694357544,-0.152949776213754,0.011501336782655469,0.9965352275959861,3.122386504780448,0.9045226851200096
1731474157.2702527,-0.29472479224205017,0.49913355708122253,-9.967273712158203,0.037942470087511525,-0.14986259745610658,0.011420935027808266,0.99536898557152,3.0832299355877795,0.9054599724538641
1731474157.3201697,-0.2970694601535797,0.489962100982666,-10.00029182434082,0.0346058712320818,-0.14642523656331277,0.011331509892552348,0.9942879328240818,3.0435009017963552,0.9064306409255989
1731474157.370167,-0.34497785568237305,0.48454904556274414,-9.985206604003906,0.03133965028943781,-0.14266945395244113,0.011232912187606959,0.9932991413815078,3.003793434230186,0.907420030787084
1731474157.4200604,-0.34497785568237305,0.48454904556274414,-9.985206604003906,0.028145073579291708,-0.13862715206772047,0.01112508822291748,1.0066241604863884,2.963618182217401,0.906842320618864
1731474157.4200604,-0.33604687452316284,0.4833928644657135,-9.957088470458984,0.025023596241371914,-0.1343301318374482,0.011008060680050336,1.0065819989627238,2.961274891842168,0.9069010741855129
1731474157.4700716,-0.3997398614883423,0.48361581563949585,-10.031452178955078,0.021977017635935236,-0.12980990091614428,0.010881982611210879,1.0059210261440974,2.9229302624694418,0.9078715061495843
1731474157.5199513,-0.34380197525024414,0.5006750226020813,-9.992836952209473,0.01900758103906691,-0.12509753603766005,0.010747055502707669,1.018444101875969,2.881030101782535,0.9073377667772097
1731474157.570007,-0.40116724371910095,0.47793707251548767,-9.987176895141602,0.016118038658183998,-0.1202235889716927,0.01060337062958678,1.017993681221778,2.8407158550388525,0.9083720337476818
1731474157.6199002,-0.3695700168609619,0.49243950843811035,-9.979872703552246,0.013311633208413765,-0.1152179827055412,0.010450924893901814,1.0300681037681985,2.7985660099502625,0.9078431886822635
1731474157.6698487,-0.41193339228630066,0.5345649719238281,-9.984530448913574,0.010592066080336682,-0.11010992127920743,0.010289767001361373,1.0298206478939849,2.7574282364139795,0.9089121341372548
1731474157.7197323,-0.39578092098236084,0.5249258279800415,-9.9964017868042,0.007963494719907982,-0.10492793206032192,0.010120063431207284,1.04101020236748,2.7154855045900668,0.9083728430918371
1731474157.7697887,-0.39578092098236084,0.5249258279800415,-9.9964017868042,0.0054305061393204335,-0.09969996386697032,0.009942049566511029,1.0409259414045011,2.6731434283149254,0.9094858826324693
1731474157.7697887,-0.4148857295513153,0.5152393579483032,-10.009360313415527,0.002998030819117746,-0.09445334122442792,0.009755937992355367,1.0409254879188266,2.672894781225156,0.9094924726610605
1731474157.8206913,-0.4148857295513153,0.5152393579483032,-10.009360313415527,0.0006712558838768018,-0.08921458208761993,0.009561833346057643,1.0517601233530323,2.6288609856099674,0.909038182678194
1731474157.8206913,-0.38384121656417847,0.5252273082733154,-9.947656631469727,-0.0015444443189356909,-0.08400921707375805,0.009359729763801177,1.0517604289894824,2.628603592717059,0.9090449759317156
1731474157.8705866,-0.38384121656417847,0.5252273082733154,-9.947656631469727,-0.0036436776271259845,-0.07886168566712914,0.009149710445112242,1.0518053103764018,2.587096382569467,0.9101488185425493
1731474157.8705866,-0.37471675872802734,0.512197732925415,-9.963825225830078,-0.005621298332349167,-0.07379527864511001,0.008932247260891348,1.051805563019924,2.5868372372821447,0.9101557622162249
1731474157.9205194,-0.39332878589630127,0.548274040222168,-9.980907440185547,-0.007472602437639859,-0.0688320764570543,0.008708291937051676,1.0518381496272002,2.543574737218967,0.9113237045552149
1731474157.970504,-0.3940364420413971,0.5331264734268188,-9.951216697692871,-0.009193374458375543,-0.06399293055311057,0.008479132403247217,1.0518496315991774,2.5009776696959,0.9124904149057353
1731474158.0204077,-0.3940364420413971,0.5331264734268188,-9.951216697692871,-0.010779845901696658,-0.05929748694394231,0.008246289089707344,1.0518361197571813,2.4571523133384927,0.91370764624748
1731474158.0204077,-0.3720216453075409,0.5273372530937195,-10.012054443359375,-0.012228686098623298,-0.0547641451636228,0.008011496244109078,1.0518360127398534,2.456980686207652,0.9137124462787968
1731474158.070431,-0.36154696345329285,0.5203379988670349,-9.981355667114258,-0.013537105026634662,-0.05040994529883466,0.007776553315154287,1.062476340850222,2.4142975235517086,0.9128563776052812
1731474158.1203873,-0.33269548416137695,0.5211107134819031,-9.980409622192383,-0.014703049993749913,-0.046250455946409835,0.007543106596184939,1.062519302211785,2.369463310450612,0.9141040988265206
1731474158.170318,-0.33269548416137695,0.5211107134819031,-9.980409622192383,-0.01572542450215139,-0.04229969863024193,0.007312605175861013,1.072958032307451,2.32715021116259,0.9132435112360902
1731474158.170318,-0.3207956552505493,0.5135068893432617,-9.99845027923584,-0.016604249442920098,-0.038570113994278135,0.007086359376384472,1.0729585949490164,2.326929187584476,0.9132496280739618
1731474158.2202368,-0.30687013268470764,0.5224953889846802,-9.994780540466309,-0.01734073310122962,-0.035072552119069386,0.006865516083680603,1.0822986241430403,2.2818977767432083,0.912577743150439
1731474158.2701979,-0.3119085729122162,0.5182780623435974,-9.960308074951172,-0.01793728470779416,-0.03181628491933458,0.006651017363612782,1.0824458771637266,2.2397034557936504,0.9137396661132764
1731474158.3202002,-0.3119085729122162,0.5182780623435974,-9.960308074951172,-0.01839747611009677,-0.028809044688419973,0.006443698271909802,1.0825561934692964,2.194821981570605,0.9149900553078418
1731474158.3202002,-0.3232634663581848,0.5220323204994202,-9.994431495666504,-0.018725918663893476,-0.02605706753351518,0.006244443879459223,1.0825565274732454,2.1946479632046914,0.9149949320492823
1731474158.3702445,-0.3232634663581848,0.5220323204994202,-9.994431495666504,-0.01892807558060016,-0.0235651413802758,0.006054173671361424,1.0913907236726443,2.151692814528766,0.914142778646903
1731474158.3702445,-0.28144803643226624,0.5371149778366089,-9.997028350830078,-0.01901010922207719,-0.021336681336088244,0.005873667357231396,1.0913914104139397,2.1514772198953787,0.9141487381134404
1731474158.4200966,-0.28144803643226624,0.5371149778366089,-9.997028350830078,-0.018978878814548787,-0.01937384221412966,0.005703441508272279,1.0915069537257795,2.1078307869808484,0.9153615876430681
1731474158.4200966,-0.31811031699180603,0.5085797905921936,-9.998974800109863,-0.018842000488337132,-0.017677615576984787,0.005543733183343903,1.0915091917088178,2.1067648076761087,0.9153913675713167
1731474158.4701083,-0.31811031699180603,0.5085797905921936,-9.998974800109863,-0.01860772235722922,-0.01624781439422824,0.005394519215875645,1.0999185068916957,2.0636179840138245,0.9144937133397429
1731474158.4701083,-0.2963423728942871,0.5248386859893799,-9.973089218139648,-0.018284648402985316,-0.015082993278929578,0.00525556235963465,1.0999192216733145,2.063402253193052,0.9144996467983884
1731474158.5199509,-0.2963423728942871,0.5248386859893799,-9.973089218139648,-0.017881583101089133,-0.014180474655586632,0.005126528638772411,1.1000419410959736,2.0196956184936408,0.9157075906277236
1731474158.5199509,-0.2880183458328247,0.5108221173286438,-10.006240844726562,-0.01740753857576669,-0.013536477244495563,0.005007110127636112,1.1000424323312499,2.0194823021539046,0.9157135146238571
1731474158.5699735,-0.2880183458328247,0.5108221173286438,-10.006240844726562,-0.01687175017686104,-0.013146195608733752,0.00489699473599366,1.1001228032716655,1.9753920929459756,0.9169436152592243
1731474158.5699735,-0.2980497181415558,0.49068212509155273,-9.973512649536133,-0.016283629760339254,-0.013003792127706778,0.004795740728702251,1.1001230908753699,1.975178007608203,0.9169496156858591
1731474158.6198955,-0.2980497181415558,0.49068212509155273,-9.973512649536133,-0.015652657609622766,-0.013102358843659432,0.00470279648405767,1.1001628530381147,1.9308173131056856,0.9181984527087529
1731474158.6198955,-0.31672346591949463,0.5230117440223694,-9.992152214050293,-0.014988227739433018,-0.013433929275561,0.004617650218494669,1.1001629555600043,1.930589308393689,0.9182048996519532
1731474158.6698563,-0.31672346591949463,0.5230117440223694,-9.992152214050293,-0.014299472888294296,-0.013989638511796198,0.004539877471901816,1.1082307922542374,1.849513243113862,0.9170943540036328
1731474158.6698563,-0.3087119460105896,0.5085582733154297,-10.039146423339844,-0.013595114888580777,-0.014759971302709084,0.004469016547766709,1.1082311751951728,1.849299279934229,0.9171002849051392
1731474158.719787,-0.37044280767440796,0.5171928405761719,-9.983965873718262,-0.012883346519030106,-0.015734911735718178,0.0044043904358641054,1.1082940413047961,1.805180475284763,0.9183281716913403
1731474158.769825,-0.35450124740600586,0.50801682472229,-9.950888633728027,-0.01217164565761001,-0.01690398113236198,0.0043451028725105005,1.1161714993896483,1.7441388795464898,0.9172520310005056
1731474158.8206687,-0.35450124740600586,0.50801682472229,-9.950888633728027,-0.01146655631348999,-0.018256266849485926,0.004290327614598934,1.1162729560509173,1.6992279698530024,0.9184911709280272
1731474158.8206687,-0.3457523584365845,0.5308553576469421,-10.02107048034668,-0.010773636079861348,-0.019780483189087178,0.004239577366842063,1.1162734813828405,1.6989553870861689,0.9184987215462918
1731474158.8708599,-0.3598632216453552,0.5240755081176758,-9.973990440368652,-0.010097561548011018,-0.02146509339117022,0.0041926152719947655,1.1163461371893924,1.654623622466325,0.9197312586084601
1731474158.9206185,-0.37419551610946655,0.5006221532821655,-9.971975326538086,-0.009442202779428857,-0.02329843928967751,0.004149240711268584,1.11639417341837,1.6104145637811866,0.9209692199779094
1731474158.970634,-0.3892771303653717,0.5268489718437195,-10.022506713867188,-0.008810586145440924,-0.025268772835869813,0.0041092481965868755,1.1239610545320782,1.5660455346402389,0.9196703332327061
1731474159.0204418,-0.3892771303653717,0.5268489718437195,-10.022506713867188,-0.00820480629221856,-0.027364267992748225,0.0040723646052545324,1.1240561339636137,1.5219650586733762,0.9208851254124826
1731474159.0204418,-0.42074161767959595,0.5047159194946289,-9.953629493713379,-0.007625961706910014,-0.029573104015587923,0.004038100471024054,1.1240565739448032,1.5217365878390536,0.9208914429413715
1731474159.0705018,-0.4061630666255951,0.5313308238983154,-9.978107452392578,-0.007074117799273949,-0.03188352775633326,0.004005833402598255,1.1318824090954167,1.4773403128809814,0.9196554365001618
1731474159.1203768,-0.4061630666255951,0.5313308238983154,-9.978107452392578,-0.0065483239664665075,-0.03428389345359407,0.003975073001824104,1.138883498553093,1.4327849179339065,0.9185322502761983
1731474159.1203768,-0.40526318550109863,0.5140536427497864,-10.022367477416992,-0.006046737677741665,-0.03676274920481316,0.003945522202626193,1.1388849279245772,1.4325246595670817,0.9185391321964548
1731474159.170345,-0.3965300917625427,0.502784788608551,-9.966509819030762,-0.0055668102017073316,-0.03930886867993118,0.003916916347565953,1.1391220304202756,1.3880428131678666,0.9197189304239174
1731474159.2203305,-0.3965300917625427,0.502784788608551,-9.966509819030762,-0.005105468081082998,-0.04191116760231499,0.003888961504925546,1.1393468122118495,1.3432802073732044,0.9209132074774604
1731474159.2203305,-0.38581791520118713,0.508468508720398,-9.955740928649902,-0.004659285618341592,-0.04455862880294893,0.00386149422207926,1.1393481712902676,1.3430013019169076,0.9209206703708036
1731474159.2702694,-0.3934820294380188,0.535594642162323,-9.982986450195312,-0.004224641162787998,-0.047240350100067524,0.0038346390642012267,1.139560064542984,1.2983826556763731,0.9221177559662702
1731474159.3201983,-0.35386738181114197,0.5342658758163452,-9.970437049865723,-0.0037978638891840613,-0.04994571743437711,0.0038087851114772756,1.1465511539465063,1.2534030542420798,0.9207484131509184
1731474159.3701587,-0.3599652647972107,0.5136325359344482,-9.988588333129883,-0.003375421404890981,-0.052664580675486655,0.003784461584559009,1.146832021385993,1.2082850818016375,0.9219337386824169
1731474159.4200087,-0.32312655448913574,0.5253065824508667,-10.006949424743652,-0.0029541520104871205,-0.05538729132112641,0.003762207334865083,1.153613359114843,1.1627846943521232,0.9206050023793187
1731474159.4701254,-0.32851725816726685,0.5242536067962646,-9.958294868469238,-0.0025314824588876694,-0.05810465158053906,0.0037424624579633055,1.1539631220517181,1.1175828638260281,0.9217674602189141
1731474159.5200732,-0.32851725816726685,0.5242536067962646,-9.958294868469238,-0.0021055698496202147,-0.06080790556893714,0.0037255986495058667,1.154309478800205,1.0719246893986047,0.922947160065491
1731474159.5200732,-0.2989529073238373,0.5134327411651611,-9.978981018066406,-0.0016753458159744542,-0.06348875600177963,0.0037120850252028792,1.1543116243193174,1.0716391979409203,0.9229545534444673
1731474159.5699933,-0.2976040542125702,0.528435468673706,-10.035711288452148,-0.0012405420781906825,-0.06613935123519765,0.0037024989639087608,1.1546501361878863,1.0263096750184826,0.9241309092311825
1731474159.6201284,-0.2584826648235321,0.5214108228683472,-9.999695777893066,-0.0008017759852892413,-0.06875228090922056,0.0036972612255717348,1.16134320971141,0.9801808854422721,0.9225365065673652
1731474159.6698892,-0.29298895597457886,0.5123870372772217,-9.98195743560791,-0.00036064064148442424,-0.07132059206875578,0.0036964173064970777,1.161759365995041,0.9343778900310061,0.9236944665459158
1731474159.7198591,-0.29298895597457886,0.5123870372772217,-9.98195743560791,8.033617388437681e-05,-0.07383776725204214,0.0036997266035514245,1.1621790788005943,0.8879635433974365,0.9248725434829161
1731474159.7198591,-0.2805013358592987,0.5189118385314941,-9.997715950012207,0.0005178909679271024,-0.07629767670372956,0.003706866124736536,1.1621815856476652,0.8876858329743146,0.92487960603701
1731474159.7697053,-0.25231388211250305,0.526025652885437,-9.983038902282715,0.0009481899125525547,-0.07869458316918373,0.0037174972104088073,1.1687473767117407,0.8419097988530674,0.9231614841427787
1731474159.8196115,-0.2625800669193268,0.5331252813339233,-9.989421844482422,0.0013668313833673895,-0.08102321336646294,0.003731247823781734,1.169263918181543,0.7938207537186007,0.9243482443394816
1731474159.870672,-0.25197145342826843,0.5226522088050842,-10.016423225402832,0.0017688166628849783,-0.08327883595549809,0.0037476953894330584,1.1697634746064656,0.7474712513392904,0.9254963472177371
1731474159.9206076,-0.25197145342826843,0.5226522088050842,-10.016423225402832,0.002148609645083117,-0.08545727909084665,0.0037662849028126592,1.170274102257164,0.7003370994354815,0.9266680348906777
1731474159.9206076,-0.2829984724521637,0.5082409381866455,-9.991646766662598,0.0025002751303241145,-0.08755487250751567,0.0037862211492284744,1.170278503487057,0.6999320629143064,0.9266781212924603
1731474159.9705005,-0.28480449318885803,0.5353925824165344,-9.947487831115723,0.002817706856908231,-0.0895683744369343,0.0038065396032001633,1.17681165235892,0.6532413363743248,0.9247586715504051
1731474160.0204332,-0.2747306227684021,0.5366898775100708,-10.02096939086914,0.003094898070587602,-0.09149497779792039,0.0038263452469659053,1.1832348283745793,0.601416040324686,0.923183525955604
1731474160.0705328,-0.2890772521495819,0.5572153329849243,-9.990310668945312,0.0033261167518208183,-0.09333241909867387,0.003844903477564301,1.183857642979085,0.557985962691454,0.9241977850093072
1731474160.120394,-0.2890772521495819,0.5572153329849243,-9.990310668945312,0.003505988667887209,-0.09507911456399006,0.00386152020542201,1.1845504766924237,0.5100171240579348,0.9253219801223501
1731474160.120394,-0.30816128849983215,0.5108066201210022,-9.969518661499023,0.003629595663575554,-0.09673420224542195,0.003875504581178163,1.1845548378211317,0.5097163384115352,0.925329042146661
1731474160.1703773,-0.3075338900089264,0.5318730473518372,-9.989680290222168,0.003692607837521365,-0.09829739987533892,0.003886278995285028,1.1852532570407028,0.4617410457469363,0.9264573977292446
1731474160.220353,-0.3376113772392273,0.514896035194397,-9.994827270507812,0.003691421967879382,-0.09976878034441941,0.003893433204174696,1.1912358808692638,0.41314498565697655,0.9245718336967824
1731474160.2703774,-0.34983736276626587,0.5286862254142761,-9.962014198303223,0.0036233169286346715,-0.10114864758868297,0.0038966829897013455,1.1920206951181989,0.3644644306106342,0.9256817673949598
1731474160.3201654,-0.3544542193412781,0.5517596006393433,-9.99022388458252,0.0034866182544524204,-0.10243754423949442,0.003895867809414665,1.1979357719361883,0.31594376854873835,0.9238737115086796
1731474160.370143,-0.3516252934932709,0.5374683141708374,-9.990341186523438,0.0032807894156012055,-0.10363634576475436,0.0038909751874707317,1.2032014081486093,0.26688283105618377,0.9222814769207732
1731474160.4202018,-0.35329899191856384,0.519231379032135,-9.9598970413208,0.0030063964665173744,-0.1047463257066242,0.003882109050789584,1.2041359854832974,0.21721537443908362,0.9233461378780023
1731474160.4702244,-0.3345542550086975,0.5284436941146851,-9.966591835021973,0.0026649796369952548,-0.10576907680335941,0.0038695041499272652,1.2050745640725598,0.16744905725595022,0.9244169717243688
1731474160.5200076,-0.3611922562122345,0.5078816413879395,-10.020652770996094,0.0022588906856482213,-0.10670636519181637,0.003853571481035407,1.2060247854467916,0.11712657684222542,0.925503743986862
1731474160.570008,-0.3498118817806244,0.5143244862556458,-10.008946418762207,0.0017911729592579404,-0.10756002226535646,0.0038347582222319687,1.2109239567359722,0.06747946197091624,0.9237309878362047
1731474160.6198819,-0.33152875304222107,0.5191381573677063,-9.96742057800293,0.0012654828157183063,-0.1083318824366316,0.0038133300165496212,1.2119226579933458,0.01694485017490204,0.9247901179940088
1731474160.6699362,-0.3189314603805542,0.520063042640686,-9.994635581970215,0.0006859343140939847,-0.10902378428238385,0.003789384664755566,1.2166266524767304,-0.03366678006791483,0.9231362727466939
1731474160.7198498,-0.31146132946014404,0.49782794713974,-9.991044998168945,5.685221567271545e-05,-0.10963759827586864,0.0037630009481650966,1.217676927635366,-0.08494676643153899,0.9241807559534215
1731474160.7696915,-0.27925825119018555,0.5191643238067627,-9.976333618164062,-0.0006174740861516468,-0.11017520332081533,0.003734281522854853,1.2220518395582227,2.312675716534633,0.9225886292983989
1731474160.8196826,-0.26903486251831055,0.5131709575653076,-9.989280700683594,-0.001333028060386324,-0.11063845848114252,0.0037033499305890766,1.2231369300465977,2.286874494916303,0.9236138515416337
1731474160.8696597,-0.2614664137363434,0.5186227560043335,-10.001703262329102,-0.0020862944241002534,-0.11102923943940485,0.0036703577392206217,1.2272369032286738,3.34761398268387,0.9221038451766195
1731474160.9207711,-0.2614664137363434,0.5186227560043335,-10.001703262329102,-0.0028743978168759214,-0.11134949386706003,0.0036354217909444556,1.2283707431776847,3.3303412601427564,0.9231345891799653
1731474160.9207711,-0.2740640342235565,0.5009732246398926,-9.956851959228516,-0.0036951042827015356,-0.11160125458899715,0.0035985696958546155,1.2283780000299405,3.330229395195042,0.9231412391802075
1731474160.9705622,-0.274027019739151,0.5083372592926025,-10.000702857971191,-0.0045467115656669084,-0.1117865957507276,0.0035598201729984983,1.2323052761645341,4.062667910920424,0.9216803126000243
1731474161.02048,-0.274027019739151,0.5083372592926025,-10.000702857971191,-0.005427897993612623,-0.11190757369102358,0.00351925886403845,1.2363458946570867,4.589229426286106,0.9203614417447988
1731474161.02048,-0.2422710508108139,0.5382094979286194,-10.02502155303955,-0.006337634411860491,-0.1119662436009979,0.0034769317456124415,1.236353450584028,4.589186910081583,0.9203677543517619
1731474161.070523,-0.2422710508108139,0.5382094979286194,-10.02502155303955,-0.007275225581627566,-0.11196478823110437,0.003432647517561492,1.2374845006535236,4.582634100879851,0.9213244154560807
1731474161.070523,-0.2966766655445099,0.5066756010055542,-9.966814994812012,-0.008240360663595004,-0.11190564650495113,0.0033858994345880725,1.2374931434598213,4.582582562173755,0.9213318169092213
1731474161.1204453,-0.24885393679141998,0.5543649792671204,-9.974495887756348,-0.009232990399691186,-0.11179151650775153,0.003336036225902436,1.2386098282499305,4.575715354703476,0.9223021394907301
1731474161.1704516,-0.2737577557563782,0.5325854420661926,-10.017370223999023,-0.010253142520889873,-0.11162532588574328,0.0032825202283605992,1.2397076469372124,4.568535851298352,0.9232854571169703
1731474161.2202854,-0.2737577557563782,0.5325854420661926,-10.017370223999023,-0.011300851806461194,-0.11141025980032865,0.003224933300738779,1.2430487538260204,4.988482767588131,0.9217653164410544
1731474161.2202854,-0.2906055152416229,0.5151991844177246,-9.989680290222168,-0.012376101056375184,-0.11114972491233756,0.0031627854386407474,1.243057035422252,4.988452835043029,0.9217726714057171
1731474161.2703397,-0.3137006163597107,0.5183002948760986,-9.986680030822754,-0.013478669814780504,-0.11084720964741074,0.0030954763793109834,1.2441090853797234,4.984453923021987,0.9227255495967899
1731474161.3202085,-0.3137006163597107,0.5183002948760986,-9.986680030822754,-0.014607939837623818,-0.11050615617388683,0.003022445095526619,1.247335300612756,5.315011076984276,0.9212553387598582
1731474161.3202085,-0.3133438229560852,0.5345419645309448,-10.003192901611328,-0.015762746294090784,-0.11012992185304493,0.0029432759017621545,1.2473406069548174,5.315003035950761,0.9212601556294076
1731474161.370244,-0.3133438229560852,0.5345419645309448,-10.003192901611328,-0.016941346322071157,-0.10972183117388108,0.0028576625203163473,1.2502583464161496,5.577921932154241,0.9199332799982678
1731474161.370244,-0.3098906874656677,0.528404951095581,-10.000290870666504,-0.018141481166509828,-0.1092852496744828,0.0027653165014480106,1.250264140746322,5.577924351908059,0.9199385096523329
1731474161.4202275,-0.3098906874656677,0.528404951095581,-10.000290870666504,-0.019360465591718105,-0.10882359610266022,0.0026659243612546617,1.251254993285411,5.5782114041178055,0.9208581287438814
1731474161.4202275,-0.33454248309135437,0.49304723739624023,-9.936529159545898,-0.020595253316624727,-0.10834026388039536,0.0025592188122865204,1.2512604607155218,5.57821225359291,0.9208633499933616
1731474161.470167,-0.3619610667228699,0.5299280881881714,-10.047443389892578,-0.0218424008615881,-0.10783848736836525,0.0024451207411253202,1.2521877964402226,5.578228281207433,0.9217774936601923
1731474161.5199888,-0.36124423146247864,0.5293492674827576,-9.995766639709473,-0.023097916652466383,-0.10732128058826083,0.002323711775527567,1.2530709970996614,5.577977251780022,0.9227090914886333
1731474161.570011,-0.3769206404685974,0.5511707663536072,-9.91990852355957,-0.024357121607610565,-0.10679153973314454,0.002195100068095506,1.2555672862927463,5.577484785195818,0.9211949111391224
1731474161.6198852,-0.3783719837665558,0.543317973613739,-9.976374626159668,-0.02561461530313006,-0.10625220982821632,0.0020595801676781223,1.2563460678627996,5.576701107070834,0.9221027515191953
1731474161.6698837,-0.24439649283885956,0.7247949242591858,-9.980547904968262,-0.02686444224863438,-0.10570653847735911,0.0019178955224649847,1.257058257187792,5.575654414193325,0.92301417477533
1731474161.7198694,0.5133981704711914,1.6614665985107422,-9.919093132019043,-0.028101333558531262,-0.1051595315564686,0.0017712219839062762,1.2591570433864567,5.5743653516849765,0.9214409023543512
