Timestamp,IMU_Linear_Acc_X,IMU_Linear_Acc_Y,IMU_Linear_Acc_Z,Filtered_X,Filtered_Y,Filtered_Z,Pose_X,Pose_Y,Pose_Z
1731474136.25901,-0.34130141139030457,0.4240894317626953,-9.983531951904297,4.9519243397416816e-05,6.58124979634431e-05,-1.214563466228854e-05,2.4445454174863874,8.160071051030746,0.8809999823444085
1731474136.3090398,-0.34130141139030457,0.4240894317626953,-9.983531951904297,6.92044126571532e-05,9.131791768883851e-05,-1.7486074711959047e-05,2.443796835633749,8.164842240752524,0.8809999823196224
1731474136.3090398,-0.3349152207374573,0.42120271921157837,-9.987563133239746,9.371807714417908e-05,0.00012368719651233357,-2.420127043615053e-05,2.4436637456715267,8.165690508040713,0.8809999823135284
1731474136.3588867,-0.27416113018989563,0.43637028336524963,-9.988398551940918,0.00012342127357707486,0.00016409810015853777,-3.242890154662908e-05,2.4448424564508073,8.157247276441707,0.8809999823537813
1731474136.408835,-0.27416113018989563,0.43637028336524963,-9.988398551940918,0.00015829644558419643,0.00021372239486651908,-4.2334744997342285e-05,2.4445960861409355,8.15881755258958,0.8809999823030751
1731474136.408835,-0.46316227316856384,0.3740302622318268,-9.99268913269043,0.0001978208172102195,0.00027369107084818583,-5.412813372006522e-05,2.4445651193076694,8.159014924285309,0.8809999822902077
1731474136.4588637,-0.7430660724639893,0.23497319221496582,-10.004386901855469,0.00024175263260510513,0.0003453769692174024,-6.808410479209467e-05,2.441484918138205,8.178647368564533,0.88099996923905
1731474136.5088224,-0.1835746020078659,0.5284029841423035,-9.957141876220703,0.00029155589410111984,0.0004308921963224563,-8.455212281116648e-05,2.4331682554134066,8.23165946662454,0.8809997967270399
1731474136.5587819,-0.32869449257850647,0.37620213627815247,-10.047292709350586,0.0003504279367727751,0.0005329971163140714,-0.00010392855136988097,2.424837580612025,8.284767220883005,0.8809993875466662
1731474136.6086814,-0.3212164640426636,0.5026140809059143,-9.98022747039795,0.000421666432422794,0.0006543648822870722,-0.00012669770851838342,2.4381725579317166,8.208625652554783,0.8809997872684044
1731474136.6586556,-0.3097893297672272,0.373074471950531,-9.942727088928223,0.0005075918416195344,0.0007971021748154924,-0.00015346235174939205,2.436006960899599,8.224514348334404,0.8809992107854562
1731474136.7085814,-0.36415764689445496,0.45885133743286133,-10.01577377319336,0.0006096437754265845,0.0009627852854033245,-0.00018476657469439664,2.439580279634667,8.199135575953274,0.8809995053607347
1731474136.7586725,-0.3174515664577484,0.43460458517074585,-9.97563648223877,0.0007286813963562403,0.0011525998278725154,-0.00022095926408457155,2.439023517460804,8.20324426965859,0.8809985656988489
1731474136.808501,-0.37348827719688416,0.42250683903694153,-9.971975326538086,0.0008651770775351955,0.0013673562886443841,-0.00026226727436166625,2.436691635857181,8.19310256884235,0.8809991887101066
1731474136.858473,-0.3333224654197693,0.4560640752315521,-10.020543098449707,0.001019355748248755,0.001607471520443478,-0.0003088505135793957,2.4353214178500115,8.19419727041881,0.8809978261446408
1731474136.9084017,-0.3716474175453186,0.4254069924354553,-9.993083000183105,0.0011912902679044883,0.0018729872866683848,-0.00036085791577949425,2.4371689642104997,8.336420578089907,0.880998779150501
1731474136.9583972,-0.30855798721313477,0.4505065679550171,-9.975634574890137,0.0013809346936459867,0.0021635799144369473,-0.00041852162116156526,2.436818267342081,8.372701773961994,0.8809969313129004
1731474137.0092394,-0.33945232629776,0.44332513213157654,-10.006049156188965,0.0015880433924602114,0.0024785725423605923,-0.00048212527387862044,2.436455187370414,8.17586040142058,0.8809983433731722
1731474137.0592687,-0.30693483352661133,0.45724576711654663,-9.974886894226074,0.0018120344544065516,0.0028169360817440437,-0.0005519205953780809,2.436101694616903,8.132656622104069,0.8809957832102931
1731474137.1091747,-0.3404017686843872,0.42924872040748596,-9.97957992553711,0.0020519220591666285,0.0031772877263777912,-0.0006280933523022953,2.435753728567709,8.196767301836857,0.8809978286684871
1731474137.159192,-0.33027854561805725,0.4503231644630432,-9.993732452392578,0.002306367116688827,0.003557953189932409,-0.0007107214963842962,2.4354104738462152,8.193055432259046,0.8809945009879421
1731474137.2090607,-0.33027854561805725,0.4503231644630432,-9.993732452392578,0.002573789792610758,0.003957045452911961,-0.0007997770880738763,2.4350748596965404,8.189369962256343,0.8809893121329638
1731474137.2090607,-0.3312438130378723,0.4298307001590729,-9.984983444213867,0.0028524510766275313,0.004372496302863937,-0.0008951949445860074,2.4350726580931785,8.189345584825016,0.8809892711503059
1731474137.2591295,-0.32849225401878357,0.44427555799484253,-9.991825103759766,0.0031404821104111147,0.004802103438512929,-0.0009969037718765492,2.4347441945207895,8.230489342460729,0.8809968243989487
1731474137.308942,-0.32849225401878357,0.44427555799484253,-9.991825103759766,0.0034359031398208486,0.005243602687436514,-0.0011048129626742018,2.434424178776549,8.235570727067843,0.8809919109464518
1731474137.308942,-0.3466336131095886,0.43178790807724,-9.988767623901367,0.0037366607072536295,0.005694698560896494,-0.001218814144956316,2.4344220268778103,8.235605404042404,0.8809918680731972
1731474137.3589773,-0.3226473927497864,0.4400995373725891,-9.986501693725586,0.0040406909173676085,0.006153088674769188,-0.001338783698188421,2.434110538855538,8.257980202307232,0.8809960970387344
1731474137.4088914,-0.3401765823364258,0.42628738284111023,-10.006254196166992,0.004345964649890143,0.006616518763520895,-0.0014645806246858981,2.4338096018427913,8.267761506413391,0.8809896419767402
1731474137.4588525,-0.32638588547706604,0.4399968981742859,-9.992179870605469,0.00465048829761396,0.00708283053635943,-0.0015960808243692206,2.4335182931111956,8.276998873545082,0.8809946188586876
1731474137.50879,-0.3352645933628082,0.4304140508174896,-9.980989456176758,0.004952301643326935,0.007549980091444591,-0.0017332057808286659,2.4332408827850576,8.286234810416126,0.8809863116755113
1731474137.5588923,-0.33292460441589355,0.43939563632011414,-9.997173309326172,0.00524949073839351,0.008016032822023823,-0.0018758787615608542,2.432973899373115,8.295569517298667,0.8809734024260131
1731474137.6086698,-0.3363683819770813,0.4308415949344635,-9.980420112609863,0.005540211277698277,0.008479154481905468,-0.002023970141328473,2.4327213795920075,8.293513382126209,0.8809922977616927
1731474137.6586838,-0.3302421271800995,0.4421899914741516,-9.979595184326172,0.005822713799440298,0.008937607542734295,-0.002177275126900322,2.432484686291541,8.299580249290164,0.880981392228333
1731474137.7086177,-0.3302421271800995,0.4421899914741516,-9.979595184326172,0.006095347395231132,0.009389735419649886,-0.0023354772101072513,2.432261985147476,8.309053424315445,0.88099125585737
1731474137.7086177,-0.3371421694755554,0.43059173226356506,-9.996553421020508,0.006356550099906207,0.00983393941720831,-0.0024981289162737254,2.432253214863665,8.3093591237962,0.8809908668461708
1731474137.758543,-0.3301190137863159,0.4375700056552887,-9.977168083190918,0.006604856850210091,0.010268689909049371,-0.0026646976459343405,2.4320540114595515,8.316591872195787,0.8809784768326617
1731474137.8085432,-0.34019094705581665,0.43010377883911133,-9.982741355895996,0.006838922039396438,0.010692567658459315,-0.002834606365947407,2.43186388950092,8.32411630331471,0.8809589166063777
1731474137.8584952,-0.33192288875579834,0.43809831142425537,-9.991263389587402,0.0070575384008575055,0.011104288282790406,-0.003007227078102863,2.4316903977279747,8.331697028505918,0.8809319809569988
1731474137.9083514,-0.34595686197280884,0.4304082989692688,-9.981121063232422,0.007259654723530948,0.011502702354871063,-0.0031818892203026978,2.4315329627122004,8.325574730672445,0.880989380527178
1731474137.9583144,-0.3420066237449646,0.443705290555954,-9.989968299865723,0.007444403894736631,0.011886784100591918,-0.0033579105990198454,2.4313983598143487,8.330527274791933,0.8809729396097776
1731474138.0092392,-0.34163692593574524,0.42966023087501526,-9.989768028259277,0.007611133475918165,0.01225561221977058,-0.0035346166797418366,2.4312780934272213,8.345771883855411,0.8791624176534162
1731474138.0592258,-0.33824580907821655,0.44014066457748413,-9.97556209564209,0.007759406559102991,0.01260835866961801,-0.0037113500884483988,2.431179320139613,8.354871677100734,0.8785308836375879
1731474138.1091983,-0.341629296541214,0.4363786280155182,-9.98953914642334,0.007888970333127113,0.012944289447938583,-0.003887456538853062,2.4310996763016646,8.364059624078749,0.8778858839561161
1731474138.1591976,-0.3402191698551178,0.43175989389419556,-9.978646278381348,0.007999728055174194,0.01326276393739894,-0.004062261229142709,2.431040671737713,8.373180240874888,0.8772380080011185
1731474138.209059,-0.3476492762565613,0.432100772857666,-9.985774040222168,0.008091733294721865,0.013563245666651649,-0.0042350697521951215,2.431001537506966,8.382348637314637,0.8765788078986978
1731474138.2590916,-0.33999305963516235,0.4344528317451477,-9.983550071716309,0.00816519747116582,0.013845324887383458,-0.004405180534831759,2.4309825597750865,8.351300859472415,0.8777553038059035
1731474138.3088815,-0.34422069787979126,0.4327370822429657,-9.9750337600708,0.008220487451914534,0.014108722263785161,-0.004571889753621477,2.430983995721541,8.354023117035332,0.877417270018224
1731474138.3589008,-0.3437175154685974,0.44072937965393066,-9.988846778869629,0.008258106270032175,0.014353268852496015,-0.004734485446688792,2.4310059479107844,8.356790796647532,0.8770664111204556
1731474138.4087975,-0.34332624077796936,0.4315757751464844,-9.98684024810791,0.008278675957158435,0.014578878904815332,-0.004892257787338045,2.431048577684649,8.356830632454304,0.8764390144228666
1731474138.458818,-0.33988749980926514,0.436118483543396,-9.992659568786621,0.008282922730443579,0.014785535893379251,-0.00504454779494399,2.4311119590389456,8.359377135971506,0.8760231727711885
1731474138.5087607,-0.3460216820240021,0.428290456533432,-9.99396800994873,0.008271654896993311,0.014973303185235563,-0.0051908019027953264,2.4311958548050967,8.361955353669032,0.8755954470666805
1731474138.5588555,-0.32766076922416687,0.4385663866996765,-9.993430137634277,0.008245734979146886,0.01514233962057012,-0.005330604918456862,2.431300762707598,8.367987109180865,0.8748987695797585
1731474138.6086557,-0.3306537866592407,0.4353063106536865,-9.987985610961914,0.008206027018107334,0.015292891718859834,-0.005463685198685709,2.4314272845342293,8.371800580016902,0.8743630736694248
1731474138.6586676,-0.3333236277103424,0.4373985528945923,-9.995209693908691,0.008153327603807931,0.015425264519028682,-0.005589892168654191,2.4315714406578794,8.379091791354126,0.873338371141342
1731474138.7086084,-0.3319365978240967,0.4339129328727722,-9.97912311553955,0.00808833876823802,0.015539801006591185,-0.005709163409593323,2.4317369444016395,8.389140029540295,0.8735764994174157
1731474138.758562,-0.333381712436676,0.4398839473724365,-9.9823637008667,0.008011686856928827,0.015636879329851167,-0.005821478387607239,2.4319224363895477,8.39559725646056,0.8732908782285617
1731474138.8085184,-0.3302189111709595,0.438150554895401,-9.991358757019043,0.007923941455968857,0.015716905972920317,-0.005926808880730507,2.4321284087515718,8.402113976101697,0.8729896887923544
1731474138.8586066,-0.3308621346950531,0.44120118021965027,-9.983616828918457,0.007825619224904505,0.015780297275328672,-0.006025114563436226,2.432354658459955,8.408686353922652,0.8726727526548608
1731474138.8586066,-0.3308621346950531,0.44120118021965027,-9.983616828918457,0.007717182435348486,0.015827461733377658,-0.006116365873747078,2.4324286765296517,8.398793640104786,0.8738351449585464
1731474139.2399957,-0.3376094102859497,0.43933042883872986,-9.987139701843262,0.007599048519179057,0.015858791118939924,-0.0062005422133838365,2.4347021316614574,8.43565421341019,0.8734560787258949
1731474139.2900891,-0.3423849642276764,0.43753117322921753,-9.985186576843262,0.007471627159365186,0.01587466597891103,-0.006277624920970373,2.4350934916139026,8.439383130979246,0.8733210242311483
1731474139.3398674,-0.34360605478286743,0.4366273581981659,-9.992426872253418,0.007335378954227126,0.01587547612716555,-0.0063476117561213135,2.4354991759761497,8.43750293813701,0.8738062915240634
1731474139.389985,-0.3389294445514679,0.4368346929550171,-9.979833602905273,0.007190859406298451,0.015861642772258988,-0.006410534410920717,2.4359264244462318,8.442418120266497,0.8737408317537086
1731474139.4397805,-0.3331068754196167,0.42958614230155945,-9.990646362304688,0.007038712481387521,0.01583363618018185,-0.006466455835808762,2.436379025669857,8.447455171632193,0.8736577262221519
1731474139.4898527,-0.335146963596344,0.4248596131801605,-9.98840618133545,0.006879620409648622,0.015792005253955285,-0.006515461246645428,2.4368313097615864,8.452337848924756,0.8735619260537202
1731474139.539713,-0.3328384459018707,0.4296468496322632,-9.984148025512695,0.006714254109998293,0.01573741933928615,-0.006557664707992117,2.4373071765266854,8.446456257887364,0.8739269141142766
1731474139.5897124,-0.3328384459018707,0.4296468496322632,-9.984148025512695,0.006543250373479401,0.015670684344504915,-0.006593206906503621,2.4378025848382943,8.450011386697291,0.873883959372643
1731474139.5897124,-0.3308675289154053,0.4361976087093353,-9.986226081848145,0.006367202936929975,0.01559271213329513,-0.0066222333626186364,2.437802095038411,8.450428393950755,0.8739799491661998
1731474139.639718,-0.3300713300704956,0.44613346457481384,-9.986385345458984,0.006186653010004892,0.01550445566194553,-0.006644885611496789,2.4383153466458976,8.455342130640203,0.873958166661298
1731474139.6895943,-0.3355879783630371,0.4400116503238678,-9.9830961227417,0.006002085281511233,0.01540682863731143,-0.006661308475609102,2.4388397845695353,8.460256035245601,0.8739199693263604
1731474139.7396622,-0.3371192514896393,0.4425605237483978,-9.980547904968262,0.00581394542218397,0.015300649849349124,-0.006671645423505878,2.439383470444583,8.465249716350328,0.8738646900577649
1731474139.789675,-0.33719924092292786,0.4419511556625366,-9.980554580688477,0.0056226760574480126,0.015186636920707597,-0.006676015990936147,2.4399368657135376,8.470239624707363,0.873793233850879
1731474139.8395355,-0.3354564905166626,0.445912629365921,-9.973817825317383,0.0054287425211978395,0.01506541709404137,-0.0066744899281049415,2.440515581707493,8.475369089985547,0.8737032544230203
1731474139.8896139,-0.3405797779560089,0.44538143277168274,-9.989174842834473,0.005232637343925409,0.01493752512063174,-0.006667074863656565,2.4410860899394526,8.464187508362455,0.8739721952245035
1731474139.9394777,-0.33414551615715027,0.4462050497531891,-9.99086856842041,0.005034879144086665,0.014803396223086436,-0.0066537472929586085,2.441681864828919,8.466661471153103,0.8739350068138305
1731474139.9894018,-0.3440423011779785,0.44702938199043274,-9.984944343566895,0.004836013387578311,0.014663366927277547,-0.006634520565811592,2.4422863154955485,8.471998687998905,0.8739725314835802
1731474140.0392613,-0.32870543003082275,0.43953606486320496,-9.982325553894043,0.004636609157664196,0.014517689060883682,-0.0066094774863400705,2.442903625139288,8.475168120640589,0.8739361520264416
1731474140.089296,-0.34796392917633057,0.4402678906917572,-9.993621826171875,0.004437248869588134,0.014366564260486776,-0.006578751228604934,2.4435358135642375,8.478391774950207,0.873883047580167
1731474140.1402464,-0.33399584889411926,0.432169646024704,-9.98773193359375,0.004238525796994734,0.014210195815314512,-0.006542521268310119,2.444189287593613,8.48170382936747,0.8738122139043165
1731474140.1902158,-0.339699923992157,0.42898687720298767,-9.98838996887207,0.004041050232293565,0.014048845466073111,-0.00650103351025998,2.4448393939791475,8.483370917009625,0.8739675785140761
1731474140.2401154,-0.34191736578941345,0.42445263266563416,-9.988052368164062,0.0038454442416380246,0.013882889874798219,-0.006454599462799813,2.445501663508904,8.486416255761993,0.873929734267371
1731474140.2900033,-0.32970547676086426,0.4250764548778534,-9.985917091369629,0.0036523289062618553,0.01371286506322861,-0.006403575472985151,2.446170227495095,8.495617787257528,0.8739709226648741
1731474140.3400288,-0.32910072803497314,0.4251329004764557,-9.99003791809082,0.003462293731407981,0.013539481459028533,-0.006348346304809213,2.4468494206607354,8.506160943369668,0.8739747309070975
1731474140.3900661,-0.3384392559528351,0.42610400915145874,-9.983735084533691,0.0032758486894397584,0.013363608032451952,-0.006289316428065577,2.4475373350774365,8.513482619717308,0.8739408208758074
1731474140.439955,-0.3377346694469452,0.435489296913147,-9.978569030761719,0.003093418435817519,0.013186231328655096,-0.0062268921362274385,2.448235222954188,8.52085876661818,0.8738911271743363
1731474140.4899478,-0.33423569798469543,0.4322376847267151,-9.991771697998047,0.0029153818798728897,0.013008392311745984,-0.0061614514275261136,2.448942669043911,8.526320958835768,0.8741841368994216
1731474140.5398195,-0.3368098735809326,0.4413033127784729,-9.979137420654297,0.0027420934702908147,0.012831117724457726,-0.006093335702813554,2.449642755949172,8.532348677730063,0.8741926473190578
1731474140.5896668,-0.32903242111206055,0.43979355692863464,-9.979314804077148,0.0025738715797609625,0.012655363705443328,-0.006022855402886408,2.4503574888939603,8.538477500578527,0.8741863191644943
1731474140.6397073,-0.33598414063453674,0.4474576413631439,-9.982017517089844,0.0024109785320091453,0.012481969442289093,-0.005950271086711926,2.4510822000024755,8.54466988553694,0.8741649951240645
1731474140.6897366,-0.341476172208786,0.44930747151374817,-9.990230560302734,0.0022536192394136774,0.01231161509038677,-0.005875784599652363,2.4518092327126624,8.544711040436637,0.8744159076984768
1731474140.7397206,-0.3397352695465088,0.44789478182792664,-9.97748851776123,0.0021019764569013056,0.012144788866303796,-0.005799569621246949,2.4525480585699584,8.550004078320704,0.8744345061582423
1731474140.7895658,-0.3330007493495941,0.44037196040153503,-9.997563362121582,0.001956246061418611,0.011981786208825979,-0.005721802318813276,2.4532850602753555,8.555277883022475,0.874438585603777
1731474140.8395772,-0.03880907967686653,0.5903394818305969,-9.978856086730957,0.0018163594028024238,0.011822621876783993,-0.005642679450662864,2.454032114894594,8.560619629616236,0.874428457914394
1731474140.8895676,-0.0758434385061264,0.5316457748413086,-10.008713722229004,0.0016809611389103924,0.011666630056989383,-0.005562444189342895,2.454773494319155,8.56619389719173,0.8746276171884566
1731474140.9393978,0.48951706290245056,0.8079436421394348,-9.981762886047363,0.0015456332701706955,0.011511758438478245,-0.005481420886125661,2.4555243528412785,8.572076515650327,0.874650402737874
1731474140.9892786,0.7771492004394531,0.6103816628456116,-10.015816688537598,0.0014002604495820365,0.011353773367059075,-0.005400045967284617,2.4562747159456926,8.58433487263136,0.874607413027584
1731474141.0394018,0.1431780755519867,0.499295175075531,-10.044015884399414,0.0012263803293119794,0.011186042185725316,-0.005318939973679256,2.4570426412850335,8.591344197685702,0.8745912678943378
1731474141.0892773,0.413790225982666,0.48516714572906494,-9.909783363342285,0.0009971769069930347,0.011000521826999808,-0.0052389674462828256,2.457800278217904,8.59826194482691,0.8745622687700441
1731474141.1401522,0.038903508335351944,0.3011943995952606,-9.996171951293945,0.0006803468030530883,0.010789359746740765,-0.005161035359810584,2.4585734177685263,8.600637607432091,0.8745863458998467
1731474141.1902132,0.22217567265033722,0.33590275049209595,-10.001534461975098,0.00024112171911416916,0.010546261247550984,-0.005085799223190138,2.459341711719562,8.606346240842884,0.874559262438976
1731474141.2402446,0.017560504376888275,0.20069876313209534,-9.97430419921875,-0.00035571551481401275,0.010267491153616685,-0.005013696151014008,2.4601081584563627,8.614652542812493,0.874580661413491
1731474141.2901216,-0.7728275656700134,-0.02461777999997139,-9.977519989013672,-0.0011436734593030338,0.009952731450807831,-0.00494509564751808,2.4608690501261092,8.621592015065131,0.8745532123010191
1731474141.3400016,-1.2074174880981445,-0.021463442593812943,-10.009428024291992,-0.0021502691553005413,0.009606169525826404,-0.004880294627503649,2.4616251984631563,8.628351108352621,0.874578805776387
1731474141.3900766,-0.23980385065078735,0.27316224575042725,-9.937684059143066,-0.0033919355135792694,0.009237181917929747,-0.004819498027373105,2.4623760912158867,8.635561685728225,0.8745516510585225
1731474141.4400213,-0.7082184553146362,0.12128511071205139,-10.163931846618652,-0.004873034987988353,0.008859444915334117,-0.004762933328051,2.4631212095334485,8.642839138045497,0.8745123085228929
1731474141.4898539,-0.29287877678871155,0.4290388226509094,-9.929959297180176,-0.006589107691357034,0.008489000116724679,-0.0047111764256676245,2.463839271453111,8.626701618165336,0.8745771277671857
1731474141.5398967,-0.5628702044487,0.09986446797847748,-10.001678466796875,-0.00852991188291498,0.008142649425166527,-0.004665303880994236,2.4645508098664934,8.62855324298224,0.8745499835241672
1731474141.5897396,-0.3513105511665344,0.46714502573013306,-10.08678913116455,-0.010680909610830715,0.007837102059786147,-0.004626622822155136,2.4652327481835656,8.630409770925812,0.8745115147644963
1731474141.6397777,-0.5107159614562988,0.16161222755908966,-9.946783065795898,-0.013024173656775651,0.007588525946977372,-0.004596545646442435,2.46588478499821,8.62541380472726,0.8748176996249125
1731474141.6896517,-0.4068586826324463,0.43703973293304443,-9.962201118469238,-0.015539036254252556,0.007412181019091079,-0.004576569392338128,2.466502465278196,8.626233959357096,0.8748536822943577
1731474141.7396317,-0.49801453948020935,0.2526971399784088,-10.004266738891602,-0.01820256840211527,0.007322130614247472,-0.0045679479207736936,2.4670818470362623,8.62707783981997,0.8748784435175405
1731474141.789641,-0.37864023447036743,0.4197238087654114,-9.953781127929688,-0.020990032219737637,0.007330998735131316,-0.004571469265778411,2.467607630811149,8.627932601089002,0.8748916561140636
1731474141.8394883,-0.42949461936950684,0.29616859555244446,-9.941106796264648,-0.023875464621099424,0.0074497661858206,-0.004587473046725538,2.4680736064570477,8.619771527633924,0.8750350365238491
1731474141.8893626,-0.41107162833213806,0.3372349739074707,-10.000696182250977,-0.026832322270452503,0.0076877421599426,-0.004615807606462671,2.468472458539696,8.601185657675861,0.8750141313619463
1731474141.9393225,-0.41107162833213806,0.3372349739074707,-10.000696182250977,-0.029833946514080563,0.008052715323977108,-0.004655900839858361,2.4688115653472975,8.593914581737252,0.8750092097308678
1731474141.9393225,-0.3805420398712158,0.7001015543937683,-9.957939147949219,-0.03285388626035263,0.008550756832414515,-0.004707015287448154,2.4688130818477005,8.593878076630155,0.8750091556003525
1731474141.9893405,-0.4000968039035797,0.667378306388855,-9.877378463745117,-0.03586624604463551,0.00918501069693411,-0.00476825168542377,2.469060535495549,8.58022001062918,0.8749949384065597
1731474142.0393183,-0.4000968039035797,0.667378306388855,-9.877378463745117,-0.038845988039797726,0.009954134892246117,-0.004838111105983669,2.4692243070707525,8.5705512305367,0.874974607588328
1731474142.0393183,-0.4872780740261078,1.1421082019805908,-9.997286796569824,-0.04176900811293277,0.01085135304243597,-0.00491411769848633,2.469224886200837,8.570502472524266,0.874974474074456
1731474142.0892508,-0.4872780740261078,1.1421082019805908,-9.997286796569824,-0.04461192176555602,0.011863357443047656,-0.004993094995839297,2.469283213910194,8.56099036746223,0.8749422493248921
1731474142.0892508,-0.4453103244304657,0.9864438772201538,-9.849359512329102,-0.04735179487634123,0.012968988181566063,-0.005071748812423994,2.469283231483604,8.560942254355218,0.8749420549817555
1731474142.139246,-0.5104879140853882,0.7967690229415894,-10.028023719787598,-0.04996615340896726,0.014139632245029326,-0.005146783926218664,2.4692157600067293,8.558736579106746,0.8749848340034924
1731474142.1901712,-0.3782177269458771,0.7711344957351685,-9.996058464050293,-0.05243325454905676,0.01534176199962165,-0.005214868909275332,2.4690240611695584,8.5518965818877,0.8749591833822588
1731474142.2401364,-0.3782177269458771,0.7711344957351685,-9.996058464050293,-0.05473256502966922,0.016539724715971132,-0.005273001745706406,2.468690682373718,8.531373563711455,0.8749807226986668
1731474142.2401364,-0.4499201774597168,0.7072227597236633,-10.010408401489258,-0.0568453439935661,0.01769749933836061,-0.00531885110625366,2.4686888564288534,8.531318038026159,0.8749806227524728
1731474142.2900872,-0.3696022629737854,0.713841438293457,-10.044113159179688,-0.05875490863447438,0.018779682396758056,-0.005350817070304816,2.4682266299229245,8.519496615333884,0.8749526790686224
1731474142.3400176,-0.3696022629737854,0.713841438293457,-10.044113159179688,-0.060446636969871,0.01975219634325979,-0.005368117180648185,2.467610981934952,8.507610082018079,0.8749110706210755
1731474142.3400176,-0.42195576429367065,0.5679761171340942,-9.984193801879883,-0.06190806414552029,0.0205828772667776,-0.005370859878595355,2.467607446002914,8.50754946843672,0.8749108233746318
1731474142.3899982,-0.30900314450263977,0.6061761379241943,-10.027217864990234,-0.06312895787645695,0.021242169658320563,-0.005359874054952311,2.466846758312943,8.495866687864984,0.8748564693025904
1731474142.4399173,-0.30900314450263977,0.6061761379241943,-10.027217864990234,-0.06410142311336932,0.021703823580719466,-0.0053364599404374215,2.465907481888895,8.508925966067142,0.874980302703781
1731474142.4399173,-0.36433690786361694,0.5541598200798035,-9.993165969848633,-0.06482014584666144,0.0219451862257346,-0.005302295531884693,2.4659026765992014,8.50889552012717,0.8749802009863066
1731474142.4898849,-0.36433690786361694,0.5541598200798035,-9.993165969848633,-0.06528236441420107,0.021947237732055362,-0.005259344193665198,2.464823936712937,8.502597264519332,0.8749525895296579
1731474142.4898849,-0.3449501693248749,0.5600143671035767,-10.049895286560059,-0.06548748005088784,0.021694652156044266,-0.005209699418429011,2.464818434053327,8.502567494238741,0.8749524277018355
1731474142.5398262,-0.3449501693248749,0.5600143671035767,-10.049895286560059,-0.06543675442454328,0.021175742061260695,-0.005155625839466467,2.463558739991318,8.479441859529798,0.8749836082274319
1731474142.5398262,-0.3187732696533203,0.5636372566223145,-10.002037048339844,-0.06513324085480945,0.020382224016926513,-0.005099741424793023,2.4635526144010003,8.47938310444752,0.874983522186824
1731474142.5898345,-0.3187732696533203,0.5636372566223145,-10.002037048339844,-0.06458179150175958,0.019308941108831138,-0.0050449659453143565,2.381005312122025,8.449429874461652,0.8749858463388848
1731474142.5898345,-0.30297085642814636,0.5662887096405029,-10.012564659118652,-0.06378905135615233,0.01795360345901418,-0.004994242413882713,2.380990638469584,8.449321830200885,0.8749857491042662
1731474142.6396751,-0.3056734502315521,0.5174658894538879,-10.006267547607422,-0.06276340668912425,0.016316587137730286,-0.00495035640211783,2.3782883220353006,8.430021571008503,0.8749621818590744
1731474142.689624,-0.32618317008018494,0.5069574117660522,-9.982719421386719,-0.06151485076405737,0.014400881055983325,-0.004915892694129219,2.375435073414504,8.410781330527122,0.8749264151911623
1731474142.7396877,-0.32618317008018494,0.5069574117660522,-9.982719421386719,-0.06005473570804133,0.012212136540910622,-0.004893148591122059,2.3724029289958595,8.39139743671089,0.8748780029111912
1731474142.7396877,-0.273434042930603,0.514680802822113,-9.964303016662598,-0.05839551469440191,0.009758609087172982,-0.004883986401744887,2.372386823917872,8.391297082121156,0.874877719924709
1731474142.7895157,-0.2996521592140198,0.5227103233337402,-9.985552787780762,-0.056550653978043895,0.0070509001914288525,-0.0048897315500055815,2.378054771488228,8.43270590362956,0.8749822878584259
1731474142.8395174,-0.3358599841594696,0.5379204750061035,-9.958097457885742,-0.05453459007279598,0.0041015859112001184,-0.004911160287339465,2.3765542849717405,8.424948259964099,0.8749568044821329
1731474142.8894358,-0.336078017950058,0.4931144118309021,-9.98670482635498,-0.052362454415511975,0.0009248631244220728,-0.0049485393856530295,2.3749508639277117,8.41734482985156,0.8749809530452027
1731474142.939421,-0.33337661623954773,0.5128029584884644,-10.005820274353027,-0.05004966641937404,-0.0024636643184419585,-0.005001722019462867,2.373192215313736,8.409613668696998,0.874954163569519
1731474142.989331,-0.3498041331768036,0.4721747934818268,-9.94282341003418,-0.047611658160412594,-0.006047070319473889,-0.005070288939012182,2.3713336389252273,8.401965524901902,0.8749152002079135
1731474143.0392566,-0.32534632086753845,0.5132566094398499,-9.986802101135254,-0.0450637374982673,-0.009807196623538118,-0.005153579156390991,2.3693478069437433,8.39424879557877,0.8748632569553882
1731474143.0892653,-0.3674081265926361,0.5218324065208435,-10.014200210571289,-0.04242099296337086,-0.013724869424556602,-0.005250662255547793,2.3672592564631927,8.386520159934804,0.8749757838335376
1731474143.1392438,-0.40713658928871155,0.5078936219215393,-9.99518871307373,-0.03969812558429546,-0.017780249019270857,-0.005360490281915628,2.365053904465859,8.378706768677688,0.874945732236346
1731474143.1901145,-0.3748840391635895,0.5032426118850708,-9.95654582977295,-0.03690914767262103,-0.02195313583911406,-0.005482065354214458,2.362721974119486,8.370727084126308,0.8752251145498189
1731474143.2401328,-0.41319382190704346,0.513997495174408,-10.000679969787598,-0.034067133900456625,-0.02622312703274544,-0.005614371854044728,2.3603521410384696,8.362850436601821,0.875463572309657
1731474143.2901106,-0.4174082279205322,0.5009680390357971,-9.988465309143066,-0.031184128287582918,-0.030569736251889683,-0.005756278883573328,2.357887560965934,8.354880665350153,0.875563870268496
1731474143.3401623,-0.4119400978088379,0.5024043917655945,-9.968817710876465,-0.028271082976564558,-0.03497253087804358,-0.005906584214412361,2.355335198265096,8.34678658996533,0.8756500033455786
1731474143.3899338,-0.3861069083213806,0.4877097010612488,-9.973749160766602,-0.025337861549311107,-0.03941123191512244,-0.0060640244828491785,2.3527513038840246,8.33871093043803,0.8757201541903026
1731474143.4400024,-0.3813762664794922,0.4656544327735901,-10.00214672088623,-0.022393415151117146,-0.04386574996164871,-0.0062272264260715676,2.350071116834073,8.330386965059303,0.8768269483379401
1731474143.489819,-0.3586125075817108,0.4547431170940399,-9.964475631713867,-0.019446053532471877,-0.04831615214319641,-0.006394747690513911,2.3473738959132464,8.322085291131533,0.8771085597172418
1731474143.5397732,-0.3363964855670929,0.4302753210067749,-9.970362663269043,-0.01650371046623599,-0.05274258705314364,-0.006565122928023557,2.3446017412189573,8.313564890856544,0.8773770769378302
1731474143.5897393,-0.3230259418487549,0.4246014356613159,-10.018203735351562,-0.013574198585977783,-0.057125219290154426,-0.006736848493577488,2.3418362253902187,8.304998862873981,0.8780338103520179
1731474143.6397502,-0.3195480704307556,0.4174511432647705,-9.99730110168457,-0.01066542457701056,-0.06144421248840861,-0.00690847825310462,2.3389917597238625,8.296177310594633,0.8783248675538656
1731474143.6896462,-0.29733991622924805,0.400546669960022,-9.969202995300293,-0.007785513550716373,-0.06567977595274255,-0.007078774857283981,2.336156042676979,8.287296181084974,0.8785953156148355
1731474143.7396011,-0.2849956750869751,0.3818894624710083,-10.001726150512695,-0.0049428796188098235,-0.0698122271944177,-0.007246684246105918,2.333292858207885,8.278137435818028,0.8793754336388893
1731474143.789569,-0.2620607912540436,0.3989132344722748,-10.011852264404297,-0.0021463083666302066,-0.07382204140218157,-0.007411262029795338,2.3304257290536428,8.268884677121658,0.8797658021556574
1731474143.8395295,-0.3114404082298279,0.37750130891799927,-9.98075008392334,0.0005950051172774258,-0.07768995253024044,-0.007571731929067172,2.327574550182525,8.25939429139047,0.8804756412073196
1731474143.8895874,-0.29066282510757446,0.38888999819755554,-10.001361846923828,0.003271593484473896,-0.08139711784055911,-0.007727522793060397,2.3246948365115987,8.249697990452058,0.8809607794606118
1731474143.939539,-0.31284046173095703,0.36997202038764954,-10.00731372833252,0.005873990436800874,-0.08492527580269413,-0.00787822232344695,2.321830039715911,8.239804848605598,0.8814257746198414
1731474143.9893997,-0.27976566553115845,0.3753986358642578,-10.026233673095703,0.00839294612318311,-0.08825686995566898,-0.008023605647868807,2.318999439307518,8.22975357801166,0.8818683455735197
1731474144.0392823,-0.2954639196395874,0.3394887149333954,-9.958551406860352,0.010819503533020759,-0.09137512884552154,-0.008163696079102311,2.3162174280078,8.219436631018443,0.8813344710384318
1731474144.089266,-0.5322554707527161,-0.19363191723823547,-10.011695861816406,0.013145233739292828,-0.09426359367413614,-0.008298674728726505,2.3134331413258784,8.208900982705634,0.8815582588996332
1731474144.139285,-0.5322554707527161,-0.19363191723823547,-10.011695861816406,0.01536312026956111,-0.09690425606832738,-0.008428754927027342,2.3107205521497196,8.19804859000395,0.881148236108988
1731474144.139285,-0.4975226819515228,-0.47324222326278687,-10.109478950500488,0.01746873336740812,-0.0992748684104596,-0.008554323849747091,2.3107021814432795,8.19797519715381,0.8811484683287271
1731474144.1902807,-0.6517626047134399,-0.1517183631658554,-10.05496883392334,0.01946080608993097,-0.10134731492422659,-0.008676344956076974,2.3079547752496565,8.186767121450034,0.8811722781386576
1731474144.2401178,-0.7958483099937439,-0.4603233337402344,-10.047149658203125,0.02134151758225927,-0.1030878775272233,-0.008796631298158539,2.30534200103681,8.175467159659522,0.8810258470273479
1731474144.2899477,-0.3774668574333191,0.1904527246952057,-9.920002937316895,0.023116831262913428,-0.10445886593662096,-0.008917609366897665,2.3027634343925154,8.164002974978937,0.880995696490164
1731474144.3399312,-0.7103548049926758,-0.2533815801143646,-10.023809432983398,0.024795980655289082,-0.105421053111527,-0.009041680715941393,2.300251856053182,8.152093732773954,0.8809843176122739
1731474144.389945,-0.7103548049926758,-0.2533815801143646,-10.023809432983398,0.026390491415259097,-0.10593570148148997,-0.009170803571932135,2.2977788000006365,8.140018577390519,0.8809392695922846
1731474144.389945,-0.5084047317504883,0.20593859255313873,-9.930323600769043,0.02791395975216139,-0.10596529406119098,-0.009306543044959075,2.297760144259694,8.1399252307141,0.880938837019078
1731474144.4399543,-0.6116470098495483,0.06604569405317307,-9.929553985595703,0.0293817808697086,-0.1054746019720183,-0.009450028024541545,2.2954137931952405,8.127602323877715,0.8809703010156271
1731474144.489831,-0.5259138345718384,0.24936124682426453,-9.96333122253418,0.03081020550679809,-0.10443281520173693,-0.009601613842126556,2.293138701417539,8.114979799250841,0.8809688680933014
1731474144.5398407,-0.5259138345718384,0.24936124682426453,-9.96333122253418,0.03221553830354274,-0.10281513908343873,-0.009760769467926837,2.290886612242406,8.102094105520012,0.8809199857839096
1731474144.5398407,-0.5633005499839783,0.1612505167722702,-9.892698287963867,0.03361368609320008,-0.10060336230810575,-0.009926243350273842,2.2908693825916795,8.101992700399515,0.8809195089779959
1731474144.5897121,-0.5227437615394592,0.1753193736076355,-9.91405963897705,0.03501989181268268,-0.09778568831562938,-0.010096067698904112,2.2887205362264624,8.088968914360493,0.8808463249303279
1731474144.6397834,-0.530639111995697,0.1455938071012497,-9.948212623596191,0.0364486110445911,-0.0943560144369985,-0.010267442880352523,2.2866421208331538,8.075592659110125,0.8807471258293827
1731474144.6897333,-0.4877649247646332,0.19532594084739685,-9.93302059173584,0.037913327780834116,-0.09031324694805487,-0.010436864395206562,2.28472110714826,8.061957746396942,0.8809592620832669
1731474144.7396362,-0.4850020408630371,0.15887004137039185,-9.961091995239258,0.039426269737883365,-0.08566092863072734,-0.010600438896302657,2.282836246343859,8.048149353969862,0.8809031942967424
1731474144.7895703,-0.042006008327007294,0.42955347895622253,-9.968608856201172,0.04099775322538141,-0.08040720214792305,-0.01075415905227731,2.2810579216312132,8.034183836855199,0.8808208150593821
1731474144.8395107,0.20982344448566437,0.5299987196922302,-9.996824264526367,0.04263431045636943,-0.0745654595222558,-0.010894152751691595,2.279444909748737,8.019882338994183,0.8809532252264365
1731474144.8894217,-0.2961362600326538,0.27400559186935425,-10.028383255004883,0.044336234817914065,-0.06815531552504404,-0.011016973118380948,2.277875726722003,8.005504390731076,0.8808925117914989
1731474144.9395008,-0.2961362600326538,0.27400559186935425,-10.028383255004883,0.0460973257627311,-0.06120241253155086,-0.011119901949085239,2.276493373805261,7.990850028853449,0.880952743456375
1731474144.9395008,-0.07620701938867569,0.45252323150634766,-9.962984085083008,0.04790711457370057,-0.05373699766833251,-0.011201101992862698,2.2764846888204775,7.990759132709177,0.8809524481761046
1731474144.989377,-0.3626199960708618,0.24273060262203217,-10.05359172821045,0.0497526423948533,-0.045792888051505255,-0.011259502475426168,2.2751598851547223,7.976194075975647,0.880891406682702
1731474145.0394049,-0.3626199960708618,0.24273060262203217,-10.05359172821045,0.05161924552715971,-0.03740689164962996,-0.011294709904528702,2.2740370752878243,7.961322234099541,0.8809593639203986
1731474145.0394049,-0.1496284306049347,0.48473837971687317,-10.041500091552734,0.05349151464607217,-0.02861801411242175,-0.011307165849406317,2.2740296862819465,7.961226323954075,0.8809590781507779
1731474145.0892012,-0.3409866988658905,0.2217046469449997,-10.007319450378418,0.055353802661494686,-0.019467053890476767,-0.011298220921339423,2.272966406896413,7.946516717139597,0.8809014165076487
1731474145.1393504,-0.3409866988658905,0.2217046469449997,-10.007319450378418,0.057190226468086,-0.009996349303793289,-0.011269886711211074,2.2721227800597186,7.931428849893457,0.880961715849781
1731474145.1393504,-0.19522902369499207,0.4383619427680969,-10.02239990234375,0.058985019236619765,-0.0002490007465446326,-0.011224508827016795,2.2721164310360797,7.931318714838658,0.8809613946573586
1731474145.1891997,-0.3174585700035095,0.26658883690834045,-9.997493743896484,0.06072278491972538,0.009731569728080418,-0.011164596557201195,2.2713419832476442,7.9166051253935485,0.8809047603443687
1731474145.2401588,-0.2567730247974396,0.41878947615623474,-9.975645065307617,0.06238840810478816,0.01990146337703822,-0.01109271842139569,2.2706993544773426,7.901444426919155,0.8808178176303497
1731474145.290124,-0.31867489218711853,0.322895348072052,-10.004502296447754,0.06396718564366469,0.03021633945887299,-0.011011337386139963,2.2702293023643625,7.886670590698286,0.8807049407344267
1731474145.3400424,-0.2900391221046448,0.4151308536529541,-9.99188232421875,0.06544514848631258,0.04063165123914205,-0.010922702306870261,2.270036614669771,7.87182991902952,0.8809582849165869
1731474145.390102,-0.2900391221046448,0.4151308536529541,-9.99188232421875,0.06680928006174344,0.051102802152734036,-0.010828867885086902,2.2698946189140035,7.85720416543665,0.8808986989695045
1731474145.390102,-0.331870973110199,0.35072141885757446,-9.961592674255371,0.06804762790483432,0.06158527985355883,-0.010731692356810403,2.2698941299523225,7.857080513232214,0.880898076801199
1731474145.4399805,-0.31109046936035156,0.4003080129623413,-9.982954025268555,0.06914942746145089,0.07203496781908986,-0.010632738952286355,2.2700513584819606,7.84268332845261,0.8809604563733889
1731474145.4899025,-0.31109046936035156,0.4003080129623413,-9.982954025268555,0.07010524169961835,0.08240857570736493,-0.010533206209745955,2.270255023674721,7.8284394237002575,0.8809060434972309
1731474145.4899025,-0.3297779858112335,0.40445318818092346,-9.977746963500977,0.0709070010808524,0.09266389516053336,-0.010433972052487512,2.2702571635453297,7.828335682220136,0.8809055472981802
1731474145.5398126,-0.3312694728374481,0.4171616733074188,-9.975252151489258,0.07154800410571144,0.10275992296306653,-0.010335661546073377,2.2706359099124622,7.81440488816263,0.8808254814043708
1731474145.589731,-0.3365127444267273,0.42672958970069885,-9.98169231414795,0.07202296813846898,0.11265700262099314,-0.010238666425077122,2.271340531605567,7.800578057005146,0.8809592845079263
1731474145.6397784,-0.6444383859634399,0.252627432346344,-9.986760139465332,0.07232833935841054,0.12231711395547329,-0.010143171839686275,2.2720878085701193,7.787028392898466,0.8809046690256972
1731474145.6896195,-0.5891392230987549,0.3251998722553253,-9.954066276550293,0.07246327599219149,0.1317045454665199,-0.010049195805014927,2.2730079258257616,7.773929778725998,0.880825455310666
1731474145.739691,-0.7718563675880432,0.09749940782785416,-9.974160194396973,0.07243099089136745,0.14078683861056987,-0.00995656353776961,2.2741191566296965,7.761045976187873,0.8807203213744633
1731474145.7895942,-0.46285444498062134,0.407083123922348,-9.982929229736328,0.07223938881513076,0.14953550246665925,-0.009864867168120704,2.2755711046462377,7.748522088967253,0.8809528248259382
1731474145.839546,0.17480438947677612,0.5993920564651489,-9.956948280334473,0.07189973512141283,0.15792566508412026,-0.009773510310131676,2.2770445645104096,7.736413707917848,0.8808958784388049
1731474145.8895202,-0.4296962022781372,0.3416212499141693,-10.036373138427734,0.07142329399720919,0.16593454033066532,-0.00968181306512538,2.2787828955608966,7.724639220713385,0.880956742293675
1731474145.9394314,-0.4296962022781372,0.3416212499141693,-10.036373138427734,0.07081906721685474,0.1735404773911413,-0.009589229391950026,2.280616121691876,7.7133507721473205,0.8809024257249306
1731474145.9394314,-0.10667605698108673,0.5735830664634705,-9.944799423217773,0.07009451001735023,0.18072338911168156,-0.009495595707934089,2.280630943358747,7.713265466326455,0.880901913328624
1731474145.9893925,-0.4261827766895294,0.25164923071861267,-9.998679161071777,0.06925648123463353,0.18746511162046925,-0.009401058315445056,2.2826556580010893,7.702441204556618,0.8809620723279874
1731474146.0393891,-0.4261827766895294,0.25164923071861267,-9.998679161071777,0.06831127869410741,0.19374963199557826,-0.00930579791943083,2.2848356926283198,7.692081688688578,0.8809130773425838
1731474146.0393891,-0.1757666915655136,0.5858380794525146,-10.030649185180664,0.06726506038744018,0.1995637347375241,-0.009210014091029799,2.2848548458332893,7.691996231589213,0.8809125635632981
1731474146.0892906,-0.1757666915655136,0.5858380794525146,-10.030649185180664,0.06612382297793837,0.20489667681329915,-0.009114147932907336,2.287163064489852,7.68231011126412,0.8808416506142815
1731474146.0892906,-0.36952340602874756,0.26452311873435974,-9.984543800354004,0.0648925364956045,0.20973892392281385,-0.00901902090801918,2.2871813006781467,7.6822380931244165,0.8808410241836213
1731474146.1392066,-0.2180897742509842,0.5275964140892029,-9.984308242797852,0.06357497004939225,0.2140820170988588,-0.008925717192736347,2.28965919493705,7.673026750647768,0.8807475815423481
1731474146.1892066,-0.35027265548706055,0.3020928204059601,-9.998504638671875,0.062174291289631464,0.2179194302677617,-0.008835323097182459,2.292313610869026,7.664275111402496,0.8806313304588502
1731474146.2392662,-0.35027265548706055,0.3020928204059601,-9.998504638671875,0.06069354272128712,0.22124714353260225,-0.008748797215411665,2.2952537347483335,7.655811072517668,0.8809639414754388
1731474146.2392662,-0.24522694945335388,0.4789474606513977,-9.97572135925293,0.0591359397828855,0.2240639618679583,-0.00866699091386123,2.2952752653915955,7.655751927457927,0.8809636697890433
1731474146.2900531,-0.32880857586860657,0.3587845265865326,-9.992473602294922,0.05750490943123277,0.22637140576106413,-0.008590636643196878,2.2982606244866792,7.6480421664754115,0.8809159494494302
1731474146.3401139,-0.32880857586860657,0.3587845265865326,-9.992473602294922,0.05580393566715652,0.22817322652719552,-0.00852030511732195,2.3014048093536332,7.640702207464264,0.8809700103420602
1731474146.3401139,-0.28920209407806396,0.4533703923225403,-9.996732711791992,0.054036611344329404,0.22947521917846397,-0.008456432635927678,2.3014251547621942,7.640658651326932,0.8809697967271104
1731474146.3900425,-0.32036682963371277,0.38436904549598694,-9.975886344909668,0.052206733865308566,0.23028511046130323,-0.008399369610822596,2.304635524418538,7.634208115762987,0.8809263960272986
1731474146.4399643,-0.3222068250179291,0.4288286566734314,-9.992498397827148,0.050318266163466775,0.2306122540629845,-0.008349364187182778,2.308018200620884,7.628246302963747,0.880861431864759
1731474146.4898868,-0.3282969295978546,0.4256960153579712,-9.982223510742188,0.04837536262479944,0.23046742269434678,-0.008306524719591918,2.3114945022766014,7.622909630797997,0.8807763037539459
1731474146.5398424,-0.3282969295978546,0.4256960153579712,-9.982223510742188,0.04638245759796647,0.22986267445486572,-0.008270817596647152,2.315178461688242,7.61785126617596,0.8809682682603973
1731474146.5398424,-0.3342430889606476,0.41899538040161133,-9.977553367614746,0.04434429979802515,0.22881121395492865,-0.008242066887149334,2.3152076387026295,7.617815474795467,0.8809679911591669
1731474146.5898244,-0.3342430889606476,0.41899538040161133,-9.977553367614746,0.04226594768954517,0.2273273295537666,-0.008219935597812146,2.318849129022331,7.613375198932987,0.8809753760008817
1731474146.5898244,-0.3272224962711334,0.4375999867916107,-9.990431785583496,0.04015274574634453,0.2254263516627207,-0.008203927773713714,2.3188795193673633,7.613343461621772,0.8809751388045006
1731474146.6398294,-0.3272224962711334,0.4375999867916107,-9.990431785583496,0.038010263139323076,0.2231245367705535,-0.008193444747758794,2.3226861028028596,7.609697071229945,0.8809355473564741
1731474146.6398294,-0.348007470369339,0.42216381430625916,-9.980985641479492,0.03584422618744101,0.2204389164523417,-0.008187861630570684,2.3227155331122686,7.609671357845428,0.880935166779408
1731474146.6897447,-0.3311549723148346,0.43346843123435974,-9.981561660766602,0.03366050428693985,0.2173872142860776,-0.008186548938412955,2.3265737805796305,7.606603211028272,0.8808757648634395
1731474146.7396312,-0.3635404109954834,0.40990909934043884,-9.988479614257812,0.03146513301256146,0.2139878304632286,-0.008188847387846344,2.330559649375965,7.6040325251989636,0.8807953400058053
1731474146.789546,-0.32311975955963135,0.4552238881587982,-9.978585243225098,0.029264318001529274,0.21025980623802784,-0.008194063397357478,2.3346017874685985,7.601999424328774,0.880695009886435
1731474146.8395026,-0.3543110489845276,0.4205108880996704,-9.987153053283691,0.027064384171404963,0.20622270968745415,-0.00820148393515852,2.3387519779169104,7.600144909019482,0.880972318944156
1731474146.8894835,-0.33690303564071655,0.44204410910606384,-9.983466148376465,0.024871691833009118,0.2018964924665616,-0.008210386243440535,2.342958849203022,7.59912223048868,0.8809288123633232
1731474146.939377,-0.3456494212150574,0.4204249382019043,-9.974058151245117,0.02269257873275372,0.19730140796611612,-0.008220042228809312,2.347081973008982,7.5982538828585,0.8807194746132027
1731474146.9893372,-0.32335811853408813,0.44455331563949585,-9.994388580322266,0.0205333033238461,0.19245796675321608,-0.008229714006957867,2.351395109490318,7.598212391196033,0.8805955683426124
1731474147.0392928,-0.3419918715953827,0.4153200089931488,-9.980100631713867,0.018399949553199672,0.18738687316591152,-0.008238668148484658,2.355751355065367,7.598645377786278,0.8804512518598969
1731474147.0892532,-0.3419918715953827,0.4153200089931488,-9.980100631713867,0.01629835761388083,0.18210898379779275,-0.008246205317743517,2.3601459338147595,7.599538301730407,0.8802865564213205
1731474147.0892532,-0.33232659101486206,0.44813141226768494,-9.970808982849121,0.014234121201292292,0.17664528871226287,-0.008251643552526283,2.3601749672083177,7.599545674613373,0.880285405390716
1731474147.1392598,-0.3414287269115448,0.42118310928344727,-9.989472389221191,0.012212585243966633,0.17101681316191283,-0.008254275344849507,2.3644878030599026,7.600475669226786,0.8804995184166006
1731474147.1892078,-0.32821929454803467,0.43675288558006287,-9.983247756958008,0.010238808364293004,0.16524446643915794,-0.008253380247394698,2.3689437385975998,7.602222274511753,0.8803995653974305
1731474147.239118,-0.32821929454803467,0.43675288558006287,-9.983247756958008,0.008317512237621878,0.15934894404936384,-0.008248282492456903,2.3734208210301646,7.604372093898289,0.8802791187598138
1731474147.239118,-0.3308393657207489,0.41653814911842346,-9.989508628845215,0.006453027513296948,0.15335066719268486,-0.008238385744800306,2.3734425339594747,7.604383459783442,0.880278486071263
1731474147.2890556,-0.3233639597892761,0.44228991866111755,-9.99915599822998,0.0046492575594786895,0.147269740475888,-0.008223196815921078,2.37773840050328,7.606471433334991,0.8850902482509634
1731474147.34003,-0.3317860960960388,0.42187803983688354,-9.981391906738281,0.0029096692860855022,0.1411259123379682,-0.00820236620256117,2.38234459814343,7.609428959674412,0.8860913029969276
1731474147.389953,-0.3317860960960388,0.42187803983688354,-9.981391906738281,0.0012373041367883966,0.13493852158333663,-0.008175684823394286,2.386849556088307,7.612665860792932,0.8870485894562141
1731474147.389953,-0.3199501931667328,0.43816444277763367,-9.984302520751953,-0.00036519929129565803,0.12872646016178482,-0.008143016233871115,2.386875357998038,7.612685360468697,0.8870540118017762
1731474147.4399762,-0.3199501931667328,0.43816444277763367,-9.984302520751953,-0.0018956129512831786,0.12250810701294958,-0.008104246528722645,2.3913701515545953,7.616236815141521,0.8879889972350231
1731474147.4399762,-0.3348630368709564,0.410004585981369,-9.995926856994629,-0.003352147093164775,0.11630123167706899,-0.008059296601054863,2.391396086963217,7.616258199627479,0.8879943367220583
1731474147.4898822,-0.3348630368709564,0.410004585981369,-9.995926856994629,-0.004733416698102251,0.11012299619711177,-0.00800817432107763,2.395795463718202,7.619589255841556,0.8893684122880692
1731474147.4898822,-0.31965500116348267,0.4335654675960541,-9.987404823303223,-0.0060383649384685,0.10399002701373203,-0.007951023227787676,2.3958218227444457,7.619612619242853,0.8893742734116771
1731474147.5398347,-0.31965500116348267,0.4335654675960541,-9.987404823303223,-0.007266253117365616,0.09791837264474049,-0.007888115728946769,2.4002783987281244,7.623692041871622,0.8903574527590584
1731474147.5398347,-0.33629316091537476,0.42236918210983276,-9.98745346069336,-0.00841670238682977,0.09192335636068694,-0.007819799088128769,2.400299808656288,7.623712262718162,0.8903621386384087
1731474147.5897639,-0.32917505502700806,0.4344494938850403,-9.999245643615723,-0.009489673734941306,0.08601948629338108,-0.007746464154461983,2.4046913648654615,7.627507762083462,0.8940370427350713
1731474147.6397233,-0.32917505502700806,0.4344494938850403,-9.999245643615723,-0.010485396312791108,0.08022043033969325,-0.007668572986935055,2.409124567179982,7.63203639405813,0.8960310549426803
1731474147.6397233,-0.3516184091567993,0.42074695229530334,-9.990751266479492,-0.011404313199280898,0.07453898723434747,-0.007586702354847283,2.4091484717000933,7.632061428176455,0.896041787012207
1731474147.6896822,-0.3454195261001587,0.43337929248809814,-9.982441902160645,-0.012247010760583406,0.06898708050609395,-0.007501527295982399,2.4135340050086223,7.63675568334511,0.8980082098223925
1731474147.739603,-0.3505779504776001,0.42843934893608093,-9.977140426635742,-0.013014125229468659,0.06357577266451046,-0.0074137313722318215,2.417824042137979,7.64107114575872,0.8931395136928314
1731474147.7895708,-0.3442579209804535,0.44717955589294434,-10.014467239379883,-0.013706300390986328,0.058315239219358286,-0.0073239390370636315,2.4221791699430075,7.64611380795163,0.8934485348754019
1731474147.839557,-0.2940550446510315,0.5944892764091492,-9.976007461547852,-0.014324254514882905,0.053214561066486726,-0.00723275298576365,2.426394481707939,7.65069022450745,0.8925359640664265
1731474147.889536,-0.20518560707569122,0.54371577501297,-9.946371078491211,-0.014869076146214596,0.048281181739271095,-0.007140762118541618,2.430672530574352,7.655986546450297,0.892586707121745
1731474147.939503,-0.43645983934402466,0.24578015506267548,-9.995434761047363,-0.015342589962311075,0.043520631522529385,-0.007048397901859497,2.4348101427006776,7.6607685713933575,0.8869319920369778
1731474147.9893682,-0.2412494719028473,0.5809628963470459,-10.00178050994873,-0.01574726733819494,0.038937214791429926,-0.006955872103285028,2.4389826993547246,7.666238210261301,0.885114138232532
1731474148.0393229,-0.4226839542388916,0.305077463388443,-9.972904205322266,-0.016085789035638776,0.034534805530157225,-0.006863329211072729,2.4431365702248242,7.671826666650035,0.8832699778434477
1731474148.0892675,-0.17636924982070923,0.6643232107162476,-9.994385719299316,-0.016360884959024463,0.030316801396169667,-0.006770955645200768,2.4472506140955295,7.677496903206896,0.8814085191330732
1731474148.1391916,-0.017241640016436577,0.4965020716190338,-10.021503448486328,-0.01657587052917424,0.026285517720676783,-0.006678985162269618,2.451199341951064,7.682521866792237,0.8825293687666852
1731474148.1891968,0.08745230734348297,0.6030604839324951,-10.011589050292969,-0.01673606690949324,0.022441533461574847,-0.006587796216016397,2.455108581855639,7.68759826980812,0.8788370441998987
1731474148.2391913,-0.9778934717178345,0.07814757525920868,-9.990920066833496,-0.01684946147819435,0.018783843291762622,-0.006498029552386669,2.459103569485906,7.6934456393472335,0.8769005029142403
1731474148.289004,-0.13256236910820007,0.6477596163749695,-9.916261672973633,-0.016924521133663425,0.015311134277354171,-0.00641046312381465,2.46303816915121,7.699308571204663,0.874956798745606
1731474148.3390393,-0.5607509613037109,0.18505153059959412,-10.030675888061523,-0.016967467628168788,0.012022756579463084,-0.006325693636619079,2.466946563002789,7.7052296746030455,0.8729892169745975
1731474148.3899746,-0.24053697288036346,0.6703055500984192,-9.993346214294434,-0.016982131412828227,0.008918517657183513,-0.006244048336921324,2.4707392626853992,7.710475360750856,0.8789408001432228
1731474148.4399455,-0.4149532914161682,0.18424800038337708,-9.922703742980957,-0.016971050264727436,0.005998164199097618,-0.006165753476269969,2.474561547069797,7.716433829424685,0.8785698555192928
1731474148.4898977,-0.32263457775115967,0.564312756061554,-10.011099815368652,-0.016936052424504407,0.003261269696699904,-0.006090914447993475,1.5593411516880356,2.3101981669344998,0.8795964391917523
1731474148.539939,-0.32263457775115967,0.564312756061554,-10.011099815368652,-0.016878513957862242,0.0007071243062704185,-0.006019437373508445,1.5563259161237815,2.323778285959324,0.879475212730941
1731474148.539939,-0.4096713662147522,0.33358514308929443,-9.978320121765137,-0.016799504860871187,-0.0016658142319398521,-0.005951219144815039,1.5563101805847919,2.3238486652924744,0.879474545281906
1731474148.5898108,-0.33266475796699524,0.4822407364845276,-9.983787536621094,-0.01669976755175712,-0.003860080961766204,-0.00588629047631202,1.5532080146859992,2.3270265035694475,0.8798705949651513
1731474148.6398258,-0.36633315682411194,0.4079146981239319,-10.017582893371582,-0.016579631243552165,-0.0058786604071737495,-0.005824747004419994,1.5503380590478584,2.3406387731320355,0.8798216464059705
1731474148.6896837,-0.37975364923477173,0.41329842805862427,-9.984230041503906,-0.016439053423497833,-0.0077246656323900235,-0.0057667403628708196,1.5483512594952535,2.3500791694085854,0.879941670968417
1731474148.7397082,-0.3236582279205322,0.45023560523986816,-9.957239151000977,-0.016277709830072637,-0.009401333935968698,-0.005712494899555829,1.5459713831662543,2.361709788263358,0.8799053394546161
1731474148.7895982,-0.4094269871711731,0.40006208419799805,-10.010847091674805,-0.016095055868599602,-0.010912026564920754,-0.005662190259159015,1.5420957648279374,2.3795828905488237,0.8799643533713998
1731474148.8395123,-0.4094269871711731,0.40006208419799805,-10.010847091674805,-0.01589029731754353,-0.012260215631484439,-0.005615922052748478,1.5364608229124277,2.397727027365162,0.8799737790785298
1731474148.8395123,-0.3341081142425537,0.49790847301483154,-9.974881172180176,-0.015662248452806345,-0.013449455624394379,-0.005573841445038544,1.5364328856911205,2.397834012165358,0.8799736018702167
1731474148.8895173,-0.3341081142425537,0.49790847301483154,-9.974881172180176,-0.01540943543294054,-0.014483607948278602,-0.005536182222876947,1.532742336995876,2.411875599596453,0.8799434385324769
1731474148.8895173,-0.40162166953086853,0.3858509361743927,-9.979796409606934,-0.015130444209759234,-0.015367204909503584,-0.005503102101483237,1.5327241835200232,2.4119442257997554,0.8799432573735796
1731474148.9394271,-0.40162166953086853,0.3858509361743927,-9.979796409606934,-0.014823975961797744,-0.01610531716581104,-0.005474578541628394,1.5289893898028533,2.4259733183489676,0.8798993658298441
1731474148.9394271,-0.33520281314849854,0.49349677562713623,-9.995915412902832,-0.01448862922484413,-0.016703065465064545,-0.005450442739195786,1.5289665594286639,2.4260585332228906,0.8798990574044177
1731474148.989394,-0.39363962411880493,0.3769837021827698,-9.9759521484375,-0.014122897667092862,-0.017165503671555393,-0.005430459270935127,1.5251995807559484,2.440032072120839,0.879841660273101
1731474149.0393794,-0.32641667127609253,0.49767252802848816,-9.984671592712402,-0.013725375006752555,-0.01749780918011754,-0.00541436430498471,1.532156394453612,2.424450134111223,0.879980147476851
1731474149.0893095,-0.39658495783805847,0.40310895442962646,-9.991823196411133,-0.013294883408800483,-0.017705380067601695,-0.005401859140717077,1.5303931493286809,2.433459219566117,0.8799525143759139
1731474149.139286,-0.31508591771125793,0.49019932746887207,-9.974615097045898,-0.012830511694020807,-0.01779387294595585,-0.005392617182159624,1.5285929195763934,2.442446377675353,0.8799113406617819
1731474149.1892076,-0.31508591771125793,0.49019932746887207,-9.974615097045898,-0.012331716171383324,-0.01776929564198145,-0.005386280463740095,1.526771632986073,2.451364539790624,0.8799771421116115
1731474149.1892076,-0.3865351676940918,0.38851404190063477,-9.984769821166992,-0.011798482207129226,-0.01763809413912087,-0.005382417033809709,1.5267633404860295,2.451407414571115,0.8799770303749173
1731474149.2392628,-0.3284973204135895,0.4553205966949463,-9.989445686340332,-0.011231297252878063,-0.01740699470146997,-0.0053805212904008415,1.5250288989067786,2.460280765356945,0.8799471314692384
1731474149.2891707,-0.36882221698760986,0.4021817743778229,-9.976908683776855,-0.010630957253394357,-0.017082663838964535,-0.005380074971486924,1.5232656148111674,2.4691196014793912,0.8799038157504834
1731474149.3390863,-0.36882221698760986,0.4021817743778229,-9.976908683776855,-0.009998449407093789,-0.016671499237640233,-0.005380571166614824,1.5214759221504968,2.4779199715811715,0.8798470794601094
1731474149.3390863,-0.339903861284256,0.46282950043678284,-9.997218132019043,-0.009334892064030207,-0.016179566171418226,-0.00538149478160187,1.5214673518210253,2.4779617222602233,0.8798467776239083
1731474149.3890233,-0.36403632164001465,0.4146801829338074,-9.983406066894531,-0.0086415184145828,-0.015612672189684937,-0.00538234948983249,1.5201824261134629,2.4866745367642267,0.8799786877170453
1731474149.4399798,-0.36403632164001465,0.4146801829338074,-9.983406066894531,-0.007919704429689658,-0.014976493717374592,-0.005382709522177637,1.5183490749049897,2.4956051577547678,0.8799496872117388
1731474149.4399798,-0.3282560706138611,0.4430561661720276,-9.990992546081543,-0.007170963492191864,-0.014276560492717664,-0.005382219778303131,1.518340118884114,2.4956484430148396,0.8799495120229804
1731474149.489963,-0.3282560706138611,0.4430561661720276,-9.990992546081543,-0.006397001539689282,-0.01351824136836709,-0.00538058580872403,1.516536506969525,2.504310108477921,0.8799076881045038
1731474149.489963,-0.34830936789512634,0.4099680185317993,-9.985173225402832,-0.005599846231419983,-0.012706828477470546,-0.005377592152559826,1.5165275868665538,2.504352675313377,0.8799074491801441
1731474149.5398574,-0.3367198407649994,0.4484230577945709,-9.979958534240723,-0.004781865547654878,-0.011847544894688183,-0.0053730954912127125,1.5132073052125894,2.51295921083448,0.8799800072960707
1731474149.5898209,-0.3511849343776703,0.42940324544906616,-9.9827299118042,-0.003945664124416718,-0.010945500236556209,-0.005366975596662803,1.5107552635482668,2.521598149866722,0.8799528950229435
1731474149.639785,-0.3511849343776703,0.42940324544906616,-9.9827299118042,-0.0030939768821938076,-0.01000570379531574,-0.00535909526195078,1.5082993215522844,2.5301938280540495,0.8799124744335055
1731474149.639785,-0.3449540138244629,0.44740235805511475,-9.993281364440918,-0.002229588642357205,-0.009033076600647323,-0.005349306128106681,1.5082862847278604,2.5302393182980225,0.8799122246717967
1731474149.689714,-0.348348468542099,0.4309273660182953,-9.968509674072266,-0.0013552903871512018,-0.008032454293772855,-0.005337474366364125,1.5066100782857228,2.5387830238805087,0.8799783221217794
1731474149.7397473,-0.348348468542099,0.4309273660182953,-9.968509674072266,-0.0004738712077780549,-0.007008592836135485,-0.005323451806893734,1.5043575161717198,2.547377526113201,0.8799502724434738
1731474149.7397473,-0.3465837836265564,0.4344233572483063,-9.99363899230957,0.0004118927439815649,-0.005966130161305138,-0.0053070083454268314,1.504344344329145,2.5474277174819533,0.8799500691488958
1731474149.7896135,-0.3465837836265564,0.4344233572483063,-9.99363899230957,0.0012992549696400056,-0.004909543141101659,-0.005287859557678174,1.4994239309767918,2.5559271896448386,0.8799802796588467
1731474149.7896135,-0.35121646523475647,0.43669408559799194,-9.989757537841797,0.0021855114660447126,-0.003843147172856244,-0.005265789955563264,1.4994078484274522,2.5559713969544773,0.8799801746258238
1731474149.839714,-0.3436480164527893,0.4485608637332916,-9.986307144165039,0.0030680185084102545,-0.0027711207152767764,-0.005240720446199387,1.4919227096100587,2.5645105971666853,0.8799842222988905
1731474149.8895714,-0.3596985638141632,0.44395580887794495,-9.989258766174316,0.003944215707061305,-0.0016975479195445327,-0.005212682650753828,1.4876513109697986,2.573018644172912,0.8799594275434328
1731474149.9394937,-0.3596985638141632,0.44395580887794495,-9.989258766174316,0.004811669069514585,-0.0006264552783273332,-0.005181781945740519,1.4833676702819214,2.5815699669366676,0.879921514781348
1731474149.9394937,-0.3440133035182953,0.440993994474411,-9.989282608032227,0.005668123415467794,0.0004381973414785882,-0.005148187174288865,1.4833461636889147,2.581612956913558,0.8799212913724472
1731474149.9894161,-0.3629949986934662,0.4327376186847687,-9.978323936462402,0.006511508329413529,0.0014925670551582115,-0.005112118787688144,1.4791179297260215,2.59008275741928,0.8798709735601464
1731474150.0394707,-0.3629949986934662,0.4327376186847687,-9.978323936462402,0.007339928880576522,0.002532997486907095,-0.005073803711999272,1.4851146514084026,2.5986742067568134,0.8799785884276342
1731474150.0394707,-0.35161831974983215,0.4358040392398834,-9.977865219116211,0.008151694592164959,0.0035560804589176544,-0.005033414071806395,1.485102341681669,2.5987211726244857,0.879978472029082
1731474150.0892787,-0.3588835597038269,0.44195646047592163,-9.983288764953613,0.008945326800035742,0.004558670950880268,-0.004991039052896988,1.4828958241674328,2.6071873560506242,0.8799513648200036
1731474150.1392915,-0.3525645434856415,0.4376795291900635,-9.988021850585938,0.00971951984089842,0.005537855563253936,-0.004946709573441269,1.4806835593622858,2.6157775476727427,0.8799115052729927
1731474150.1892414,-0.3610277473926544,0.4366692900657654,-9.989734649658203,0.01047311407605168,0.006490924454538173,-0.004900454649120167,1.478962676215441,2.6243757738983766,0.8799813923227008
1731474150.239233,-0.35390523076057434,0.44004589319229126,-9.980785369873047,0.011205094868940682,0.007415373710741826,-0.004852345827620575,1.4769498368801848,2.633023626326688,0.8799551039693543
1731474150.2891834,-0.34808841347694397,0.4356316924095154,-9.990507125854492,0.011914583637929167,0.008308915062692749,-0.004802499340967453,1.4749880952701673,2.6415947613837454,0.8799171210288411
1731474150.3391497,-0.3495331108570099,0.4318283796310425,-9.987534523010254,0.01260079756604388,0.009169484726490667,-0.004751064090404645,1.4711791623329598,2.650291310040748,0.8799785843590587
1731474150.3889644,-0.34229859709739685,0.43807172775268555,-9.979005813598633,0.013262997647410742,0.00999526193545199,-0.00469821999699865,1.4685761287310077,2.6589185882232838,0.8799518670086339
1731474150.4399717,-0.35194361209869385,0.43843650817871094,-9.987793922424316,0.013900458655177333,0.010784673218881944,-0.004644160820268057,1.4611169508479953,2.667865613516137,0.8799788830231555
1731474150.4899325,-0.3497510850429535,0.43838438391685486,-9.9824857711792,0.01451247477905881,0.011536366618613486,-0.004589070086103444,1.4537973143294558,2.6766238899947594,0.8799816957636335
1731474150.5399475,-0.3440338671207428,0.4448617100715637,-9.980924606323242,0.015098385568573548,0.012249179120126023,-0.004533115377120576,1.4488752136475338,2.685390704288875,0.8799570752311462
1731474150.5898569,-0.3435697555541992,0.4436219334602356,-9.993441581726074,0.015657579260553584,0.012922105776135577,-0.004476450963119641,1.444005002334179,2.694164794947248,0.8799212872748543
1731474150.6397717,-0.3434273302555084,0.4445556402206421,-9.981748580932617,0.01618946854257535,0.013554270110432132,-0.004419234056078587,1.4482572057160303,2.703015243963909,0.8799783468114842
1731474150.6896904,-0.34205594658851624,0.4357181191444397,-9.985618591308594,0.01669347549289115,0.014144918020703522,-0.004361642153056577,1.445873656327691,2.7118465619369347,0.8799530559897563
1731474150.7397027,-0.34205594658851624,0.4357181191444397,-9.985618591308594,0.01716903368714937,0.014693449484718773,-0.004303863312511408,1.4404510236536472,2.720838331687888,0.8799800259851729
1731474150.7397027,-0.3368449807167053,0.4365089237689972,-9.985532760620117,0.017615590083389837,0.015199463876953243,-0.004246083220943455,1.4404288820152362,2.7208932077050747,0.8799799092419608
1731474150.7896504,-0.3368449807167053,0.4365089237689972,-9.985532760620117,0.018032596418013434,0.015662780238433555,-0.004188487224717628,1.4368837199410633,2.7297542188994712,0.8799559175995837
1731474150.7896504,-0.3370206654071808,0.44003918766975403,-9.988101959228516,0.01841949720977929,0.016083424955846765,-0.004131264176246082,1.4368601963482475,2.7298135173269995,0.8799557227842886
1731474150.839731,-0.3370206654071808,0.44003918766975403,-9.988101959228516,0.01877573149458127,0.01646160335392631,-0.004074613141884386,1.4340647742980204,2.738821884971736,0.8799854173733085
1731474150.839731,-0.34878137707710266,0.4350849390029907,-9.995030403137207,0.01910076006057214,0.016797674148822987,-0.004018759918936731,1.4340430837164388,2.7388791266392105,0.8799853199856545
1731474150.8894904,-0.34878137707710266,0.4350849390029907,-9.995030403137207,0.019394125124697067,0.017092146713669182,-0.003963984719432955,1.430702393187849,2.7477788855696867,0.8799653568514904
1731474150.8894904,-0.34958556294441223,0.43955448269844055,-9.992443084716797,0.01965552208850315,0.017345691633760624,-0.003910648022599345,1.4306781488784333,2.747844089934023,0.8799651754078436
1731474150.9395454,-0.34958556294441223,0.43955448269844055,-9.992443084716797,0.019884840081773533,0.017559130126255432,-0.0038591895746946225,1.4273549280109978,2.7568705400118945,0.8799352967110473
1731474150.9395454,-0.33814793825149536,0.4347154200077057,-9.992836952209473,0.020082154009483752,0.017733406294367947,-0.0038101033242905332,1.4273325844289815,2.7569318345611613,0.8799350616670336
1731474150.9894862,-0.3534073531627655,0.43426117300987244,-9.98823356628418,0.02024768683441522,0.01786957913678778,-0.003763910523408189,1.4240761522111203,2.7659558544691443,0.8798958896251112
1731474151.0393903,-0.35689619183540344,0.43784937262535095,-9.982269287109375,0.02038179764735862,0.017968833046856467,-0.003721126140135581,1.4269600690963562,2.7751747025337306,0.8799873152781836
1731474151.089344,-0.34376397728919983,0.4424741268157959,-9.984296798706055,0.020485014990856528,0.01803246734950798,-0.003682209174680653,1.4247748898464,2.7843515943766635,0.8799684847140865
1731474151.1394033,-0.34501925110816956,0.4349685609340668,-9.980411529541016,0.020558038624911176,0.018061859752652093,-0.0036475193225437184,1.4198462599692676,2.793711638227145,0.8799858675083929
1731474151.1892505,-0.35001081228256226,0.4367660880088806,-9.98748779296875,0.02060168612007136,0.018058445252247136,-0.0036173034357750307,1.4165575766568366,2.802959679841825,0.879966278812134
1731474151.2393665,-0.35001081228256226,0.4367660880088806,-9.98748779296875,0.020616862248790037,0.018023723387992723,-0.0035917138566074745,1.413294160175074,2.8123272581858414,0.8799374932006776
1731474151.2393665,-0.35077399015426636,0.4410512447357178,-9.983784675598145,0.02060457149819094,0.01795925831470206,-0.003570841229988222,1.4132722711517038,2.8123907518703795,0.8799372677857649
1731474151.2891529,-0.3346041738986969,0.4414082169532776,-9.978825569152832,0.02056591426160727,0.017866652877354235,-0.0035547244724791005,1.4118816286487321,2.8218002852048287,0.8799844904631798
1731474151.339152,-0.3346041738986969,0.4414082169532776,-9.978825569152832,0.02050202538440464,0.01774751505149898,-0.003543324163588225,1.4095226843401483,2.83119944336143,0.8799655378875999
1731474151.339152,-0.3532467186450958,0.44168803095817566,-9.982125282287598,0.02041400313653392,0.01760343726977992,-0.0035364952223067747,1.4095084116701502,2.831257073118056,0.8799653948511139
1731474151.38902,-0.3444956839084625,0.44681721925735474,-9.989038467407227,0.020302918478955094,0.017435985326768065,-0.0035339990211019435,1.4036630834529193,2.840750852431693,0.8799865389447595
1731474151.4390323,-0.3412024676799774,0.45108357071876526,-9.988518714904785,0.020169872817434202,0.01724667536074037,-0.0035355556681743814,1.4000187318473898,2.8502936904459544,0.8799684499068186
1731474151.4888942,-0.35135704278945923,0.44728460907936096,-9.988907814025879,0.02001601186361587,0.017036937873839215,-0.003540898875157273,1.393298100549217,2.8599648732868763,0.879985592693049
1731474151.5399947,-0.3428148031234741,0.43845781683921814,-9.985496520996094,0.019842515743798663,0.016808108174824903,-0.0035497981840549903,1.3882172887198527,2.869776623873408,0.8799658879264909
1731474151.589838,-0.35130253434181213,0.43799132108688354,-9.989453315734863,0.01965060538617711,0.016561471701208662,-0.0035620518709868804,1.383314836794128,2.879381610618879,0.8799377528175145
1731474151.6397727,-0.34227749705314636,0.4340595602989197,-9.994230270385742,0.019441544909488566,0.016298332522084513,-0.003577483963210649,1.3875363802208414,2.8892079750887847,0.8799834281449672
1731474151.6898038,-0.345090389251709,0.4354267120361328,-9.992863655090332,0.01921662702586429,0.016020058656759477,-0.003595965759057748,1.3850156730844094,2.8989880806042705,0.8799629828944454
1731474151.7628806,-0.3515869379043579,0.4293767511844635,-9.992466926574707,0.018977155631971714,0.015728099945980924,-0.0036174398255978423,1.376474299848638,2.9133939608053954,0.8799759941866194
1731474151.7896523,-0.3438718020915985,0.40278133749961853,-9.977875709533691,0.018724446997996337,0.015424023067843412,-0.003641906668225012,1.374262043757915,2.9186574419191587,0.879964114693422
1731474151.839626,-0.3230764865875244,0.15276339650154114,-9.979936599731445,0.018459813888745357,0.015109837729339168,-0.0036693605060978875,1.3691050005250258,2.9286846799082737,0.8799831109932794
1731474151.8895721,-0.3230764865875244,0.15276339650154114,-9.979936599731445,0.01818447047365191,0.014788978041076208,-0.0036997142502736263,1.3645937809427227,2.9385490413126143,0.8799627997177263
1731474151.8895721,-0.22208143770694733,0.187400683760643,-10.070066452026367,0.017899317993668697,0.014467471363443639,-0.0037328500401066873,1.364565276038395,2.9386118044039287,0.8799626413250143
1731474151.939552,-0.22208143770694733,0.187400683760643,-10.070066452026367,0.017604546399049573,0.01415427540690801,-0.003768941452696597,1.3601157159891841,2.948474722511685,0.8799331148778222
1731474151.939552,-0.3626958727836609,-0.3957504630088806,-10.0033597946167,0.017299312813783704,0.013861287285059592,-0.003808832816762909,1.360068281806407,2.9485805757562056,0.8799327481881565
1731474151.989412,-0.49128592014312744,-0.6028002500534058,-10.101073265075684,0.016982176594116227,0.013604903798993602,-0.003854096573148907,1.3629204250079443,2.958578836274041,0.8799851971405495
1731474152.039409,-0.33004650473594666,0.15001556277275085,-9.991525650024414,0.01665220341004109,0.013408303711062027,-0.003906874264251973,1.355548633355325,2.9687879907787806,0.8799865602105461
1731474152.0893848,-0.42409035563468933,-0.23452405631542206,-9.928579330444336,0.01630961572493819,0.013300959315400407,-0.003969595983228685,1.3514879557627983,2.9788438640100616,0.8799666634656638
1731474152.139399,-0.3635537326335907,0.16380023956298828,-9.96257495880127,0.015955630044528015,0.013315509055832269,-0.0040444054875823,1.3474696718771475,2.9889283413229277,0.8799367255917242
1731474152.1892323,-0.3265819549560547,0.03705446049571037,-9.926668167114258,0.015592095602386861,0.013485046523980714,-0.004132614091355003,1.3434981054221606,2.9990280887896112,0.8798966171630254
1731474152.2392316,-0.34383344650268555,0.2610261142253876,-9.951214790344238,0.015221136291505177,0.01384136973859244,-0.004234553362780165,1.3395740639617946,3.0091385559989052,0.8798461844536978
1731474152.2891235,-0.35642221570014954,0.23940710723400116,-9.95168685913086,0.01484483389562018,0.014413489185273265,-0.004349670698276712,1.3486919226617387,3.0195499876793814,0.8799800034936714
1731474152.3392637,-0.3735845685005188,0.305618554353714,-9.976515769958496,0.014465184133869154,0.015226472317612908,-0.004476718419265864,1.3469492156076726,3.029778882700384,0.879955131731448
1731474152.389072,-0.3662432134151459,0.2762035131454468,-9.98367977142334,0.014084244623155285,0.016300798336351768,-0.0046140195622778055,1.3402369037796074,3.040236219305173,0.8839338729329561
1731474152.4390504,-0.3853393793106079,0.2848801612854004,-9.992253303527832,0.013704250805710508,0.017652254138247347,-0.004759736335329569,1.336675993439075,3.050549298807053,0.8851595562614127
1731474152.4890246,-0.3745778203010559,0.2969180941581726,-9.987142562866211,0.013327659183665899,0.01929217035800325,-0.004912064267577241,1.3341325264907988,3.0611671980559305,0.8877940409665359
1731474152.539969,-0.36941108107566833,0.32635197043418884,-10.017279624938965,0.012957136128807651,0.021227696676287995,-0.005069345994792231,1.330810809014165,3.071784746451216,0.8894357670491883
1731474152.5898287,-0.3613957464694977,0.32036691904067993,-9.987659454345703,0.012595473784458276,0.023461977943135322,-0.005230155334356956,1.3275988458339876,3.082210313263939,0.8910261817446793
1731474152.6398501,-0.3558109700679779,0.3377763330936432,-10.017905235290527,0.012245453975580732,0.025994312277843438,-0.005393347732363865,1.3279435465604101,3.0930750946812466,0.8875351956267186
1731474152.6896672,0.11172740161418915,0.9410831928253174,-9.988750457763672,0.011909302664614697,0.02881984292300972,-0.005558054308810002,1.325760600083121,3.103573739543885,0.8878899993799391
1731474152.7397246,0.6022413969039917,1.6053311824798584,-9.950591087341309,0.011586559286285283,0.03192717090198151,-0.005723592010005649,1.3220598169670459,3.1146269552330317,0.8872086222411696
1731474152.7897217,0.45707929134368896,1.1785728931427002,-9.883322715759277,0.011270305825304479,0.03529396165388596,-0.005889168224103715,1.3192136812205777,3.1254013629570583,0.8873617644431304
1731474152.8396256,0.18722468614578247,0.8254978060722351,-10.014012336730957,0.010944663974140945,0.038884758575968764,-0.006053496931637882,1.3163996888858558,3.1362520428632314,0.8874997354916827
1731474152.889567,-0.2138817459344864,0.33085402846336365,-10.020838737487793,0.010586284752203367,0.04265430282893019,-0.006214837246114723,1.3136234388493933,3.1471616413967523,0.8876219254261579
1731474152.939633,-0.2138817459344864,0.33085402846336365,-10.020838737487793,0.010168764732868431,0.04655402653685217,-0.006371535872560617,1.3156274988955945,3.1586381842356555,0.8871431648062587
1731474152.939633,-0.84199458360672,-0.42900434136390686,-10.077438354492188,0.009667296417955069,0.050538012862805404,-0.006522531262312359,1.3156106245473869,3.1587378203712104,0.8871435681788025
1731474152.9894435,-1.1347620487213135,-0.6553553342819214,-10.159132957458496,0.009062988169386818,0.05456807441754027,-0.006667696806046564,1.3137714169898078,3.1697289433655187,0.8871796948401727
1731474153.0395005,-1.1347620487213135,-0.6553553342819214,-10.159132957458496,0.008347064852841635,0.05861831544579381,-0.006808306955789347,1.3081375214697495,3.181571990170186,0.8830351254210008
1731474153.0395005,-0.5375619530677795,0.026560742408037186,-10.053828239440918,0.007522816730024952,0.0626768529594909,-0.006947359425608633,1.308107771405906,3.181674189980038,0.8830231606468126
1731474153.0893981,-0.6419805884361267,-0.14039817452430725,-10.018117904663086,0.006603371397740772,0.06674297103469345,-0.007089210668215693,1.304838070188808,3.193016203147336,0.8816962092302004
1731474153.13939,-0.6419805884361267,-0.14039817452430725,-10.018117904663086,0.005607532321214361,0.07082250269892912,-0.007238690946038122,1.3015323537867545,3.204707006765025,0.8803306522680333
1731474153.13939,-0.48468977212905884,0.17504572868347168,-9.904268264770508,0.004557025280886443,0.07492486676137543,-0.007400294109039658,1.301513613482213,3.2047739320673365,0.8803228424044868
1731474153.1893013,-0.5061772465705872,0.20886747539043427,-9.975037574768066,0.0034751319116503024,0.07906116147116865,-0.00757759608513249,1.2982509648757996,3.21653862969894,0.878951995147817
1731474153.2392278,-0.5061772465705872,0.20886747539043427,-9.975037574768066,0.0023855285697330416,0.08324202419427384,-0.007772947303774215,1.2949721952072548,3.228589490744164,0.8775522320068572
1731474153.2392278,-0.504601240158081,0.35937514901161194,-9.961531639099121,0.0013115085823846972,0.08747603480360132,-0.00798757664386157,1.29495544512959,3.2286516442956765,0.8775450247506319
1731474153.2890863,-0.5235366225242615,0.4285810589790344,-9.942535400390625,0.00027571124284707843,0.0917688232354402,-0.008221818486852847,1.3025156854770032,3.241261158248792,0.8803609561975929
1731474153.3391986,-0.5182399153709412,0.41647854447364807,-9.95583724975586,-0.0006999871189202125,0.09612227232435686,-0.008475163774558581,1.300980962736674,3.253810328092238,0.8796842804209968
1731474153.3890479,-0.5182399153709412,0.41647854447364807,-9.95583724975586,-0.0015945666613504997,0.10053409396362258,-0.008746275993526571,1.2934244922126499,3.2670547478792904,0.8810148863653752
1731474153.3890479,-0.5484158992767334,0.4480695128440857,-9.937871932983398,-0.0023879586117246158,0.10499804396633752,-0.009033093604069224,1.2934066125750987,3.267116621304763,0.8810143392599913
1731474153.4390175,-0.5484158992767334,0.4480695128440857,-9.937871932983398,-0.003061085912101253,0.10950437014893499,-0.009332917740988551,1.2896896193743475,3.2801027106166103,0.880889090433746
1731474153.4390175,-0.5478430390357971,0.4370619058609009,-9.939542770385742,-0.0035958475594659537,0.11404022287698926,-0.009642446183685899,1.2896708535242243,3.2801688942261267,0.8808884000665955
1731474153.4889638,-0.5263280868530273,0.4694240391254425,-9.992203712463379,-0.0039751763641195014,0.11859009457556285,-0.009957883439221686,1.2864642161708766,3.293951623472091,0.8818176815100941
1731474153.5389593,-0.5467596054077148,0.46723413467407227,-9.985711097717285,-0.004183209610461345,0.12313625343997708,-0.010275229806774037,1.282929657673854,3.30757044694587,0.8819303293092574
1731474153.5898702,-0.551529049873352,0.4757702946662903,-9.996859550476074,-0.004205436361377973,0.12765909752919175,-0.010590631733777518,1.2790821541375004,3.3223342506132294,0.8822733039150357
1731474153.6398945,-0.551529049873352,0.4757702946662903,-9.996859550476074,-0.004028727412238619,0.1321374991025282,-0.010900598864505224,1.2758095583958593,3.33666413011251,0.8823766936281443
1731474153.6398945,-0.5152885317802429,0.4587487578392029,-9.976001739501953,-0.003641356661014024,0.13654920164342965,-0.011202055438878485,1.2757936960787688,3.336734287899577,0.8823771272833234
1731474153.6898081,-0.5710768699645996,0.47691261768341064,-10.003650665283203,-0.0030331039585451084,0.14087125246696253,-0.011492299566288396,1.2720939039744403,3.351839056486729,0.8827470165495501
1731474153.7397523,-0.5710768699645996,0.47691261768341064,-10.003650665283203,-0.0021952792095077675,0.14508039560374825,-0.011768978697245233,1.2660033049586672,3.367390758021601,0.8829082214181978
1731474153.7397523,-0.525538980960846,0.48766395449638367,-9.994609832763672,-0.001120612456013026,0.1491533588346221,-0.01203013516394998,1.265980043806896,3.3674771520440743,0.8829088837729724
1731474153.789613,-0.5084438323974609,0.5185731053352356,-9.965476989746094,0.00019670830690981492,0.1530670429931352,-0.012274197390439197,1.261930233157971,3.38270832365814,0.8830090562860363
1731474153.8396065,-0.5292466878890991,0.4623800218105316,-9.98769760131836,0.0017607888212154046,0.15679867778416157,-0.012499838318326828,1.2578426480726872,3.3984768393377998,0.883079357707487
1731474153.88953,-0.48913973569869995,0.46731847524642944,-9.979022026062012,0.003573853643727882,0.16032609303963893,-0.012705844498228005,1.2537680940135474,3.41461689375453,0.8831180659487695
1731474153.9395475,-0.48913973569869995,0.46731847524642944,-9.979022026062012,0.005636198402523907,0.1636281296695071,-0.012891097883454616,1.2597353246336953,3.431854599411347,0.8830680948447376
1731474153.9395475,-0.4685397744178772,0.5056860446929932,-9.99309253692627,0.007946127963438956,0.1666849403414433,-0.013054603945943676,1.2597203212790997,3.431965947800048,0.8830682528830059
1731474153.9894257,-0.45702219009399414,0.4998912811279297,-9.956080436706543,0.01049989102679159,0.16947803077945486,-0.01319550147042748,1.254092140101042,3.449460304997003,0.883005859738404
1731474154.0394197,-0.4022035002708435,0.5028836131095886,-9.970311164855957,0.013291620357877933,0.17199019977889826,-0.013313011800840205,1.2509405602646473,3.4668771645252434,0.8829627180941084
1731474154.089314,-0.42270535230636597,0.48164358735084534,-9.983999252319336,0.01631323075825445,0.1742055815031035,-0.013406362219522591,1.2478270729384646,3.4847204442558484,0.8828862089606214
1731474154.1392968,-0.38456615805625916,0.5007065534591675,-9.960416793823242,0.019554359519938738,0.17610980644568414,-0.013474791518808437,1.2447605302639049,3.5029883172146894,0.8827762101745886
1731474154.1892097,-0.3837924003601074,0.4896668791770935,-10.00211238861084,0.02300242782390263,0.17769015364996865,-0.01351761543614191,1.2417564082553698,3.521638317804358,0.8826330428303972
1731474154.2391903,-0.3806689977645874,0.47306615114212036,-10.001392364501953,0.02664277193166971,0.1789356470587489,-0.013534321677307427,1.238799376952018,3.540826329478562,0.8824553801437662
1731474154.2891269,-0.5227342247962952,0.9770021438598633,-9.972333908081055,0.030458965955142345,0.1798367188157636,-0.013524688708447643,1.2482801125258944,3.5612162481684146,0.8831699533368527
1731474154.3391964,-0.6536251306533813,1.1910713911056519,-9.957026481628418,0.03443370487227751,0.18038340862091154,-0.01348876650579603,1.2470535889359267,3.5813184560333964,0.8831266852407867
1731474154.389024,-0.5680765509605408,0.5152410864830017,-9.884139060974121,0.0385501454964615,0.1805629336383235,-0.013426608402874267,1.24592214310004,3.601802820890973,0.8830500190237235
1731474154.438984,-0.8518714904785156,1.0223649740219116,-10.114818572998047,0.04279305997585244,0.18035950565269798,-0.013338043838574756,1.2436667955034744,3.6235516530581964,0.8833751118821886
1731474154.4890203,-0.5428992509841919,0.5303182005882263,-9.948053359985352,0.04714952035783143,0.17975624480808572,-0.013222936170692028,1.2423653965559531,3.645077733038236,0.8833511241787527
1731474154.4890203,-0.5428992509841919,0.5303182005882263,-9.948053359985352,0.05160880790833419,0.17873706271104237,-0.013081564856711362,1.2419822395912299,3.6519225401838478,0.8833367546681589
1731474154.4890203,-0.5428992509841919,0.5303182005882263,-9.948053359985352,0.05616136193711091,0.17728843225783983,-0.012914440943080908,1.241974778969664,3.6520585780222956,0.8833364372767756
1731474154.8706543,-0.5428992509841919,0.5303182005882263,-9.948053359985352,0.060797745124123344,0.17540074793325625,-0.012721891133594518,1.2197283299653885,9.106045111725214,0.883663093597527
1731474154.8706543,-0.253031849861145,0.3442539572715759,-9.981415748596191,0.06550808573811488,0.17306874096349703,-0.012503979481659445,1.219718897771688,9.105987235058102,0.8836622872386022
1731474154.9205117,-0.23775433003902435,1.9156547784805298,-9.855184555053711,0.07028109684858103,0.17029043599011448,-0.012260570801899701,1.223402373237509,9.12192733415502,0.8838715436928266
1731474154.9705315,-0.23775433003902435,1.9156547784805298,-9.855184555053711,0.0751027048616737,0.1670623320659268,-0.011991107041518411,1.2224848507102677,9.11402146558937,0.8837870259824967
1731474154.9705315,-0.4001409411430359,0.5899046659469604,-9.77047061920166,0.07995556640918518,0.16337337353023584,-0.011694060449966162,1.2224799720747626,9.113975919532843,0.8837864384368074
1731474155.020408,-0.1947299689054489,1.112312912940979,-10.022409439086914,0.08481976966667637,0.1592053650555058,-0.011366617543250282,1.2204451531872396,9.098551759048814,0.8839308079858504
1731474155.0704117,-0.1947299689054489,1.112312912940979,-10.022409439086914,0.08967351182456927,0.15453847063780135,-0.011005265744875568,1.218874233140222,9.085659714940782,0.8838680898639529
1731474155.0704117,-0.21322882175445557,0.8714746236801147,-10.088143348693848,0.09449307919681008,0.14935422562875048,-0.010607079635496841,1.2188653157978833,9.085582163485626,0.8838676242812328
1731474155.1203022,-0.2239534556865692,0.9041865468025208,-9.905142784118652,0.09925285876007417,0.14363607921001992,-0.01017059589522665,1.2175080368754985,9.072865772195923,0.8837772795940534
1731474155.1704328,-1.3943976163864136,-0.5810168385505676,-10.084527969360352,0.10392690834156676,0.13737174482500297,-0.009695722456351632,1.2164221675673328,9.060694032029492,0.8836638692104202
1731474155.2202253,-0.5982986688613892,0.3721615672111511,-10.063822746276855,0.10849291955799203,0.1305582826338949,-0.009183436972269164,1.215571488571306,9.048435999142344,0.88352214016163
1731474155.2702136,-0.46314603090286255,0.03619835898280144,-10.011496543884277,0.11293531790551228,0.12320611955641955,-0.00863588913005721,1.2174377193889907,9.071741430662385,0.8839524387713654
1731474155.320184,-0.5183843374252319,0.10595713555812836,-10.015792846679688,0.11724392850101208,0.11533863296626251,-0.00805640997095003,1.2171140383198564,9.06529261151176,0.883900591923493
1731474155.3702235,-0.11161405593156815,0.15249505639076233,-10.028287887573242,0.12141059283257694,0.10698974687295949,-0.007449150865465524,1.2145433333017681,9.046639055229479,0.8839626088672274
1731474155.4200754,-0.11161405593156815,0.15249505639076233,-10.028287887573242,0.1254266201367418,0.09820213162600129,-0.006818795252456416,1.2139833935699307,9.037556202945497,0.8839204603757587
1731474155.4200754,0.01588253118097782,0.03391246125102043,-10.020575523376465,0.12928077325358672,0.08902565067759467,-0.006170472628157645,1.2139677008035394,9.037203138195695,0.8839184537644925
1731474155.469965,-0.25383296608924866,0.3448643088340759,-9.974748611450195,0.1329582014576368,0.0795159418557136,-0.005509628432810064,1.2137434161971885,9.02868754474935,0.8838629104348881
1731474155.5198517,-0.25383296608924866,0.3448643088340759,-9.974748611450195,0.13644113465137683,0.06973267882241051,-0.004841731889080093,1.2138378410598996,9.020009548381106,0.8837925507013762
1731474155.5198517,-0.10165785253047943,0.2227284014225006,-9.922452926635742,0.13971046353815342,0.059737395672200586,-0.0041718980048561435,1.2138392222693952,9.019964697718294,0.8837921518882453
1731474155.5699394,-0.1839110553264618,0.4192267656326294,-9.99095344543457,0.14274663366498913,0.04959197736319691,-0.0035045918872772,1.2108704757495021,9.010848096189283,0.8839731496505688
1731474155.6198208,-0.19280876219272614,0.3612631559371948,-9.950533866882324,0.14552976802409576,0.03935781408110915,-0.0028435678848362338,1.210461923316817,9.000525826537118,0.8839499133728503
1731474155.6698928,-0.00384950777515769,0.6912849545478821,-9.922014236450195,0.148039823364222,0.029094621666768107,-0.0021919479577748773,1.208621728883137,8.991107176310312,0.8842109811546649
1731474155.7207956,0.744889497756958,1.6483407020568848,-9.939879417419434,0.15025583676408238,0.01885780516955938,-0.0015521783087210637,1.2061486322982764,8.98107648320316,0.8844864153016931
1731474155.770732,0.3141680657863617,1.1341841220855713,-10.00156307220459,0.15215324219675397,0.008693846254858043,-0.0009259864902217534,1.205302817371456,8.971426701788781,0.8846176381515051
1731474155.8206358,-0.22723086178302765,1.8611536026000977,-9.893811225891113,0.1537021997453799,-0.0013639044683641443,-0.00031455273135811893,1.2048263992441897,8.961593787108143,0.8847499165925405
1731474155.8706558,-0.4820658564567566,1.1263463497161865,-9.909140586853027,0.15487057333013404,-0.011296477650932897,0.0002814236789763189,1.2047412870650642,8.951940698734084,0.8848795183983497
1731474155.9206085,-0.4820658564567566,1.1263463497161865,-9.909140586853027,0.15562958330512172,-0.021097557853582027,0.0008619485387213474,1.2044297797650065,8.942166409541523,0.8846976740855582
1731474155.9206085,-0.49431735277175903,1.4234706163406372,-9.892594337463379,0.15595759275299728,-0.030770036017007313,0.0014278906081168653,1.2044294340523756,8.942112769892805,0.8846980582592873
1731474155.970523,-0.07631285488605499,0.5004467964172363,-10.070384979248047,0.15584060572889,-0.040322766939950225,0.0019807821936559398,1.203004126906747,8.93232492476861,0.8848851103092475
1731474156.0204434,-0.24069371819496155,-0.35270124673843384,-10.206377029418945,0.15527048156232287,-0.049766348896457126,0.002522014000558812,1.2028628208481291,8.922363215642012,0.8849995038778063
1731474156.0704284,-0.6625279188156128,-0.9579870700836182,-10.202309608459473,0.15424317978449323,-0.05910514081447899,0.003051454643251682,1.2031078517908607,8.91224491939871,0.8851210965511632
1731474156.1203353,-0.7205891013145447,-0.26662561297416687,-10.021163940429688,0.15275943274374018,-0.06832887740397388,0.0035665021676575415,1.2037352975635658,8.901985916310222,0.8852507229704076
1731474156.170457,-0.539745032787323,-0.3440362215042114,-10.02015209197998,0.15082683694255572,-0.07741019959331405,0.0040625161377000635,1.2017254733072322,8.89148537359792,0.8850900571131358
1731474156.220292,-0.539745032787323,-0.3440362215042114,-10.02015209197998,0.1484603377361272,-0.08630803469870046,0.004534059233205328,1.2021021386957986,8.880858434403052,0.8851699458430776
1731474156.220292,-0.7099660634994507,-0.18074804544448853,-9.97559928894043,0.14568098788883618,-0.09497182098160663,0.004975791565071821,1.2021057807261613,8.880788887258168,0.8851705001420004
1731474156.270222,-0.4648881256580353,-0.01231425255537033,-9.95477294921875,0.1425148417776348,-0.10334465128995643,0.005382876971999904,1.2001397934384526,8.86995379438098,0.8850487071209413
1731474156.320121,-0.6345815658569336,0.11943099647760391,-9.89240837097168,0.13899217978388012,-0.11136650825840239,0.005751351739559227,1.20013188897809,8.858604487550501,0.88508774923949
1731474156.370157,-0.4727819561958313,0.4156271815299988,-9.890789985656738,0.1351465145677663,-0.11897778738727555,0.006078555771167951,1.1992444376913252,8.847305548050032,0.8850336158791483
1731474156.419992,-0.4727819561958313,0.4156271815299988,-9.890789985656738,0.13101354410018334,-0.12612261455282356,0.006363443704377889,1.1993622046955492,8.83560294703261,0.8850683415299492
1731474156.419992,-0.4746846556663513,0.4383656084537506,-9.960733413696289,0.12663013372706056,-0.13275137036332432,0.006606562368308708,1.1993642970172014,8.835514646536799,0.8850686591431618
1731474156.4700122,-0.4082532823085785,0.4868992269039154,-9.922954559326172,0.12203341931491263,-0.1388218588831333,0.006809668311482841,1.1997972052306647,8.82348733507595,0.8851197774652164
1731474156.5199811,-0.4082532823085785,0.4868992269039154,-9.922954559326172,0.11726013235534953,-0.14429949685683136,0.006975303875058897,1.198608920160699,8.81103152470015,0.8850283431245807
1731474156.5199811,-0.42095184326171875,0.46034306287765503,-9.94420051574707,0.11234604728712762,-0.14915716697353548,0.007106600019752064,1.1986104430514102,8.810931448255552,0.8850285642083845
1731474156.5699735,-0.3570947051048279,0.568742036819458,-9.979055404663086,0.10732559638674061,-0.15337490481085708,0.00720713259701777,1.1989336876913212,8.798227557917397,0.8850651242931215
1731474156.6198468,-0.35170891880989075,0.5658196806907654,-10.006991386413574,0.10223156391937001,-0.15693965783779965,0.007280597129258746,1.1984721265321472,8.785013243387143,0.8850244671043597
1731474156.6698449,-0.35522300004959106,0.5524300336837769,-9.985919952392578,0.09709473929776646,-0.15984519305189893,0.007330414857648801,1.198856466775299,8.771394672838232,0.885061327486242
1731474156.7197773,-0.35522300004959106,0.5524300336837769,-9.985919952392578,0.09194370994182335,-0.1620917844252971,0.007359526621611111,1.1994737670500573,8.757446941649771,0.8851162530708144
1731474156.7197773,-0.3219449818134308,0.549161434173584,-9.999293327331543,0.0868048425614078,-0.16368558797976834,0.0073704114531585084,1.1994784888368237,8.757355662859712,0.8851166666155342
1731474156.7707493,-0.28970977663993835,0.5290778875350952,-9.999696731567383,0.08170222557732862,-0.16463795361855108,0.007365139116535293,1.2003288969914998,8.742744348175329,0.8851914142598585
1731474156.8206139,-0.3143123984336853,0.5126650929450989,-10.002466201782227,0.07665750411604401,-0.16496474472394482,0.007345359377213372,1.1986250754987307,8.727630372505805,0.8852615569073631
1731474156.870688,-0.2599155902862549,0.5240530371665955,-9.9974946975708,0.07168977233650584,-0.16468565358298937,0.007312298614148388,1.1986834232768449,8.712380606714497,0.8854645086779906
1731474156.9205627,-0.2969132363796234,0.4891177713871002,-9.995007514953613,0.06681557922233707,-0.16382358596948637,0.007266808988320208,1.1990901622959844,8.696988607854914,0.8855891007843143
1731474156.9705002,-0.2969132363796234,0.4891177713871002,-9.995007514953613,0.062049027933403944,-0.16240410782031572,0.007209448104467325,1.1993307213817013,8.680882935073553,0.8857206064307676
1731474156.9705002,-0.2292598932981491,0.49995648860931396,-10.004132270812988,0.05740194610720553,-0.16045492531632594,0.007140545192441469,1.19933438583223,8.680762609868081,0.8857216186389855
1731474157.0204966,-0.2579132318496704,0.4924958348274231,-10.007848739624023,0.05288395078429635,-0.15800547852918193,0.007060216694352835,1.1998939949416767,8.664360559067674,0.885866756833874
1731474157.0704823,-0.24598565697669983,0.4703907370567322,-10.037233352661133,0.04850241695154432,-0.15508662903072376,0.006968318182059213,1.2005804580994721,8.647544388046805,0.8860295511611757
1731474157.1203732,-0.2604096531867981,0.4892358183860779,-9.96359920501709,0.04426259241610531,-0.151730322165665,0.00686440141021864,1.2013881375656779,8.630228192361148,0.886210834555018
1731474157.1703653,-0.2412901222705841,0.49372807145118713,-10.008519172668457,0.04016784712741852,-0.147969274278204,0.006747818582053942,1.2001486675889144,8.612725462810571,0.8859094946456229
1731474157.2202988,-0.25269076228141785,0.49582356214523315,-9.967084884643555,0.03621989308534655,-0.14383678263603178,0.006617933291893681,1.2015292585139699,8.59460909734105,0.886208031380924
1731474157.2702527,-0.29472479224205017,0.49913355708122253,-9.967273712158203,0.03241900257703677,-0.13936659212666408,0.006474280966457536,1.2025837474227759,8.576396852984578,0.8864377658792045
1731474157.3201697,-0.2970694601535797,0.489962100982666,-10.00029182434082,0.02876435064686779,-0.13459272732168368,0.006316656317161541,1.2037184378905261,8.557770525291655,0.8866843065798391
1731474157.370167,-0.34497785568237305,0.48454904556274414,-9.985206604003906,0.025254460381365168,-0.1295492746562399,0.0061450894030327,1.204926950751077,8.538712569740179,0.8869477975247464
1731474157.4200604,-0.34497785568237305,0.48454904556274414,-9.985206604003906,0.021887631711964235,-0.12427013413432073,0.005959732990065369,1.2024331507753425,8.519388171842962,0.8861480501314545
1731474157.4200604,-0.33604687452316284,0.4833928644657135,-9.957088470458984,0.018662257228789392,-0.11878878942307704,0.005760840574628715,1.2024491049947321,8.51872238925234,0.886150189681201
1731474157.4700716,-0.3997398614883423,0.48361581563949585,-10.031452178955078,0.01557699092338932,-0.1131381297502588,0.005548817597066499,1.2029202224847888,8.499718750883194,0.8862175584335265
1731474157.5199513,-0.34380197525024414,0.5006750226020813,-9.992836952209473,0.012630861107757393,-0.1073503259179006,0.00532413679126818,1.203170146562901,8.479366250192287,0.8860552520281074
1731474157.570007,-0.40116724371910095,0.47793707251548767,-9.987176895141602,0.009823348479371885,-0.10145674991013903,0.005087176904129815,1.2036853632029472,8.45966016489399,0.8860899832735072
1731474157.6199002,-0.3695700168609619,0.49243950843811035,-9.979872703552246,0.007154380520993337,-0.09548788470072365,0.00483823598382446,1.2050824808401592,8.43897934505707,0.8860330136322699
1731474157.6698487,-0.41193339228630066,0.5345649719238281,-9.984530448913574,0.00462431221753185,-0.08947324767061728,0.004577675097357839,1.2059448526960557,8.418557763697036,0.8860615613047665
1731474157.7197323,-0.39578092098236084,0.5249258279800415,-9.9964017868042,0.0022339356663733743,-0.08344144640328757,0.0043059819372985005,1.20668269755882,8.39768272062523,0.8860244268782385
1731474157.7697887,-0.4148857295513153,0.5152393579483032,-10.009360313415527,-1.5517375358016635e-05,-0.07742028154280729,0.004023708046173557,1.207424070251715,8.37657625842799,0.8860494774766314
1731474157.8206913,-0.38384121656417847,0.5252273082733154,-9.947656631469727,-0.0021224293290640532,-0.07143669867999364,0.003731397378044554,1.2088022120462267,8.354340516220917,0.8862692559592907
1731474157.8705866,-0.37471675872802734,0.512197732925415,-9.963825225830078,-0.004084964473306135,-0.06551663019401444,0.003429681428917161,1.2097058940620269,8.333528582906224,0.8863665276532638
1731474157.9205194,-0.39332878589630127,0.548274040222168,-9.980907440185547,-0.005901309534988861,-0.05968487808020271,0.003119470084578418,1.2106445644223929,8.311456796465922,0.8864772828317109
1731474157.970504,-0.3940364420413971,0.5331264734268188,-9.951216697692871,-0.007569827521327083,-0.053965089541426856,0.0028019960728215064,1.2115232069056312,8.290273212626714,0.8865901074123707
1731474158.0204077,-0.3720216453075409,0.5273372530937195,-10.012054443359375,-0.009089090713157449,-0.0483797588755526,0.0024787172019154428,1.2124255392705667,8.267871301942847,0.8867154832107349
1731474158.070431,-0.36154696345329285,0.5203379988670349,-9.981355667114258,-0.010457957538312329,-0.04295014021646475,0.0021511656951121562,1.2105072392247211,8.246315356152833,0.8862582757343527
1731474158.1203873,-0.33269548416137695,0.5211107134819031,-9.980409622192383,-0.011675774117262464,-0.03769608700992884,0.0018208000991035555,1.210958577051098,8.223769305709336,0.8862848583066183
1731474158.170318,-0.3207956552505493,0.5135068893432617,-9.99845027923584,-0.012742628274324538,-0.03263592018168114,0.0014889658509420907,1.2130069612858372,8.202044329501831,0.8862251164821499
1731474158.2202368,-0.30687013268470764,0.5224953889846802,-9.994780540466309,-0.013659577106269728,-0.027786352151195112,0.001156900938940861,1.2151327871576678,8.179172513130524,0.8862133966212077
1731474158.2701979,-0.3119085729122162,0.5182780623435974,-9.960308074951172,-0.01442878439845331,-0.023162458547048514,0.0008257199517877321,1.2162473143256844,8.157513365706018,0.8862211228477448
1731474158.3202002,-0.3232634663581848,0.5220323204994202,-9.994431495666504,-0.015053517342317281,-0.01877768805410125,0.0004964725178611393,1.2173838121193543,8.134642504346584,0.8862309382387801
1731474158.3702445,-0.28144803643226624,0.5371149778366089,-9.997028350830078,-0.015538045421866466,-0.014643898968485516,0.00017020186034063834,1.2173390145870733,8.112528381623603,0.8862066003578593
1731474158.4200966,-0.28144803643226624,0.5371149778366089,-9.997028350830078,-0.015887595111495866,-0.010771436570541712,-0.0001521300360701789,1.2181152458007283,8.090213686381789,0.8862090113120543
1731474158.4200966,-0.31811031699180603,0.5085797905921936,-9.998974800109863,-0.016108362389465176,-0.007169205355884753,-0.00046974687027471324,1.218132678611203,8.08969888658116,0.8862090622486528
1731474158.4701083,-0.2963423728942871,0.5248386859893799,-9.973089218139648,-0.016207390559698363,-0.003844642989040853,-0.0007820612371003822,1.2200434392633817,8.067539663432381,0.8859418770612352
1731474158.5199509,-0.2880183458328247,0.5108221173286438,-10.006240844726562,-0.016192351700998003,-0.0008036435949754107,-0.0010886013315066297,1.2212447615891708,8.0452271753774,0.8858508088631601
1731474158.5699735,-0.2980497181415558,0.49068212509155273,-9.973512649536133,-0.01607143160125316,0.0019494850538414998,-0.0013889553150400833,1.2224174166744946,8.022697964844658,0.8857557448886032
1731474158.6198955,-0.2980497181415558,0.49068212509155273,-9.973512649536133,-0.015853270256430952,0.0044120770461243105,-0.0016827363334173495,1.2235488413580027,8.000197929119205,0.8856569094877588
1731474158.6198955,-0.31672346591949463,0.5230117440223694,-9.992152214050293,-0.015546826731717795,0.006583141388008166,-0.001969519236831731,1.2235570210324418,8.000032369308656,0.885656166361646
1731474158.6698563,-0.3087119460105896,0.5085582733154297,-10.039146423339844,-0.015161189555457408,0.008463240980107709,-0.0022488728732986685,1.2219864749408904,7.977670689532917,0.8859525568770333
1731474158.719787,-0.37044280767440796,0.5171928405761719,-9.983965873718262,-0.014705362228444208,0.010054281149275545,-0.0025205569404575575,1.222520248190178,7.955229085124834,0.8859290782889938
1731474158.769825,-0.35450124740600586,0.50801682472229,-9.950888633728027,-0.014187982901458077,0.011359367905483479,-0.002784588862259403,1.2253355889010662,7.932686064464776,0.8859764649318356
1731474158.8206687,-0.35450124740600586,0.50801682472229,-9.950888633728027,-0.01361705476384801,0.012382745784428892,-0.0030409745047792723,1.2266692888517707,7.910000404014096,0.8859585178388485
1731474158.8206687,-0.3457523584365845,0.5308553576469421,-10.02107048034668,-0.012999863687833416,0.013129734437956909,-0.003289439278355482,1.2266787491100666,7.9098374464761285,0.8859583604688835
1731474158.8708599,-0.3457523584365845,0.5308553576469421,-10.02107048034668,-0.0123430675937722,0.013606594892181575,-0.0035295587638086313,1.2279596076465504,7.887523518986012,0.8859323561083814
1731474158.8708599,-0.3598632216453552,0.5240755081176758,-9.973990440368652,-0.011652792123760705,0.013820352945604988,-0.003761094292842578,1.2279674927737176,7.887384574508079,0.8859321664024059
1731474158.9206185,-0.37419551610946655,0.5006221532821655,-9.971975326538086,-0.010934634234837062,0.013778711860844612,-0.003984050607515106,1.2292073933510295,7.865315431799363,0.8858970992299265
1731474158.970634,-0.3892771303653717,0.5268489718437195,-10.022506713867188,-0.01019356767671292,0.01349008263399451,-0.0041984881511683905,1.2272634316205604,7.84286710598474,0.8862139985434514
1731474159.0204418,-0.42074161767959595,0.5047159194946289,-9.953629493713379,-0.009433790592759625,0.012963599412448876,-0.004404455441200733,1.2278764852752353,7.820717613439408,0.8862376597262862
1731474159.0705018,-0.4061630666255951,0.5313308238983154,-9.978107452392578,-0.008658568407499652,0.012209050092203395,-0.004601989586057387,1.2307840700208827,7.798285806697182,0.8864793682696482
1731474159.1203768,-0.4061630666255951,0.5313308238983154,-9.978107452392578,-0.007870171308443195,0.011236752916131224,-0.004791016099716436,1.2327443692375875,7.775908844794652,0.8864451815915729
1731474159.1203768,-0.40526318550109863,0.5140536427497864,-10.022367477416992,-0.007069969211931993,0.01005741998311136,-0.004971338537359029,1.2327549421978155,7.775741793313564,0.8864453464333947
1731474159.170345,-0.40526318550109863,0.5140536427497864,-10.022367477416992,-0.006258597230573256,0.008682091679077597,-0.005142846988846566,1.2341397485535548,7.753749890955633,0.8864606727505208
1731474159.170345,-0.3965300917625427,0.502784788608551,-9.966509819030762,-0.00543610322509862,0.007122166457389771,-0.005305719390638675,1.2341490089790272,7.753602071243594,0.8864607328942764
1731474159.2203305,-0.38581791520118713,0.508468508720398,-9.955740928649902,-0.004602098716092346,0.0053894359042402015,-0.00546032711336786,1.2355210518231654,7.731616162141796,0.8864628999224918
1731474159.2702694,-0.3934820294380188,0.535594642162323,-9.982986450195312,-0.003755927882797717,0.0034960393171554697,-0.005606928179809413,1.2368916625064494,7.709497446280892,0.8864512910076066
1731474159.3201983,-0.35386738181114197,0.5342658758163452,-9.970437049865723,-0.0028968324518418567,0.0014542982622981397,-0.005745511702925944,1.2360017107014702,7.687149759823409,0.886401404417015
1731474159.3701587,-0.3599652647972107,0.5136325359344482,-9.988588333129883,-0.002024138225088937,-0.0007234778647563619,-0.0058758706222000355,1.2369480924595833,7.665071963250524,0.8863773049684351
1731474159.4200087,-0.32312655448913574,0.5253065824508667,-10.006949424743652,-0.0011374778279742768,-0.0030250604531122482,-0.005997739170902209,1.2388320357516058,7.642423541252971,0.8863845081331688
1731474159.4701254,-0.32851725816726685,0.5242536067962646,-9.958294868469238,-0.00023699975953123288,-0.005438281879430469,-0.006110907695034155,1.2401135684901954,7.620480563326535,0.8863539315618175
1731474159.5200732,-0.2989529073238373,0.5134327411651611,-9.978981018066406,0.0006764710688400878,-0.007951048165554702,-0.0062152168137579195,1.2414120292770126,7.598240498291384,0.8863075324677412
1731474159.5699933,-0.2976040542125702,0.528435468673706,-10.035711288452148,0.001601319748696323,-0.010551372701763536,-0.006310500728757145,1.2426984477338863,7.576231999930604,0.8862461542312038
1731474159.6201284,-0.2584826648235321,0.5214108228683472,-9.999695777893066,0.0025350475741499306,-0.013227412940203173,-0.006396718781112599,1.2420532290021042,7.553564852678006,0.8861480837566823
1731474159.6698892,-0.29298895597457886,0.5123870372772217,-9.98195743560791,0.003474199324222679,-0.01596751731396579,-0.006474132123902528,1.2430071818553126,7.5314747341428205,0.8860684391071687
1731474159.7198591,-0.29298895597457886,0.5123870372772217,-9.98195743560791,0.0044144150805878165,-0.01876023481632421,-0.006543223433447527,1.2439812088965319,7.509105149150007,0.8859716431288637
1731474159.7198591,-0.2805013358592987,0.5189118385314941,-9.997715950012207,0.005350638988067929,-0.021594298172179956,-0.006604501432268692,1.243990084886103,7.508902255258569,0.8859706908055551
1731474159.7697053,-0.2805013358592987,0.5189118385314941,-9.997715950012207,0.0062773188450392535,-0.02445865256451421,-0.006658454974120656,1.2456950947629226,7.486579231348798,0.8859286574415628
1731474159.7697053,-0.25231388211250305,0.526025652885437,-9.983038902282715,0.007188479238764088,-0.027342532196887346,-0.006705609446669837,1.2457023130264415,7.48643481799346,0.8859281178296913
1731474159.8196115,-0.2625800669193268,0.5331252813339233,-9.989421844482422,0.008077717130529578,-0.030235549690199617,-0.006746527774002517,1.2468454349456186,7.463734078746159,0.8858347394570458
1731474159.870672,-0.25197145342826843,0.5226522088050842,-10.016423225402832,0.008938208495926112,-0.03312777820007578,-0.006781783187834681,1.24799854886778,7.441181390994626,0.8857252221484401
1731474159.9206076,-0.2829984724521637,0.5082409381866455,-9.991646766662598,0.009762803063306118,-0.036009774246220025,-0.006812009949545371,1.2491740707838437,7.418562469314688,0.8855987544103588
1731474159.9705005,-0.28480449318885803,0.5353925824165344,-9.947487831115723,0.010544237071187918,-0.03887253167312456,-0.006837915504554919,1.2490662871666276,7.395595830848189,0.8859496171426817
1731474160.0204332,-0.2747306227684021,0.5366898775100708,-10.02096939086914,0.011275388328086677,-0.04170748455356951,-0.0068601394899477225,1.2528962124329128,7.370312823117805,0.8859631813556533
1731474160.0705328,-0.2890772521495819,0.5572153329849243,-9.990310668945312,0.011949448402963102,-0.04450662818433155,-0.006879191771264895,1.2545082315476255,7.349448795142022,0.8859273288848976
1731474160.120394,-0.2890772521495819,0.5572153329849243,-9.990310668945312,0.012560012946354459,-0.04726267725343202,-0.006895572466879085,1.2563011557090062,7.326511529808628,0.885871732002821
1731474160.120394,-0.30816128849983215,0.5108066201210022,-9.969518661499023,0.013101186363066699,-0.049969128811847195,-0.006909809131691895,1.2563124963684178,7.326367335138194,0.8858713293658862
1731474160.1703773,-0.3075338900089264,0.5318730473518372,-9.989680290222168,0.013567719523728178,-0.05262013978177695,-0.006922346473326463,1.258134028983903,7.303355964178231,0.8857986454746931
1731474160.220353,-0.3075338900089264,0.5318730473518372,-9.989680290222168,0.01395512589502856,-0.05521033611216943,-0.006933487139656183,1.256163780017388,7.279539690517647,0.8859665865978605
1731474160.220353,-0.3376113772392273,0.514896035194397,-9.994827270507812,0.014259753297900631,-0.05773473671037438,-0.00694344880430569,1.2561722137491727,7.2793459296771355,0.8859663402849485
1731474160.2703774,-0.34983736276626587,0.5286862254142761,-9.962014198303223,0.01447887974035174,-0.06018874184400769,-0.006952417733332412,1.257197307861985,7.256132127333881,0.8859283191972223
1731474160.3201654,-0.3544542193412781,0.5517596006393433,-9.99022388458252,0.01461086196374035,-0.06256813467603718,-0.006960505011457348,1.260153721722362,7.2324794490476,0.8859748520308225
1731474160.370143,-0.3516252934932709,0.5374683141708374,-9.990341186523438,0.0146552290037129,-0.06486916716683269,-0.006967700072931758,1.2623247293927888,7.208528440775335,0.8859759465963079
1731474160.4202018,-0.35329899191856384,0.519231379032135,-9.9598970413208,0.014612648025495535,-0.06708863812704491,-0.006973901510097422,1.2640494422203907,7.184520081029185,0.8859399882969371
1731474160.4702244,-0.3345542550086975,0.5284436941146851,-9.966591835021973,0.014484796696128947,-0.06922382591451004,-0.006978901686572591,1.2658033165347038,7.160442482078723,0.8858867010080889
1731474160.5200076,-0.3611922562122345,0.5078816413879395,-10.020652770996094,0.014274200942088124,-0.0712723529875998,-0.006982340252432798,1.267589383359019,7.136239899074687,0.8858161245107082
1731474160.570008,-0.3498118817806244,0.5143244862556458,-10.008946418762207,0.013984115064149018,-0.07323208690955568,-0.006983843061181464,1.2650345105899221,7.111583104034001,0.8861908375858369
1731474160.6198819,-0.3498118817806244,0.5143244862556458,-10.008946418762207,0.013618459321982359,-0.07510108175178051,-0.006983275979232149,1.266008985594216,7.087013510424441,0.8861956146057008
1731474160.6198819,-0.33152875304222107,0.5191381573677063,-9.96742057800293,0.013181721967684076,-0.0768775729541924,-0.006980811269158126,1.2660139624085645,7.086889713601969,0.886195594726108
1731474160.6699362,-0.3189314603805542,0.520063042640686,-9.994635581970215,0.012678772518821685,-0.07856002249798529,-0.006976761951889978,1.2672779983485705,7.062039227133009,0.8864512592621501
1731474160.7198498,-0.31146132946014404,0.49782794713974,-9.991044998168945,0.012114630015674489,-0.08014714901112324,-0.006971417877189073,1.2685551047946964,7.036958073473926,0.8865132863940782
1731474160.7696915,-0.27925825119018555,0.5191643238067627,-9.976333618164062,0.011494233885419087,-0.0816378987782885,-0.0069650178980856375,1.2695803920652486,7.0119675746870165,0.8866687236518715
1731474160.8196826,-0.26903486251831055,0.5131709575653076,-9.989280700683594,0.010822210908136063,-0.08303141791268398,-0.006957755307169808,1.2708509944969166,6.9865519430214835,0.8867341473268313
1731474160.8696597,-0.2614664137363434,0.5186227560043335,-10.001703262329102,0.010102650892379232,-0.08432708843583357,-0.006949772931556278,1.2714096362807474,6.960873979420354,0.8868521121670108
1731474160.9207711,-0.2614664137363434,0.5186227560043335,-10.001703262329102,0.009338971686443277,-0.08552458248529388,-0.006941227921964114,1.2724362362462027,6.9342755449345574,0.886901110567426
1731474160.9207711,-0.2740640342235565,0.5009732246398926,-9.956851959228516,0.008533921029720467,-0.08662387357101965,-0.006932348111694825,1.2724447398696785,6.934056930073128,0.8869014357148125
1731474160.9705622,-0.274027019739151,0.5083372592926025,-10.000702857971191,0.007689689260078514,-0.08762519012833656,-0.006923353355972809,1.2730349257559241,6.908595034880782,0.8870798821864695
1731474161.02048,-0.274027019739151,0.5083372592926025,-10.000702857971191,0.0068080631246526056,-0.08852895311088797,-0.006914381238630128,1.2750842640069622,6.882531320153779,0.8870405224043261
1731474161.02048,-0.2422710508108139,0.5382094979286194,-10.02502155303955,0.005890516252707353,-0.0893357887459505,-0.006905595031580126,1.275093469719362,6.882353772671752,0.88704060849286
1731474161.070523,-0.2966766655445099,0.5066756010055542,-9.966814994812012,0.004938218778678461,-0.09004662442283873,-0.006897330243117846,1.2764538354732509,6.856123423315366,0.8870447641654519
1731474161.1204453,-0.2966766655445099,0.5066756010055542,-9.966814994812012,0.003952127371580841,-0.09066273193446495,-0.006890025586116435,1.2778410952589654,6.8293627872362945,0.8870317785412647
1731474161.1204453,-0.24885393679141998,0.5543649792671204,-9.974495887756348,0.002933176042892605,-0.09118568649823805,-0.006883982084969216,1.2778492720985817,6.829204945938268,0.8870316512330402
1731474161.1704516,-0.24885393679141998,0.5543649792671204,-9.974495887756348,0.0018822971875368608,-0.09161743341283282,-0.006879219890233273,1.2792297070790077,6.802489599819247,0.8870016927971394
1731474161.1704516,-0.2737577557563782,0.5325854420661926,-10.017370223999023,0.000800257696901807,-0.09196046459295147,-0.006875547523139494,1.279239550384877,6.802298616370461,0.8870014189390879
1731474161.2202854,-0.2737577557563782,0.5325854420661926,-10.017370223999023,-0.0003123739191579764,-0.0922178454892374,-0.00687277735853783,1.2763215684033267,6.775492845014138,0.8869937890146355
1731474161.2202854,-0.2906055152416229,0.5151991844177246,-9.989680290222168,-0.0014550641229251825,-0.09239304711266938,-0.006870939985405574,1.2763247943372409,6.775334100777106,0.8869936631103914
1731474161.2703397,-0.3137006163597107,0.5183002948760986,-9.986680030822754,-0.002627110761935849,-0.09248974994536385,-0.006870302147019339,1.2768723510353002,6.748114835974017,0.8869636434996724
1731474161.3202085,-0.3137006163597107,0.5183002948760986,-9.986680030822754,-0.0038274469477868585,-0.09251170981021073,-0.006871205515041305,1.2777443020860817,8.034442272873026,0.8869824135613062
1731474161.3202085,-0.3133438229560852,0.5345419645309448,-10.003192901611328,-0.0050544907472287615,-0.09246271300011563,-0.006873949431007966,1.2777496886439854,8.036781717629527,0.8869822267881894
1731474161.370244,-0.3098906874656677,0.528404951095581,-10.000290870666504,-0.006306115402380343,-0.0923466162005084,-0.006878813649203425,1.278859290324683,7.829520396709337,0.8869820427646833
1731474161.4202275,-0.3098906874656677,0.528404951095581,-10.000290870666504,-0.00757971889662281,-0.09216739813292572,-0.00688613249620971,1.2795571505933117,7.9087426644951355,0.8869495966069713
1731474161.4202275,-0.33454248309135437,0.49304723739624023,-9.936529159545898,-0.008872294118543157,-0.09192912571486311,-0.006896267425660026,1.2795610505894448,7.909190923321288,0.886949363283063
1731474161.470167,-0.3619610667228699,0.5299280881881714,-10.047443389892578,-0.010180396546204156,-0.09163582783213639,-0.006909471641931897,1.280226847350228,7.987043498032776,0.8869002727480997
1731474161.5199888,-0.36124423146247864,0.5293492674827576,-9.995766639709473,-0.011499996729895302,-0.09129142443311412,-0.0069259072888594505,1.28087181012578,8.065380463904233,0.8868335603048408
1731474161.570011,-0.3769206404685974,0.5511707663536072,-9.91990852355957,-0.012826344170119647,-0.09089981950192286,-0.006945770044364935,1.2801060553497314,7.705210018019387,0.8869738311342857
1731474161.6198852,-0.3783719837665558,0.543317973613739,-9.976374626159668,-0.014153936680108798,-0.0904650583010297,-0.006969120232878812,1.2804566636709438,7.710521823957233,0.8869366541838652
1731474161.6698837,-0.24439649283885956,0.7247949242591858,-9.980547904968262,-0.01547668975963849,-0.08999157184508427,-0.006995611894399672,1.2807697845903425,7.715600096757974,0.8868821415690491
1731474161.7198694,0.5133981704711914,1.6614665985107422,-9.919093132019043,-0.01678918126040426,-0.08948562349196791,-0.007024501423642709,1.2813723989784305,7.64198546959299,0.8869694387195676
1731474161.769799,0.2999531030654907,1.1952157020568848,-10.016883850097656,-0.01808983862430128,-0.08895889879913316,-0.007054739273967258,1.281772682531107,7.635017435131545,0.8869301272090511
1731474161.8197489,0.4892212450504303,1.505788803100586,-9.938413619995117,-0.01938433152010398,-0.08843186032410034,-0.007085043188080127,1.2821269037022016,7.627818000905523,0.8868731488734984
1731474161.8706505,-0.516516387462616,-0.022402653470635414,-9.965340614318848,-0.020685861009655457,-0.0879329368968502,-0.007114000765923776,1.2821266135841791,7.59606272304887,0.8869665377316496
1731474161.9206002,-0.9550522565841675,-0.21024510264396667,-10.16689682006836,-0.022010761486398314,-0.08749214219889889,-0.007140257760646086,1.2828451761035449,7.558774726202784,0.8869720317657157
1731474161.9705899,-0.7593311667442322,-0.04050649330019951,-10.03207015991211,-0.023371461663524055,-0.08713237934957616,-0.007163081149303762,1.2831678923852647,7.541053800842461,0.8869339270585461
1731474162.0203743,-0.5015047788619995,0.2697582244873047,-10.028075218200684,-0.024772011270997932,-0.08686486075206354,-0.007182900314084296,1.2832644558381863,7.514758432576461,0.8869687752858236
1731474162.0706327,-0.6376875638961792,0.10086476802825928,-9.939265251159668,-0.026208637146071464,-0.08669052280221717,-0.007201054844808619,1.2834309517475604,7.4940325390811395,0.8869285041045313
1731474162.1203902,-0.4812456965446472,0.29825708270072937,-9.977543830871582,-0.027672282486776736,-0.08660320314985592,-0.007219031364690279,1.2835278518176396,7.473360515175709,0.8868707121673186
