Timestamp,IMU_Linear_Acc_X,IMU_Linear_Acc_Y,IMU_Linear_Acc_Z,Filtered_X,Filtered_Y,Filtered_Z,Pose_X,Pose_Y,Pose_Z
1731474136.3588867,-0.27416113018989563,0.43637028336524963,-9.988398551940918,-4.340803367311989e-05,-0.00012402704980314826,-0.0001297909846991161,2.4447071863030194,8.158011886528483,0.8809999811604596
1731474136.408835,-0.27416113018989563,0.43637028336524963,-9.988398551940918,-5.4925470355420126e-05,-0.00015224503700404497,-0.0001642590152237776,2.4445463747999927,8.159017041099142,0.8809999805802814
1731474136.4588637,-0.7430660724639893,0.23497319221496582,-10.004386901855469,-8.877315473491816e-05,-0.0002158517312079961,-0.00025048622706090996,2.4444958626944406,8.159332767570818,0.8809999803462765
1731474136.5088224,-0.7430660724639893,0.23497319221496582,-10.004386901855469,-0.0001103451893924946,-0.0002490180365461342,-0.00030325275046638587,2.444091889711203,8.1618578010963,0.880999977164185
1731474136.5587819,-0.1835746020078659,0.5284029841423035,-9.957141876220703,-0.00013870488343628768,-0.00030251299151764686,-0.0004311939449024491,2.4435018940718183,8.16554555411021,0.880999967104793
1731474136.6086814,-0.3212164640426636,0.5026140809059143,-9.98022747039795,-0.00010495045908867276,-0.0003154749261854414,-0.0005920377672675673,2.4367686282692445,8.222297675856582,0.8809990724028531
1731474136.6586556,-0.3097893297672272,0.373074471950531,-9.942727088928223,-5.570572564211249e-05,-0.00030167292279948457,-0.0006856070487463778,2.432217022084525,8.258370255895567,0.8809965814906829
1731474136.7085814,-0.3097893297672272,0.373074471950531,-9.942727088928223,1.6900846795544984e-05,-0.00027300374290073443,-0.0007882884534692871,2.438424862100824,8.209347772644602,0.8809922625521397
1731474136.7085814,-0.36415764689445496,0.45885133743286133,-10.01577377319336,0.00011302078100504857,-0.00022864379805697744,-0.0008999025930082115,2.4384147912215712,8.209427582747388,0.8809922165675739
1731474136.7586725,-0.3174515664577484,0.43460458517074585,-9.97563648223877,0.00023212910891608551,-0.00016779047706096023,-0.0010199494901770698,2.437255381245053,8.21861779549082,0.8809856502621827
1731474136.808501,-0.37348827719688416,0.42250683903694153,-9.971975326538086,0.0003732833870009416,-8.992721770037431e-05,-0.0011478691060878591,2.4361965917465045,8.195666605935639,0.8809763577122406
1731474136.858473,-0.3333224654197693,0.4560640752315521,-10.020543098449707,0.0005352923787110735,5.038267835030736e-06,-0.0012831274282420909,2.434637175975886,8.197598902428943,0.8809640628478052
1731474136.9084017,-0.3716474175453186,0.4254069924354553,-9.993083000183105,0.0007168268521441368,0.00011680801826979476,-0.001425264303512755,2.4369883949210633,8.338058798779674,0.8809478237917561
1731474136.9583972,-0.30855798721313477,0.4505065679550171,-9.975634574890137,0.0009164665571770203,0.0002447171184081764,-0.0015739800166931456,2.4365922457344364,8.374629715722364,0.8809289140527932
1731474137.0092394,-0.33945232629776,0.44332513213157654,-10.006049156188965,0.0011326314297268956,0.0003877578689564785,-0.0017290964978269197,2.4338373219316747,8.339934660071307,0.8809049528842798
1731474137.0592687,-0.30693483352661133,0.45724576711654663,-9.974886894226074,0.001363455573920808,0.0005445910642327192,-0.001890467290578538,2.4325066308627985,8.350048017063912,0.8808767159055232
1731474137.1091747,-0.3404017686843872,0.42924872040748596,-9.97957992553711,0.0016067287658571574,0.0007135533232837509,-0.0020579373759325747,2.43423507678145,8.330991694443618,0.8808437051059657
1731474137.159192,-0.33027854561805725,0.4503231644630432,-9.993732452392578,0.0018599548885471263,0.0008927267596299565,-0.0022312956048450745,2.4338870340382797,8.333687613963184,0.8808052664021544
1731474137.2090607,-0.3312438130378723,0.4298307001590729,-9.984983444213867,0.0021204718621406424,0.001080042285901292,-0.002410263467797667,2.43354399495186,8.336385732626278,0.8807610364332716
1731474137.2591295,-0.32849225401878357,0.44427555799484253,-9.991825103759766,0.002385538563729856,0.001273355345996318,-0.002594542696719871,2.4347064957459184,8.33264991470841,0.8807104618206955
1731474137.308942,-0.3466336131095886,0.43178790807724,-9.988767623901367,0.0026523788927261746,0.0014704962800864653,-0.0027838458851096254,2.4346446033449585,8.33488011027651,0.8806533893576479
1731474137.3589773,-0.3226473927497864,0.4400995373725891,-9.986501693725586,0.0029182390670995295,0.0016693096382513774,-0.0029778978091710424,2.4336487957026574,8.33070313964245,0.8805888818426849
1731474137.4088914,-0.3401765823364258,0.42628738284111023,-10.006254196166992,0.0031804327256501103,0.0018676907029941793,-0.0031764412112247776,2.4332343509133225,8.331297394298405,0.8805168932739259
1731474137.4588525,-0.32638588547706604,0.4399968981742859,-9.992179870605469,0.003436345707277699,0.002063625158890526,-0.003379273013077149,2.4337684644652553,8.329661529837283,0.88043674541909
1731474137.50879,-0.3352645933628082,0.4304140508174896,-9.980989456176758,0.003683439825758504,0.0022552135988267914,-0.0035862681140463744,2.4336720898012794,8.32982803735748,0.8803480555470484
1731474137.5588923,-0.33292460441589355,0.43939563632011414,-9.997173309326172,0.003919270661254389,0.0024406715834978357,-0.003797331098579833,2.4335844954727386,8.330001788006243,0.8802493709927229
1731474137.6086698,-0.3363683819770813,0.4308415949344635,-9.980420112609863,0.004141514932737955,0.0026183249957397133,-0.004012337441031485,2.4335072016537866,8.231264736106683,0.8801410405909096
1731474137.6586838,-0.3302421271800995,0.4421899914741516,-9.979595184326172,0.004347998846808519,0.0027866098929374187,-0.004231107465234934,2.4334412579974516,8.211375431695648,0.8800237069774975
1731474137.7086177,-0.3302421271800995,0.4421899914741516,-9.979595184326172,0.0045367041728655785,0.002944059501542927,-0.004453366365929659,2.4333859611996282,8.246869412396613,0.8798949493584164
1731474137.7086177,-0.3371421694755554,0.43059173226356506,-9.996553421020508,0.004705760276105128,0.0030892832697865928,-0.004678721839949008,2.4333838872240383,8.24687338112515,0.8798893014908787
1731474137.758543,-0.3301190137863159,0.4375700056552887,-9.977168083190918,0.004853453057114,0.0032209795530838293,-0.004906707106638805,2.433342231758998,8.246968053103885,0.8797541897430639
1731474137.8085432,-0.34019094705581665,0.43010377883911133,-9.982741355895996,0.0049782478822952125,0.003337977897194606,-0.005136819055872835,2.4333108128468863,8.247074801020064,0.8796010074190005
1731474137.8584952,-0.33192288875579834,0.43809831142425537,-9.991263389587402,0.00507880829302936,0.003439263976964274,-0.005368509434695709,2.433291934890864,8.247190103183605,0.8794345751184102
1731474137.9083514,-0.34595686197280884,0.4304082989692688,-9.981121063232422,0.005154013048730548,0.0035239797356789115,-0.005601191211268306,2.4332858585403128,8.269292208586668,0.8792513550099003
1731474137.9583144,-0.3420066237449646,0.443705290555954,-9.989968299865723,0.005202983049505394,0.0035914117332260425,-0.005834267699067536,2.433292644108129,8.272673938552185,0.879060997333751
1731474138.0092392,-0.34163692593574524,0.42966023087501526,-9.989768028259277,0.0052251103916173824,0.0036409712763498065,-0.00606715025292662,2.433312933804555,8.28961863937049,0.8788479151684493
1731474138.0592258,-0.33824580907821655,0.44014066457748413,-9.97556209564209,0.005220057348998439,0.003672182213766034,-0.00629926637546472,2.433346038755843,8.297350781325173,0.878623004649986
1731474138.1091983,-0.341629296541214,0.4363786280155182,-9.98953914642334,0.005187722753013302,0.003684680474044436,-0.006530044434741141,2.433392241776935,8.305105956504713,0.8783816193190958
1731474138.1591976,-0.3402191698551178,0.43175989389419556,-9.978646278381348,0.005128211506950368,0.003678211945777816,-0.006758889023564862,2.433451251729958,8.312855136924219,0.8781240929986049
1731474138.209059,-0.3476492762565613,0.432100772857666,-9.985774040222168,0.005041826141055405,0.003652641591496397,-0.006985180991714214,2.4335227441118636,8.320591565285824,0.8778501999082594
1731474138.2590916,-0.33999305963516235,0.4344528317451477,-9.983550071716309,0.004929071465939381,0.003607974227634689,-0.007208289154463108,2.4336069699718346,8.305510054767973,0.8775575112880708
1731474138.3088815,-0.34422069787979126,0.4327370822429657,-9.9750337600708,0.004790649125590067,0.0035443562979297232,-0.0074275746133198265,2.433702752168953,8.309322272966535,0.8772484090213265
1731474138.3589008,-0.3437175154685974,0.44072937965393066,-9.988846778869629,0.004627435141419764,0.0034620538469087065,-0.007642384397360176,2.433811687585663,8.31319399911042,0.8769161848769986
1731474138.4087975,-0.34332624077796936,0.4315757751464844,-9.98684024810791,0.004440459473393619,0.0033614232516662873,-0.007852061380419422,2.4339313114588053,8.320905544862967,0.876566610584625
1731474138.458818,-0.33988749980926514,0.436118483543396,-9.992659568786621,0.0042308878652991275,0.0032428951384191555,-0.008055992739558536,2.4340604442938734,8.32551733869721,0.8762009418560525
1731474138.5087607,-0.3460216820240021,0.428290456533432,-9.99396800994873,0.003999996364027092,0.003106982928022035,-0.008253664364955478,2.434200629252829,8.330167135805747,0.8758126532599019
1731474138.5588555,-0.32766076922416687,0.4385663866996765,-9.993430137634277,0.0037491400406655176,0.002954296289990899,-0.008444693747737694,2.4343514855327686,8.33834722925177,0.8754007017831201
1731474138.6086557,-0.3306537866592407,0.4353063106536865,-9.987985610961914,0.003479696893556068,0.002785531245221112,-0.00862883515921559,2.434512135309805,8.344183353548967,0.8749654748071838
1731474138.6586676,-0.3333236277103424,0.4373985528945923,-9.995209693908691,0.0031929955020327146,0.002601438940589119,-0.008805957243155076,2.43467779097103,8.356083917679964,0.8745173024348013
1731474138.7086084,-0.3319365978240967,0.4339129328727722,-9.97912311553955,0.0028902845871592265,0.002402803063312501,-0.008976010237537187,2.4348529345229935,8.372202190236061,0.8740419224233311
1731474138.758562,-0.333381712436676,0.4398839473724365,-9.9823637008667,0.0025727486115724434,0.0021904351103831585,-0.009138979891325373,2.4350348532359605,8.382409139742942,0.8735441100871246
1731474138.8085184,-0.3302189111709595,0.438150554895401,-9.991358757019043,0.0022415235115757844,0.001965165692519095,-0.009294838126506368,2.4352218812365645,8.39257291226245,0.8730257974006597
1731474138.8586066,-0.3308621346950531,0.44120118021965027,-9.983616828918457,0.0018976974260388418,0.0017278242725989779,-0.0094435388982178,2.435415666681872,8.40282684473979,0.8724796480502012
1731474138.8586066,-0.3308621346950531,0.44120118021965027,-9.983616828918457,0.0015423062346091778,0.001479219782509557,-0.0095850413721189,2.435476986284308,8.377333258370342,0.8723045723598802
1731474139.2399957,-0.3376094102859497,0.43933042883872986,-9.987139701843262,0.001176340220344359,0.0012201301615519062,-0.009719308463829623,2.4369941473363697,8.404494701018805,0.8675331197772284
1731474139.2900891,-0.3423849642276764,0.43753117322921753,-9.985186576843262,0.0008007783996254504,0.0009513063857903109,-0.009846300175222316,2.437214129976692,8.407317093484556,0.866776864883552
1731474139.3398674,-0.34360605478286743,0.4366273581981659,-9.992426872253418,0.00041664455864792683,0.0006734916051847988,-0.009965988460519219,2.4374333864711653,8.407036111922245,0.866003685985002
1731474139.389985,-0.3389294445514679,0.4368346929550171,-9.979833602905273,2.504875486308283e-05,0.00038744203561923304,-0.010078375134181037,2.437655644312854,8.411297793807478,0.8651967838743293
1731474139.4397805,-0.3331068754196167,0.42958614230155945,-9.990646362304688,-0.00037282146504426315,9.394350795411785e-05,-0.010183489603418139,2.437880990029559,8.415627988215999,0.8643508706892944
1731474139.4898527,-0.335146963596344,0.4248596131801605,-9.98840618133545,-0.0007757534540027457,-0.00020615994226174953,-0.01028138028823326,2.4380956519903716,8.41977952111468,0.8635148348813786
1731474139.539713,-0.3328384459018707,0.4296468496322632,-9.984148025512695,-0.0011825610751604715,-0.0005119251342687706,-0.010372121620490001,2.4383121772410044,8.41488811258993,0.8626366386539202
1731474139.5897124,-0.3308675289154053,0.4361976087093353,-9.986226081848145,-0.0015921111667977165,-0.0008223002482161173,-0.010455814099758943,2.438528281789582,8.42524153318804,0.8617190858388177
1731474139.639718,-0.3300713300704956,0.44613346457481384,-9.986385345458984,-0.0020033399239651256,-0.001136181666807037,-0.010532568354843602,2.438734511201749,8.43062653680723,0.8607990188774834
1731474139.6895943,-0.3355879783630371,0.4400116503238678,-9.9830961227417,-0.0024152634044257637,-0.0014525071336116899,-0.010602496714574257,2.4389378364377126,8.436075586981758,0.8598412634300961
1731474139.7396622,-0.3371192514896393,0.4425605237483978,-9.980547904968262,-0.002826963292347056,-0.0017703181006547778,-0.010665704954068857,2.439136261699043,8.44156675532345,0.8588485255952122
1731474139.789675,-0.33719924092292786,0.4419511556625366,-9.980554580688477,-0.003237551630577785,-0.0020887674224543485,-0.010722270570523872,2.4393243494340062,8.446975327181546,0.8578433002524356
1731474139.8395355,-0.3354564905166626,0.445912629365921,-9.973817825317383,-0.00364614565447895,-0.002407109848525336,-0.01077221774266927,2.4395047106060646,8.452401768260975,0.8568070475823903
1731474139.8896139,-0.3405797779560089,0.44538143277168274,-9.989174842834473,-0.004051863774358427,-0.0027247052550211574,-0.010815505763769894,2.439675844429202,8.437028205579331,0.8557411171516233
1731474139.9394777,-0.33414551615715027,0.4462050497531891,-9.99086856842041,-0.004453827038679877,-0.003041026647459557,-0.01085206075526396,2.4398364042067286,8.439590312433078,0.8546482026978169
1731474139.9894018,-0.3440423011779785,0.44702938199043274,-9.984944343566895,-0.004851158614861782,-0.003355660144494609,-0.01088184433588888,2.4399842938319667,8.447596567840945,0.8535350633774484
1731474140.0392613,-0.32870543003082275,0.43953606486320496,-9.982325553894043,-0.005242987147589483,-0.0036682916508485805,-0.010904886858972283,2.4401204035612065,8.451587188106863,0.8523902061163761
1731474140.089296,-0.34796392917633057,0.4402678906917572,-9.993621826171875,-0.005628457063189244,-0.003978672883244305,-0.010921268921534314,2.440243821423379,8.455597237077619,0.8512095468777029
1731474140.1402464,-0.33399584889411926,0.432169646024704,-9.98773193359375,-0.006006730956202672,-0.004286569927305504,-0.010931117845853175,2.4403539328633563,8.459651752947675,0.8499844860674552
1731474140.1902158,-0.339699923992157,0.42898687720298767,-9.98838996887207,-0.006376983239711784,-0.004591706713263342,-0.010934628313589144,2.4404455126008733,8.459500484912617,0.8487632128614138
1731474140.2401154,-0.34191736578941345,0.42445263266563416,-9.988052368164062,-0.006738405102807968,-0.004893708701008527,-0.010932062004287202,2.440521490182495,8.462722401757375,0.8475088442376619
1731474140.2900033,-0.32970547676086426,0.4250764548778534,-9.985917091369629,-0.007090216887860149,-0.005192058483596681,-0.010923727252728773,2.440579655235106,8.472186534124559,0.8462319054527825
1731474140.3400288,-0.32910072803497314,0.4251329004764557,-9.99003791809082,-0.0074316982110358065,-0.005486080676601777,-0.010909963008312738,2.440619969582559,8.482098854943839,0.8449178604829275
1731474140.3900661,-0.3384392559528351,0.42610400915145874,-9.983735084533691,-0.007762235364421,-0.005774957617518589,-0.0108911304650086,2.4406416490846667,8.489217681943558,0.8435804239020991
1731474140.439955,-0.3377346694469452,0.435489296913147,-9.978569030761719,-0.008081326466200446,-0.006057770076841882,-0.010867595481333404,2.4406435418315704,8.496338283681688,0.8422126276457396
1731474140.4899478,-0.33423569798469543,0.4322376847267151,-9.991771697998047,-0.008388541182278072,-0.00633356007157702,-0.010839698725699147,2.4406239379613672,8.49769730195879,0.8408069430618402
1731474140.5398195,-0.3368098735809326,0.4413033127784729,-9.979137420654297,-0.008683498664873206,-0.006601399084117914,-0.01080774760196351,2.4405843362224977,8.502705554842914,0.8394061455480497
1731474140.5896668,-0.32903242111206055,0.43979355692863464,-9.979314804077148,-0.00896587832917287,-0.006860443951269392,-0.010772022079183558,2.4405230134873923,8.507715225174652,0.8379739633957619
1731474140.6397073,-0.33598414063453674,0.4474576413631439,-9.982017517089844,-0.009235438930435519,-0.00710998265201803,-0.010732755928399462,2.4404382078417277,8.512770135523967,0.8364970275359558
1731474140.6897366,-0.341476172208786,0.44930747151374817,-9.990230560302734,-0.009492018978979645,-0.007349475770514819,-0.010690128016987105,2.4403294255812416,8.511922434243699,0.8349997479196736
1731474140.7397206,-0.3397352695465088,0.44789478182792664,-9.97748851776123,-0.009735500493003636,-0.007578588732114263,-0.010644292951627679,2.4401968496712603,8.516120099322201,0.8334677493038928
1731474140.7895658,-0.3330007493495941,0.44037196040153503,-9.997563362121582,-0.009965772685556974,-0.007797191925639481,-0.010595411797683212,2.440040039508221,8.52028488868789,0.8319141326031959
1731474140.8395772,-0.03880907967686653,0.5903394818305969,-9.978856086730957,-0.010183008545404142,-0.008005447848947347,-0.010543670220330197,2.4398581528161243,8.52442763659102,0.8303349758836159
1731474140.8895676,-0.0758434385061264,0.5316457748413086,-10.008713722229004,-0.010388685904409728,-0.008204210210477987,-0.010489304319442944,2.439651061711804,8.528557775559895,0.8287441127271657
1731474140.9393978,0.48951706290245056,0.8079436421394348,-9.981762886047363,-0.010587362281677736,-0.008395729036409762,-0.010432635381042945,2.439417954004111,8.533105312482409,0.827116242887125
1731474140.9892786,0.7771492004394531,0.6103816628456116,-10.015816688537598,-0.010789308433687746,-0.008584444675038475,-0.0103741007374557,2.4391562723392504,8.544843275326965,0.8254615956368826
1731474141.0394018,0.7771492004394531,0.6103816628456116,-10.015816688537598,-0.011013726468689394,-0.00877730440788943,-0.0103143004127144,2.43886679353661,8.550772049465458,0.8237676953129979
1731474141.0394018,0.1431780755519867,0.499295175075531,-10.044015884399414,-0.011290127524127558,-0.008983068723977767,-0.010254105686537474,2.4388643735458704,8.55081923080632,0.8237540848994203
1731474141.0892773,0.413790225982666,0.48516714572906494,-9.909783363342285,-0.011655884565236078,-0.009211046236497322,-0.010194687451453757,2.4385539723365715,8.55658384695004,0.8220755555057399
1731474141.1401522,0.038903508335351944,0.3011943995952606,-9.996171951293945,-0.012152007423094103,-0.009469889061908258,-0.010137234844410824,2.4382017123952338,8.55887078780511,0.8203204493605989
1731474141.1902132,0.22217567265033722,0.33590275049209595,-10.001534461975098,-0.012820009010730994,-0.00976646013867908,-0.010082630739521863,2.4378231894371103,8.5636266845641,0.8185547400825355
1731474141.2402446,0.017560504376888275,0.20069876313209534,-9.97430419921875,-0.013700072400506028,-0.010104855544722536,-0.01003148997404487,2.43740986657375,8.573512686649273,0.8167701496532976
1731474141.2901216,-0.7728275656700134,-0.02461777999997139,-9.977519989013672,-0.014829066635865057,-0.01048556943271555,-0.009984315000152904,2.4369653023254716,8.580196291238927,0.8149666804265533
1731474141.3400016,-1.2074174880981445,-0.021463442593812943,-10.009428024291992,-0.016236427556718357,-0.010904426995429607,-0.009941495495483585,2.4364786321402474,8.585943580372488,0.813138289122883
1731474141.3900766,-0.23980385065078735,0.27316224575042725,-9.937684059143066,-0.01793921964143825,-0.011351920593120002,-0.009903293294185905,2.4359518751819222,8.592496036681553,0.8112818155541973
1731474141.4400213,-0.7082184553146362,0.12128511071205139,-10.163931846618652,-0.019941295123314502,-0.011814117756092452,-0.00986996096875647,2.435375210745857,8.599049540032818,0.8093920320542574
1731474141.4898539,-0.29287877678871155,0.4290388226509094,-9.929959297180176,-0.02223667881344369,-0.012274612986876812,-0.009842071507029714,2.4347472220431534,8.589024618615776,0.8074957463463842
1731474141.5398967,-0.5628702044487,0.09986446797847748,-10.001678466796875,-0.02481273683138093,-0.012716148939183453,-0.009820674123760535,2.434061568360387,8.591569214379508,0.8055645674610266
1731474141.5897396,-0.3513105511665344,0.46714502573013306,-10.08678913116455,-0.02765178229884615,-0.013121484432338845,-0.009807027489729914,2.4333143320247648,8.594069520469914,0.8036184566962347
1731474141.6397777,-0.5107159614562988,0.16161222755908966,-9.946783065795898,-0.0307320944141823,-0.013473856983086918,-0.009802477532555533,2.432485023056344,8.591196709986617,0.8016399513268875
1731474141.6896517,-0.4068586826324463,0.43703973293304443,-9.962201118469238,-0.03402867164905367,-0.013757362369991009,-0.009808439688612693,2.4315834871224182,8.592888744121527,0.7996420869807281
1731474141.7396317,-0.49801453948020935,0.2526971399784088,-10.004266738891602,-0.037513808157365346,-0.013957255079521471,-0.00982607375333552,2.430584100297548,8.594561114085787,0.797601735724735
1731474141.789641,-0.37864023447036743,0.4197238087654114,-9.953781127929688,-0.04115763611005463,-0.01406020191819862,-0.009856063698221992,2.4294964394544567,8.596182834029237,0.7955562472079812
1731474141.8394883,-0.42949461936950684,0.29616859555244446,-9.941106796264648,-0.04492879249867501,-0.0140544958134513,-0.009898637354850868,2.4282974250232856,8.590181103274418,0.7934944987796654
1731474141.8893626,-0.41107162833213806,0.3372349739074707,-10.000696182250977,-0.04879514063435947,-0.013930093271062758,-0.00995352563821608,2.4269857053873167,8.588184964508306,0.7914155435838685
1731474141.9393225,-0.3805420398712158,0.7001015543937683,-9.957939147949219,-0.05272433272908446,-0.01367879751657363,-0.01001999686524073,2.425540968025976,8.587758997613685,0.78928413838964
1731474141.9893405,-0.4000968039035797,0.667378306388855,-9.877378463745117,-0.05668425714864935,-0.013295358027243374,-0.010096932258757763,2.423950470350756,8.586390778133504,0.7871343930502265
1731474142.0393183,-0.4872780740261078,1.1421082019805908,-9.997286796569824,-0.06064335389045785,-0.012779472329516798,-0.01018268141362431,2.4222136460428683,8.585689388564559,0.7849431206725114
1731474142.0892508,-0.4453103244304657,0.9864438772201538,-9.849359512329102,-0.06457060275955943,-0.012137855891575459,-0.010274920069933066,2.4203489373890337,8.584967965269415,0.7827600552115489
1731474142.139246,-0.5104879140853882,0.7967690229415894,-10.028023719787598,-0.06843535953221597,-0.011385218169196428,-0.010370722606116583,2.4182937470375707,8.579946259917278,0.7805423148799879
1731474142.1901712,-0.3782177269458771,0.7711344957351685,-9.996058464050293,-0.07220743165852235,-0.01054308194162501,-0.010466859637890754,2.416013497077976,8.578419495118643,0.7782314247573076
1731474142.2401364,-0.4499201774597168,0.7072227597236633,-10.010408401489258,-0.07585750809522773,-0.009637249669769959,-0.01056031889480952,2.4136073695429285,8.57212462572041,0.7759766149448801
1731474142.2900872,-0.3696022629737854,0.713841438293457,-10.044113159179688,-0.07935773110945747,-0.008695708999578434,-0.010648727838041414,2.4110108384947413,8.569041633172143,0.7736760990968089
1731474142.3400176,-0.42195576429367065,0.5679761171340942,-9.984193801879883,-0.08268212315486852,-0.007747282262254738,-0.010730477538861923,2.408177154631403,8.565899192312415,0.7713197186101828
1731474142.3899982,-0.30900314450263977,0.6061761379241943,-10.027217864990234,-0.08580687954704266,-0.006820461065825643,-0.010804657126172552,2.405170374008228,8.562779335875906,0.7689670627551969
1731474142.4399173,-0.36433690786361694,0.5541598200798035,-9.993165969848633,-0.0887106979710516,-0.005942381988333356,-0.010870897507469734,2.401937890689315,8.562445032987638,0.7666046493220005
1731474142.4898849,-0.3449501693248749,0.5600143671035767,-10.049895286560059,-0.09137505657770918,-0.005138192702996117,-0.010929272941999127,2.398484227350794,8.560101419703082,0.7641933180930308
1731474142.5398262,-0.3187732696533203,0.5636372566223145,-10.002037048339844,-0.0937842727972551,-0.004430766646540683,-0.010980314845795161,2.3947982448576552,8.54170244420629,0.7617794577409699
1731474142.5898345,-0.30297085642814636,0.5662887096405029,-10.012564659118652,-0.09592549322076427,-0.003840617990270469,-0.011024999212377203,2.3908789439027225,8.521451754008206,0.7593413791696295
1731474142.6396751,-0.3056734502315521,0.5174658894538879,-10.006267547607422,-0.09778876207020631,-0.0033859096163978697,-0.011064617973513845,2.386693788834032,8.509216822182252,0.7568340516826596
1731474142.689624,-0.32618317008018494,0.5069574117660522,-9.982719421386719,-0.09936700705121086,-0.003082364040531754,-0.011100609797777269,2.382300134547434,8.497079464927763,0.7543208630298751
1731474142.7396877,-0.273434042930603,0.514680802822113,-9.964303016662598,-0.10065587146723623,-0.002943077179524579,-0.011134381722221665,2.3775987030893106,8.484780052518145,0.7517476930955742
1731474142.7895157,-0.2996521592140198,0.5227103233337402,-9.985552787780762,-0.10165356602586892,-0.0029784686710550966,-0.011167110467436476,2.372726339665324,8.49766350784701,0.7492209403723471
1731474142.8395174,-0.2996521592140198,0.5227103233337402,-9.985552787780762,-0.1023607712286758,-0.0031964472217460268,-0.01119964997935774,2.367511072632737,8.490114086265393,0.7465903799584505
1731474142.8395174,-0.3358599841594696,0.5379204750061035,-9.958097457885742,-0.10278041163429863,-0.0036026605488650464,-0.011232572135728999,2.3674686262855036,8.490054114385106,0.7465693806554448
1731474142.8894358,-0.336078017950058,0.4931144118309021,-9.98670482635498,-0.10291726507472118,-0.004200703837097749,-0.011266188682696488,2.362320671382697,8.482689070098939,0.7440138921003767
1731474142.939421,-0.33337661623954773,0.5128029584884644,-10.005820274353027,-0.1027775698968812,-0.004992212340551076,-0.011300577031012709,2.356602206030786,8.475132119535564,0.7413318541827377
1731474142.989331,-0.3498041331768036,0.4721747934818268,-9.94282341003418,-0.10236875505271678,-0.005976861509005702,-0.011335681506026289,2.350699875201372,8.467654964681246,0.7386548782222366
1731474143.0392566,-0.32534632086753845,0.5132566094398499,-9.986802101135254,-0.10169927669372152,-0.007152390582291417,-0.01137132755764208,2.3445000910430616,8.460106876693587,0.7359300620120028
1731474143.0892653,-0.3674081265926361,0.5218324065208435,-10.014200210571289,-0.10077849274307915,-0.008514761836579746,-0.01140717851885423,2.3382484768058633,8.45256322142697,0.733226974368509
1731474143.1392438,-0.40713658928871155,0.5078936219215393,-9.99518871307373,-0.09961646098916029,-0.010058461552947179,-0.011442872846089585,2.331532495631431,8.444954974242503,0.7304392115885224
1731474143.1901145,-0.3748840391635895,0.5032426118850708,-9.95654582977295,-0.0982236010772664,-0.01177676558236162,-0.011478177961109882,2.324820655352938,8.43723373996103,0.7276364412115381
1731474143.2401328,-0.41319382190704346,0.513997495174408,-10.000679969787598,-0.09661040608330657,-0.013661863228424337,-0.011512909526957582,2.3180950337136617,8.429572235649372,0.7248415355642233
1731474143.2901106,-0.4174082279205322,0.5009680390357971,-9.988465309143066,-0.09478730762354004,-0.01570495165516006,-0.011546821824814937,2.310678712225423,8.421891678152301,0.7219770411251277
1731474143.3401623,-0.4119400978088379,0.5024043917655945,-9.968817710876465,-0.09276457070412766,-0.017896354618545336,-0.011579640431161081,2.302990596805273,8.41413167154922,0.7190695923274907
1731474143.3899338,-0.3861069083213806,0.4877097010612488,-9.973749160766602,-0.09055225137725802,-0.020225610315048482,-0.011611061926407056,2.2951698933299776,8.40641970328718,0.7161691107222835
1731474143.4400024,-0.3813762664794922,0.4656544327735901,-10.00214672088623,-0.08816032577075705,-0.02268150133663517,-0.011640695405434482,2.2874492783954143,8.39854249944183,0.7132538295045766
1731474143.489819,-0.3586125075817108,0.4547431170940399,-9.964475631713867,-0.08559891288968513,-0.02525202119701413,-0.011668094296732264,2.279189585416516,8.390710393517438,0.7102934022845716
1731474143.5397732,-0.3363964855670929,0.4302753210067749,-9.970362663269043,-0.08287849092284963,-0.0279243040699814,-0.011692794181213918,2.2706347250451726,8.382731733228235,0.70727350525002
1731474143.5897393,-0.3230259418487549,0.4246014356613159,-10.018203735351562,-0.08001010236229841,-0.030684568930347725,-0.011714289899674475,2.262480464323223,8.374743079309775,0.7043120280124219
1731474143.6397502,-0.3230259418487549,0.4246014356613159,-10.018203735351562,-0.0770055159915952,-0.03351812302971154,-0.011732143213275597,2.253517601423495,8.366597809922053,0.7012292978211148
1731474143.6397502,-0.3195480704307556,0.4174511432647705,-9.99730110168457,-0.07387727224373147,-0.03640945999938823,-0.011746206291117747,2.253441144995991,8.366528718772551,0.7012031593098043
1731474143.6896462,-0.29733991622924805,0.400546669960022,-9.969202995300293,-0.07063863175677726,-0.03934241267163194,-0.011756658390905369,2.2444618499365387,8.358444504504805,0.6981485669209718
1731474143.7396011,-0.2849956750869751,0.3818894624710083,-10.001726150512695,-0.06730353803582265,-0.04230026170672532,-0.011763814643235768,2.235848487767008,8.350119275316004,0.6950848805987261
1731474143.789569,-0.2620607912540436,0.3989132344722748,-10.011852264404297,-0.06388664626236612,-0.045265796438900406,-0.011768002857788484,2.226420289630329,8.341713995714949,0.691930843549417
1731474143.8395295,-0.3114404082298279,0.37750130891799927,-9.98075008392334,-0.06040332208704735,-0.048221425169483426,-0.01176962331064934,2.2176656567169193,8.333155400452664,0.6888139970263129
1731474143.8895874,-0.29066282510757446,0.38888999819755554,-10.001361846923828,-0.05686946559019363,-0.051149352408615456,-0.011769187357305536,2.2079599207936473,8.324520872903639,0.6856064531247085
1731474143.939539,-0.31284046173095703,0.36997202038764954,-10.00731372833252,-0.053301199774771976,-0.05403175263622748,-0.011767272982196014,2.198085967974973,8.315727715564204,0.6823594138450606
1731474143.9893997,-0.27976566553115845,0.3753986358642578,-10.026233673095703,-0.04971461771832145,-0.056850912865784954,-0.011764555410491241,2.1881417677458415,8.306848253172062,0.6791021226887611
1731474144.0392823,-0.2954639196395874,0.3394887149333954,-9.958551406860352,-0.046125669608197674,-0.05958933381519421,-0.011761870101194047,2.1789436506061683,8.297781119725991,0.6758910982046857
1731474144.089266,-0.5322554707527161,-0.19363191723823547,-10.011695861816406,-0.04254989192946546,-0.062229281023191224,-0.011760124773240004,2.168740952868674,8.288569886982744,0.6725633298538628
1731474144.139285,-0.5322554707527161,-0.19363191723823547,-10.011695861816406,-0.03900148863810425,-0.06475094803499053,-0.011760176399477334,2.1595595281531135,8.279144109411087,0.6692867483126315
1731474144.139285,-0.4975226819515228,-0.47324222326278687,-10.109478950500488,-0.035492123656500965,-0.0671297938255167,-0.011762975552565887,2.1594720779800993,8.279064168736628,0.6692582383962832
1731474144.1902807,-0.6517626047134399,-0.1517183631658554,-10.05496883392334,-0.032030312834053214,-0.0693349423932029,-0.011769971690940163,2.1489579827882186,8.269401308686437,0.6658288028611999
1731474144.2401178,-0.7958483099937439,-0.4603233337402344,-10.047149658203125,-0.028621110109597815,-0.07132947828772838,-0.011783389429198786,2.139801542946934,8.259661534184696,0.6625139817633009
1731474144.2899477,-0.3774668574333191,0.1904527246952057,-9.920002937316895,-0.025265740209092842,-0.07307210732215974,-0.011805995442202562,2.1293687506458627,8.249836452911614,0.6590951788995523
1731474144.3399312,-0.7103548049926758,-0.2533815801143646,-10.023809432983398,-0.021962085200413036,-0.0745196233296383,-0.011840463229620828,2.120181580903454,8.239654444483389,0.6557044096523645
1731474144.389945,-0.5084047317504883,0.20593859255313873,-9.930323600769043,-0.018705817852013168,-0.07562937889582692,-0.011888873938644084,2.1095699525324383,8.229376009869995,0.6521995120497686
1731474144.4399543,-0.6116470098495483,0.06604569405317307,-9.929553985595703,-0.01549102053446074,-0.0763610932157765,-0.011952530947315392,2.1005308520202837,8.218837301644301,0.6487683034016044
1731474144.489831,-0.6116470098495483,0.06604569405317307,-9.929553985595703,-0.012310417077633192,-0.07667815538433106,-0.01203180412597124,8.656302177464436,8.208145132684779,0.6453261646795458
1731474144.489831,-0.5259138345718384,0.24936124682426453,-9.96333122253418,-0.009155639733625508,-0.07654841266204039,-0.012126039960478372,8.658106674078065,8.208058050057021,0.6452972064255573
1731474144.5398407,-0.5633005499839783,0.1612505167722702,-9.892698287963867,-0.0060176112327310245,-0.07594463748838307,-0.01223368555324147,8.879607506333928,8.197273926683845,0.6417272700788994
1731474144.5897121,-0.5227437615394592,0.1753193736076355,-9.91405963897705,-0.002887069203283639,-0.07484495564659172,-0.012352381041746904,9.101729592418977,8.186272273723509,0.638116694037103
1731474144.6397834,-0.530639111995697,0.1455938071012497,-9.948212623596191,0.00024500754377964175,-0.07323281368325538,-0.012478950363187235,9.325079945665657,8.175024446244235,0.6344550453965085
1731474144.6897333,-0.4877649247646332,0.19532594084739685,-9.93302059173584,0.0033871087182675763,-0.07109655778313893,-0.012609557734088795,9.034024678456714,8.163561712883244,0.6309002404402095
1731474144.7396362,-0.4850020408630371,0.15887004137039185,-9.961091995239258,0.006546892844776012,-0.06842912669766968,-0.012740017913910702,9.172802690170258,8.15198211069235,0.6271846114357845
1731474144.7895703,-0.042006008327007294,0.42955347895622253,-9.968608856201172,0.009730517331728882,-0.06522807617937788,-0.012866065795902762,9.311217454098498,8.140268309786629,0.6234474110674653
1731474144.8395107,-0.042006008327007294,0.42955347895622253,-9.968608856201172,0.012940977435415647,-0.06149619501757672,-0.01298357544408288,8.943474507272311,8.128287014884934,0.6198036404885617
1731474144.8395107,0.20982344448566437,0.5299987196922302,-9.996824264526367,0.016175824130403544,-0.05724250511889557,-0.013088745477988058,8.94372120074599,8.128184027673948,0.6197710247428373
1731474144.8894217,-0.2961362600326538,0.27400559186935425,-10.028383255004883,0.01942591254965905,-0.05248264465625741,-0.013178283724724757,8.97218404276893,8.116246714812187,0.6159947860909888
1731474144.9395008,-0.07620701938867569,0.45252323150634766,-9.962984085083008,0.022676336539434582,-0.04723806508659747,-0.013249591398382436,8.881878028390766,8.103952059581003,0.6122831975792605
1731474144.989377,-0.3626199960708618,0.24273060262203217,-10.05359172821045,0.025908724551723033,-0.04153468267554415,-0.013300817135328144,8.888174360570835,8.091655230891632,0.6084031915482547
1731474145.0394049,-0.3626199960708618,0.24273060262203217,-10.05359172821045,0.02910338726569888,-0.03540161611916274,-0.013330889091021366,8.866397508912536,8.07922578596062,0.6046608866586634
1731474145.0394049,-0.1496284306049347,0.48473837971687317,-10.041500091552734,0.03224074896510524,-0.028870185110932478,-0.013339692706192076,8.866407835652263,8.079165800274527,0.604641940741148
1731474145.0892012,-0.3409866988658905,0.2217046469449997,-10.007319450378418,0.035301794365133574,-0.021973563124096276,-0.01332813211210736,8.868569068480193,8.066836645588584,0.6007400515808838
1731474145.1393504,-0.3409866988658905,0.2217046469449997,-10.007319450378418,0.03826801180668822,-0.014746577162670905,-0.013297870312477936,8.862450081904615,8.05414169931398,0.5968981296773332
1731474145.1393504,-0.19522902369499207,0.4383619427680969,-10.02239990234375,0.04112168941042371,-0.007224977825283566,-0.013250991251367856,8.862462627276784,8.054032671597454,0.5968633825717135
1731474145.1891997,-0.3174585700035095,0.26658883690834045,-9.997493743896484,0.043846115807951155,0.0005549579130907966,-0.013189819260090448,8.863937313172318,8.041683910144124,0.5929114830119617
1731474145.2401588,-0.2567730247974396,0.41878947615623474,-9.975645065307617,0.0464254385291816,0.008556232970297513,-0.013116805112472638,8.865576810330838,8.02893220338018,0.5887932775267903
1731474145.290124,-0.31867489218711853,0.322895348072052,-10.004502296447754,0.04884474642349365,0.016741130476635602,-0.01303435243457858,8.867301760734406,8.016478826553648,0.5847283066804468
1731474145.3400424,-0.31867489218711853,0.322895348072052,-10.004502296447754,0.051090370220283336,0.02507150243734145,-0.012944712338255207,8.862918199033189,8.003927597048449,0.5808039564612261
1731474145.3400424,-0.2900391221046448,0.4151308536529541,-9.99188232421875,0.053150129028089,0.033509134673614466,-0.012850028014639853,8.862925557296968,8.003828017707463,0.5807708581107004
1731474145.390102,-0.2900391221046448,0.4151308536529541,-9.99188232421875,0.05501339655319332,0.042015913025741196,-0.012752368103796343,8.863904321687983,7.99156004576985,0.576660014240583
1731474145.390102,-0.331870973110199,0.35072141885757446,-9.961592674255371,0.05667102125016947,0.05055375480824171,-0.01265364670605739,8.863913224985934,7.99145619012823,0.5766249295016984
1731474145.4399805,-0.31109046936035156,0.4003080129623413,-9.982954025268555,0.05811533889150369,0.05908478067628299,-0.012555490579225304,8.865717262563601,7.979242439876013,0.57269655200168
1731474145.4899025,-0.31109046936035156,0.4003080129623413,-9.982954025268555,0.05934026906957976,0.06757171089038275,-0.012459166142784585,8.867241404374054,7.9671879901496165,0.5685019677432784
1731474145.4899025,-0.3297779858112335,0.40445318818092346,-9.977746963500977,0.060341314575126544,0.07597809097390765,-0.012365620619568377,8.867254245926821,7.967091848676363,0.568468149968771
1731474145.5398126,-0.3312694728374481,0.4171616733074188,-9.975252151489258,0.061115523800438186,0.08426838850663301,-0.012275547208804267,8.868914707680315,7.955329716870708,0.5642790550873751
1731474145.589731,-0.3365127444267273,0.42672958970069885,-9.98169231414795,0.061661505806437096,0.09240811195441023,-0.012189402357830972,8.868838679706572,7.943572261020318,0.5602467885271554
1731474145.6397784,-0.6444383859634399,0.252627432346344,-9.986760139465332,0.06197970683510903,0.1003640809609335,-0.012107430561372767,8.870170036511698,7.932106232426508,0.5559400988700097
1731474145.6896195,-0.5891392230987549,0.3251998722553253,-9.954066276550293,0.06207336235557843,0.10810508268953421,-0.012029702150531028,8.871645448561837,7.920989455019699,0.5516370458186369
1731474145.739691,-0.7718563675880432,0.09749940782785416,-9.974160194396973,0.06194981064153953,0.11560280319070552,-0.011956086236162806,8.873287866708495,7.910067563057775,0.5472706707291739
1731474145.7895942,-0.46285444498062134,0.407083123922348,-9.982929229736328,0.06162110317343437,0.12283253210241925,-0.011886209275243843,8.871499022008244,7.8993722919074125,0.5431508367950754
1731474145.839546,0.17480438947677612,0.5993920564651489,-9.956948280334473,0.0611026485016456,0.1297728068091811,-0.011819498725029277,8.872646450508835,7.8890705432827914,0.5387298847648417
1731474145.8895202,-0.4296962022781372,0.3416212499141693,-10.036373138427734,0.06040982763442774,0.1364038747128401,-0.011755287341563336,8.873935281219467,7.879002048597356,0.5345651595537316
1731474145.9394314,-0.10667605698108673,0.5735830664634705,-9.944799423217773,0.059555421642826054,0.14270653218661244,-0.011692947761665469,8.875387108119806,7.869367781544065,0.5300812909825601
1731474145.9893925,-0.4261827766895294,0.25164923071861267,-9.998679161071777,0.058549772495589326,0.14866225129952637,-0.011631955856145586,8.876969170905557,7.86000302252982,0.5258791364687487
1731474146.0393891,-0.4261827766895294,0.25164923071861267,-9.998679161071777,0.05740213617626047,0.15425407918681205,-0.011571843625001198,8.878712986935458,7.851117610787564,0.5213424275258276
1731474146.0393891,-0.1757666915655136,0.5858380794525146,-10.030649185180664,0.05612171382593627,0.15946757027351974,-0.011512258163259726,8.8787284099131,7.8510438400599245,0.5213037877999714
1731474146.0892906,-0.36952340602874756,0.26452311873435974,-9.984543800354004,0.05471777644168958,0.16429076380176955,-0.011453133898088108,8.880579947969188,7.842709605557946,0.5168190308114625
1731474146.1392066,-0.2180897742509842,0.5275964140892029,-9.984308242797852,0.05319913143385278,0.16871351705173843,-0.011394705296681212,8.882587541560845,7.834685748809957,0.512251342142093
1731474146.1892066,-0.35027265548706055,0.3020928204059601,-9.998504638671875,0.05157389378148423,0.1727273113352234,-0.011337337273315973,8.88472627601211,7.827084317318014,0.5076537972291953
1731474146.2392662,-0.24522694945335388,0.4789474606513977,-9.97572135925293,0.04984961364494323,0.17632537811116122,-0.011281393517722942,8.887001365622185,7.819644720132343,0.5033032665292952
1731474146.2900531,-0.32880857586860657,0.3587845265865326,-9.992473602294922,0.04803339285872288,0.179502738084549,-0.011227199671197214,8.889431799339018,7.812805496430698,0.49856963682690025
1731474146.3401139,-0.28920209407806396,0.4533703923225403,-9.996732711791992,0.046131983907830576,0.18225615791757463,-0.011175036916254317,8.891946665807918,7.806256596840237,0.4941811516290118
1731474146.3900425,-0.32036682963371277,0.38436904549598694,-9.975886344909668,0.04415191540836592,0.1845840696027476,-0.011125162623458603,8.894561142456979,7.800455238578676,0.4894841566848255
1731474146.4399643,-0.3222068250179291,0.4288286566734314,-9.992498397827148,0.04209962729628043,0.18648652311179095,-0.011077812918781453,8.897303175191833,7.795076443944465,0.48472452485936335
1731474146.4898868,-0.3282969295978546,0.4256960153579712,-9.982223510742188,0.039981590597050594,0.18796514461667352,-0.011033170692773254,8.90012722893548,7.790203563568981,0.47997242525257905
1731474146.5398424,-0.3282969295978546,0.4256960153579712,-9.982223510742188,0.03780440123092912,0.18902303860373465,-0.010991352039145414,8.903054564398904,7.785489228995783,0.47552021697223107
1731474146.5398424,-0.3342430889606476,0.41899538040161133,-9.977553367614746,0.03557481966206484,0.18966468164961586,-0.010952395301889519,8.90308010171697,7.785453339567426,0.4754789949240119
1731474146.5898244,-0.3272224962711334,0.4375999867916107,-9.990431785583496,0.0332997651716528,0.1898958725679587,-0.010916244060620648,8.906050897452277,7.781255870349811,0.4710757448355059
1731474146.6398294,-0.3272224962711334,0.4375999867916107,-9.990431785583496,0.03098627938168381,0.1897236699771252,-0.010882772925976898,8.909165526818237,7.7777569135189,0.46620573233391943
1731474146.6398294,-0.348007470369339,0.42216381430625916,-9.980985641479492,0.028641480165782114,0.18915629130148714,-0.010851842578749441,8.909190788086475,7.777730822256854,0.4661666164019918
1731474146.6897447,-0.3311549723148346,0.43346843123435974,-9.981561660766602,0.02627255538457604,0.1882030607177301,-0.010823311189286951,8.91231635096783,7.774766106337291,0.4613633972548546
1731474146.7396312,-0.3635404109954834,0.40990909934043884,-9.988479614257812,0.02388678747864114,0.18687441422698214,-0.01079700446288204,8.91554841952629,7.772224313028592,0.4564652315410676
1731474146.789546,-0.32311975955963135,0.4552238881587982,-9.978585243225098,0.02149155883434403,0.18518188123082235,-0.01077270688075182,8.918816315384513,7.7701586234101825,0.45157115817129817
1731474146.8395026,-0.3543110489845276,0.4205108880996704,-9.987153053283691,0.019094302481197107,0.1831379842245152,-0.010750172750673644,8.922143042946294,7.768183221779241,0.4470203323354492
1731474146.8894835,-0.33690303564071655,0.44204410910606384,-9.983466148376465,0.016702419688427027,0.18075610643602028,-0.010729132572973584,8.925532571713076,7.767010328731746,0.4420353176906483
1731474146.939377,-0.3456494212150574,0.4204249382019043,-9.974058151245117,0.01432322350068157,0.17805041796362478,-0.010709294487570699,8.928922353614617,7.765916151684194,0.4374681201194061
1731474146.9893372,-0.32335811853408813,0.44455331563949585,-9.994388580322266,0.011963883517022213,0.17503583644027287,-0.010690337266672158,8.932379456407018,7.765627854966423,0.43243685977403273
1731474147.0392928,-0.3419918715953827,0.4153200089931488,-9.980100631713867,0.009631332203882955,0.1717279662440264,-0.010671922377143024,8.935856357297025,7.765772549757008,0.4273893426276205
1731474147.0892532,-0.33232659101486206,0.44813141226768494,-9.970808982849121,0.007332188510755629,0.16814302765900613,-0.0106537134337146,8.939358305504104,7.766341472992916,0.4223095797806037
1731474147.1392598,-0.3414287269115448,0.42118310928344727,-9.989472389221191,0.0050727402488415655,0.16429777654763641,-0.01063535106010738,8.942852775671604,7.766901849801998,0.4176611954482188
1731474147.1892078,-0.32821929454803467,0.43675288558006287,-9.983247756958008,0.002858942957748248,0.16020941642710887,-0.01061643939309344,8.946374259890334,7.768283078496803,0.4125386489692216
1731474147.239118,-0.3308393657207489,0.41653814911842346,-9.989508628845215,0.0006963891201030597,0.1558955383533968,-0.010596594639422568,8.94989986599317,7.7700576535763055,0.4073901397138609
1731474147.2890556,-0.3233639597892761,0.44228991866111755,-9.99915599822998,-0.0014097479927984412,0.15137407531122254,-0.010575505073542137,8.9533912053755,7.77175380897372,0.4027142693700693
1731474147.34003,-0.3317860960960388,0.42187803983688354,-9.981391906738281,-0.0034547607011354373,0.14666322195995415,-0.010552971795746624,8.956986004538726,7.774335334143979,0.39740169447214646
1731474147.389953,-0.3199501931667328,0.43816444277763367,-9.984302520751953,-0.005434422895350079,0.1417813310090042,-0.010528902913276204,8.960498369516634,7.77722967865729,0.39216780903384285
1731474147.4399762,-0.3348630368709564,0.410004585981369,-9.995926856994629,-0.007344986287391102,0.13674683898050985,-0.010503265128972818,8.96400154522358,7.780478544231159,0.3868974121328602
1731474147.4898822,-0.31965500116348267,0.4335654675960541,-9.987404823303223,-0.00918316668696989,0.13157823367654722,-0.010476071191062085,8.967420251829498,7.783528336008527,0.38217829774038725
1731474147.5398347,-0.33629316091537476,0.42236918210983276,-9.98745346069336,-0.010946123643330103,0.12629401163430212,-0.010447400645439215,8.97086421039768,7.7874145352160795,0.37687749522584857
1731474147.5897639,-0.32917505502700806,0.4344494938850403,-9.999245643615723,-0.012631431863024532,0.12091258473531333,-0.010417399248627782,8.974206002746515,7.791061065724783,0.3721405867589691
1731474147.6397233,-0.3516184091567993,0.42074695229530334,-9.990751266479492,-0.01423702580757276,0.11545217357957148,-0.010386283206890768,8.97758642867001,7.7955441787690285,0.36678918196642757
1731474147.6896822,-0.3454195261001587,0.43337929248809814,-9.982441902160645,-0.015761110837625242,0.10993073179893398,-0.0103543450757316,8.980929240722544,7.800307872002383,0.36141229132927816
1731474147.739603,-0.3505779504776001,0.42843934893608093,-9.977140426635742,-0.01720207688181982,0.10436588318641238,-0.010321901591386316,8.984148240518499,7.804730488733407,0.35664291280552735
1731474147.7895708,-0.3442579209804535,0.44717955589294434,-10.014467239379883,-0.018558464080755982,0.09877483434949694,-0.010289236683196055,8.987421495993747,7.810036031321311,0.35118826640019823
1731474147.839557,-0.2940550446510315,0.5944892764091492,-9.976007461547852,-0.01982902971173174,0.09317411862026381,-0.010256637115533731,8.990523688960725,7.814923371622428,0.3463891972287463
1731474147.889536,-0.20518560707569122,0.54371577501297,-9.946371078491211,-0.02101304355269657,0.08757900515035177,-0.0102243988662346,8.99367660797727,7.820655616450262,0.3409184054342286
1731474147.939503,-0.43645983934402466,0.24578015506267548,-9.995434761047363,-0.02211065290538971,0.08200317539348538,-0.010192682018179917,8.99666050036484,7.825953883953533,0.3360733990016412
1731474147.9893682,-0.2412494719028473,0.5809628963470459,-10.00178050994873,-0.0231227919331872,0.07645936352936505,-0.010161447131100976,8.999686145165558,7.8320584536647715,0.33058106859931263
1731474148.0393229,-0.4226839542388916,0.305077463388443,-9.972904205322266,-0.02405074274370452,0.07096010596069591,-0.010130606397027665,9.002672014260277,7.838385070145118,0.3250289373596579
1731474148.0892675,-0.17636924982070923,0.6643232107162476,-9.994385719299316,-0.024895973175475056,0.06551765041204799,-0.010100131678775224,9.005590648580435,7.8448685387956605,0.31946320178169113
1731474148.1391916,-0.017241640016436577,0.4965020716190338,-10.021503448486328,-0.025660670857168947,0.06014330617008698,-0.01007005882696894,9.008334448035075,7.850764415721533,0.314600475293209
1731474148.1891968,0.08745230734348297,0.6030604839324951,-10.011589050292969,-0.026349160791978632,0.054846747616608904,-0.010040584030868301,9.011011267926769,7.856788885665292,0.3097175921402111
1731474148.2391913,-0.9778934717178345,0.07814757525920868,-9.990920066833496,-0.026968562880077006,0.049636125359043576,-0.010012180475838663,9.013742680511788,7.863712599607773,0.3040618373700455
1731474148.289004,-0.13256236910820007,0.6477596163749695,-9.916261672973633,-0.027526601986051072,0.04451930352153164,-0.009985472386411455,9.01639146712326,7.870716120272776,0.29841177253606105
1731474148.3390393,-0.5607509613037109,0.18505153059959412,-10.030675888061523,-0.02802887976693606,0.03950479272600641,-0.009960915763498909,9.018979490758953,7.877847109140908,0.2927185594375991
1731474148.3899746,-0.24053697288036346,0.6703055500984192,-9.993346214294434,-0.0284787247646321,0.034601508324184196,-0.009938709416182342,9.021394914726907,7.884347876240709,0.2877116694609947
1731474148.4399455,-0.4149532914161682,0.18424800038337708,-9.922703742980957,-0.028878287054790848,0.029818218178967352,-0.009918962724609487,9.023843945602932,7.891665341857442,0.28195581397801955
1731474148.4898977,-0.32263457775115967,0.564312756061554,-10.011099815368652,-0.02922911720188727,0.025163397968120955,-0.009901675120697674,9.026055598827323,7.898150542894755,0.2770331219629402
1731474148.539939,-0.4096713662147522,0.33358514308929443,-9.978320121765137,-0.029532341054086593,0.02064529801050204,-0.009886627609754515,9.02835170544693,7.905573447478035,0.2712408130064085
1731474148.5898108,-0.33266475796699524,0.4822407364845276,-9.983787536621094,-0.02978864874593911,0.016271820127331284,-0.00987349363110571,9.03039162456044,7.912083199461934,0.2663258069359169
1731474148.6398258,-0.36633315682411194,0.4079146981239319,-10.017582893371582,-0.029998328369624877,0.01205030020110293,-0.009861985903991429,9.032535926352635,7.9195781881579,0.2604882200311553
1731474148.6896837,-0.37975364923477173,0.41329842805862427,-9.984230041503906,-0.03016139976798303,0.007987425564694003,-0.00985193576139255,9.034408755558198,7.926095341532539,0.2555628971261543
1731474148.7397082,-0.3236582279205322,0.45023560523986816,-9.957239151000977,-0.030277698982073244,0.004089239147583143,-0.009843304793555767,9.036396784631034,7.9336117948753895,0.2496872208630967
1731474148.7895982,-0.4094269871711731,0.40006208419799805,-10.010847091674805,-0.030346934066709658,0.00036114059091613853,-0.009836062614406095,9.038100957742982,7.9401023948046285,0.24474849511158894
1731474148.8395123,-0.3341081142425537,0.49790847301483154,-9.974881172180176,-0.030368717820180177,-0.003192186747614783,-0.009830110648900705,9.03971783117586,7.94656330371591,0.23980600211462602
1731474148.8895173,-0.40162166953086853,0.3858509361743927,-9.979796409606934,-0.030342551478844026,-0.006566893080520545,-0.009825330170668056,9.041470975787965,7.954046655959882,0.2338675597051036
1731474148.9394271,-0.33520281314849854,0.49349677562713623,-9.995915412902832,-0.030267841236593193,-0.009760012674488273,-0.009821592851212334,9.043147920314443,7.961508057151027,0.22790573952702614
1731474148.989394,-0.39363962411880493,0.3769837021827698,-9.9759521484375,-0.030143965103748817,-0.012769410634266662,-0.009818748614521297,9.044746212220037,7.968926730663942,0.2219311033590681
1731474149.0393794,-0.32641667127609253,0.49767252802848816,-9.984671592712402,-0.029970348653010823,-0.015593702073183996,-0.009816638605236183,9.046026094629697,7.975191941934589,0.2169591090394183
1731474149.0893095,-0.39658495783805847,0.40310895442962646,-9.991823196411133,-0.02974653786348179,-0.018232229567085576,-0.00981509053723719,9.047468467977136,7.982509493592175,0.21095056693775835
1731474149.139286,-0.31508591771125793,0.49019932746887207,-9.974615097045898,-0.029472251986350704,-0.020685098380385382,-0.009813922495295497,9.048840876576042,7.98979834757896,0.2049012301507968
1731474149.1892076,-0.3865351676940918,0.38851404190063477,-9.984769821166992,-0.02914743362193164,-0.022953173632313542,-0.009812945628709272,9.049866685355042,7.996056682098247,0.19991398263631874
1731474149.2392628,-0.3284973204135895,0.4553205966949463,-9.989445686340332,-0.02877229267060653,-0.025037962562171924,-0.009811948861502762,9.051086115121912,8.00320549062297,0.19383483597190068
1731474149.2891707,-0.36882221698760986,0.4021817743778229,-9.976908683776855,-0.028347315085772453,-0.026941448149926637,-0.009810709709598287,9.052235042507583,8.010293117963986,0.18772826547961013
1731474149.3390863,-0.339903861284256,0.46282950043678284,-9.997218132019043,-0.027873260726242258,-0.02866600786000627,-0.009809018298995493,9.053313730311869,8.017309917023427,0.18159866463878663
1731474149.3890233,-0.36403632164001465,0.4146801829338074,-9.983406066894531,-0.027351157346084926,-0.030214441602463372,-0.009806697214348296,9.054007753843475,8.023301908269064,0.17660755767803557
1731474149.4399798,-0.3282560706138611,0.4430561661720276,-9.990992546081543,-0.026782291621381044,-0.031590002703641186,-0.009803624943501309,9.054963334869433,8.030298140931283,0.17030893651789383
1731474149.489963,-0.34830936789512634,0.4099680185317993,-9.985173225402832,-0.026168237959804382,-0.03279635373330972,-0.00979973867172381,9.055838608975659,8.037116900478363,0.16407162092779784
1731474149.5398574,-0.3367198407649994,0.4484230577945709,-9.979958534240723,-0.02551090149225169,-0.033837491500899326,-0.009795010591528822,9.056283902905035,8.042907798113072,0.1591367817428618
1731474149.5898209,-0.3511849343776703,0.42940324544906616,-9.9827299118042,-0.024812507028374283,-0.03471773080798592,-0.009789410730114453,9.05702574544341,8.049550397682044,0.15285588026895694
1731474149.639785,-0.3449540138244629,0.44740235805511475,-9.993281364440918,-0.02407553380675337,-0.03544174684060947,-0.0097828854605327,9.057699306633085,8.056038262519316,0.14661457341484302
1731474149.689714,-0.348348468542099,0.4309273660182953,-9.968509674072266,-0.023302644978943538,-0.03601460041273037,-0.009775369002903881,9.057922631690177,8.061624736181038,0.14164621348221484
1731474149.7397473,-0.3465837836265564,0.4344233572483063,-9.99363899230957,-0.022496640908864392,-0.03644170525976824,-0.009766782456332886,9.058478813509794,8.067976101911151,0.13531380159757092
1731474149.7896135,-0.35121646523475647,0.43669408559799194,-9.989757537841797,-0.02166042859727549,-0.036728761171114996,-0.009757031186122145,9.058555187991558,8.073545802379908,0.13036210444448604
1731474149.839714,-0.3436480164527893,0.4485608637332916,-9.986307144165039,-0.020796992966805723,-0.036881713710569176,-0.00974604804676827,9.058559438124874,5.591667407283656,0.12538353906048683
1731474149.8895714,-0.3596985638141632,0.44395580887794495,-9.989258766174316,-0.019909368235091734,-0.03690676939747738,-0.009733828293222023,9.05894303056666,5.906539521544959,0.11899064584738296
1731474149.9394937,-0.3440133035182953,0.440993994474411,-9.989282608032227,-0.019000602650796335,-0.036810411190198705,-0.009720421742489658,9.059275106436738,6.218653109271086,0.11262777247754012
1731474149.9894161,-0.3629949986934662,0.4327376186847687,-9.978323936462402,-0.01807372060892034,-0.03659935197173052,-0.009705915054575902,9.059561963913469,6.531351897681396,0.10622704329143183
1731474150.0394707,-0.35161831974983215,0.4358040392398834,-9.977865219116211,-0.017131689136975412,-0.036280439449944836,-0.009690393791021103,9.059311529204004,5.96389781413845,0.10124966109493426
1731474150.0892787,-0.3588835597038269,0.44195646047592163,-9.983288764953613,-0.01617738694528266,-0.035860577410181976,-0.009673889242861,9.059506238086083,6.124013282787073,0.09479280873083584
1731474150.1392915,-0.3525645434856415,0.4376795291900635,-9.988021850585938,-0.015213590522967712,-0.0353467008461188,-0.009656368988933135,9.059661541328332,6.283716206116919,0.08832500200258263
1731474150.1892414,-0.3610277473926544,0.4366692900657654,-9.989734649658203,-0.014242975097753125,-0.034745769809941374,-0.009637784074838063,9.059236615887007,6.342934416557764,0.08340051088536685
1731474150.239233,-0.35390523076057434,0.44004589319229126,-9.980785369873047,-0.013268109603759232,-0.03406474180383473,-0.009618115709289736,9.059314056196126,6.482056314393854,0.07681802634194228
1731474150.2891834,-0.34808841347694397,0.4356316924095154,-9.990507125854492,-0.012291459486566507,-0.03331053714348682,-0.009597379527446784,9.059358657774741,6.619338507982378,0.07029466584258211
1731474150.3391497,-0.3495331108570099,0.4318283796310425,-9.987534523010254,-0.011315420809749888,-0.032490005601518185,-0.009575615540600064,9.058778430786463,6.841101599996311,0.06541044962296977
1731474150.3889644,-0.34229859709739685,0.43807172775268555,-9.979005813598633,-0.01034236602590396,-0.03160988384029742,-0.009552888310094949,9.058758690521438,7.016001595878501,0.058849034690641316
1731474150.4399717,-0.35194361209869385,0.43843650817871094,-9.987793922424316,-0.009374667866931698,-0.030676767651150103,-0.009529271452528904,9.05808017872545,7.3654973894061735,0.05380140246810134
1731474150.4899325,-0.3497510850429535,0.43838438391685486,-9.9824857711792,-0.008414687641920987,-0.02969711487586387,-0.00950482512225363,9.057352032538047,7.833825754672084,0.04891619626742935
1731474150.5399475,-0.3440338671207428,0.4448617100715637,-9.980924606323242,-0.007464743339967628,-0.02867725579500731,-0.009479591729108491,9.057247302249205,8.138172226136605,0.04226442628061675
1731474150.5898569,-0.3435697555541992,0.4436219334602356,-9.993441581726074,-0.006527100489824222,-0.02762340256100156,-0.009453599873854,9.057125450806666,8.441530933973887,0.03560911882053131
1731474150.6397717,-0.3434273302555084,0.4445556402206421,-9.981748580932617,-0.005603990752313166,-0.02654165813853395,-0.009426881790534185,9.056279237299812,8.284218038893512,0.030756246568792316
1731474150.6896904,-0.34205594658851624,0.4357181191444397,-9.985618591308594,-0.004697621529710652,-0.02543800257852712,-0.009399491763941885,9.056120423626478,8.457552362087668,0.024079538935133683
1731474150.7397027,-0.3368449807167053,0.4365089237689972,-9.985532760620117,-0.0038101733058735713,-0.024318243071432842,-0.009371497295361044,9.05519830033938,8.756010745009549,0.01920000594702868
1731474150.7896504,-0.3370206654071808,0.44003918766975403,-9.988101959228516,-0.0029438058805545952,-0.02318795577290604,-0.009342969122201311,9.055009101765632,8.984401145948647,0.012431094562288301
1731474150.839731,-0.34878137707710266,0.4350849390029907,-9.995030403137207,-0.0021006574059857465,-0.02205245710481864,-0.009313998989657672,9.054020861899645,9.246036583237307,0.007625387930862438
1731474150.8894904,-0.34958556294441223,0.43955448269844055,-9.992443084716797,-0.0012827963238298211,-0.020916798094512093,-0.00928473562513822,9.053812917062105,9.492013268793654,0.0008885472710651297
1731474150.9395454,-0.33814793825149536,0.4347154200077057,-9.992836952209473,-0.0004921518695318766,-0.019785758109340926,-0.009255412458210734,9.053600547905928,9.740548165250503,-0.005942982537352262
1731474150.9894862,-0.3534073531627655,0.43426117300987244,-9.98823356628418,0.0002695121268514603,-0.01866383323830404,-0.009226342957519654,9.053388377644211,9.988473716555944,-0.012782288362646669
1731474151.0393903,-0.35689619183540344,0.43784937262535095,-9.982269287109375,0.001000609319992942,-0.01755522257085011,-0.009197882122637183,9.05229670163678,9.656076173618725,-0.017519042884629337
1731474151.089344,-0.34376397728919983,0.4424741268157959,-9.984296798706055,0.0016997731549141942,-0.01646383162672271,-0.009170370602230993,9.052078753595682,9.799780415340152,-0.024382684826827213
1731474151.1394033,-0.34501925110816956,0.4349685609340668,-9.980411529541016,0.002365866041390294,-0.015393298316557651,-0.00914408802870905,9.050934502476427,9.548383015635547,-0.02912812880320182
1731474151.1892505,-0.35001081228256226,0.4367660880088806,-9.98748779296875,0.0029979326461928336,-0.014347004614897912,-0.009119236280292016,9.050717140016795,9.58387717863934,-0.036016539087708126
1731474151.2393665,-0.35077399015426636,0.4410512447357178,-9.983784675598145,0.0035951759738391364,-0.013328064883188318,-0.009095951417009213,9.050507373189989,9.619444019914111,-0.042948573240334784
1731474151.2891529,-0.3346041738986969,0.4414082169532776,-9.978825569152832,0.004156962619622997,-0.012339329897033707,-0.009074319659759422,9.049303975403328,9.48063155118392,-0.04762105966541012
1731474151.339152,-0.3532467186450958,0.44168803095817566,-9.982125282287598,0.0046828001037673254,-0.01138341312397227,-0.00905437035839127,9.049103227607688,9.487110403619704,-0.05457180755442761
1731474151.38902,-0.3444956839084625,0.44681721925735474,-9.989038467407227,0.005172314109443292,-0.010462714106989564,-0.009036067939172629,9.047857401976904,9.452239476633475,-0.05921213633117829
1731474151.4390323,-0.3412024676799774,0.45108357071876526,-9.988518714904785,0.005625257942754802,-0.009579443350897263,-0.009019342488303002,9.047668317174638,9.452113075016655,-0.06625345577274125
1731474151.4888942,-0.35135704278945923,0.44728460907936096,-9.988907814025879,0.006041513602143871,-0.008735655894211774,-0.009004138274690678,9.046383302501457,9.439520382339078,-0.0708643835009968
1731474151.5399947,-0.3428148031234741,0.43845781683921814,-9.985496520996094,0.006421085502548399,-0.007933259120545702,-0.0089904349512768,9.046209603111693,9.437525941117855,-0.07802121269241788
1731474151.589838,-0.35130253434181213,0.43799132108688354,-9.989453315734863,0.006764109793676318,-0.007173966689407731,-0.008978239500889678,9.046056443577482,9.435558808920804,-0.08503460579484745
1731474151.6397727,-0.34227749705314636,0.4340595602989197,-9.994230270385742,0.007070859025966464,-0.006459230241871863,-0.008967582362287866,9.044724710413796,9.432412068893537,-0.08962639069720343
1731474151.6898038,-0.345090389251709,0.4354267120361328,-9.992863655090332,0.0073417292082916825,-0.005790195201124953,-0.008958538125073013,9.044592091012257,9.430904237702066,-0.09672315551243743
1731474151.7628806,-0.345090389251709,0.4354267120361328,-9.992863655090332,0.007577217626178045,-0.005167690320587584,-0.008951249123663048,9.043171178516676,9.425232835576448,-0.10450176299773403
1731474151.7628806,-0.3515869379043579,0.4293767511844635,-9.992466926574707,0.007777914915373521,-0.00459223477903397,-0.008945925531253378,9.043170281400378,9.425212892629617,-0.10455992789058478
1731474151.7896523,-0.3438718020915985,0.40278133749961853,-9.977875709533691,0.007944519583907564,-0.004064015335264086,-0.008942816310816358,9.043115202828083,9.42392464413353,-0.10831615084872419
1731474151.839626,-0.3230764865875244,0.15276339650154114,-9.979936599731445,0.008077821829570526,-0.0035825628391798767,-0.008942145118094482,9.041709153956552,9.42115232871537,-0.11286273543721984
1731474151.8895721,-0.22208143770694733,0.187400683760643,-10.070066452026367,0.008178513852600702,-0.003145804352838994,-0.008944118309489659,9.041626405205482,9.41862450008665,-0.11995412851341145
1731474151.939552,-0.3626958727836609,-0.3957504630088806,-10.0033597946167,0.008246843245661006,-0.002748463080602139,-0.008949145787715038,9.041563491390423,9.41607050822278,-0.12712061396112348
1731474151.989412,-0.49128592014312744,-0.6028002500534058,-10.101073265075684,0.008282689989777534,-0.002379572752432426,-0.008958131582245461,9.040112385474032,9.4156169517596,-0.1315129619978443
1731474152.039409,-0.33004650473594666,0.15001556277275085,-9.991525650024414,0.008286335674973652,-0.0020201494160979327,-0.008972604523427252,9.038631912829192,9.411233935815826,-0.1359364935312084
1731474152.0893848,-0.42409035563468933,-0.23452405631542206,-9.928579330444336,0.008259030840805757,-0.0016438148347940988,-0.008994519403574234,9.038599773861,9.408565890962414,-0.14315522408855225
1731474152.139399,-0.3635537326335907,0.16380023956298828,-9.96257495880127,0.00820285436276788,-0.001220017786553517,-0.009025669093281641,9.038588264161648,9.405882204996862,-0.1504292395436447
1731474152.1892323,-0.3265819549560547,0.03705446049571037,-9.926668167114258,0.008120372681325011,-0.0007168346884473202,-0.009067126140904883,9.038597167617487,9.403228469479027,-0.15763801630373386
1731474152.2392316,-0.34383344650268555,0.2610261142253876,-9.951214790344238,0.008014300749563028,-0.00010280572585217107,-0.0091190838625334,9.03862632250149,9.400550908245828,-0.1649314806360094
1731474152.2891235,-0.35642221570014954,0.23940710723400116,-9.95168685913086,0.00788720281887287,0.0006514919101833813,-0.009180940973788115,9.037065156954625,9.40511305464552,-0.1691676577782536
1731474152.3392637,-0.3735845685005188,0.305618554353714,-9.976515769958496,0.0077414646410107375,0.0015722112951652549,-0.009251480390351272,9.037117037895916,9.403632609708431,-0.17653173318462928
1731474152.389072,-0.3662432134151459,0.2762035131454468,-9.98367977142334,0.007579456254761572,0.0026815172852058334,-0.009329125348118292,9.0355032213477,9.398825534678728,-0.18069760638819352
1731474152.4390504,-0.3853393793106079,0.2848801612854004,-9.992253303527832,0.007403661467501143,0.003997413078942611,-0.009412198796380666,9.035575130270818,9.396135593786717,-0.1880513566058164
1731474152.4890246,-0.3745778203010559,0.2969180941581726,-9.987142562866211,0.0072167334351928205,0.00553391066382816,-0.009499109071489466,9.033907172587751,9.39376007695188,-0.19221425702170966
1731474152.539969,-0.36941108107566833,0.32635197043418884,-10.017279624938965,0.007021494669580266,0.007301244231692251,-0.00958845577402808,9.03399900915851,9.391089520189393,-0.19974024857314449
1731474152.5898287,-0.3613957464694977,0.32036691904067993,-9.987659454345703,0.0068208630489030725,0.009305988023464126,-0.009679106483715293,9.034106092242055,9.38850232818435,-0.2071142410144223
1731474152.6398501,-0.3558109700679779,0.3377763330936432,-10.017905235290527,0.006617724806375002,0.011551159673499546,-0.009770240375210529,1.3558829264837926,9.388614921797306,-0.21127337837426327
1731474152.6896672,0.11172740161418915,0.9410831928253174,-9.988750457763672,0.006414397090784101,0.014035860739231402,-0.009861335941479334,1.3521224306918123,9.386855989291725,-0.21860994542619225
1731474152.7397246,0.6022413969039917,1.6053311824798584,-9.950591087341309,0.006210504487970711,0.0167528413723022,-0.009952075314597984,1.3403852179446347,9.38225051096973,-0.22269309913974059
1731474152.7897217,0.45707929134368896,1.1785728931427002,-9.883322715759277,0.0059992144212454865,0.019684062211069425,-0.010042043520775663,1.3363417206811938,9.379457194527625,-0.23015826848933285
1731474152.8396256,0.18722468614578247,0.8254978060722351,-10.014012336730957,0.005764739820655555,0.022798466328860994,-0.010130339722482989,1.3322947419257258,9.376704696173514,-0.23768255658846552
1731474152.889567,-0.2138817459344864,0.33085402846336365,-10.020838737487793,0.005483833493734398,0.026055260497317857,-0.010215611283879598,1.3283058739485334,9.37404279412873,-0.24514997263255595
1731474152.939633,-0.84199458360672,-0.42900434136390686,-10.077438354492188,0.005130772744669263,0.029411055521380042,-0.010296643022725779,1.3321798387292043,9.376756104081839,-0.24910928408260058
1731474152.9894435,-1.1347620487213135,-0.6553553342819214,-10.159132957458496,0.0046838765760372,0.032827933038848234,-0.010373075315080171,1.330050279945289,9.375200968352722,-0.25659072550538536
1731474153.0395005,-0.5375619530677795,0.026560742408037186,-10.053828239440918,0.004130803540715933,0.03627938439017345,-0.01044592654486622,1.3233293355653262,9.37038126646331,-0.2605639299345055
1731474153.0893981,-0.6419805884361267,-0.14039817452430725,-10.018117904663086,0.0034695005343842195,0.039750929327284204,-0.01051761251214383,1.3194683233551294,9.367663917530786,-0.26815258545193676
1731474153.13939,-0.6419805884361267,-0.14039817452430725,-10.018117904663086,0.0027055145948046977,0.043236828544982356,-0.010591353571515362,1.3156232726971502,9.365055763048668,-0.27575128616656247
1731474153.13939,-0.48468977212905884,0.17504572868347168,-9.904268264770508,0.0018493838152566287,0.04673714031017704,-0.010670411594865878,1.3155901444587366,9.365033740162117,-0.27581692750822284
1731474153.1893013,-0.5061772465705872,0.20886747539043427,-9.975037574768066,0.0009151123893143755,0.05025560629348945,-0.010757471330474718,1.3117887921423692,9.362567699424817,-0.28336452519143407
1731474153.2392278,-0.504601240158081,0.35937514901161194,-9.961531639099121,-8.114352260134072e-05,0.05379717986874263,-0.01085428567937725,1.307941278899462,9.360200299873997,-0.29103265800346517
1731474153.2890863,-0.5235366225242615,0.4285810589790344,-9.942535400390625,-0.0011219853452111898,0.057365799003031875,-0.010961695203517564,1.3178712177410348,9.36428684816198,-0.2947445219295335
1731474153.3391986,-0.5182399153709412,0.41647854447364807,-9.95583724975586,-0.0021891396688869715,0.060962970979943756,-0.011079771290745628,1.3162482355702723,9.363029155523007,-0.3024693168629865
1731474153.3890479,-0.5484158992767334,0.4480695128440857,-9.937871932983398,-0.003263657958097162,0.06458712458110613,-0.011207868159234084,1.3099284764970172,9.356768005592324,-0.3061592924055004
1731474153.4390175,-0.5478430390357971,0.4370619058609009,-9.939542770385742,-0.004326082932391106,0.06823360517793077,-0.011344659854702361,1.3064389179234852,9.353876497697202,-0.31392928539440396
1731474153.4889638,-0.5263280868530273,0.4694240391254425,-9.992203712463379,-0.0053566142009215285,0.07189495421946701,-0.011488239516491422,1.3033030317535272,9.349508640435232,-0.31755494595444267
1731474153.5389593,-0.5467596054077148,0.46723413467407227,-9.985711097717285,-0.006335362609817459,0.07556120539372574,-0.011636364283849985,1.299903615632174,9.346406354246078,-0.3253317140352247
1731474153.5898702,-0.551529049873352,0.4757702946662903,-9.996859550476074,-0.007242634346830037,0.07922016668333326,-0.011786789049378724,1.2966496414132407,9.342611608027028,-0.3290989694711197
1731474153.6398945,-0.5152885317802429,0.4587487578392029,-9.976001739501953,-0.00805915206272064,0.08285774701330022,-0.011937467621642387,1.2936149590209713,9.339959568580708,-0.3369158928541758
1731474153.6898081,-0.5710768699645996,0.47691261768341064,-10.003650665283203,-0.008766267198220403,0.08645835262457693,-0.012086579074130546,1.2899956045113123,9.334507595154236,-0.34044286078274466
1731474153.7397523,-0.525538980960846,0.48766395449638367,-9.994609832763672,-0.009346144952116608,0.09000526175914322,-0.012232527529964846,1.2841916587004503,9.32739759150723,-0.34395799227636614
1731474153.789613,-0.5084438323974609,0.5185731053352356,-9.965476989746094,-0.009781927541354405,0.09348086787571344,-0.012373952629037593,1.2803173458995851,9.323346336915685,-0.3517683480088187
1731474153.8396065,-0.5292466878890991,0.4623800218105316,-9.98769760131836,-0.010057988856209038,0.09686685034502313,-0.012509658123720409,1.2763805036830285,9.319492660354017,-0.35968593220807576
1731474153.88953,-0.48913973569869995,0.46731847524642944,-9.979022026062012,-0.010160193681773814,0.10014448440539506,-0.012638510286173039,1.272428016778401,9.315894039139932,-0.367615633253789
1731474153.9395475,-0.4685397744178772,0.5056860446929932,-9.99309253692627,-0.010076096210970527,0.10329507559640798,-0.012759432767800656,1.2768252886205722,9.316652866183583,-0.3710167628878271
1731474153.9894257,-0.45702219009399414,0.4998912811279297,-9.956080436706543,-0.009795186268221841,0.1063002256743639,-0.012871438084336786,1.2719494945310306,9.307735417004048,-0.374348405989123
1731474154.0394197,-0.4022035002708435,0.5028836131095886,-9.970311164855957,-0.009309169678362242,0.10914189665023144,-0.012973574135064957,1.2688508165829633,9.30347600890559,-0.382351610001102
1731474154.089314,-0.42270535230636597,0.48164358735084534,-9.983999252319336,-0.008612210680260116,0.11180252682965693,-0.013064841371922938,1.265736753863749,9.299501538451334,-0.3903693091809523
1731474154.1392968,-0.38456615805625916,0.5007065534591675,-9.960416793823242,-0.007701079492099612,0.11426526853600098,-0.013144201485314266,1.2625944290520559,9.29579954058382,-0.3984400418417005
1731474154.1892097,-0.3837924003601074,0.4896668791770935,-10.00211238861084,-0.006575169468801752,0.1165142147743778,-0.013210646066301651,1.2594487945914752,9.29240132900287,-0.40650645165540117
1731474154.2391903,-0.3806689977645874,0.47306615114212036,-10.001392364501953,-0.0052364354350032186,0.11853456761613945,-0.013263294945621139,1.256273560047181,9.289280562739794,-0.41464401254224226
1731474154.2891269,-0.5227342247962952,0.9770021438598633,-9.972333908081055,-0.003689131837410084,0.12031237104202913,-0.013301518367324149,1.265208664921614,9.289317344748476,-0.4177950003159959
1731474154.3391964,-0.6536251306533813,1.1910713911056519,-9.957026481628418,-0.0019389824739968321,0.12183277727322783,-0.013324921164377475,1.2637079931319828,9.286560777648974,-0.4259786889362567
1731474154.389024,-0.5680765509605408,0.5152410864830017,-9.884139060974121,8.115487124597115e-06,0.12307768102691549,-0.013333078055641375,1.2622097136499506,9.284118092365386,-0.434169399961159
1731474154.438984,-0.8518714904785156,1.0223649740219116,-10.114818572998047,0.0021472073597326,0.12402559833931845,-0.013325309848573549,1.2596796262078285,9.27233701209728,-0.43720511733385503
1731474154.4890203,-0.5428992509841919,0.5303182005882263,-9.948053359985352,0.004474934787381557,0.12465363924785557,-0.013300944694396424,1.2579587612285914,9.268368512446484,-0.4455234940394422
1731474154.4890203,-0.5428992509841919,0.5303182005882263,-9.948053359985352,0.006989420872798947,0.12493944708135872,-0.013259703680941483,1.2574291711760597,9.267205280531888,-0.4481028576181322
1731474154.8706543,-0.253031849861145,0.3442539572715759,-9.981415748596191,0.009688940500466458,0.12486318887062434,-0.013201549664661024,1.2272528640110116,9.17017639250665,-0.49338995529069624
1731474154.9205117,-0.23775433003902435,1.9156547784805298,-9.855184555053711,0.012569860604731259,0.12440819563669732,-0.013126276211324096,1.2321959673458391,9.177594198999417,-0.49615347565264295
1731474154.9705315,-0.4001409411430359,0.5899046659469604,-9.77047061920166,0.015625076706622658,0.12355790171799871,-0.013033047042072777,1.230149243574216,9.170949921801446,-0.5045500717581073
1731474155.020408,-0.1947299689054489,1.112312912940979,-10.022409439086914,0.018843754169244335,0.12229276562457198,-0.01291987468694258,1.2305858569381742,9.160514390489434,-0.5072598112770186
1731474155.0704117,-0.1947299689054489,1.112312912940979,-10.022409439086914,0.022211704771987306,0.12059100711966834,-0.012783857275373036,1.2283660882240224,9.150564909080245,-0.5157024895557321
1731474155.0704117,-0.21322882175445557,0.8714746236801147,-10.088143348693848,0.025711410393921053,0.11843024258822546,-0.012622366873498811,1.2283469357259291,9.150479288811972,-0.5157763852885925
1731474155.1203022,-0.2239534556865692,0.9041865468025208,-9.905142784118652,0.029322096472665923,0.11578829662336265,-0.012433958222696275,1.226164123425765,9.14070196790036,-0.5243571915097026
1731474155.1704328,-1.3943976163864136,-0.5810168385505676,-10.084527969360352,0.03302136592272042,0.11264580403157748,-0.012218309786370455,1.2240878576084484,9.131339548298813,-0.5328508413269489
1731474155.2202253,-0.5982986688613892,0.3721615672111511,-10.063822746276855,0.03678922727181132,0.10899152687654792,-0.0119759522595866,1.2220146290270033,9.12186913757419,-0.5417352756585677
1731474155.2702136,-0.46314603090286255,0.03619835898280144,-10.011496543884277,0.04061126108500997,0.10482659268244296,-0.011708399118452702,1.2281176716283457,9.142857490027785,-0.543828290612731
1731474155.320184,-0.5183843374252319,0.10595713555812836,-10.015792846679688,0.04447735286105677,0.10016428041959453,-0.011418182423659747,1.2272728386959453,9.138184278644122,-0.5528266903857352
1731474155.3702235,-0.11161405593156815,0.15249505639076233,-10.028287887573242,0.04837837745737296,0.09502780366847896,-0.01110851657563716,1.2248709968536844,9.121416352733068,-0.5547891692671076
1731474155.4200754,-0.11161405593156815,0.15249505639076233,-10.028287887573242,0.05230371837452091,0.0894486825576036,-0.010783033181819284,1.223742986759139,9.113944183587288,-0.5634432005124688
1731474155.4200754,0.01588253118097782,0.03391246125102043,-10.020575523376465,0.05623932147918381,0.08346534857243273,-0.010445716573762951,1.2236971878251317,9.113626355833704,-0.5638176776247157
1731474155.469965,-0.25383296608924866,0.3448643088340759,-9.974748611450195,0.060166695406510796,0.07712187024676412,-0.010100793673737622,1.2227525874335499,9.106667417983605,-0.5721376421383338
1731474155.5198517,-0.10165785253047943,0.2227284014225006,-9.922452926635742,0.06406353605925624,0.07046645570702753,-0.009752413330402422,1.2219180433626502,9.099585664761635,-0.5808427488001436
1731474155.5699394,-0.1839110553264618,0.4192267656326294,-9.99095344543457,0.06790505921656989,0.0635495307502035,-0.009404213662597099,1.220708403831273,9.091814848285535,-0.5829746301411255
1731474155.6198208,-0.19280876219272614,0.3612631559371948,-9.950533866882324,0.07166499191051927,0.05642203646319261,-0.009059116486185074,1.2197585682273904,9.083558045590923,-0.5920239602083178
1731474155.6698928,-0.00384950777515769,0.6912849545478821,-9.922014236450195,0.07531611123961063,0.04913397047304456,-0.008719372763186862,1.2179205485461784,9.075953660403991,-0.5937281374521594
1731474155.7207956,0.744889497756958,1.6483407020568848,-9.939879417419434,0.07882958451590756,0.04173179168078891,-0.008386533504712003,1.2138478679517626,9.068010106641763,-0.5959051289096863
1731474155.770732,0.3141680657863617,1.1341841220855713,-10.00156307220459,0.08217237594713073,0.03425384048340729,-0.008061419876133798,1.2118273266270239,9.060437243835022,-0.6045866715832724
1731474155.8206358,-0.22723086178302765,1.8611536026000977,-9.893811225891113,0.08530566241582926,0.02672615606649347,-0.007744306301595655,1.209967916669581,9.05274697723601,-0.6135117098116274
1731474155.8706558,-0.4820658564567566,1.1263463497161865,-9.909140586853027,0.08818789413222025,0.019161243823344304,-0.007434997459937011,1.2083773201074177,9.045341627290586,-0.6221905375407807
1731474155.9206085,-0.49431735277175903,1.4234706163406372,-9.892594337463379,0.09078053745838846,0.011559546519500027,-0.007132598772915069,1.2107863813913673,9.037875127193908,-0.6238686740127904
1731474155.970523,-0.07631285488605499,0.5004467964172363,-10.070384979248047,0.09305159230642103,0.003912968505905421,-0.00683548455688716,1.2086796466031777,9.030435560768888,-0.6254970255456809
1731474156.0204434,-0.24069371819496155,-0.35270124673843384,-10.206377029418945,0.09497525961526633,-0.0037891271116031622,-0.006542059893754179,1.2077230818046316,9.022973957284334,-0.6343068326835672
1731474156.0704284,-0.6625279188156128,-0.9579870700836182,-10.202309608459473,0.09653047959251537,-0.011551083135209892,-0.006252175243424121,1.207007204225317,9.015508451877322,-0.6431146294883507
1731474156.1203353,-0.7205891013145447,-0.26662561297416687,-10.021163940429688,0.09770162515615938,-0.019362498516705302,-0.005968091316751372,1.2065331250998155,9.00800247469381,-0.6519399592894609
1731474156.170457,-0.539745032787323,-0.3440362215042114,-10.02015209197998,0.09848061143967772,-0.027195702899685606,-0.005694061955694331,1.206237594963702,9.000362738334163,-0.6533817250230689
1731474156.220292,-0.539745032787323,-0.3440362215042114,-10.02015209197998,0.09886739601250151,-0.03500908931024929,-0.005435106140278486,1.2060034783190678,8.99276663836899,-0.6621545434578046
1731474156.220292,-0.7099660634994507,-0.18074804544448853,-9.97559928894043,0.09886875033558748,-0.04275129909054726,-0.00519612598219723,1.2060025652689015,8.992704026141482,-0.6622264982402726
1731474156.270222,-0.4648881256580353,-0.01231425255537033,-9.95477294921875,0.09849716427494831,-0.05036433322672215,-0.004981511505336515,1.2043180202168227,8.98500800531129,-0.6633892283979068
1731474156.320121,-0.6345815658569336,0.11943099647760391,-9.89240837097168,0.09777007825859663,-0.057786762019235285,-0.004794781835842822,1.2037862103291854,8.977044341297146,-0.6723011413751101
1731474156.370157,-0.4727819561958313,0.4156271815299988,-9.890789985656738,0.09670889482420834,-0.06495722890485028,-0.0046381628343274885,1.2030076235696168,8.969065719765752,-0.6733267936573356
1731474156.419992,-0.4727819561958313,0.4156271815299988,-9.890789985656738,0.09533793449411533,-0.07181775448987697,-0.004512283737699934,1.2026347606978758,8.960880477225112,-0.6821205913155374
1731474156.419992,-0.4746846556663513,0.4383656084537506,-9.960733413696289,0.09368341832239988,-0.07831625273372628,-0.00441620647434617,1.202633161881579,8.960828385200205,-0.6821759855728803
1731474156.4700122,-0.4082532823085785,0.4868992269039154,-9.922954559326172,0.09177256923978544,-0.08440769634691911,-0.004347813981589288,1.2024935593433899,8.952414785762143,-0.6910156315749034
1731474156.5199811,-0.4082532823085785,0.4868992269039154,-9.922954559326172,0.08963293315764237,-0.0900543070955304,-0.004304239107209812,1.2021011329342433,8.943811503432029,-0.6918653005686769
1731474156.5199811,-0.42095184326171875,0.46034306287765503,-9.94420051574707,0.08729182017915697,-0.09522541412974542,-0.00428206594206176,1.2021002952862623,8.943722554408454,-0.6919550832736114
1731474156.5699735,-0.3570947051048279,0.568742036819458,-9.979055404663086,0.08477591136338528,-0.09989714957145887,-0.0042774769470455025,1.202123781204536,8.934933386162166,-0.7007070316641306
1731474156.6198468,-0.35170891880989075,0.5658196806907654,-10.006991386413574,0.08211094283333187,-0.10405221935348263,-0.004286580861994854,1.2014287621929813,8.925808367277954,-0.7014467100353747
1731474156.6698449,-0.35522300004959106,0.5524300336837769,-9.985919952392578,0.07932134707890619,-0.10767982551672657,-0.004305808688653252,1.2014386533661279,8.916356424849697,-0.7103297135305631
1731474156.7197773,-0.3219449818134308,0.549161434173584,-9.999293327331543,0.07643000235429503,-0.11077536785202595,-0.004332133248685579,1.2016411940104044,8.906775832024692,-0.7190902382113272
1731474156.7707493,-0.28970977663993835,0.5290778875350952,-9.999696731567383,0.07345808504772494,-0.11333981187357468,-0.004363085886670162,1.2020416587628844,8.896631930881966,-0.7281142528749457
1731474156.8206139,-0.3143123984336853,0.5126650929450989,-10.002466201782227,0.07042489485730438,-0.11537895184138665,-0.004396724095678445,1.2008849929139789,8.88621198971966,-0.7286846351076448
1731474156.870688,-0.2599155902862549,0.5240530371665955,-9.9974946975708,0.06734773351711236,-0.11690270547316184,-0.004431610145157508,1.2010626794271004,8.875823618199338,-0.737406757057638
1731474156.9205627,-0.2969132363796234,0.4891177713871002,-9.995007514953613,0.06424189196598701,-0.11792449380674563,-0.004466759143435833,1.2001749366141483,8.864939972005741,-0.7377257475357148
1731474156.9705002,-0.2292598932981491,0.49995648860931396,-10.004132270812988,0.06112066911781721,-0.11846069446147575,-0.004501564523270186,1.199901513932088,8.85390804044101,-0.7378841826596575
1731474157.0204966,-0.2579132318496704,0.4924958348274231,-10.007848739624023,0.05799537469048103,-0.118530140811119,-0.004535755152194178,1.1999916092955527,8.842337849406753,-0.7468163346975988
1731474157.0704823,-0.24598565697669983,0.4703907370567322,-10.037233352661133,0.05487535218377057,-0.11815368926781386,-0.004569423233220763,1.2002195087348604,8.830747170817746,-0.7555491355842379
1731474157.1203732,-0.2604096531867981,0.4892358183860779,-9.96359920501709,0.05176811972632073,-0.1173538301975342,-0.00460305802373619,1.200580167732557,8.818806266983412,-0.7643381699324847
1731474157.1703653,-0.2412901222705841,0.49372807145118713,-10.008519172668457,0.04867960506248775,-0.11615436159399428,-0.004637434992016465,1.1998626378881816,8.806450611911178,-0.7642760721540077
1731474157.2202988,-0.25269076228141785,0.49582356214523315,-9.967084884643555,0.04561435013305938,-0.11458018611997961,-0.004673398338647196,1.200097596003653,8.793800976000146,-0.7641507657010468
1731474157.2702527,-0.29472479224205017,0.49913355708122253,-9.967273712158203,0.04257571312919067,-0.11265716546103764,-0.004711694084143417,1.2004385299965137,8.780940977717034,-0.7729491415301527
1731474157.3201697,-0.2970694601535797,0.489962100982666,-10.00029182434082,0.039566194056166355,-0.1104119404701035,-0.00475287623216312,1.2008816819414483,8.767810382175089,-0.7817541651786182
1731474157.370167,-0.34497785568237305,0.48454904556274414,-9.985206604003906,0.03658786251628393,-0.10787170174575705,-0.004797324428818667,1.2014230642194632,8.75433102653823,-0.7906210657875206
1731474157.4200604,-0.34497785568237305,0.48454904556274414,-9.985206604003906,0.03364276853610358,-0.10506392996171512,-0.004845350450794778,1.2005484617916964,8.740665597807268,-0.7901178884875149
1731474157.4200604,-0.33604687452316284,0.4833928644657135,-9.957088470458984,0.030733240048373616,-0.10201615472904815,-0.00489721417167774,1.2005585331570539,8.74012766296115,-0.7904608704849084
1731474157.4700716,-0.3997398614883423,0.48361581563949585,-10.031452178955078,0.027862033058323608,-0.09875576533389688,-0.004953066495869735,1.2008410727856424,8.726714462740832,-0.7989431317346246
1731474157.5199513,-0.34380197525024414,0.5006750226020813,-9.992836952209473,0.0250324258478901,-0.09530987560244127,-0.00501302832835651,1.2009576089708427,8.712130121362208,-0.798568316189536
1731474157.570007,-0.40116724371910095,0.47793707251548767,-9.987176895141602,0.02224827828822449,-0.09170523231891667,-0.005077346359022432,1.2012771703825866,8.698036865737322,-0.8071786766007737
1731474157.6199002,-0.3695700168609619,0.49243950843811035,-9.979872703552246,0.019514007544136753,-0.08796811375885823,-0.005146374473806779,1.2023967893018184,8.68311936948763,-0.8065841727435411
1731474157.6698487,-0.41193339228630066,0.5345649719238281,-9.984530448913574,0.016834550241952267,-0.08412424171271472,-0.005220424942077986,1.2030476193524944,8.668498593173886,-0.8152449003562815
1731474157.7197323,-0.39578092098236084,0.5249258279800415,-9.9964017868042,0.014215353760554047,-0.08019882573973564,-0.005299699928867982,1.2035748714118633,8.65337719300874,-0.8143841338921597
1731474157.7697887,-0.4148857295513153,0.5152393579483032,-10.009360313415527,0.011662360766682664,-0.07621665431655028,-0.005384349610727646,1.204160367424432,8.638096959800995,-0.8231906230347177
1731474157.8206913,-0.38384121656417847,0.5252273082733154,-9.947656631469727,0.009181937743853633,-0.07220203483142966,-0.005474539181705369,1.2054213760208734,8.621714616173122,-0.8226882649261368
1731474157.8705866,-0.37471675872802734,0.512197732925415,-9.963825225830078,0.006780690126132543,-0.06817862334334715,-0.005570349522621274,1.2062088026287021,8.606680327135011,-0.8311423451329562
1731474157.9205194,-0.39332878589630127,0.548274040222168,-9.980907440185547,0.004465205024988806,-0.06416929513368672,-0.005671582388725931,1.2070515928794159,8.590690541475658,-0.840054911003084
1731474157.970504,-0.3940364420413971,0.5331264734268188,-9.951216697692871,0.002241881275784164,-0.06019610782997385,-0.00577771223137054,1.2078832716974335,8.574915684769847,-0.8487760814655608
1731474158.0204077,-0.3720216453075409,0.5273372530937195,-10.012054443359375,0.00011688093260411414,-0.05628029064063557,-0.00588798047337146,1.2087359579682115,8.558651326172022,-0.8577013481798539
1731474158.070431,-0.36154696345329285,0.5203379988670349,-9.981355667114258,-0.0019039624634316285,-0.05244214426870955,-0.006001542928820323,1.206897308113938,8.542445925173316,-0.856195370461143
1731474158.1203873,-0.33269548416137695,0.5211107134819031,-9.980409622192383,-0.0038153595960266607,-0.048700867399771405,-0.006117614889024817,1.2073170886734987,8.525822345233822,-0.8651645971727246
1731474158.170318,-0.3207956552505493,0.5135068893432617,-9.99845027923584,-0.005612832825631168,-0.045074411738570186,-0.006235507788769787,1.2088267543403057,8.509545744825301,-0.8634311882761011
1731474158.2202368,-0.30687013268470764,0.5224953889846802,-9.994780540466309,-0.00729295644488278,-0.041579392767628245,-0.006354621015242818,1.2104677837383906,8.492483239451687,-0.8620365379253713
1731474158.2701979,-0.3119085729122162,0.5182780623435974,-9.960308074951172,-0.008853506004157772,-0.038231048105855925,-0.006474455562459063,1.2113670550950715,8.476168615727463,-0.8706415611002698
1731474158.3202002,-0.3232634663581848,0.5220323204994202,-9.994431495666504,-0.010293466142245994,-0.035043233921468256,-0.006594553525528026,1.2122808836040042,8.459054009886781,-0.8796360279253874
1731474158.3702445,-0.28144803643226624,0.5371149778366089,-9.997028350830078,-0.011612939775423622,-0.032028448000883045,-0.006714437704812541,1.2124579809874083,8.44237670691763,-0.8776471011517575
1731474158.4200966,-0.28144803643226624,0.5371149778366089,-9.997028350830078,-0.012813112277302259,-0.029197893610683527,-0.006833684819170486,1.2131423847778522,8.425533722811664,-0.8864112535982203
1731474158.4200966,-0.31811031699180603,0.5085797905921936,-9.998974800109863,-0.013896272647886784,-0.02656153822073974,-0.006952028546169681,1.2131602063563016,8.425083469419945,-0.8866452591134278
1731474158.4701083,-0.2963423728942871,0.5248386859893799,-9.973089218139648,-0.014865699162594241,-0.024128073981507722,-0.007069361538499051,1.2145173286888968,8.408305508901195,-0.8845052653258022
1731474158.5199509,-0.2880183458328247,0.5108221173286438,-10.006240844726562,-0.01572544782213362,-0.021904827599801856,-0.007185661134689118,1.2154567625640489,8.391299918532455,-0.8932867948286037
1731474158.5699735,-0.2980497181415558,0.49068212509155273,-9.973512649536133,-0.016480243466164897,-0.019897704199803877,-0.007300932927472338,1.2163624678188845,8.374121967806984,-0.9021484385565457
1731474158.6198955,-0.31672346591949463,0.5230117440223694,-9.992152214050293,-0.017135408861083758,-0.018111147654754533,-0.0074151919186434025,1.2172288676443244,8.356835508629967,-0.9110598778953605
1731474158.6698563,-0.3087119460105896,0.5085582733154297,-10.039146423339844,-0.0176966937457392,-0.01654816385882691,-0.007528488525809771,1.2161748161422923,8.33957817746545,-0.9087088624003421
1731474158.719787,-0.37044280767440796,0.5171928405761719,-9.983965873718262,-0.018170031187566788,-0.015210439212344506,-0.007641033502734569,1.216600659379275,8.322297576733375,-0.9175728644305507
1731474158.769825,-0.35450124740600586,0.50801682472229,-9.950888633728027,-0.01856124185947655,-0.014098450792172774,-0.007753232811195278,1.2187510476416186,8.304779546231602,-0.915187959926188
1731474158.8206687,-0.35450124740600586,0.50801682472229,-9.950888633728027,-0.01887575924334739,-0.013211518693859198,-0.007865421011585034,1.219754491563123,8.287199653112747,-0.9241678813166946
1731474158.8206687,-0.3457523584365845,0.5308553576469421,-10.02107048034668,-0.019118541699988285,-0.012547860071495595,-0.007977595059337546,1.2197627731090517,8.287050792521546,-0.9242439325441748
1731474158.8708599,-0.3598632216453552,0.5240755081176758,-9.973990440368652,-0.01929414321116798,-0.012104707875411413,-0.00808950533795494,1.2207028723742077,8.269701016836715,-0.933110134236998
1731474158.9206185,-0.37419551610946655,0.5006221532821655,-9.971975326538086,-0.019406753927258814,-0.011878440661386973,-0.00820087218590252,1.2215927707208036,8.252359955711462,-0.9419768977714974
1731474158.970634,-0.3892771303653717,0.5268489718437195,-10.022506713867188,-0.01946012986553907,-0.011864617469734521,-0.008311429140450728,1.2209535139184373,8.23477204584317,-0.9391986483367492
1731474159.0204418,-0.3892771303653717,0.5268489718437195,-10.022506713867188,-0.019457472551113658,-0.012057996072690896,-0.008420987652857606,1.2215184733849636,8.217398528233291,-0.9480524198469718
1731474159.0204418,-0.42074161767959595,0.5047159194946289,-9.953629493713379,-0.019401333108660466,-0.012452625401439361,-0.008529587566099391,1.2215234021596122,8.217240011057205,-0.9481332281708326
1731474159.0705018,-0.4061630666255951,0.5313308238983154,-9.978107452392578,-0.019293544750005637,-0.01304191958865223,-0.008637415289504277,1.2241498852663537,8.199609466154676,-0.9452172059885711
1731474159.1203768,-0.4061630666255951,0.5313308238983154,-9.978107452392578,-0.019135210153799743,-0.01381871188881333,-0.008744540303618854,1.2263731216947695,8.181821911081759,-0.9423580125214711
1731474159.1203768,-0.40526318550109863,0.5140536427497864,-10.022367477416992,-0.018926796800523855,-0.014775357476247556,-0.008850855080014054,1.2263850217330055,8.181672450807177,-0.9424335826851827
1731474159.170345,-0.3965300917625427,0.502784788608551,-9.966509819030762,-0.01866829490965859,-0.015903783486820346,-0.008956237105052837,1.227747369087165,8.164251593668602,-0.9512430620583785
1731474159.2203305,-0.3965300917625427,0.502784788608551,-9.966509819030762,-0.018359372105765222,-0.01719542563940684,-0.009060611510764071,1.2290738432127897,8.146660156003554,-0.9601403879779838
1731474159.2203305,-0.38581791520118713,0.508468508720398,-9.955740928649902,-0.017999520096187403,-0.01864117505755547,-0.009163792123219425,1.2290856695857575,8.146500341396983,-0.9602212224470854
1731474159.2702694,-0.3934820294380188,0.535594642162323,-9.982986450195312,-0.017588186167702503,-0.020231449362411544,-0.009265324585621995,1.2303623201618392,8.128926253457918,-0.9691090217535363
1731474159.3201983,-0.35386738181114197,0.5342658758163452,-9.970437049865723,-0.017124896206404866,-0.021956390290741416,-0.009364510389275481,1.229433198668324,8.11102206512582,-0.9658579990922622
1731474159.3701587,-0.3599652647972107,0.5136325359344482,-9.988588333129883,-0.01660941958932258,-0.02380606508249574,-0.009460531649093154,1.2302642961914791,8.093268560811268,-0.9747855888152113
1731474159.4200087,-0.32312655448913574,0.5253065824508667,-10.006949424743652,-0.016041979781592948,-0.02577053069372623,-0.00955258189348123,1.232641673106162,8.074746688590325,-0.9716642648988828
1731474159.4701254,-0.32851725816726685,0.5242536067962646,-9.958294868469238,-0.01542345149042005,-0.027839810166158902,-0.009639974616826816,1.2339355389568578,8.057163984260672,-0.980447298086783
1731474159.5200732,-0.2989529073238373,0.5134327411651611,-9.978981018066406,-0.01475550957916331,-0.03000390200376019,-0.009722131567807135,1.2352191964997432,8.039138334323209,-0.989439730916433
1731474159.5699933,-0.2976040542125702,0.528435468673706,-10.035711288452148,-0.01404073131426337,-0.03225281115053693,-0.009798520564692414,1.2364539864966504,8.021221732090178,-0.9983635007066612
1731474159.6201284,-0.2584826648235321,0.5214108228683472,-9.999695777893066,-0.013282679129524962,-0.03457658345656192,-0.00986878192027886,1.2353468679035033,8.002631835475178,-0.9947637737627202
1731474159.6698892,-0.29298895597457886,0.5123870372772217,-9.98195743560791,-0.012485962623074831,-0.03696535086928403,-0.00993290032905049,1.236135511596964,7.98450479237476,-1.0037122719110605
1731474159.7198591,-0.29298895597457886,0.5123870372772217,-9.98195743560791,-0.011656176347191108,-0.039409339765468364,-0.009991120124217448,1.236901050647674,7.966118731268987,-1.0127663755677576
1731474159.7198591,-0.2805013358592987,0.5189118385314941,-9.997715950012207,-0.010799680995450157,-0.041898853335985045,-0.010043745662771828,1.2369070570450498,7.9659712381634735,-1.0128389120844892
1731474159.7697053,-0.25231388211250305,0.526025652885437,-9.983038902282715,-0.009923419436829135,-0.04442430635747211,-0.01009107838721904,1.2382941961144518,7.94742264944626,-1.0088332953789896
1731474159.8196115,-0.2625800669193268,0.5331252813339233,-9.989421844482422,-0.009034896835522731,-0.04697632633222153,-0.010133438018177177,1.2391888139547076,7.928546654956356,-1.0180248061502006
1731474159.870672,-0.25197145342826843,0.5226522088050842,-10.016423225402832,-0.008142193832965494,-0.049545860708211965,-0.010171182911832737,1.2400474405769681,7.909850512801849,-1.0270950505090881
1731474159.9206076,-0.2829984724521637,0.5082409381866455,-9.991646766662598,-0.007253864055746067,-0.05212421021721086,-0.010204772610527539,1.2408862161991296,7.8910400594387005,-1.036184539829537
1731474159.9705005,-0.28480449318885803,0.5353925824165344,-9.947487831115723,-0.006378701413117021,-0.05470298676060898,-0.010234775477668137,1.2412185430645928,7.8716361004130055,-1.0319815751103192
1731474160.0204332,-0.2747306227684021,0.5366898775100708,-10.02096939086914,-0.005525466112928699,-0.057274120530997716,-0.010261723508520051,1.2444079244352686,7.850370020626079,-1.0286039675484155
1731474160.0705328,-0.2890772521495819,0.5572153329849243,-9.990310668945312,-0.004702694556330176,-0.05982998548735813,-0.010286046478077635,1.245688003281623,7.832942088877694,-1.0368269484914225
1731474160.120394,-0.30816128849983215,0.5108066201210022,-9.969518661499023,-0.003918574951610832,-0.062363520534740494,-0.01030816968872479,1.2470953588151097,7.813495245620525,-1.0459581055335267
1731474160.1703773,-0.3075338900089264,0.5318730473518372,-9.989680290222168,-0.0031807786441766096,-0.06486819808722732,-0.01032851297603836,1.2484878830250432,7.7939718389247785,-1.055076366647212
1731474160.220353,-0.3376113772392273,0.514896035194397,-9.994827270507812,-0.0024962587438259413,-0.06733788850036122,-0.010347408021416756,1.2474730725555851,7.7737423180106475,-1.0505352763795324
1731474160.2703774,-0.34983736276626587,0.5286862254142761,-9.962014198303223,-0.001871056124157073,-0.0697667756740567,-0.01036510368519582,1.248341543363741,7.753831858018177,-1.0596819131980684
1731474160.3201654,-0.3544542193412781,0.5517596006393433,-9.99022388458252,-0.0013101135455881822,-0.07214938180182157,-0.010381764918288095,1.2510072712200306,7.733509312114889,-1.0549835699296082
1731474160.370143,-0.3516252934932709,0.5374683141708374,-9.990341186523438,-0.0008171650760475811,-0.07448067768248899,-0.0103974450421233,1.2536665019189475,7.71290161223499,-1.0503634350167455
1731474160.4202018,-0.35329899191856384,0.519231379032135,-9.9598970413208,-0.0003947540712272048,-0.07675616316161268,-0.010412114194333355,1.2553463117444563,7.692452873673229,-1.0594922423207989
1731474160.4702244,-0.3345542550086975,0.5284436941146851,-9.966591835021973,-4.434607010847375e-05,-0.07897180245866763,-0.010425641802508889,1.2570250082542314,7.671816491367703,-1.068644008816071
1731474160.5200076,-0.3611922562122345,0.5078816413879395,-10.020652770996094,0.00023352228978859934,-0.08112389155168964,-0.010437748171187162,1.2587113533378695,7.650887744400557,-1.077862401173995
1731474160.570008,-0.3498118817806244,0.5143244862556458,-10.008946418762207,0.00043913535738295407,-0.08320896217537001,-0.010448141670016403,1.2565277305532536,7.629491281397748,-1.0728580030555663
1731474160.6198819,-0.33152875304222107,0.5191381573677063,-9.96742057800293,0.0005735302875352595,-0.08522373066932395,-0.010456733691932826,1.2574368828918583,7.6082822763271345,-1.082022845640818
1731474160.6699362,-0.3189314603805542,0.520063042640686,-9.994635581970215,0.0006383505752796173,-0.08716510914655407,-0.010463622318793287,1.2596921086268902,7.586394672875095,-1.0769862507629289
1731474160.7198498,-0.31146132946014404,0.49782794713974,-9.991044998168945,0.0006356064252729395,-0.08903024218596428,-0.01046894097481278,1.2611751141815837,7.56471748578105,-1.0861714740210273
1731474160.7696915,-0.27925825119018555,0.5191643238067627,-9.976333618164062,0.0005674346506710078,-0.09081649126614463,-0.010472813126609162,1.2622238373624919,7.54277273985479,-1.0808820820798652
1731474160.8196826,-0.26903486251831055,0.5131709575653076,-9.989280700683594,0.00043586582418459114,-0.09252141334270883,-0.010475352984490092,1.2636013437827578,7.520539120369732,-1.0901172064214606
1731474160.8696597,-0.2614664137363434,0.5186227560043335,-10.001703262329102,0.00024259928997265732,-0.09414280311468115,-0.01047665619191267,1.2647443918123533,7.497810879964346,-1.0848664500848306
1731474160.9207711,-0.2614664137363434,0.5186227560043335,-10.001703262329102,-1.1133286550899006e-05,-0.09567875317969311,-0.010476860524179376,1.2659650712874462,7.474596296705596,-1.0943136435416472
1731474160.9207711,-0.2740640342235565,0.5009732246398926,-9.956851959228516,-0.0003245682757852322,-0.09712767098095049,-0.010476198458115794,1.265974614681887,7.474413808984195,-1.0943876122482947
1731474160.9705622,-0.274027019739151,0.5083372592926025,-10.000702857971191,-0.0006973002813826959,-0.0984882377784391,-0.010474915009494592,1.267279913645192,7.451669345439953,-1.0888807808567154
1731474161.02048,-0.274027019739151,0.5083372592926025,-10.000702857971191,-0.0011291318804758472,-0.09975935137446963,-0.010473190211823706,1.2699380850324211,7.428391087227984,-1.083569629421972
1731474161.02048,-0.2422710508108139,0.5382094979286194,-10.02502155303955,-0.0016199872983452203,-0.1009401437048234,-0.0104712441089129,1.2699527135581383,7.428198981225756,-1.083645523364593
1731474161.070523,-0.2966766655445099,0.5066756010055542,-9.966814994812012,-0.002169907480348933,-0.10203008125713983,-0.010469480584557794,1.2717069291748746,7.405000296595145,-1.092773453489664
1731474161.1204453,-0.24885393679141998,0.5543649792671204,-9.974495887756348,-0.0027790082246532625,-0.10302905537773856,-0.010468422749217337,1.2734664474426163,7.381395415041935,-1.1019869878527637
1731474161.1704516,-0.2737577557563782,0.5325854420661926,-10.017370223999023,-0.0034473944942311594,-0.10393744713286454,-0.010468527880669348,1.27521825523865,7.3575319151742695,-1.1112268773440899
1731474161.2202854,-0.2737577557563782,0.5325854420661926,-10.017370223999023,-0.004175117901151923,-0.10475618062215328,-0.010470199319959938,1.2717739866445363,7.333163119416243,-1.1055475286467864
1731474161.2202854,-0.2906055152416229,0.5151991844177246,-9.989680290222168,-0.004962112684497267,-0.10548668008295149,-0.010473970368366201,1.2717812575475975,7.3329351414329516,-1.1056343053138407
1731474161.2703397,-0.3137006163597107,0.5183002948760986,-9.986680030822754,-0.00580804056130693,-0.10613072270816747,-0.010480535633734937,1.2725410276197742,7.308756596195805,-1.1148005467473883
1731474161.3202085,-0.3137006163597107,0.5183002948760986,-9.986680030822754,-0.006712093362787722,-0.1066903026517655,-0.010490594914886969,1.2736983170113034,7.284056378726362,-1.1090010808542001
1731474161.3202085,-0.3133438229560852,0.5345419645309448,-10.003192901611328,-0.007672842366933243,-0.10716758402525031,-0.010504740888635193,1.2737073422698153,7.283831877187274,-1.1090847629261853
1731474161.370244,-0.3098906874656677,0.528404951095581,-10.000290870666504,-0.008688208974185452,-0.10756493842731407,-0.010523486631928099,1.2751619394462157,7.2591042742289735,-1.1032659701323413
1731474161.4202275,-0.3098906874656677,0.528404951095581,-10.000290870666504,-0.009755535474492344,-0.10788499394425874,-0.01054734439325579,1.2760985465441133,7.233787914738834,-1.11254577111026
1731474161.4202275,-0.33454248309135437,0.49304723739624023,-9.936529159545898,-0.010871657092001389,-0.10813059842735386,-0.010576802591001468,1.2761063347728847,7.233573421974468,-1.1126240839468282
1731474161.470167,-0.3619610667228699,0.5299280881881714,-10.047443389892578,-0.012032872165674832,-0.10830469015536907,-0.010612194711942084,1.2769977615802073,7.208486643246358,-1.1217481359441615
1731474161.5199888,-0.36124423146247864,0.5293492674827576,-9.995766639709473,-0.013234797682185962,-0.10841022360454933,-0.010653720605750257,1.2778727115915107,7.182712199022923,-1.131050892552777
1731474161.570011,-0.3769206404685974,0.5511707663536072,-9.91990852355957,-0.014472236698302506,-0.1084502588968285,-0.01070157501647286,1.2764339440538064,7.156564752560955,-1.12499285860022
1731474161.6198852,-0.3783719837665558,0.543317973613739,-9.976374626159668,-0.01573915168478995,-0.10842811533105015,-0.010755782463228069,1.2768325857994056,7.130444396252267,-1.1342329725624263
1731474161.6698837,-0.24439649283885956,0.7247949242591858,-9.980547904968262,-0.017028838263673202,-0.10834761197399577,-0.010815929909636857,1.277192644470277,7.103915642226529,-1.143549100347965
1731474161.7198694,0.5133981704711914,1.6614665985107422,-9.919093132019043,-0.01833517456653601,-0.10821451021253534,-0.010881178836388236,1.2777344903443102,7.0771779248079545,-1.1372309610382263
1731474161.769799,0.2999531030654907,1.1952157020568848,-10.016883850097656,-0.019655813444998026,-0.10804009943068993,-0.010950360212858447,1.2781705442746707,7.050119170675024,-1.1465514837628636
1731474161.8197489,0.4892212450504303,1.505788803100586,-9.938413619995117,-0.020995580311051736,-0.1078445475064225,-0.011022050831282161,1.2785566532927375,7.022741586441458,-1.1559164385021883
1731474161.8706505,-0.516516387462616,-0.022402653470635414,-9.965340614318848,-0.022366767692954845,-0.10765608567198971,-0.011094678815649572,1.2786375481279466,6.994729786926409,-1.1495547445708731
1731474161.9206002,-0.9550522565841675,-0.21024510264396667,-10.16689682006836,-0.023784742706495936,-0.10750462258879075,-0.011166714698245494,1.2795597066227715,6.967193196007552,-1.143066284132197
1731474161.9705899,-0.7593311667442322,-0.04050649330019951,-10.03207015991211,-0.025260913678292952,-0.10741304435335229,-0.011237237112747118,1.2799718178426671,6.9389343615421515,-1.1524452969564571
1731474162.0203743,-0.5015047788619995,0.2697582244873047,-10.028075218200684,-0.026798262542148725,-0.10739262970301364,-0.011306476442165108,1.2804837894958487,7.5701925640734435,-1.145755017230074
1731474162.0706327,-0.6376875638961792,0.10086476802825928,-9.939265251159668,-0.02839190665721188,-0.10744446004015659,-0.011375564935114366,1.2808472789478371,7.5554337110574386,-1.1552250441027616
1731474162.1203902,-0.4812456965446472,0.29825708270072937,-9.977543830871582,-0.030031643783919256,-0.10756259198022308,-0.011445775695328095,1.2811329173349202,7.540591679381054,-1.164604042767541
1731474162.1703827,-0.5795964598655701,0.24074093997478485,-9.958183288574219,-0.03170367322102743,-0.10773616778204853,-0.011517990151031393,1.281340589403627,7.525574325801076,-1.1739541906521438
1731474162.2203078,-0.508014976978302,0.46040502190589905,-9.957934379577637,-0.03339156177185579,-0.10795098305200541,-0.011592558255554337,1.2810565907902565,7.545250235559897,-1.1670800966068988
1731474162.2702415,-0.508804440498352,0.4490143060684204,-9.982624053955078,-0.035076974519683224,-0.10819116559989903,-0.011669346979501935,1.2811240770515961,7.536202218698251,-1.1764900157569225
1731474162.320172,-0.48865872621536255,0.4541880786418915,-9.978496551513672,-0.03674035074718523,-0.10844072088705756,-0.011747861165438963,1.2811020673625348,7.526866568200108,-1.1859471417280143
1731474162.370213,-0.5410983562469482,0.4174778163433075,-9.919493675231934,-0.038361505767554364,-0.10868439754602273,-0.011827349205428423,1.281608637369026,7.522196003690036,-1.1787994560284136
1731474162.4201007,-0.47556886076927185,0.47924375534057617,-9.938119888305664,-0.03992001213349414,-0.10890786767928033,-0.011906720228242473,1.2816090079362068,7.513997561973989,-1.1882480927536103
1731474162.47022,-0.47460830211639404,0.529241681098938,-10.030539512634277,-0.041395523750025226,-0.10909784678016682,-0.011984446890331157,1.281508006447445,7.505517043635662,-1.1977383855313801
1731474162.5199964,-0.4850676357746124,0.5224998593330383,-9.974165916442871,-0.04276821456262081,-0.10924249302123051,-0.012058816000547755,1.2818803971427155,7.487574172675786,-1.190357951879259
1731474162.5699408,-0.48955443501472473,0.4771479666233063,-9.996931076049805,-0.044019132537457734,-0.1093317503634273,-0.01212830834620518,1.28179133611701,7.475544825343587,-1.1998522004886776
1731474162.6199024,-0.4665283262729645,0.4885329604148865,-9.979948997497559,-0.04513036079224697,-0.10935727722040699,-0.01219170113369641,1.2821987364617906,7.452136596393485,-1.192514718900759
1731474162.669962,-0.46965348720550537,0.5105751752853394,-9.998185157775879,-0.04608516274864345,-0.10931216175495462,-0.012247999091608563,1.2819697849489018,7.4177883648358405,-1.1850707086010055
1731474162.7198188,-0.4509274959564209,0.5246589779853821,-10.004263877868652,-0.04686818816398558,-0.10919081526493782,-0.012296426036626392,1.2817194655752702,7.394472427158353,-1.1945866038881008
1731474162.7698064,-0.4414564073085785,0.5083518624305725,-9.974061965942383,-0.04746567604716076,-0.10898904078069753,-0.012336457447975822,1.2813522381493392,7.370957225821862,-1.2041034621015605
1731474162.8197534,-0.41812509298324585,0.5166147947311401,-9.975350379943848,-0.04786564597924965,-0.1087040372207217,-0.0123677687052923,1.2817169657491192,7.366995868575082,-1.1965268122477668
1731474162.8696876,-0.38708367943763733,0.5227304100990295,-9.974908828735352,-0.048058110567391746,-0.10833429232474664,-0.01239009303911603,1.2814157263248456,7.3498466594392475,-1.2060521416561916
1731474162.9196005,-0.36882284283638,0.5231413841247559,-9.979649543762207,-0.048035317668759285,-0.10787948150325363,-0.012403127463494463,1.2805541789828179,7.310832487534702,-1.198426946536475
1731474162.970591,-0.3273898661136627,0.5379171371459961,-10.020581245422363,-0.047791994376870844,-0.10734041083403419,-0.012406576096837471,1.279891189826827,7.284912872955924,-1.2081938079088812
1731474163.0204976,-0.3707225024700165,0.505232036113739,-9.976547241210938,-0.04732550860614327,-0.10671894830312205,-0.01240029088756534,1.2791251577792755,7.259370380219842,-1.2177483519430743
1731474163.070438,-0.3476724922657013,0.5362069010734558,-9.949875831604004,-0.04663581982316513,-0.10601789430356677,-0.012384311871444328,1.2782426303742818,7.233567296771785,-1.2273323811249728
1731474163.1203568,-0.3835640251636505,0.5246970653533936,-9.991329193115234,-0.045725209478290806,-0.10524084120604532,-0.01235869945707412,1.2795493127153255,7.258846934887441,-1.219358537296718
1731474163.1703653,-0.3614824414253235,0.5287243723869324,-9.99287223815918,-0.0445979402304401,-0.10439209037758151,-0.012323421699955674,1.2790353422707585,7.243264536678624,-1.2289811943425657
1731474163.2202575,-0.377625972032547,0.5039097666740417,-9.963214874267578,-0.043259962044203015,-0.10347655872844216,-0.012278441772375782,1.2783202421341189,7.2002702181583915,-1.220888950864324
1731474163.2702463,-0.3766827881336212,0.5053097605705261,-10.006082534790039,-0.04171868019626808,-0.10249959820226705,-0.01222379072040068,1.2775747235132398,7.174460125820214,-1.2305376126905825
1731474163.3201778,-0.37935033440589905,0.516689121723175,-9.970401763916016,-0.03998274685213199,-0.1014668004499496,-0.012159568150810084,1.2767613865422598,7.129627097040631,-1.2224446664684505
1731474163.3702471,-0.40080633759498596,0.4964871406555176,-10.002296447753906,-0.038061843794684934,-0.10038388483153342,-0.012085963463535368,1.2757496402587296,7.092324338259433,-1.2321159882695678
1731474163.4201424,-0.38300633430480957,0.5083088278770447,-10.015450477600098,-0.03596645792191287,-0.09925663658336485,-0.01200330799747001,1.2746519467524364,7.055000423075292,-1.2417583679573945
1731474163.470025,-0.443865567445755,0.4779611825942993,-10.014248847961426,-0.033707648865194645,-0.09809081718204313,-0.011912184400282662,1.2757584773313686,7.093679899522796,-1.233410384533686
1731474163.5200374,-0.3783123791217804,0.5307408571243286,-9.943964958190918,-0.03129681248964568,-0.09689207700144381,-0.011813473763185344,1.2751086005634522,7.07431011484666,-1.2430988788027217
1731474163.569949,-0.4149475693702698,0.529784619808197,-9.995633125305176,-0.02874553433145162,-0.09566598958120295,-0.011708168858589354,1.2742255623792034,7.048397677618897,-1.2346984403034789
1731474163.6199312,-0.4006003737449646,0.5575022101402283,-9.984058380126953,-0.026065570791560987,-0.09441823676992181,-0.011597154440172796,1.2729641403907102,7.016157637494122,-1.226418148549718
1731474163.6698508,-0.4396592080593109,0.5405032634735107,-9.956144332885742,-0.023268794096047277,-0.09315479556820859,-0.011481175976817236,1.2720346271845544,6.9924969012838885,-1.2360701882720524
1731474163.719805,-0.4295702874660492,0.5543187260627747,-9.9859037399292,-0.020367012323279265,-0.0918819929542111,-0.011360842826491323,1.2710467389444344,6.968509461394903,-1.2457895723350503
1731474163.7697442,-0.42668965458869934,0.5741111636161804,-9.961564064025879,-0.01737178575033097,-0.09060647442752397,-0.011236585152847431,1.270017256034197,6.944425737031128,-1.2554840591373688
1731474163.8196783,-0.4360142648220062,0.5671287775039673,-9.956544876098633,-0.014294350567012573,-0.08933519821138414,-0.01110863764362383,1.271251561356695,6.966398911862997,-1.2468310337686968
1731474163.8696399,-0.4315682351589203,0.557338535785675,-9.982433319091797,-0.01114561100093671,-0.08807542645836684,-0.010977026140357152,1.270655409304552,6.950937310666485,-1.2565441746898576
1731474163.9195507,-0.42473089694976807,0.5397765636444092,-10.009066581726074,-0.007936135421804448,-0.0868345974513049,-0.010841632158789725,1.2700341929004115,6.935225257131753,-1.2663046506406719
1731474163.9695463,-0.42673540115356445,0.5290296673774719,-9.97465991973877,-0.004676176363931627,-0.08562008260872561,-0.01070238479587933,1.2696768808370549,6.917784063081315,-1.2574156368365257
1731474164.0205133,-0.41879597306251526,0.5388911366462708,-9.974834442138672,-0.0013757146672485115,-0.08443894338803554,-0.010559367244477548,1.2690079213830798,6.898412773266953,-1.2674036678496052
1731474164.070491,-0.38974595069885254,0.5596628785133362,-10.005626678466797,0.0019554770029541436,-0.08329781431974109,-0.010412758491271401,1.268356419338267,6.879315967062276,-1.2771675952714119
1731474164.1204576,-0.38974595069885254,0.5596628785133362,-10.005626678466797,0.0053077092412574045,-0.0822029536461066,-0.010262832720562734,1.2681141486386025,6.866902008593973,-1.268073315199441
1731474164.1204576,-0.38453778624534607,0.5208667516708374,-9.979079246520996,0.008671232369743643,-0.08116031603538441,-0.010110057519875513,1.268109393523861,6.866749450565485,-1.268156499384482
1731474164.1704335,-0.3518224358558655,0.524154782295227,-9.996140480041504,0.012036149267515572,-0.08017545787238986,-0.009955093517089748,1.266460738107692,6.813751994991311,-1.2590834989246062
1731474164.2203336,-0.34355854988098145,0.5191760063171387,-10.006608963012695,0.015392329413365864,-0.07925332747690941,-0.009798715909165876,1.2656393949813378,6.786028184099547,-1.2688162078859693
1731474164.270315,-0.3270731568336487,0.5440074801445007,-9.949302673339844,0.018729284397272436,-0.07839815653324725,-0.009641773478596809,1.2645977219997933,6.759710151199663,-1.2597494330682257
1731474164.3202639,-0.3096349239349365,0.5479848384857178,-10.00139331817627,0.02203607089472251,-0.07761353344987228,-0.009485104483306655,1.2637930165303337,6.732945350196248,-1.26955679774176
1731474164.3701947,-0.3083556592464447,0.5252760648727417,-10.021833419799805,0.025301250606432665,-0.07690254018710589,-0.00932947976790318,1.263053685433575,6.706194508781784,-1.2793117972823582
1731474164.4201214,-0.32990550994873047,0.5256478190422058,-9.975671768188477,0.0285129354115796,-0.0762677837665196,-0.009175721500108622,1.2623800312353937,6.679196881917369,-1.2891101448771762
1731474164.4701505,-0.3092363774776459,0.5399481058120728,-9.969268798828125,0.03165895925755009,-0.0757113295916719,-0.009024760802165943,1.2631025952453736,6.70824885862679,-1.2796031553333729
1731474164.520042,-0.2887982428073883,0.5596032738685608,-9.972800254821777,0.03472706419359378,-0.07523471375719037,-0.008877462062308694,1.2627339683900844,6.6907625177550445,-1.2894633777086775
1731474164.5699935,-0.3595009446144104,0.7189980745315552,-9.982955932617188,0.03770501930116589,-0.07483923673180595,-0.008734462296740565,1.2614408041418659,6.651881414802889,-1.2798732126718342
1731474164.6199439,-0.6427477598190308,1.415651559829712,-9.925313949584961,0.04058111826263607,-0.07452729809825735,-0.008596136661794922,1.2608442356783174,6.625532489896156,-1.2896577888038738
1731474164.6699345,-0.6165494918823242,0.5551245808601379,-9.866538047790527,0.0433455435732848,-0.07430483007627128,-0.008462434537316184,1.2603531026807255,6.599021724976331,-1.2994547099462532
1731474164.719879,-1.4786083698272705,0.4926488995552063,-10.089213371276855,0.04599266809559044,-0.07418183885831545,-0.008332661609403033,1.2600127118862283,6.617572186287128,-1.2897559100955338
1731474164.7698503,-0.5003513693809509,0.51936936378479,-9.853687286376953,0.04852367860121677,-0.07416941736323611,-0.008205659124080724,1.2597540783406473,6.603323533154497,-1.2995277262362228
1731474164.8198128,0.04512631148099899,0.05102386325597763,-10.057523727416992,0.05094636251147283,-0.07427625342884087,-0.008080162565440328,1.2587265385333712,6.575954330762289,-1.289731442124306
1731474164.869673,0.020476045086979866,0.24266284704208374,-10.213884353637695,0.05326990482713685,-0.07450645285935106,-0.007955184777060722,1.2583780784633445,6.556148689657805,-1.299471191432808
1731474164.9197352,-0.06659018248319626,0.2546806335449219,-9.995284080505371,0.055499074402024354,-0.0748583228887574,-0.007830805438995232,1.257262392883722,6.5331659590307884,-1.2896697457102977
1731474164.9696233,-0.22866807878017426,0.2495405673980713,-9.991610527038574,0.05763260994106145,-0.07532460733103895,-0.007708584923201729,1.256775065303144,6.509597965457874,-1.2993883723295516
1731474165.0195842,-0.17199070751667023,0.28089892864227295,-9.977840423583984,0.059664773075193814,-0.07589368614957233,-0.007590862682701529,1.2564315776898747,6.485700952753585,-1.309183810372639
1731474165.0705101,-0.17834487557411194,0.4154818058013916,-9.964560508728027,0.06158713674818239,-0.07655073046570535,-0.007479883574804718,1.256497595372994,6.494174163769055,-1.299259933836827
1731474165.1204085,-0.16542883217334747,0.4964807629585266,-9.969206809997559,0.06338949747222056,-0.07727902551279892,-0.0073774552148299,1.2564405991410559,6.478772652826527,-1.3090114061388762
1731474165.1703877,-0.23587629199028015,0.5165247917175293,-9.943984985351562,0.06506030530314309,-0.078061549730611,-0.007284858403728792,1.2553892758364564,6.446353050234926,-1.2988866770843588
1731474165.220306,-0.22092512249946594,0.4952094256877899,-9.973434448242188,0.06658720263653517,-0.07888218626731897,-0.007202807730044985,1.255195451802232,6.424052072342268,-1.3086391970236344
1731474165.2703137,-0.2323492467403412,0.5198451280593872,-9.967941284179688,0.06795765404514133,-0.0797262130915715,-0.00713149337955021,1.2551699243089824,6.4016416919917445,-1.3183710416314744
1731474165.3203123,-0.25136658549308777,0.5174309611320496,-9.953958511352539,0.06915941597628865,-0.08058036087169326,-0.007070692991018757,1.2553159086227372,6.378922828549415,-1.328167485867337
1731474165.37022,-0.22930991649627686,0.5732638835906982,-9.989588737487793,0.07018084189715823,-0.08143285148504233,-0.00701986689810694,1.2556357320095053,6.356056647893323,-1.3379577337688977
