Timestamp,IMU_Linear_Acc_X,IMU_Linear_Acc_Y,IMU_Linear_Acc_Z,Filtered_X,Filtered_Y,Filtered_Z,Pose_X,Pose_Y,Pose_Z
1731474135.7085116,-0.34383755922317505,0.42492765188217163,-9.9898099899292,-6.178665671459999e-07,7.635832168743239e-07,0.0,-5.100101407523783e-05,6.302901056988336e-05,0.0
1731474136.408835,-0.46316227316856384,0.3740302622318268,-9.99268913269043,-5.566572797103449e-06,6.7011574905792054e-06,-2.586869884464942e-09,2.4415114711028894,8.160045927611812,0.8797424597810771
1731474136.6086814,-0.3212164640426636,0.5026140809059143,-9.98022747039795,-2.514632644880431e-05,2.9775159386044702e-05,-1.1660500064614514e-08,2.439865107191065,8.202983076112552,0.8806042794762499
1731474136.6586556,-0.3097893297672272,0.373074471950531,-9.942727088928223,-7.770751019465591e-05,9.132656254147466e-05,3.077515595793856e-08,2.4387729714200144,8.226664447134958,0.8807732879616115
1731474136.7085814,-0.36415764689445496,0.45885133743286133,-10.01577377319336,-0.00018847817158593357,0.00022125765694589678,3.6047916959117623e-07,2.4402556792524677,8.202137653376335,0.880953820803815
1731474136.7586725,-0.3174515664577484,0.43460458517074585,-9.97563648223877,-0.0003878697048459906,0.0004563354842260934,1.3789179339616005e-06,2.4399459104650143,8.208850653513196,0.8810017833280221
1731474136.808501,-0.37348827719688416,0.42250683903694153,-9.971975326538086,-0.0007102753094372512,0.0008386557912528442,3.522605516412658e-06,2.4377282395085045,8.194868543448003,0.8810042770758315
1731474136.858473,-0.3333224654197693,0.4560640752315521,-10.020543098449707,-0.0011930719403943839,0.0014142817555945102,7.208877747771909e-06,2.4370319717451077,8.196667281532374,0.8810171424952686
1731474136.9084017,-0.3716474175453186,0.4254069924354553,-9.993083000183105,-0.0018756876128487696,0.002231981004265378,1.27812598071727e-05,2.442775329997793,8.198516338267726,0.8810056772642915
1731474136.9583972,-0.30855798721313477,0.4505065679550171,-9.975634574890137,-0.002798709991724649,0.0033420994088078806,2.0417059413031753e-05,2.4433429381697502,8.200267050388945,0.881009041828977
1731474137.0092394,-0.33945232629776,0.44332513213157654,-10.006049156188965,-0.004002978448470385,0.004795552923568515,3.016123117140686e-05,2.442587487117113,8.20024568679487,0.8810027068459293
1731474137.0592687,-0.30693483352661133,0.45724576711654663,-9.974886894226074,-0.005528679281065825,0.006642973350422036,4.1998903291350396e-05,2.4425358502287153,8.205695371767973,0.8810036704371075
1731474137.1091747,-0.3404017686843872,0.42924872040748596,-9.97957992553711,-0.007414502441041247,0.008934045678291872,5.584079179786641e-05,2.4415860781309364,8.215106043317592,0.8810010610507462
1731474137.159192,-0.33027854561805725,0.4503231644630432,-9.993732452392578,-0.009696952850083804,0.011716921261693053,7.14985155173913e-05,2.441359037218984,8.220488884096891,0.8810013789878656
1731474137.2090607,-0.3312438130378723,0.4298307001590729,-9.984983444213867,-0.012409897405273242,0.015037605119217569,8.866333837158503e-05,2.4411246677825087,8.22588959404641,0.8810017476807476
1731474137.2591295,-0.32849225401878357,0.44427555799484253,-9.991825103759766,-0.015584267811294827,0.01893935523647842,0.00010687374176641797,2.440144279869683,8.233248482761141,0.881000376330901
1731474137.308942,-0.3466336131095886,0.43178790807724,-9.988767623901367,-0.019247820326139913,0.023462159525253865,0.00012551353412281857,2.439884742068462,8.23712947954778,0.8810005648819833
1731474137.3589773,-0.3226473927497864,0.4400995373725891,-9.986501693725586,-0.023424965082253824,0.02864230435485904,0.00014383710196552553,2.4385959154361445,8.252458171572298,0.8810001969091942
1731474137.4088914,-0.3401765823364258,0.42628738284111023,-10.006254196166992,-0.02813663536554946,0.0345120206192039,0.00016098812871030498,2.438194815394869,8.257553104647346,0.88100039702741
1731474137.4588525,-0.32638588547706604,0.4399968981742859,-9.992179870605469,-0.03340016468623026,0.0410991958356353,0.00017598589977954233,2.4374514559350615,8.269716226578415,0.8810001675018491
1731474137.50879,-0.3352645933628082,0.4304140508174896,-9.980989456176758,-0.039229207077808005,0.048427165229945224,0.0001877221245341914,2.4370996624094725,8.274414931602195,0.8810004015934924
1731474137.5588923,-0.33292460441589355,0.43939563632011414,-9.997173309326172,-0.04563371191735398,0.05651458594288114,0.0001950280340932508,2.436717201803411,8.279199854651326,0.8810007586415023
1731474137.6086698,-0.3363683819770813,0.4308415949344635,-9.980420112609863,-0.0526199717014664,0.06537534595149058,0.00019675522176330255,2.4363815694879083,8.287531906246391,0.8810001961461588
1731474137.6586838,-0.3302421271800995,0.4421899914741516,-9.979595184326172,-0.06019077929929221,0.0750184502130514,0.00019183617677145067,2.436127138061426,8.290634731510277,0.8810004645696577
1731474137.7086177,-0.3302421271800995,0.4421899914741516,-9.979595184326172,-0.06834562904833935,0.08544793193986434,0.00017936393194639919,2.4353825114017105,8.30281086184064,0.8810001881917356
1731474137.758543,-0.3301190137863159,0.4375700056552887,-9.977168083190918,-0.07708084744575974,0.09666288743591413,0.0001586555225080789,2.4350523262251653,8.306649913193477,0.8810004360174551
1731474137.8085432,-0.34019094705581665,0.43010377883911133,-9.982741355895996,-0.08638966949078353,0.10865760139602065,0.00012925815454148287,2.4346702837847607,8.310563293415818,0.8810007742618842
1731474137.8584952,-0.33192288875579834,0.43809831142425537,-9.991263389587402,-0.09626234314581872,0.12142168330792724,9.091147009154234e-05,2.4342307743250813,8.314552307486577,0.8810011816543125
1731474137.9083514,-0.34595686197280884,0.4304082989692688,-9.981121063232422,-0.10668626594889577,0.13494023424949864,4.348449703684623e-05,2.434031463544783,8.320818951115244,0.8810001614052653
1731474137.9583144,-0.3420066237449646,0.443705290555954,-9.989968299865723,-0.11764613660112908,0.1491940724241405,-1.30716672424745e-05,2.433714152986246,8.323479084576128,0.8810002588977541
1731474138.0092392,-0.34163692593574524,0.42966023087501526,-9.989768028259277,-0.12912411962060522,0.16415999643530232,-7.874212866026518e-05,2.4329882801411595,8.33881441925577,0.8795733968959264
1731474138.0592258,-0.33824580907821655,0.44014066457748413,-9.97556209564209,-0.14109999563856607,0.17981105518632817,-0.00015345719537372186,2.4325500640744395,8.343557979725263,0.8792678301929324
1731474138.1091983,-0.341629296541214,0.4363786280155182,-9.98953914642334,-0.1535512924280349,0.19611681755288476,-0.00023707827922709473,2.432017981970058,8.348434543966203,0.8789611736417396
1731474138.1591976,-0.3402191698551178,0.43175989389419556,-9.978646278381348,-0.16645343361789616,0.21304365345057094,-0.0003293762998792521,2.431388199893118,8.353418328350998,0.8786556336802739
1731474138.209059,-0.3476492762565613,0.432100772857666,-9.985774040222168,-0.179779928242568,0.23055501248625515,-0.00043003952526722393,2.430651872275321,8.35853140385391,0.8783503855296136
1731474138.2590916,-0.33999305963516235,0.4344528317451477,-9.983550071716309,-0.19350258509384083,0.248611696270363,-0.0005386954718510345,2.4317335514964684,8.347596653128615,0.8781173679479031
1731474138.3088815,-0.34422069787979126,0.4327370822429657,-9.9750337600708,-0.2075917120421789,0.26717214942610457,-0.0006549209655648817,2.431335817897126,8.349263721699433,0.8779597343616299
1731474138.3589008,-0.3437175154685974,0.44072937965393066,-9.988846778869629,-0.22201628964851117,0.28619277164604306,-0.0007782361045675053,2.43080189253353,8.351112560664026,0.8778007874520336
1731474138.4087975,-0.34332624077796936,0.4315757751464844,-9.98684024810791,-0.23674414528557666,0.3056282345319704,-0.0009081131057245219,2.430664724207589,8.354518385721752,0.876800231001564
1731474138.458818,-0.33988749980926514,0.436118483543396,-9.992659568786621,-0.2517421306032811,0.3254317821017677,-0.0010440241414698703,2.4301873021820746,8.3561678289483,0.876604886308143
1731474138.5087607,-0.33988749980926514,0.436118483543396,-9.992659568786621,-0.266976285824169,0.34555550903374455,-0.0011854943657546879,2.4295485598982727,8.358025279382,0.8764089734316766
1731474138.5588555,-0.32766076922416687,0.4385663866996765,-9.993430137634277,-0.28241198651203814,0.3659506408677608,-0.0013321316383371,2.429467498314431,8.365204544546122,0.8753411456170759
1731474138.6086557,-0.3306537866592407,0.4353063106536865,-9.987985610961914,-0.2980140708953315,0.3865678198634982,-0.0014836306242729867,2.4288746876041425,8.367579657771737,0.8750863681440311
1731474138.6586676,-0.3333236277103424,0.4373985528945923,-9.995209693908691,-0.31374697066147234,0.40735737371348246,-0.001639754644623371,2.4282263891659017,8.375442334769744,0.8739116052907907
1731474138.7086084,-0.3319365978240967,0.4339129328727722,-9.97912311553955,-0.3295748746898062,0.4282695639773678,-0.0018003077076251233,2.4272150871278164,8.384685822344176,0.8738821981104017
1731474138.758562,-0.333381712436676,0.4398839473724365,-9.9823637008667,-0.3454618980674468,0.44925482973707986,-0.0019650892863035513,2.4264268982514676,8.388437918014782,0.8737518853772888
1731474138.8085184,-0.3302189111709595,0.438150554895401,-9.991358757019043,-0.3613722282838052,0.47026403502747344,-0.002133844110419731,2.4254203453522596,8.392469918513449,0.8736204984048351
1731474138.8586066,-0.3308621346950531,0.44120118021965027,-9.983616828918457,-0.37727027110087363,0.4912487104389186,-0.002306258614738015,2.424175504262772,8.39683022337139,0.8734868446598743
1731474139.2399957,-0.3376094102859497,0.43933042883872986,-9.987139701843262,-0.3931208158040113,0.5121612730779657,-0.002481989555847089,2.416299127914129,8.429644782224972,0.8738677877216827
1731474139.2900891,-0.3423849642276764,0.43753117322921753,-9.985186576843262,-0.4088892261045245,0.5329552182926685,-0.0026606726198941046,2.4140488258140107,8.43411958110165,0.873846111774558
1731474139.3398674,-0.34360605478286743,0.4366273581981659,-9.992426872253418,-0.4245416487111,0.5535852829137357,-0.002841924478291113,2.420260434501353,8.433352715868088,0.8739537226281036
1731474139.389985,-0.3389294445514679,0.4368346929550171,-9.979833602905273,-0.44004519888295324,0.5740075886824394,-0.003025356096400391,2.4189918111877327,8.437147894440612,0.8739442202933713
1731474139.4397805,-0.3331068754196167,0.42958614230155945,-9.990646362304688,-0.45536808446352545,0.5941797736923053,-0.0032105740425790986,2.4174059293261245,8.441401824319675,0.8739324942276109
1731474139.4898527,-0.335146963596344,0.4248596131801605,-9.98840618133545,-0.470479675621492,0.6140610985752339,-0.0033971754476558717,2.4156153048362854,8.445816880733586,0.8739193273110363
1731474139.539713,-0.3328384459018707,0.4296468496322632,-9.984148025512695,-0.4853505646150983,0.6336125270811552,-0.00358475849209181,2.4210475178292743,8.443787925140501,0.8739863051783563
1731474139.5897124,-0.3308675289154053,0.4361976087093353,-9.986226081848145,-0.4999526389757063,0.6527968269308801,-0.0037729195035229985,2.420813312465347,8.450760400815273,0.8739929003430004
1731474139.639718,-0.3300713300704956,0.44613346457481384,-9.986385345458984,-0.5142591513279288,0.6715787296943612,-0.003961215885447627,2.4199144061504425,8.453987695073312,0.8739876363780033
1731474139.6895943,-0.3355879783630371,0.4400116503238678,-9.9830961227417,-0.5282447831529558,0.6899251167951136,-0.004149127807953075,2.418688798908059,8.457650493630796,0.8739798381731271
1731474139.7396622,-0.3371192514896393,0.4425605237483978,-9.980547904968262,-0.5418857256078901,0.7078051559501602,-0.004336038596722833,2.417118357496167,8.46177890583979,0.8739693198200551
1731474139.789675,-0.33719924092292786,0.4419511556625366,-9.980554580688477,-0.555159774443591,0.7251903632474694,-0.004521223951981923,2.4152148780649365,8.46632997094324,0.8739560998048046
1731474139.8395355,-0.3354564905166626,0.445912629365921,-9.973817825317383,-0.5680464056714871,0.7420546338358457,-0.004703843935457609,2.4129560330886393,8.471350214130275,0.8739399668909539
1731474139.8896139,-0.3405797779560089,0.44538143277168274,-9.989174842834473,-0.5805268200692926,0.7583742739176611,-0.004882947054065266,2.4198910943361933,8.462691869106235,0.8739940666011973
1731474139.9394777,-0.33414551615715027,0.4462050497531891,-9.99086856842041,-0.5925839724947322,0.7741280264457355,-0.00505751630635096,2.4189595727081623,8.464975626207787,0.873987135450254
1731474139.9894018,-0.33414551615715027,0.4462050497531891,-9.99086856842041,-0.6042025849086008,0.7892970773976524,-0.005226556247483342,2.419264016298209,8.470208943977303,0.8739946296937977
1731474140.0392613,-0.32870543003082275,0.43953606486320496,-9.982325553894043,-0.6153691301709977,0.8038650371511245,-0.00538915319167758,2.418294312918761,8.47283701922409,0.8739875252618426
1731474140.089296,-0.34796392917633057,0.4402678906917572,-9.993621826171875,-0.6260718133958956,0.8178178925405708,-0.005544474668243585,2.416930334632685,8.47598751940005,0.87397695610923
1731474140.1402464,-0.33399584889411926,0.432169646024704,-9.98773193359375,-0.6363005937962927,0.8311439317086053,-0.005691758653485978,2.4151382553831153,8.479719156858952,0.8739626015166637
1731474140.1902158,-0.33399584889411926,0.432169646024704,-9.98773193359375,-0.6460472155541562,0.8438336481329584,-0.005830318332625725,2.4183958617057626,8.481581402825636,0.87399338044355
1731474140.2401154,-0.339699923992157,0.42898687720298767,-9.98838996887207,-0.6553051898085475,0.8558796391347052,-0.005959535783645315,2.4173674469614337,8.484272348638585,0.8739851079014956
1731474140.2900033,-0.32970547676086426,0.4250764548778534,-9.985917091369629,-0.6640697475944397,0.8672765215207805,-0.006078846345511532,2.4176411648858647,8.492497900265674,0.8739936150629934
1731474140.3400288,-0.32910072803497314,0.4251329004764557,-9.99003791809082,-0.6723377835982771,0.8780208637905756,-0.006187733184137624,2.416905584969589,8.501657571783454,0.8739941889838768
1731474140.3900661,-0.32910072803497314,0.4251329004764557,-9.99003791809082,-0.6801077770954227,0.8881111260521737,-0.0062857346786724,2.415711030373373,8.506440401391549,0.8739860224197069
1731474140.439955,-0.3377346694469452,0.435489296913147,-9.978569030761719,-0.6873797229378897,0.8975476214010265,-0.0063724502154017,2.4140658515244637,8.511855536226781,0.873973723958654
1731474140.4899478,-0.33423569798469543,0.4322376847267151,-9.991771697998047,-0.694155104798194,0.9063325081738253,-0.006447524377732364,2.416009975455309,8.521715266783382,0.8741780311297211
1731474140.5398195,-0.3368098735809326,0.4413033127784729,-9.979137420654297,-0.700436879681223,0.9144697904482118,-0.006510628097385464,2.4149012264478253,8.525963761690063,0.8741907589064847
1731474140.5896668,-0.32903242111206055,0.43979355692863464,-9.979314804077148,-0.7062294309687265,0.9219653016226668,-0.006561449440282736,2.413344403795005,8.530829108421456,0.8741995849105048
1731474140.6397073,-0.33598414063453674,0.4474576413631439,-9.982017517089844,-0.711538488668216,0.9288266711467853,-0.0065996733306064965,2.4113466511542785,8.536269503398879,0.8742043132184638
1731474140.6897366,-0.33598414063453674,0.4474576413631439,-9.982017517089844,-0.7163710526064282,0.9350632940150586,-0.0066249749075000496,2.4153661872436283,8.540821025396069,0.8743942047426118
1731474140.7397206,-0.3397352695465088,0.44789478182792664,-9.97748851776123,-0.7207353460179802,0.9406863235323136,-0.006637052446268997,2.414237233979728,8.544781657708947,0.8744112163640312
1731474140.7895658,-0.3330007493495941,0.44037196040153503,-9.997563362121582,-0.7246407770464502,0.9457086501999454,-0.006635677494042739,2.4126640115532916,8.549308096246184,0.8744239939467771
1731474140.8395772,-0.03880907967686653,0.5903394818305969,-9.978856086730957,-0.7280976017462131,0.9501449323171525,-0.0066207483014669374,2.4106264880399184,8.554454346879236,0.8744326871367063
1731474140.8895676,-0.0758434385061264,0.5316457748413086,-10.008713722229004,-0.7311158381454125,0.9540118894717725,-0.006592336662516167,2.4139773127432926,8.562121941339251,0.8745995603347025
1731474140.9393978,0.48951706290245056,0.8079436421394348,-9.981762886047363,-0.733703411522988,0.9573288831412062,-0.006550719355151523,2.412748975946078,8.56640210636581,0.8746177197728326
1731474140.9892786,0.48951706290245056,0.8079436421394348,-9.981762886047363,-0.7358636936120385,0.960118763599531,-0.0064963669451248455,2.4129207023932397,8.579671494357758,0.8746035955710934
1731474141.0394018,0.1431780755519867,0.499295175075531,-10.044015884399414,-0.7375935016253352,0.9624084676679459,-0.006429918080709977,2.411667655847365,8.584490764225722,0.8746017374021845
1731474141.0892773,0.413790225982666,0.48516714572906494,-9.909783363342285,-0.7388833587266906,0.964228150156524,-0.0063521873948315976,2.4099736578972575,8.589838491748603,0.874595929132826
1731474141.1401522,0.038903508335351944,0.3011943995952606,-9.996171951293945,-0.7397195236714804,0.9656089469430877,-0.006264043248155144,2.411276393181584,8.596439163956218,0.8745973337405412
1731474141.1902132,0.22217567265033722,0.33590275049209595,-10.001534461975098,-0.7400860244954557,0.9665808693542554,-0.006166211789477087,2.409962277700596,8.60065284493772,0.8745897619575874
1731474141.2402446,0.017560504376888275,0.20069876313209534,-9.97430419921875,-0.7399660259343814,0.9671712965553636,-0.0060593376994858604,2.409975788186529,8.609898912591904,0.8745947544037899
1731474141.2901216,-0.7728275656700134,-0.02461777999997139,-9.977519989013672,-0.739342741010786,0.9674031940611582,-0.005944147042966883,2.4086109170437062,8.614694614577585,0.8745866210403879
1731474141.3400016,-1.2074174880981445,-0.021463442593812943,-10.009428024291992,-0.738202036301345,0.9672928026913018,-0.00582146454511836,2.408749932475949,8.623295150766031,0.8745938392043202
1731474141.3900766,-0.23980385065078735,0.27316224575042725,-9.937684059143066,-0.7365367732707768,0.9668483810068984,-0.005692197003627322,2.407390876769658,8.628227110272315,0.8745857613476417
1731474141.4400213,-0.7082184553146362,0.12128511071205139,-10.163931846618652,-0.7343481584172046,0.9660713016568212,-0.005557427028614645,2.405565691006019,8.633784063931364,0.8745741276687055
1731474141.4898539,-0.7082184553146362,0.12128511071205139,-10.163931846618652,-0.7316435407415265,0.9649581341229098,-0.005418922350156973,2.407546651421538,8.624947979695275,0.8745932872873985
1731474141.5398967,-0.5628702044487,0.09986446797847748,-10.001678466796875,-0.7284350397202164,0.9635018494962846,-0.00527985950877914,2.406292983681863,8.627237142957062,0.8745854167371078
1731474141.5897396,-0.5628702044487,0.09986446797847748,-10.001678466796875,-0.7247393075397457,0.9616923136836869,-0.005144739815413205,2.404603652486832,8.630096226067622,0.8745744077264583
1731474141.6397777,-0.3513105511665344,0.46714502573013306,-10.08678913116455,-0.7205764251609921,0.9595171907503115,-0.005018538808626618,2.404634950152276,8.625337695334608,0.87479283189205
1731474141.6896517,-0.4068586826324463,0.43703973293304443,-9.962201118469238,-0.7159682389515656,0.9569638865145419,-0.004906181493265028,2.4031121428367297,8.627094911369513,0.8748166763021744
1731474141.7396317,-0.4068586826324463,0.43703973293304443,-9.962201118469238,-0.7109370828054186,0.9540218502969409,-0.004812349059314915,2.401129296779079,8.629465822808974,0.8748376806107558
1731474141.789641,-0.37864023447036743,0.4197238087654114,-9.953781127929688,-0.705505729389615,0.9506838513488799,-0.004741049306847587,2.3987208342457498,8.632411291291502,0.8748555546802267
1731474141.8394883,-0.42949461936950684,0.29616859555244446,-9.941106796264648,-0.6996991656939034,0.9469460781850879,-0.004695137258648072,2.401642407627651,8.621166996127354,0.8750019853537861
1731474141.8893626,-0.42949461936950684,0.29616859555244446,-9.941106796264648,-0.6935471168349076,0.9428076697945756,-0.004676076544840851,2.398888531759588,8.606518838276811,0.8750040460822465
1731474141.9393225,-0.3805420398712158,0.7001015543937683,-9.957939147949219,-0.6870852395116731,0.9382703939397317,-0.004683925827249058,2.397068651669792,8.604125818513097,0.8750076230519925
1731474141.9893405,-0.4000968039035797,0.667378306388855,-9.877378463745117,-0.6803545269949419,0.9333395349069555,-0.004717443126985668,2.395223600628609,8.588687024291882,0.8750008046401777
1731474142.0393183,-0.4872780740261078,1.1421082019805908,-9.997286796569824,-0.6734001875477025,0.9280259727899476,-0.0047741799726717556,2.3932556930465414,8.585219191581686,0.8749969165266009
1731474142.0892508,-0.4453103244304657,0.9864438772201538,-9.849359512329102,-0.6662708931071674,0.9223483452465813,-0.00485060369541972,2.390891308283355,8.582359589245067,0.8749900797001077
1731474142.139246,-0.4453103244304657,0.9864438772201538,-9.849359512329102,-0.6590182142001955,0.9163341856201727,-0.0049421322694285785,2.392971038679845,8.566350146502266,0.8749965880739224
1731474142.1901712,-0.3782177269458771,0.7711344957351685,-9.996058464050293,-0.6516957758770476,0.9100191685698631,-0.005043031601501481,2.3915333901989904,8.564144357685905,0.8749899843552696
1731474142.2401364,-0.4499201774597168,0.7072227597236633,-10.010408401489258,-0.6443581927000053,0.9034447464147055,-0.005146768873348019,2.3904866567370533,8.541681817287204,0.874995223359987
1731474142.2900872,-0.3696022629737854,0.713841438293457,-10.044113159179688,-0.6370601567109055,0.8966554927088712,-0.005246949405634149,2.3888986284640916,8.536947849514537,0.874988254305642
1731474142.3400176,-0.42195576429367065,0.5679761171340942,-9.984193801879883,-0.6298556794356818,0.889697369311426,-0.005338063876179953,2.386904788768237,8.532748784377148,0.8749779282807352
1731474142.3899982,-0.30900314450263977,0.6061761379241943,-10.027217864990234,-0.6227971663751506,0.8826174127402193,-0.005415685589849252,2.3845340819850898,8.529129227573623,0.8749643222888128
1731474142.4399173,-0.30900314450263977,0.6061761379241943,-10.027217864990234,-0.6159342827604983,0.8754641905303895,-0.005476440827413359,2.3881796256982226,8.516365057576659,0.8749936614587823
1731474142.4898849,-0.3449501693248749,0.5600143671035767,-10.049895286560059,-0.6093130165409375,0.8682879049486638,-0.005518038668070713,2.386951875722193,8.514270178989712,0.8749858858301933
1731474142.5398262,-0.3187732696533203,0.5636372566223145,-10.002037048339844,-0.6029753100014653,0.8611397798046023,-0.0055393027040244215,2.385537409319792,8.490725289758975,0.8749939976477726
1731474142.5898345,-0.3187732696533203,0.5636372566223145,-10.002037048339844,-0.5969590875085478,0.8540711690790748,-0.005540016991145038,2.3828023998952625,8.465604022243246,0.8749946632061296
1731474142.6396751,-0.3056734502315521,0.5174658894538879,-10.006267547607422,-0.5912982791407527,0.847132781523308,-0.0055206224916623465,2.3809639755061336,8.457548291083954,0.8749872596904489
1731474142.689624,-0.32618317008018494,0.5069574117660522,-9.982719421386719,-0.5860227975646845,0.8403739830876624,-0.005481966669905797,2.3787843766238157,8.450120204356821,0.8749765409879303
1731474142.7396877,-0.273434042930603,0.514680802822113,-9.964303016662598,-0.581158566777288,0.8338421172640669,-0.005425122067587565,2.3762085082163598,8.443117869533458,0.8749622496711627
1731474142.7895157,-0.2996521592140198,0.5227103233337402,-9.985552787780762,-0.5767275391438422,0.8275820108811491,-0.005351191794331177,2.378780928944601,8.441888796814998,0.8749932229810343
1731474142.8395174,-0.3358599841594696,0.5379204750061035,-9.958097457885742,-0.5727477458780029,0.821635747747917,-0.005261174134857709,2.3773178536342074,8.438959407611668,0.8749853303152288
1731474142.8894358,-0.336078017950058,0.4931144118309021,-9.98670482635498,-0.5692334894683573,0.8160424846368824,-0.005155928974855794,2.3755436466060784,8.436612839542795,0.8749940609227925
1731474142.939421,-0.33337661623954773,0.5128029584884644,-10.005820274353027,-0.5661954455550076,0.8108379993909783,-0.005036221501126507,2.3733772354587055,8.434726579939266,0.8749867900364938
1731474142.989331,-0.3498041331768036,0.4721747934818268,-9.94282341003418,-0.5636405455185414,0.806054067615745,-0.004902810617103782,2.370885138854661,8.43336425018813,0.87497651720735
1731474143.0392566,-0.32534632086753845,0.5132566094398499,-9.986802101135254,-0.5615719615149616,0.8017180873519729,-0.004756435875348938,2.3680246779971448,8.432493913864565,0.8749631599205487
1731474143.0892653,-0.3674081265926361,0.5218324065208435,-10.014200210571289,-0.5599893351463574,0.7978531102258805,-0.004597756311430171,2.364827343808417,8.432123559480884,0.8749936971931159
1731474143.1392438,-0.40713658928871155,0.5078936219215393,-9.99518871307373,-0.5588891674063373,0.7944781122713601,-0.004427473339319954,2.361246886632338,8.432252359810857,0.8749868149450656
1731474143.1901145,-0.3748840391635895,0.5032426118850708,-9.95654582977295,-0.558265338569484,0.7916082467323853,-0.004246471149345929,2.3573018134755133,8.432883255978199,0.8751926454052478
1731474143.2401328,-0.41319382190704346,0.513997495174408,-10.000679969787598,-0.5581095723227621,0.789254971298391,-0.004055723420399799,2.3530419581832422,8.4340037865523,0.8753920794901635
1731474143.2901106,-0.4174082279205322,0.5009680390357971,-9.988465309143066,-0.5584117401715389,0.7874261607435391,-0.003856171991696488,2.3484322230699304,8.435620444183824,0.8754516048038267
1731474143.3401623,-0.4119400978088379,0.5024043917655945,-9.968817710876465,-0.5591601299089888,0.7861262575655045,-0.003648748671144217,2.3434390967838943,8.437744533759854,0.8755091569186533
1731474143.3899338,-0.3861069083213806,0.4877097010612488,-9.973749160766602,-0.5603416450808509,0.7853564042484511,-0.0034343648884865843,2.338184958202977,8.440317757825982,0.8755635471868815
1731474143.4400024,-0.3813762664794922,0.4656544327735901,-10.00214672088623,-0.5619418675838546,0.7851145043341029,-0.0032138300656554012,2.3324871123900133,8.443426138177704,0.876608433728263
1731474143.489819,-0.3586125075817108,0.4547431170940399,-9.964475631713867,-0.5639451357295282,0.7853951603747198,-0.0029878217159402167,2.326530965778776,8.446974153668895,0.8767617391149438
1731474143.5397732,-0.3363964855670929,0.4302753210067749,-9.970362663269043,-0.5663346778686629,0.7861895508377102,-0.0027568434572095043,2.3201451741666475,8.451059039256608,0.8769152083577815
1731474143.5897393,-0.3230259418487549,0.4246014356613159,-10.018203735351562,-0.5690926323210561,0.7874854015950186,-0.0025211635097863675,2.313489325826876,8.455575347241455,0.8777799096676937
1731474143.6397502,-0.3195480704307556,0.4174511432647705,-9.99730110168457,-0.5721999583168734,0.7892671041610066,-0.0022809143689477935,2.306374014361616,8.46065852356683,0.8779407404925789
1731474143.6896462,-0.29733991622924805,0.400546669960022,-9.969202995300293,-0.5756363922913541,0.7915159318090905,-0.0020362627204222974,2.298964198898255,8.466189451423377,0.8780987861601475
1731474143.7396011,-0.2849956750869751,0.3818894624710083,-10.001726150512695,-0.5793804598828258,0.7942102757738141,-0.001787401106935324,2.291195760489376,8.472209550665973,0.8790440885543385
1731474143.789569,-0.2620607912540436,0.3989132344722748,-10.011852264404297,-0.5834094773703092,0.7973258716041232,-0.0015344900811829708,2.2830594541891736,8.478732933561389,0.8792571876672207
1731474143.8395295,-0.3114404082298279,0.37750130891799927,-9.98075008392334,-0.5876995983611956,0.8008360794255384,-0.0012777311140892075,2.2745481600954305,8.48575878739181,0.8800791204251963
1731474143.8895874,-0.29066282510757446,0.38888999819755554,-10.001361846923828,-0.5922260360581542,0.8047122290701927,-0.0010174168587821142,2.265649544474742,8.493305847698585,0.8803403534613675
1731474143.939539,-0.31284046173095703,0.36997202038764954,-10.00731372833252,-0.5969634214312355,0.8089239591453123,-0.0007538969771801308,2.2563857608398488,8.501351874368543,0.880600832663686
1731474143.9893997,-0.27976566553115845,0.3753986358642578,-10.026233673095703,-0.6018860115829354,0.8134394407644744,-0.0004875961053501976,2.2467921333901084,8.509864836970182,0.880859733052106
1731474144.0392823,-0.2954639196395874,0.3394887149333954,-9.958551406860352,-0.6069674992082408,0.8182253264411429,-0.0002190016347906041,2.23682163814416,8.518882781619837,0.8810684147102895
1731474144.089266,-0.5322554707527161,-0.19363191723823547,-10.011695861816406,-0.6121808556471392,0.8232460350160531,5.152994734449419e-05,2.226440587396052,8.528442808303769,0.8812032407618059
1731474144.139285,-0.4975226819515228,-0.47324222326278687,-10.109478950500488,-0.6174990565077283,0.8284616297937033,0.00032385177646932254,2.2156720515080033,1.567292303230786,0.8810615710356703
1731474144.1902807,-0.6517626047134399,-0.1517183631658554,-10.05496883392334,-0.6228964969752699,0.8338249787446915,0.0005976506283062813,2.204278963877463,1.3841235422724427,0.8810979580311775
1731474144.2401178,-0.7958483099937439,-0.4603233337402344,-10.047149658203125,-0.6283503253376045,0.8392806753854946,0.0008720167203269727,2.1927824687785527,1.5482142020663021,0.8810290368733567
1731474144.2899477,-0.3774668574333191,0.1904527246952057,-9.920002937316895,-0.6338412533516129,0.8447665568398434,0.0011455778442105897,2.1809306408486235,1.5056002347923836,0.8810394282607149
1731474144.3399312,-0.3774668574333191,0.1904527246952057,-9.920002937316895,-0.6393529462575398,0.8502169642938138,0.0014171897434260756,2.1685617879698404,1.5890963066862993,0.8810118476253248
1731474144.389945,-0.5084047317504883,0.20593859255313873,-9.930323600769043,-0.6448702009352514,0.8555667133657866,0.0016866659493703815,2.1557839668120162,1.5805884828420167,0.8810161725406855
1731474144.4399543,-0.6116470098495483,0.06604569405317307,-9.929553985595703,-0.6503780655857282,0.8607537864711763,0.001955059947630526,2.142651241190732,1.6198855971152684,0.8810053019234084
1731474144.489831,-0.6116470098495483,0.06604569405317307,-9.929553985595703,-0.6558626103865419,0.8657197914260102,0.002224522753219965,2.1291861707143402,1.6361581325546652,0.881003222549288
1731474144.5398407,-0.5633005499839783,0.1612505167722702,-9.892698287963867,-0.6613120813611515,0.8704094522227712,0.0024980497557575113,2.1151857443722766,1.6390196032886946,0.8810063149569338
1731474144.5897121,-0.5227437615394592,0.1753193736076355,-9.91405963897705,-0.6667178187283844,0.8747703145076342,0.002779190888289288,2.1008112564509354,1.642417713068718,0.8810110461164813
1731474144.6397834,-0.530639111995697,0.1455938071012497,-9.948212623596191,-0.6720748615999871,0.878752815720901,0.0030716679095970597,2.0859981919577404,1.6463685209869343,0.8810176121775957
1731474144.6897333,-0.4877649247646332,0.19532594084739685,-9.93302059173584,-0.6773818814905924,0.8823105148169408,0.003378974548128885,2.0708224943105678,1.6547882930597357,0.8810034441140973
1731474144.7396362,-0.4850020408630371,0.15887004137039185,-9.961091995239258,-0.6826405191729592,0.8854003882242288,0.0037041006667314497,2.055177891615132,1.6578834788308408,0.8810080417563445
1731474144.7895703,-0.042006008327007294,0.42955347895622253,-9.968608856201172,-0.6878542205681706,0.8879833488456196,0.004049389547910186,2.039137238606179,1.661524509437597,0.8810150431942558
1731474144.8395107,0.20982344448566437,0.5299987196922302,-9.996824264526367,-0.6930258925621411,0.8900254012561757,0.004416410875587995,2.0226836560877346,1.6685939711651325,0.8810041555016149
1731474144.8894217,-0.2961362600326538,0.27400559186935425,-10.028383255004883,-0.6981550124701693,0.8914990731004301,0.004805783374550439,2.005752583598462,1.6721674000915017,0.8810101241334478
1731474144.9395008,-0.07620701938867569,0.45252323150634766,-9.962984085083008,-0.7032367734626938,0.8923837928110214,0.005217033680695062,1.9883964843784425,1.6769057910465892,0.8810047911728417
1731474144.989377,-0.3626199960708618,0.24273060262203217,-10.05359172821045,-0.7082636376883296,0.8926651021849066,0.005648624142073427,1.9706059453416447,1.679897247811365,0.8810117733037397
1731474145.0394049,-0.3626199960708618,0.24273060262203217,-10.05359172821045,-0.7132272369402421,0.8923336325113259,0.006098002736161807,1.952410884457396,1.6860678810141598,0.8810057048530867
1731474145.0892012,-0.3409866988658905,0.2217046469449997,-10.007319450378418,-0.7181194161736298,0.8913842828622981,0.006561600853308667,1.9337589387682217,1.6894550340888028,0.8810138704008087
1731474145.1393504,-0.19522902369499207,0.4383619427680969,-10.02239990234375,-0.7229315421876761,0.8898163811531393,0.007035182397419151,1.9145484770731556,1.6940673595071556,0.8810067326568444
1731474145.1891997,-0.3174585700035095,0.26658883690834045,-9.997493743896484,-0.7276523564694626,0.8876349962911471,0.007514541258602655,1.8950423131568896,1.6974155148064005,0.8810161748716557
1731474145.2401588,-0.2567730247974396,0.41878947615623474,-9.975645065307617,-0.7322666636717665,0.8848518541983379,0.007996012621860484,1.8745315599253156,1.701425814079321,0.8810308691360331
1731474145.290124,-0.31867489218711853,0.322895348072052,-10.004502296447754,-0.7367557230539381,0.8814850844684904,0.008476671774337753,1.8540652499511092,1.705892131948641,0.8810503742597796
1731474145.3400424,-0.2900391221046448,0.4151308536529541,-9.99188232421875,-0.7410981992288862,0.8775585554953876,0.008954352443870228,1.8331058032446765,1.711439682485627,0.8810092573943386
1731474145.390102,-0.331870973110199,0.35072141885757446,-9.961592674255371,-0.7452709971392644,0.8731012480589975,0.00942757099507865,1.8116156437141997,1.715055538363699,0.8810216949990635
1731474145.4399805,-0.331870973110199,0.35072141885757446,-9.961592674255371,-0.7492500116581223,0.8681465610125958,0.009895529660621072,1.7898564737079983,1.7283155418965161,0.8810096362886577
1731474145.4899025,-0.3297779858112335,0.40445318818092346,-9.977746963500977,-0.7530108051874548,0.8627315447035269,0.010358186892811195,1.7674333985847428,1.7331955718795595,0.8810230620772538
1731474145.5398126,-0.3312694728374481,0.4171616733074188,-9.975252151489258,-0.7565291461603714,0.8568963007256715,0.010816204166196636,1.7446242393637685,1.7385928060399776,0.8810430308225127
1731474145.589731,-0.3365127444267273,0.42672958970069885,-9.98169231414795,-0.7597813990534761,0.8506836483523302,0.011270770913908747,1.721457075278292,1.750740281008933,0.8810118341923813
1731474145.6397784,-0.6444383859634399,0.252627432346344,-9.986760139465332,-0.7627455699501722,0.8441384339280609,0.011723384127986958,1.6974947762082464,1.7554145379570156,0.8810275613222648
1731474145.6896195,-0.5891392230987549,0.3251998722553253,-9.954066276550293,-0.7654043172513028,0.8373057186762609,0.012175552414166997,1.6732669057501277,1.7605723633875145,0.8810506081254901
1731474145.739691,-0.7718563675880432,0.09749940782785416,-9.974160194396973,-0.7677489105364421,0.8302283775448399,0.012628525811769088,1.6484440229201007,1.766276557879599,0.8810815271666742
1731474145.7895942,-0.46285444498062134,0.407083123922348,-9.982929229736328,-0.7697811525453067,0.8229455542810247,0.013083188226488794,1.6233767925819025,1.77401465210813,0.8810143331369931
1731474145.839546,0.17480438947677612,0.5993920564651489,-9.956948280334473,-0.7715117391566567,0.8154929298756513,0.013540041900495996,1.5975965788620672,1.7784213922523495,0.8810327557690416
1731474145.8895202,0.17480438947677612,0.5993920564651489,-9.956948280334473,-0.7729555833590006,0.8079046272005481,0.013999254533202138,1.5715977382752064,1.7971334952197702,0.8810142013727388
1731474145.9394314,-0.10667605698108673,0.5735830664634705,-9.944799423217773,-0.7741270111339387,0.8002151427740343,0.014460801340748508,1.5447870351079716,1.8026521330302332,0.8810334221314395
1731474145.9893925,-0.4261827766895294,0.25164923071861267,-9.998679161071777,-0.7750385479554482,0.7924596284930391,0.014924567257867397,1.5177638780314797,1.8220047386086744,0.881015303035203
1731474146.0393891,-0.4261827766895294,0.25164923071861267,-9.998679161071777,-0.7757032707881792,0.784672392537263,0.01539024924131848,1.4900126741361717,1.8289933428945075,0.881035801183385
1731474146.0892906,-0.36952340602874756,0.26452311873435974,-9.984543800354004,-0.7761373834710265,0.7768849246349048,0.015857146504147233,1.4619958788576146,1.8364125852535182,0.8810658471199265
1731474146.1392066,-0.2180897742509842,0.5275964140892029,-9.984308242797852,-0.7763607363524978,0.7691251553629148,0.01632409012132357,1.4333670274835641,1.844347538120833,0.8811060587673317
1731474146.1892066,-0.2180897742509842,0.5275964140892029,-9.984308242797852,-0.7763952072491029,0.7614187243552224,0.0167895478049788,1.4041773902143941,1.8527828523207124,0.8811567564927479
1731474146.2392662,-0.24522694945335388,0.4789474606513977,-9.97572135925293,-0.7762617107512876,0.7537915048329924,0.017251742674661383,1.3747184068841451,1.849436080827929,0.8810198107175359
1731474146.2900531,-0.32880857586860657,0.3587845265865326,-9.992473602294922,-0.7759774693061765,0.7462714743243888,0.017708723254876754,1.3441638124277642,1.8539300936851342,0.8810448411220795
1731474146.3401139,-0.28920209407806396,0.4533703923225403,-9.996732711791992,-0.7755551981926034,0.7388887175709081,0.01815838372280158,1.313515637107697,1.8727748193812077,0.8810190221138161
1731474146.3900425,-0.32036682963371277,0.38436904549598694,-9.975886344909668,-0.7750037711172189,0.7316744708169312,0.018598452409384514,1.282507895532397,1.8795926112451034,0.8810440107397424
1731474146.4399643,-0.3222068250179291,0.4288286566734314,-9.992498397827148,-0.7743290025116832,0.7246604001513919,0.019026528289064325,1.2508352759306673,1.8869068399904334,0.8810809555108615
1731474146.4898868,-0.3282969295978546,0.4256960153579712,-9.982223510742188,-0.7735342347869432,0.7178781532437188,0.019440162094097862,1.218949604906811,1.8946075803109734,0.8811295444805088
1731474146.5398424,-0.3342430889606476,0.41899538040161133,-9.977553367614746,-0.7726208671423969,0.7113589998316117,0.019836918477964736,1.1864483812573399,1.9019205101139087,0.8810230648884086
1731474146.5898244,-0.3342430889606476,0.41899538040161133,-9.977553367614746,-0.7715888040030281,0.705133506641126,0.020214438798267148,1.1536528928610523,1.9265467490024828,0.8810190767179732
1731474146.6398294,-0.348007470369339,0.42216381430625916,-9.980985641479492,-0.7704368345890068,0.6992311866092713,0.020570508004748456,1.1199779047869345,1.9341487287697032,0.8810460218348186
1731474146.6897447,-0.3311549723148346,0.43346843123435974,-9.981561660766602,-0.769162964167948,0.6936801913900745,0.0209030803247298,1.086224860906323,1.9420928867470197,0.8810855224983213
1731474146.7396312,-0.3635404109954834,0.40990909934043884,-9.988479614257812,-0.7677648251612383,0.6885069756058222,0.021210268527805227,1.0517255290501866,1.9505313480751711,0.881138486176286
1731474146.789546,-0.32311975955963135,0.4552238881587982,-9.978585243225098,-0.7662404163540418,0.6837356923043398,0.02149033678173149,1.0171276594328134,1.9593014171809062,0.8812040438293124
1731474146.8395026,-0.32311975955963135,0.4552238881587982,-9.978585243225098,-0.7645889324903876,0.679387527501815,0.021741726176735632,0.9818333361964731,1.957648406365575,0.8810264039437411
1731474146.8894835,-0.33690303564071655,0.44204410910606384,-9.983466148376465,-0.7628111092581604,0.6754804431488586,0.021963098525861535,0.9458465697931003,1.9619334718671382,0.8810578970724049
1731474146.939377,-0.33690303564071655,0.44204410910606384,-9.983466148376465,-0.7609091442983749,0.6720292349339844,0.022153349050780095,0.9096061432024699,1.9838002281408216,0.88082580335409
1731474146.9893372,-0.32335811853408813,0.44455331563949585,-9.994388580322266,-0.7588865747094886,0.6690455878995021,0.02231157261973194,0.8727671551028717,1.9908680165651222,0.8808170148985474
1731474147.0392928,-0.3419918715953827,0.4153200089931488,-9.980100631713867,-0.756748148303831,0.6665381113047344,0.022437016942101973,0.835531926612229,1.9983375435597646,0.8808221949846947
1731474147.0892532,-0.33232659101486206,0.44813141226768494,-9.970808982849121,-0.7544996786185572,0.6645123843780099,0.02252908229700765,0.797683122743716,2.0062520788873535,0.8808414775425369
1731474147.1392598,-0.33232659101486206,0.44813141226768494,-9.970808982849121,-0.752147926532753,0.662971064965777,0.02258739501459903,0.7594818520576204,2.007650394632032,0.8806182032319458
1731474147.1892078,-0.32821929454803467,0.43675288558006287,-9.983247756958008,-0.7497004678269727,0.6619141031635847,0.022611877076296406,0.7208650525922101,2.0120919713426444,0.8806228682590654
1731474147.239118,-0.3308393657207489,0.41653814911842346,-9.989508628845215,-0.7471655384646496,0.6613389172610541,0.02260271757001001,0.6817702277670583,2.016946658123339,0.8806416020386095
1731474147.2890556,-0.3308393657207489,0.41653814911842346,-9.989508628845215,-0.7445518713585902,0.6612404371840751,0.02256026941460527,0.6419801667273188,2.0292957892634838,0.8844354432233303
1731474147.34003,-0.3317860960960388,0.42187803983688354,-9.981391906738281,-0.7418684813461278,0.6616111449602209,0.02248497282932436,0.6011834738335041,2.0338869815644847,0.8849647638999516
1731474147.389953,-0.3199501931667328,0.43816444277763367,-9.984302520751953,-0.7391244145693526,0.6624412443304977,0.022377355440611903,0.5606851455222549,2.038808246112684,0.8854982719981972
1731474147.4399762,-0.3348630368709564,0.410004585981369,-9.995926856994629,-0.736328569613985,0.6637189124193779,0.022238053967796205,0.5195183964659336,2.0441704049000204,0.8860484816937896
1731474147.4898822,-0.31965500116348267,0.4335654675960541,-9.987404823303223,-0.7334896324326424,0.6654305035719078,0.022067790744923602,0.47812413436840057,2.056248116020785,0.8885138471583017
1731474147.5398347,-0.33629316091537476,0.42236918210983276,-9.98745346069336,-0.7306160681091948,0.6675606993872856,0.021867337249162053,0.436300856007722,2.060811037704051,0.8890566059296137
1731474147.5897639,-0.32917505502700806,0.4344494938850403,-9.999245643615723,-0.7277161274883044,0.6700926841617981,0.021637508569301446,0.39402780383864555,2.083585074558279,0.8924704713358715
1731474147.6397233,-0.3516184091567993,0.42074695229530334,-9.990751266479492,-0.7247978796093626,0.6730083350244536,0.021379152523226683,0.3511944587690493,2.0912566874972316,0.893462360778315
1731474147.6896822,-0.3454195261001587,0.43337929248809814,-9.982441902160645,-0.7218692768205894,0.6762883822295518,0.021093136674737216,0.30798624677154346,2.0993347353034926,0.8944657233358886
1731474147.739603,-0.3505779504776001,0.42843934893608093,-9.977140426635742,-0.7189382168218093,0.6799125573807336,0.02078039305800155,0.2644227607028841,2.113568210414194,0.8926534136790425
1731474147.7895708,-0.3442579209804535,0.44717955589294434,-10.014467239379883,-0.7160125523967718,0.6838597665425186,0.020441967435988383,0.22004914109459278,2.1192677877772814,0.8928871098799118
1731474147.839557,-0.2940550446510315,0.5944892764091492,-9.976007461547852,-0.7130999666753887,0.6881085920710912,0.020078963584231124,0.17555697546737906,2.1453983439513,0.8924034214581852
1731474147.889536,-0.20518560707569122,0.54371577501297,-9.946371078491211,-0.7102075262744985,0.6926385824523247,0.019692482289420072,0.13031620414327666,2.1539922067253174,0.8924854507777058
1731474147.939503,-0.43645983934402466,0.24578015506267548,-9.995434761047363,-0.7073411201426495,0.6974314911928714,0.0192836952879915,0.08488741753478002,2.1727573397982005,0.8880676147039555
1731474147.9893682,-0.2412494719028473,0.5809628963470459,-10.00178050994873,-0.7045054508820894,0.7024710844848918,0.018853873088239208,0.03914621162979776,2.181297908203549,0.8872050184700768
1731474148.0393229,-0.4226839542388916,0.305077463388443,-9.972904205322266,-0.7017044908668243,0.7077422773858267,0.018404240623007963,-0.007151464918201349,2.1902986165842795,0.8863517245512584
1731474148.0892675,-0.17636924982070923,0.6643232107162476,-9.994385719299316,-0.6989416943863704,0.7132309538005818,0.017935887874531303,-0.05396349494711497,2.1997572438150272,0.8855083178509867
1731474148.1391916,-0.017241640016436577,0.4965020716190338,-10.021503448486328,-0.696219507757114,0.7189243752458095,0.017449781952114184,-0.10103430133982808,2.2056436470475647,0.8837516136783671
1731474148.1891968,0.08745230734348297,0.6030604839324951,-10.011589050292969,-0.6935379905865162,0.7248116644014438,0.016946685031983745,-0.14860932951610867,2.2268826077606176,0.8803170785544101
1731474148.2391913,-0.9778934717178345,0.07814757525920868,-9.990920066833496,-0.6908941921943074,0.7308835073608371,0.016427050043952392,-0.1969714229830776,2.234367177533231,0.8793874350188718
1731474148.289004,-0.13256236910820007,0.6477596163749695,-9.916261672973633,-0.6882843709804599,0.7371307542918275,0.01589115717647364,-0.24533376004058347,2.2422418897003014,0.8784760808985259
1731474148.3390393,-0.5607509613037109,0.18505153059959412,-10.030675888061523,-0.6857067479011377,0.7435433473140707,0.015339442035200237,-0.2943623924531643,2.2506170870933464,0.877569984501963
1731474148.3899746,-0.24053697288036346,0.6703055500984192,-9.993346214294434,-0.6831616298210188,0.7501105125455706,0.01477260757021429,-0.34451812214886385,2.260996034509741,0.8796589620025991
1731474148.4399455,-0.4149532914161682,0.18424800038337708,-9.922703742980957,-0.6806501485123085,0.7568214755290514,0.014191522065415775,-0.39453041643384734,2.2666713869588153,0.8795129790432096
1731474148.4898977,-0.32263457775115967,0.564312756061554,-10.011099815368652,-0.6781734469847363,0.7636658798336294,0.013597325287871545,1.5630177489952761,2.2876946642453606,0.8798683748946446
1731474148.539939,-0.4096713662147522,0.33358514308929443,-9.978320121765137,-0.6757324074592115,0.7706338122179371,0.012991575999596905,1.560394529580013,2.29560679729525,0.8798440464704769
1731474148.5898108,-0.33266475796699524,0.4822407364845276,-9.983787536621094,-0.6733277314319897,0.7777157940531821,0.012376124401997732,1.5553789345933773,2.3139492105802257,0.879960639403285
1731474148.6398258,-0.36633315682411194,0.4079146981239319,-10.017582893371582,-0.67096001951484,0.7849028150325841,0.011752932537089866,1.5530006670686953,2.321883278044677,0.8799666409192486
1731474148.6896837,-0.37975364923477173,0.41329842805862427,-9.984230041503906,-0.6686297396852461,0.7921862583421977,0.011123964438502536,1.5498720788643725,2.3398707364149818,0.8799952405926865
1731474148.7397082,-0.3236582279205322,0.45023560523986816,-9.957239151000977,-0.666337234139441,0.799557763471207,0.01049114614568293,1.5477832861877283,2.346814558612417,0.8800080468332799
1731474148.7895982,-0.4094269871711731,0.40006208419799805,-10.010847091674805,-0.6640827447320268,0.807009114629121,0.009856461701957482,1.5438483934697393,2.3685452094116037,0.8800064453123178
1731474148.8395123,-0.3341081142425537,0.49790847301483154,-9.974881172180176,-0.6618664521253466,0.8145322241015267,0.009222005171052561,1.538634631270819,2.3871106243516618,0.8800077668064108
1731474148.8895173,-0.40162166953086853,0.3858509361743927,-9.979796409606934,-0.6596885552399954,0.822119179051128,0.008589910374354647,1.5359161460911008,2.395350094972789,0.8800201320131186
1731474148.9394271,-0.33520281314849854,0.49349677562713623,-9.995915412902832,-0.6575493948177498,0.8297620802065385,0.007962322326766594,1.532817027451146,2.4040142911726217,0.8800375185214657
1731474148.989394,-0.39363962411880493,0.3769837021827698,-9.9759521484375,-0.6554497603193093,0.8374523423698693,0.007341399745148554,1.5293124775957148,2.4131917155442006,0.8800596368345353
1731474149.0393794,-0.32641667127609253,0.49767252802848816,-9.984671592712402,-0.6533912963823109,0.8451797663082133,0.006729297336739703,1.5329339383914105,2.4173739441909894,0.880010365171332
1731474149.0893095,-0.39658495783805847,0.40310895442962646,-9.991823196411133,-0.6513766575886797,0.8529321455929313,0.0061281606623707924,1.5310739088087373,2.423309809273663,0.8800207861517575
1731474149.139286,-0.31508591771125793,0.49019932746887207,-9.974615097045898,-0.6494093786657785,0.8606955008054537,0.005540106060991009,1.5287939885503667,2.429822547469965,0.880034930411898
1731474149.1892076,-0.3865351676940918,0.38851404190063477,-9.984769821166992,-0.6474936594371616,0.8684544405629335,0.004967200987878302,1.5275217151269154,2.4368154292780715,0.8800081225933721
1731474149.2392628,-0.3284973204135895,0.4553205966949463,-9.989445686340332,-0.6456341676731067,0.8761923857781979,0.004411464266919974,1.5257367163358746,2.4444259965289854,0.8800159067759128
1731474149.2891707,-0.36882221698760986,0.4021817743778229,-9.976908683776855,-0.6438358884894968,0.8838917238996096,0.0038748420719609145,1.523560284127645,2.452538856724065,0.8800262296629193
1731474149.3390863,-0.339903861284256,0.46282950043678284,-9.997218132019043,-0.6421039955748937,0.8915340274079134,0.0033591724495506533,1.520984834329759,2.461200586377482,0.88003879800593
1731474149.3890233,-0.36403632164001465,0.4146801829338074,-9.983406066894531,-0.6404437367862533,0.899100361192019,0.0028661556611615235,1.520955766136255,2.4704149449895847,0.8800061009191602
1731474149.4399798,-0.3282560706138611,0.4430561661720276,-9.990992546081543,-0.6388603327939405,0.9065715731408681,0.0023973224880116874,1.5191050731247264,2.4804464427857873,0.8800111156552984
1731474149.489963,-0.34830936789512634,0.4099680185317993,-9.985173225402832,-0.6373588593885644,0.9139284153097467,0.001954015003106886,1.5168898970164328,2.49084110940325,0.8800174020663115
1731474149.5398574,-0.3367198407649994,0.4484230577945709,-9.979958534240723,-0.6359441582543399,0.9211514027711936,0.00153736783731132,1.5144482245352364,2.501781660210796,0.8800037851004846
1731474149.5898209,-0.3511849343776703,0.42940324544906616,-9.9827299118042,-0.6346208265998035,0.9282206113173292,0.0011482911245980448,1.5123447354093156,2.513322355947345,0.8800065301311778
1731474149.639785,-0.3449540138244629,0.44740235805511475,-9.993281364440918,-0.6333932350697525,0.9351157353012519,0.0007874671322118626,1.5098539705431382,2.5254033963541773,0.8800098681558369
1731474149.689714,-0.348348468542099,0.4309273660182953,-9.968509674072266,-0.6322655176087919,0.941816374966778,0.0004553489127096338,1.5078606575513744,2.5381037185610467,0.8800020658144047
1731474149.7397473,-0.3465837836265564,0.4344233572483063,-9.99363899230957,-0.6312415337040235,0.9483023224808957,0.00015218184349912034,1.5058315098730746,2.5514284111208423,0.8800031492105929
1731474149.7896135,-0.35121646523475647,0.43669408559799194,-9.989757537841797,-0.6303248240585493,0.9545537834237466,-0.00012197412338992163,1.5012587548570422,2.5652851715321474,0.8800008632188274
1731474149.839714,-0.3436480164527893,0.4485608637332916,-9.986307144165039,-0.6295185734529567,0.9605515958797975,-0.00036726896068477925,1.4948902772869068,2.5797846010655143,0.880000250943688
1731474149.8895714,-0.3436480164527893,0.4485608637332916,-9.986307144165039,-0.6288255676481427,0.9662774815189097,-0.0005840769941960745,1.4920073940710166,2.5948026087995526,0.8799999221575787
1731474149.9394937,-0.3596985638141632,0.44395580887794495,-9.989258766174316,-0.6282481526061001,0.9717142809888418,-0.0007729645637919024,1.488717370957269,2.6105032076305106,0.8799991681555855
1731474149.9894161,-0.3629949986934662,0.4327376186847687,-9.978323936462402,-0.627788251116358,0.9768461011694789,-0.0009346525386874102,1.485040282725207,2.6267884502700536,0.8799978824096141
1731474150.0394707,-0.3629949986934662,0.4327376186847687,-9.978323936462402,-0.6274474463884516,0.9816583863364441,-0.0010699773766486504,1.486760622626298,2.6437295857502456,0.879999435022363
1731474150.0892787,-0.3588835597038269,0.44195646047592163,-9.983288764953613,-0.6272270742410563,0.9861380225168239,-0.0011798576385823796,1.4847058579936003,2.6611813768844104,0.8799981241180275
1731474150.1392915,-0.3525645434856415,0.4376795291900635,-9.988021850585938,-0.6271282622633938,0.9902735154740121,-0.0012653060448307532,1.4822430867178484,2.679380751039252,0.8799960376208398
1731474150.1892414,-0.3610277473926544,0.4366692900657654,-9.989734649658203,-0.6271518966540434,0.9940551313273136,-0.001327476056525741,1.480127318182647,2.6980816871298425,0.8799988636221582
1731474150.239233,-0.35390523076057434,0.44004589319229126,-9.980785369873047,-0.6272985646328391,0.9974749300467404,-0.001367686879084675,1.478188025181969,2.7175174888193925,0.8799970911599879
1731474150.2891834,-0.34808841347694397,0.4356316924095154,-9.990507125854492,-0.62756850711619,1.0005267476420612,-0.0013874018629196952,1.475869330151243,2.7374623220137204,0.8799944712795214
1731474150.3391497,-0.34808841347694397,0.4356316924095154,-9.990507125854492,-0.6279615578889874,1.003206167616444,-0.0013881976938793356,1.472650391260253,2.758118572929623,0.8799985194285039
1731474150.3889644,-0.34229859709739685,0.43807172775268555,-9.979005813598633,-0.6284770752649442,1.0055104782292905,-0.0013717505750023944,1.470421296641068,2.7792678525086987,0.8799965975307706
1731474150.4399717,-0.35194361209869385,0.43843650817871094,-9.987793922424316,-0.6291139035858365,1.00743862916534,-0.0013398045721305161,1.463714376584848,9.516370189431424,0.8799984890491898
1731474150.4899325,-0.35194361209869385,0.43843650817871094,-9.987793922424316,-0.6298703833895931,1.0089911948609072,-0.0012941279921679055,1.4569147059665162,9.512523835151107,0.8799986907958828
1731474150.5399475,-0.3440338671207428,0.4448617100715637,-9.980924606323242,-0.6307443912544142,1.0101703347455224,-0.001236496792085921,1.453571549157039,9.576580601777822,0.879996955953745
1731474150.5898569,-0.3435697555541992,0.4436219334602356,-9.993441581726074,-0.6317333378705895,1.0109797631348856,-0.0011686739003503078,1.449843117055452,9.641107294166192,0.8799944754941996
1731474150.6397717,-0.3435697555541992,0.4436219334602356,-9.993441581726074,-0.632834083294675,1.0114247423333478,-0.0010923582380749752,1.4501874691664036,9.49575326454915,0.8799985194173936
1731474150.6896904,-0.34205594658851624,0.4357181191444397,-9.985618591308594,-0.6340428403899068,1.0115120585251314,-0.0010091341141015358,1.44805102155073,9.510203083320402,0.8799969151736798
1731474150.7397027,-0.3368449807167053,0.4365089237689972,-9.985532760620117,-0.6353551496971573,1.011249928767349,-0.0009204308752602929,1.4427199619791453,9.470227338045769,0.8799987570481064
1731474150.7896504,-0.3370206654071808,0.44003918766975403,-9.988101959228516,-0.6367659114906141,1.0106478642695507,-0.0008274909938211156,1.4400013388931328,9.474471318370208,0.8799974154065018
1731474150.839731,-0.34878137707710266,0.4350849390029907,-9.995030403137207,-0.6382694445734013,1.009716550038855,-0.0007313739817878472,1.436214752005427,9.458286857275032,0.8799989516104354
1731474150.8894904,-0.34958556294441223,0.43955448269844055,-9.992443084716797,-0.6398595913871548,1.0084677439002732,-0.0006330035680907314,1.4335826722225953,9.459899473402086,0.8799978748834485
1731474150.9395454,-0.34958556294441223,0.43955448269844055,-9.992443084716797,-0.6415298537212649,1.0069141772702603,-0.0005332169917164843,1.430528067530336,9.462155468067193,0.879996424785491
1731474150.9894862,-0.3534073531627655,0.43426117300987244,-9.98823356628418,-0.6432735025952194,1.0050694580521469,-0.0004327796812403884,1.427076827851232,9.465037135590268,0.8799946749205962
1731474151.0393903,-0.3534073531627655,0.43426117300987244,-9.98823356628418,-0.6450836541678796,1.0029479617337815,-0.00033237046440356526,1.42816292264184,9.450302465783352,0.8799991600234198
1731474151.089344,-0.34376397728919983,0.4424741268157959,-9.984296798706055,-0.6469533245577135,1.0005647155296002,-0.000232559319331898,1.4260465572390166,9.45130792679573,0.879998553545806
1731474151.1394033,-0.34501925110816956,0.4349685609340668,-9.980411529541016,-0.6488754496393807,0.9979353002740459,-0.0001337969689042813,1.4217318808604729,9.44479840114295,0.8799995341143373
1731474151.1892505,-0.35001081228256226,0.4367660880088806,-9.98748779296875,-0.6508428903273674,0.9950757419918455,-3.644249952987242e-05,1.419119968457773,9.445124999014894,0.8799992622560104
1731474151.2393665,-0.35077399015426636,0.4410512447357178,-9.983784675598145,-0.6528484743774364,0.992002378104021,5.9169284711626144e-05,1.4160778529916493,9.446077780142726,0.8799989954539412
1731474151.2891529,-0.3346041738986969,0.4414082169532776,-9.978825569152832,-0.6548850535264451,0.9887317556628181,0.00015267817700962707,1.4134065402878055,9.43913315648004,0.87999983945983
1731474151.339152,-0.3532467186450958,0.44168803095817566,-9.982125282287598,-0.6569455223523196,0.9852805774990436,0.00024370784063214318,1.4112082279440643,9.439740728498268,0.8799999588352864
1731474151.38902,-0.3444956839084625,0.44681721925735474,-9.989038467407227,-0.6590228336338646,0.9816656554651506,0.0003318885698561432,1.405859007637981,9.433078980519953,0.8800001012603159
1731474151.4390323,-0.3412024676799774,0.45108357071876526,-9.988518714904785,-0.6611100440147624,0.9779038663387614,0.00041684014828863926,1.403104905333862,9.43306799061228,0.8800004907945465
1731474151.4888942,-0.35135704278945923,0.44728460907936096,-9.988907814025879,-0.6632003493205252,0.9740121178719368,0.0004981355627164145,1.3965202762225106,9.427433585081534,0.8800003216792622
1731474151.5399947,-0.35135704278945923,0.44728460907936096,-9.988907814025879,-0.6652871182195926,0.9700072987467725,0.0005752878282235272,1.3929868539072372,9.42722023037172,0.8800009692752833
1731474151.589838,-0.35130253434181213,0.43799132108688354,-9.989453315734863,-0.6673639535628332,0.9659061911955704,0.0006477593554533879,1.389123665056988,9.427621419019808,0.8800019849917834
1731474151.6397727,-0.35130253434181213,0.43799132108688354,-9.989453315734863,-0.669424743811547,0.9617253554094398,0.0007149749333481445,1.3895126535947881,9.421368485799398,0.8800005995510769
1731474151.6898038,-0.345090389251709,0.4354267120361328,-9.992863655090332,-0.6714636744520761,0.9574810122189354,0.0007763425666305748,1.3872399734269565,9.421717896634888,0.8800015495223944
1731474151.7628806,-0.3515869379043579,0.4293767511844635,-9.992466926574707,-0.673475210460283,0.9531889444249995,0.0008313015323161706,1.3796209041954064,9.414500767039826,0.880001182817105
1731474151.839626,-0.3230764865875244,0.15276339650154114,-9.979936599731445,-0.6754540576050666,0.9488641638341615,0.0008793956998133804,1.3713875556395174,9.410317514061552,0.8800014979441143
1731474151.8895721,-0.22208143770694733,0.187400683760643,-10.070066452026367,-0.6773949904704291,0.9445199190289629,0.0009202701368664243,1.3679155501829123,9.410602315174943,0.8800030171692365
1731474151.939552,-0.3626958727836609,-0.3957504630088806,-10.0033597946167,-0.6792925246211259,0.940165959928448,0.0009534780545764991,1.3640081708403002,9.411476913222264,0.8800051268766995
1731474151.989412,-0.49128592014312744,-0.6028002500534058,-10.101073265075684,-0.6811410002201759,0.9358059229176878,0.0009782155868996673,1.3645550651787521,9.404179322789386,0.8800013123808971
1731474152.039409,-0.49128592014312744,-0.6028002500534058,-10.101073265075684,-0.68293551090413,0.931434266916972,0.0009930859760371377,1.3578949273402185,9.398884845773305,0.8800010336459441
1731474152.0893848,-0.42409035563468933,-0.23452405631542206,-9.928579330444336,-0.6846729023441431,0.9270349501169317,0.0009959988284830492,1.354869061047499,9.398661872633305,0.8800023740605003
1731474152.139399,-0.3635537326335907,0.16380023956298828,-9.96257495880127,-0.6863518461203493,0.9225837076354466,0.0009846056045332945,1.3514155115697166,9.3990191490953,0.8800043346175357
1731474152.1892323,-0.3265819549560547,0.03705446049571037,-9.926668167114258,-0.6879720917797616,0.9180528025227788,0.0009571279054899878,1.3475543690791472,9.399946542717224,0.8800068876385206
1731474152.2392316,-0.34383344650268555,0.2610261142253876,-9.951214790344238,-0.6895336323505973,0.9134152163300293,0.0009128461415581514,1.3432434679157848,9.401450616165006,0.8800100375634357
1731474152.2891235,-0.35642221570014954,0.23940710723400116,-9.95168685913086,-0.6910362881169186,0.9086466867971605,0.0008520578582034266,1.3499155632080062,9.392854662961813,0.8800012455067104
1731474152.3392637,-0.3735845685005188,0.305618554353714,-9.976515769958496,-0.6924797649404085,0.9037261217510636,0.0007757198592007311,1.3479729377375804,9.39348647224792,0.8800025410507117
1731474152.389072,-0.3662432134151459,0.2762035131454468,-9.98367977142334,-0.6938639169106336,0.8986352710337103,0.0006849634040557548,1.342250144395041,9.387454907572817,0.8831615566529474
1731474152.4390504,-0.3853393793106079,0.2848801612854004,-9.992253303527832,-0.6951889352462465,0.8933583730224947,0.000580719826584358,1.3394600193413877,9.38747648640305,0.88378741000248
1731474152.4890246,-0.3745778203010559,0.2969180941581726,-9.987142562866211,-0.6964554154485685,0.8878820804391142,0.0004635561545253612,1.3361624632150069,9.383546399895474,0.8865711342543219
1731474152.539969,-0.36941108107566833,0.32635197043418884,-10.017279624938965,-0.6976643534521033,0.8821955219436217,0.00033362963788717624,1.3334687726831986,9.383712616039519,0.8874064286403774
1731474152.5898287,-0.3613957464694977,0.32036691904067993,-9.987659454345703,-0.6988170673322249,0.8762904335218463,0.00019066581627135971,1.330394281107051,9.384428210288487,0.888223804085966
1731474152.6398501,-0.3558109700679779,0.3377763330936432,-10.017905235290527,-0.6999150655548037,0.870161280113998,3.396436468476746e-05,1.3293300212134054,9.378595707473664,0.8869469930793317
1731474152.6896672,0.11172740161418915,0.9410831928253174,-9.988750457763672,-0.7009595043759203,0.8638058172620651,-0.000137544194628515,1.3272103274238878,9.379025998498276,0.8871404270179802
1731474152.7397246,0.6022413969039917,1.6053311824798584,-9.950591087341309,-0.7019490587971403,0.8572277072292002,-0.0003251631185091987,1.3236575172290168,9.373080522965154,0.8869556610685093
1731474152.7897217,0.45707929134368896,1.1785728931427002,-9.883322715759277,-0.7028761520137191,0.8504411178675355,-0.0005300934669030569,1.321225095065958,9.372977350542708,0.8870478269594289
1731474152.8396256,0.18722468614578247,0.8254978060722351,-10.014012336730957,-0.7037239633080274,0.8434736192986794,-0.0007529583101104588,1.3183450929898843,9.373404101401563,0.8871398669806486
1731474152.889567,-0.2138817459344864,0.33085402846336365,-10.020838737487793,-0.7044660421185027,0.836365047136074,-0.0009935948914928713,1.315033949652775,9.3743539294295,0.8872310939284808
1731474152.939633,-0.84199458360672,-0.42900434136390686,-10.077438354492188,-0.7050687492448077,0.8291632049085162,-0.0012513296738921854,1.3166741872110852,9.367184753499517,0.8870580766175877
1731474152.9894435,-1.1347620487213135,-0.6553553342819214,-10.159132957458496,-0.7054966555062321,0.8219170884776889,-0.0015255490627154658,1.3147014168097473,9.367553728313174,0.887093074317924
1731474153.0395005,-1.1347620487213135,-0.6553553342819214,-10.159132957458496,-0.705718972338372,0.8146697628172094,-0.0018163689025863096,1.3100621712043274,9.36116491945438,0.8840213345513458
1731474153.0893981,-0.5375619530677795,0.026560742408037186,-10.053828239440918,-0.7057129987760824,0.8074550597368693,-0.0021250640820523426,1.3074560225525649,9.360879201175507,0.8834142007246774
1731474153.13939,-0.6419805884361267,-0.14039817452430725,-10.018117904663086,-0.7054628693649321,0.8002994549473017,-0.002453796586182142,1.304386620998941,9.36109432659623,0.8828006097116615
1731474153.1893013,-0.5061772465705872,0.20886747539043427,-9.975037574768066,-0.7049561543179726,0.7932261158171373,-0.0028047771710294662,1.3008964627372521,9.361804457804768,0.882189082054901
1731474153.2392278,-0.504601240158081,0.35937514901161194,-9.961531639099121,-0.7041815740867673,0.7862581161932295,-0.0031794751979400916,1.296954301002968,9.363010065250826,0.8815735539132021
1731474153.2890863,-0.5235366225242615,0.4285810589790344,-9.942535400390625,-0.7031282473424403,0.7794207079494373,-0.0035781730591165845,1.3031393942434941,9.352364467597855,0.8810301626776376
1731474153.3391986,-0.5182399153709412,0.41647854447364807,-9.95583724975586,-0.7017856009715422,0.7727428613343779,-0.003999806737130704,1.3012931310999234,9.352549379213642,0.8806966579543077
1731474153.3890479,-0.5484158992767334,0.4480695128440857,-9.937871932983398,-0.7001442831800206,0.7662572268665805,-0.004442073602005925,1.2953753472591671,9.344451833394626,0.8812499568574625
1731474153.4390175,-0.5478430390357971,0.4370619058609009,-9.939542770385742,-0.6981990796767675,0.7599982288532686,-0.00490183141769697,1.292525811765523,9.343681458107405,0.8812003961852755
1731474153.4889638,-0.5263280868530273,0.4694240391254425,-9.992203712463379,-0.6959526606000385,0.7539994806988286,-0.0053756444828528885,1.2886196520478077,9.336592850545053,0.8817316528809225
1731474153.5389593,-0.5467596054077148,0.46723413467407227,-9.985711097717285,-0.6934172475550975,0.748292235523853,-0.00586026821295306,1.2858751212765969,9.335668232365112,0.88179006357508
1731474153.5898702,-0.551529049873352,0.4757702946662903,-9.996859550476074,-0.69061387158629,0.742905100409888,-0.0063529751376826555,1.281176265243379,9.328326257029829,0.8821672112465809
1731474153.6398945,-0.5152885317802429,0.4587487578392029,-9.976001739501953,-0.6875709973659163,0.7378640907622235,-0.006851674967924585,1.2785669561065822,9.327574790105823,0.8822347231928512
1731474153.6898081,-0.5710768699645996,0.47691261768341064,-10.003650665283203,-0.6843232351935833,0.7331926001062401,-0.007354866756388633,1.274313874008532,9.319192720916888,0.8826068159410412
1731474153.7397523,-0.5710768699645996,0.47691261768341064,-10.003650665283203,-0.6809101971890295,0.7289113671702583,-0.007861579161413996,1.2685354485441462,9.311149359812903,0.882800581822275
1731474153.789613,-0.5084438323974609,0.5185731053352356,-9.965476989746094,-0.6773755231768628,0.7250385420735941,-0.008371342497925875,1.2656010520905105,9.309442175207808,0.8828701186725738
1731474153.8396065,-0.5292466878890991,0.4623800218105316,-9.98769760131836,-0.6737658245370292,0.7215898248162989,-0.008884072754363242,1.2622369634150885,9.308182404148676,0.8829344467803664
1731474153.88953,-0.48913973569869995,0.46731847524642944,-9.979022026062012,-0.6701295155137915,0.7185784914348906,-0.009399896218345792,1.2584606980571158,9.307374261841055,0.8829929427033111
1731474153.9395475,-0.4685397744178772,0.5056860446929932,-9.99309253692627,-0.6665156732084434,0.7160153389663119,-0.009919021319329492,1.261125112797816,9.29786155372471,0.8830244834803104
1731474153.9894257,-0.4685397744178772,0.5056860446929932,-9.99309253692627,-0.662972821769517,0.7139089123617297,-0.010441565171871472,1.2561339869113801,9.287352680266306,0.8830117439619565
1731474154.0394197,-0.4022035002708435,0.5028836131095886,-9.970311164855957,-0.6595477102118406,0.7122659879328721,-0.010967302957547324,1.2536839948854792,9.285370033181405,0.8830121805896468
1731474154.089314,-0.42270535230636597,0.48164358735084534,-9.983999252319336,-0.6562843774856051,0.7110918324848033,-0.011495487752926197,1.2508358655020755,9.28383896996509,0.8830056301841884
1731474154.1392968,-0.38456615805625916,0.5007065534591675,-9.960416793823242,-0.6532235726564725,0.7103901233900589,-0.0120247978615227,1.2475553515218454,9.282742412243376,0.8829916492775619
1731474154.1892097,-0.3837924003601074,0.4896668791770935,-10.00211238861084,-0.6504024189550122,0.7101628132067024,-0.012553376255151396,1.243900895048793,9.28209731280646,0.882970168346848
1731474154.2391903,-0.3806689977645874,0.47306615114212036,-10.001392364501953,-0.6478542161343386,0.7104100630718555,-0.013078977804831863,1.2398189233373373,9.28189135889723,0.8829405587710291
1731474154.2891269,-0.5227342247962952,0.9770021438598633,-9.972333908081055,-0.6456084865107495,0.7111306147100096,-0.013599173102099474,1.24906993189268,9.263253170929925,0.883190622011932
1731474154.3391964,-0.6536251306533813,1.1910713911056519,-9.957026481628418,-0.643691618988119,0.7123236256383574,-0.014111408111343269,1.2474189952194528,9.262084331695515,0.8831894914155038
1731474154.389024,-0.5680765509605408,0.5152410864830017,-9.884139060974121,-0.6421280066451396,0.7139911329058515,-0.014612809031966646,1.2453698832318678,9.261363542167425,0.8831793901764284
1731474154.438984,-0.8518714904785156,1.0223649740219116,-10.114818572998047,-0.6409410303772429,0.7161382685219134,-0.01510002241012348,1.2441699373843882,9.241597543206435,0.8833802462710139
1731474154.4890203,-0.5428992509841919,0.5303182005882263,-9.948053359985352,-0.640153671900637,0.7187713992386995,-0.015569575365160257,1.2424789705855,9.239596375667006,0.8833855286147777
1731474154.8706543,-0.253031849861145,0.3442539572715759,-9.981415748596191,-0.6397883100281962,0.7218961912398283,-0.016018499729225057,1.212971177871885,9.16239929922474,0.8838489840843029
1731474154.9205117,-0.23775433003902435,1.9156547784805298,-9.855184555053711,-0.6398649223653721,0.7255167545160954,-0.01644441103447756,1.2198414310529164,9.145889037254962,0.8839293086240302
1731474154.9705315,-0.4001409411430359,0.5899046659469604,-9.77047061920166,-0.6403988878129325,0.7296377165259477,-0.01684487620362724,1.2170292313537154,9.143066293536215,0.8839024894925254
1731474155.020408,-0.1947299689054489,1.112312912940979,-10.022409439086914,-0.6414002860981394,0.7342668238825174,-0.017216711455273048,1.2194209769085886,9.114111992250427,0.8839645555473687
1731474155.0704117,-0.21322882175445557,0.8714746236801147,-10.088143348693848,-0.6428741294057599,0.7394140074970216,-0.01755623011329753,1.2171961954871282,9.108650367916574,0.8839394923212149
1731474155.1203022,-0.2239534556865692,0.9041865468025208,-9.905142784118652,-0.6448203108964459,0.7450891824000005,-0.017860389594071577,1.2145104609937005,9.103528832676837,0.8839026113184393
1731474155.1704328,-1.3943976163864136,-0.5810168385505676,-10.084527969360352,-0.6472346753174713,0.751299911413886,-0.01812743421726023,1.2114930128130752,9.098996880160675,0.8838555454257673
1731474155.2202253,-0.5982986688613892,0.3721615672111511,-10.063822746276855,-0.6501128056919587,0.7580465667908625,-0.01835684158740361,1.2079557205399065,9.094792903464123,0.8837951604008843
1731474155.2702136,-0.46314603090286255,0.03619835898280144,-10.011496543884277,-0.6534531870171091,0.7653180234475137,-0.018549407804448886,1.2168257250994408,9.080157909482493,0.8839746334033951
1731474155.320184,-0.5183843374252319,0.10595713555812836,-10.015792846679688,-0.6572559558490841,0.7730918098959357,-0.01870724130745134,1.2153086616687154,9.077668816864255,0.8839468795328808
1731474155.3702235,-0.11161405593156815,0.15249505639076233,-10.028287887573242,-0.6615192315849291,0.781335927604716,-0.018833315791390477,1.2142776965178708,9.055125659975307,0.8839791545546452
1731474155.4200754,-0.11161405593156815,0.15249505639076233,-10.028287887573242,-0.6662351997077093,0.7900091236091249,-0.01893089285115116,1.2127487006051008,9.051334358053678,0.8839533102165209
1731474155.469965,-0.25383296608924866,0.3448643088340759,-9.974748611450195,-0.6713864603857109,0.7990607533462485,-0.019003009172598277,1.210808417631397,9.048046753453018,0.8839157549100197
1731474155.5198517,-0.10165785253047943,0.2227284014225006,-9.922452926635742,-0.6769447753632326,0.808431920232694,-0.019052008568964374,1.2084488434578962,9.045256580545963,0.8838663731547503
1731474155.5699394,-0.1839110553264618,0.4192267656326294,-9.99095344543457,-0.6828722753451879,0.8180575958503417,-0.019079155365284952,1.2104822150730783,9.02036435646579,0.8839764180032209
1731474155.6198208,-0.19280876219272614,0.3612631559371948,-9.950533866882324,-0.6891230718317145,0.8278687377832822,-0.019084530428853903,1.2088686496234289,9.016303329224051,0.8839477165802031
1731474155.6698928,-0.00384950777515769,0.6912849545478821,-9.922014236450195,-0.6956446363868217,0.8377943673636763,-0.019067184376226162,1.2082466501383091,9.01299690864806,0.8841668558673395
1731474155.7207956,0.744889497756958,1.6483407020568848,-9.939879417419434,-0.7023780468522575,0.8477648445753212,-0.01902521347504101,1.2061437604323657,9.010042026728051,0.8843836573553703
1731474155.770732,0.3141680657863617,1.1341841220855713,-10.00156307220459,-0.7092562334475225,0.8577170657524755,-0.018955824401616476,1.204403483764399,9.007722873102024,0.8844285348007638
1731474155.8206358,-0.22723086178302765,1.8611536026000977,-9.893811225891113,-0.7162031700173331,0.8675992056197737,-0.018855602215059254,1.2021734322962359,9.005895534416398,0.8844624991861304
1731474155.8706558,-0.4820658564567566,1.1263463497161865,-9.909140586853027,-0.7231376488626788,0.8773724536713776,-0.0187206629885358,1.1995433800321122,9.004645656664605,0.8844841373909252
1731474155.9206085,-0.49431735277175903,1.4234706163406372,-9.892594337463379,-0.7299800229258708,0.8870111362030532,-0.01854661315074563,1.2036822607137838,9.00393028301585,0.8846020787340456
1731474155.970523,-0.07631285488605499,0.5004467964172363,-10.070384979248047,-0.7366576415652027,0.8965039740252592,-0.018329044048522952,1.2025762988864033,9.003768977368496,0.8847737333362411
1731474156.0204434,-0.24069371819496155,-0.35270124673843384,-10.206377029418945,-0.7431068494301427,0.9058543699262287,-0.0180649779820291,1.2011517014941857,9.004172104500826,0.8848001189742986
1731474156.0704284,-0.6625279188156128,-0.9579870700836182,-10.202309608459473,-0.7492728017871082,0.915074482054372,-0.01775460407122925,1.1992621058267507,9.005143390721711,0.884815307949508
1731474156.1203353,-0.7205891013145447,-0.26662561297416687,-10.021163940429688,-0.7551101791631185,0.924175632092517,-0.017402129607715155,1.1969034132390282,9.006688374630565,0.8848195262475551
1731474156.170457,-0.539745032787323,-0.3440362215042114,-10.02015209197998,-0.7605849378561229,0.9331634897530808,-0.01701512473168697,1.2006420828999713,9.008815836241187,0.8849901184556699
1731474156.220292,-0.7099660634994507,-0.18074804544448853,-9.97559928894043,-0.7656746278883786,0.9420394504916922,-0.016603034368159346,1.1993063474584602,9.011523382501418,0.8849945013104324
1731474156.270222,-0.4648881256580353,-0.01231425255537033,-9.95477294921875,-0.7703670653624268,0.950803465301888,-0.016175961296176503,1.1993167916901584,9.014809292391643,0.8849934768681016
1731474156.320121,-0.6345815658569336,0.11943099647760391,-9.89240837097168,-0.7746586813528277,0.9594561463290834,-0.01574392136869772,1.1978641400231298,9.018739848820974,0.8849781168190317
1731474156.370157,-0.4727819561958313,0.4156271815299988,-9.890789985656738,-0.7785530252053521,0.968000764790702,-0.015316245373568503,1.198365497955663,9.023186731690814,0.884987978648364
1731474156.419992,-0.4727819561958313,0.4156271815299988,-9.890789985656738,-0.7820594246495984,0.9764452755788002,-0.01490111627938365,1.1969852239851588,9.028272416261062,0.8849685355042389
1731474156.4700122,-0.4082532823085785,0.4868992269039154,-9.922954559326172,-0.7851916152122693,0.9848028489508538,-0.014505358538633674,1.1951045479169533,9.03400751334661,0.8849397483663178
1731474156.5199811,-0.4082532823085785,0.4868992269039154,-9.922954559326172,-0.7879663477797618,0.9930887500854306,-0.014134364276711765,1.1974734846268058,9.040315403337669,0.884983852489513
1731474156.5699735,-0.3570947051048279,0.568742036819458,-9.979055404663086,-0.7904022522762217,1.0013151725656517,-0.013792090692662651,1.1961888861438776,9.047278160726822,0.8849636937461373
1731474156.6198468,-0.35170891880989075,0.5658196806907654,-10.006991386413574,-0.792518998512278,1.0094884792925922,-0.013481314958952342,1.197343198259646,9.05481840870243,0.8849845938864328
1731474156.6698449,-0.35522300004959106,0.5524300336837769,-9.985919952392578,-0.7943366881792685,1.0176095194007724,-0.01320411690978199,1.1961453012138425,9.063104201497785,0.8849654338001748
1731474156.7197773,-0.3219449818134308,0.549161434173584,-9.999293327331543,-0.7958754636986309,1.0256745940496481,-0.01296223232365108,1.1944740978756312,9.07188939409148,0.8849384760836189
1731474156.7707493,-0.28970977663993835,0.5290778875350952,-9.999696731567383,-0.7971552033012117,1.033676067824958,-0.0127571524849657,1.1922451779773708,9.08158295993777,0.8849025157472569
1731474156.8206139,-0.3143123984336853,0.5126650929450989,-10.002466201782227,-0.7981951872036445,1.0416028243253315,-0.012590150001008524,1.1972431198518656,1.5728110694427877,0.8851786732272054
1731474156.870688,-0.2599155902862549,0.5240530371665955,-9.9974946975708,-0.7990138284777912,1.0494406770382931,-0.012462313461103788,1.1975592938163953,1.4742378937962626,0.8853634082840303
1731474156.9205627,-0.2969132363796234,0.4891177713871002,-9.995007514953613,-0.7996285229365109,1.05717279153756,-0.012374549383076867,1.1965229478446768,1.4431280811216374,0.8853900057464724
1731474156.9705002,-0.2292598932981491,0.49995648860931396,-10.004132270812988,-0.8000555406490769,1.0647801098075034,-0.01232755945001993,1.198006978934292,1.4481885468613875,0.8855916090766573
1731474157.0204966,-0.2579132318496704,0.4924958348274231,-10.007848739624023,-0.8003097162545015,1.0722418003857463,-0.012321804923112701,1.1970004145282744,1.4412190876910698,0.8856274317390167
1731474157.0704823,-0.24598565697669983,0.4703907370567322,-10.037233352661133,-0.8004036161054848,1.0795358483360884,-0.01235741969938314,1.1954982666568106,1.434950785070092,0.885655397982885
1731474157.1203732,-0.2604096531867981,0.4892358183860779,-9.96359920501709,-0.8003465675249465,1.0866396911541703,-0.012434069668556128,1.1934980567705735,1.4293590910089573,0.8856756343729584
1731474157.1703653,-0.2412901222705841,0.49372807145118713,-10.008519172668457,-0.8001443585286091,1.0935307143274473,-0.012550788964029846,1.1987227452012583,1.4534864624138355,0.8858040123464398
1731474157.2202988,-0.25269076228141785,0.49582356214523315,-9.967084884643555,-0.7997995985855755,1.1001866407706347,-0.012705856176247962,1.1999869054171446,1.4610034863170605,0.8860357677676188
1731474157.2702527,-0.29472479224205017,0.49913355708122253,-9.967273712158203,-0.799312273227579,1.1065858740456465,-0.012896760244460594,1.199346709949269,1.463989001492264,0.8861168481020355
1731474157.3201697,-0.2970694601535797,0.489962100982666,-10.00029182434082,-0.7986803906485815,1.112707763071862,-0.013120229119371928,1.198207611606789,1.4676700153007667,0.8861899201103363
1731474157.370167,-0.34497785568237305,0.48454904556274414,-9.985206604003906,-0.797900700599772,1.1185327748675726,-0.013372360078392471,1.1965673689715937,1.4720548973602074,0.8862548309927977
1731474157.4200604,-0.34497785568237305,0.48454904556274414,-9.985206604003906,-0.7969693679644582,1.1240425965226253,-0.013648829477846507,1.2008572681120564,1.4671689428102102,0.8860349268407397
1731474157.4700716,-0.3997398614883423,0.48361581563949585,-10.031452178955078,-0.7958825633725349,1.1292202172486903,-0.013945069848334867,1.199873537979799,1.4694683919585936,0.8860327891940499
1731474157.5199513,-0.34380197525024414,0.5006750226020813,-9.992836952209473,-0.794636935941221,1.1340500411896557,-0.014256453405247251,1.2017708443104673,1.4717272483710866,0.8860034341719285
1731474157.570007,-0.40116724371910095,0.47793707251548767,-9.987176895141602,-0.7932300094939153,1.1385180137033934,-0.014578454480641125,1.2008969593943986,1.47432781899014,0.8859885395125722
1731474157.6199002,-0.3695700168609619,0.49243950843811035,-9.979872703552246,-0.791660782326226,1.1426116729137012,-0.014906683566321782,1.2034918752892865,1.4764856817217378,0.8859905815642152
1731474157.6698487,-0.41193339228630066,0.5345649719238281,-9.984530448913574,-0.7899304874803882,1.1463201685597086,-0.015236873230201628,1.202804599653044,1.4792796564254904,0.8859714523033457
1731474157.7197323,-0.41193339228630066,0.5345649719238281,-9.984530448913574,-0.7880430108406644,1.1496344317884954,-0.015564902133741038,1.205139945595764,1.481372212459955,0.8859856243230612
1731474157.7697887,-0.4148857295513153,0.5152393579483032,-10.009360313415527,-0.7860048587735882,1.152547426055806,-0.015886854110784908,1.204400830671381,1.4840670840271257,0.8859644979429638
1731474157.8206913,-0.38384121656417847,0.5252273082733154,-9.947656631469727,-0.7838249061004441,1.1550542208490273,-0.016199077500017593,1.2070940386740927,1.4868742936062773,0.886179910429416
1731474157.8705866,-0.37471675872802734,0.512197732925415,-9.963825225830078,-0.7815139779924671,1.1571518913186183,-0.01649812138666365,1.2064691502227503,1.489742476632925,0.8861960575373611
1731474157.9205194,-0.39332878589630127,0.548274040222168,-9.980907440185547,-0.7790843600645913,1.1588394284829506,-0.016780580513389043,1.2053310732474583,1.4934425312447435,0.8862023261542655
1731474157.970504,-0.3940364420413971,0.5331264734268188,-9.951216697692871,-0.7765494417189203,1.1601177406336591,-0.01704305772341816,1.2037404398125442,1.4977690135929598,0.8861980105129089
1731474158.0204077,-0.3720216453075409,0.5273372530937195,-10.012054443359375,-0.7739235068090851,1.160989669271855,-0.017282254545845692,1.2016176608256535,1.5029424908497,0.8861827122637536
1731474158.070431,-0.36154696345329285,0.5203379988670349,-9.981355667114258,-0.7712214896943206,1.1614598955657391,-0.017495113335310876,1.2089649169806882,1.5005997786801009,0.8861953926913976
1731474158.1203873,-0.33269548416137695,0.5211107134819031,-9.980409622192383,-0.7684585542486956,1.1615347935990004,-0.017678961714301153,1.2080573078074097,1.5038309626695419,0.8861755329979282
1731474158.170318,-0.3207956552505493,0.5135068893432617,-9.99845027923584,-0.7656494549573897,1.1612224051340374,-0.01783156453561767,1.2113664382384841,1.514256480426572,0.8861870468223235
1731474158.2202368,-0.30687013268470764,0.5224953889846802,-9.994780540466309,-0.7628078498477343,1.160532507182891,-0.01795113807074268,1.2134734001385026,1.5261433856617892,0.8861851195241187
1731474158.2701979,-0.3119085729122162,0.5182780623435974,-9.960308074951172,-0.7599458917851716,1.1594765998879912,-0.01803636726649786,1.2130720476631975,1.5311711379467123,0.8861623657407697
1731474158.3202002,-0.3232634663581848,0.5220323204994202,-9.994431495666504,-0.7570741850156621,1.1580677835401398,-0.018086326581644115,1.2121673005134734,1.5371750679227625,0.8861270052854675
1731474158.3702445,-0.28144803643226624,0.5371149778366089,-9.997028350830078,-0.7542019076660316,1.156320613190122,-0.01810039423506605,1.2156753159589924,1.533097821810105,0.8861798273863096
1731474158.4200966,-0.28144803643226624,0.5371149778366089,-9.997028350830078,-0.7513368745159588,1.1542509915855108,-0.018078300580728502,1.2150405324457882,1.536196147881309,0.8861544911477238
1731474158.4701083,-0.2963423728942871,0.5248386859893799,-9.973089218139648,-0.7484855189099141,1.1518760699479116,-0.018020183616255625,1.2182380203419234,1.5372707673067,0.8859806748857633
1731474158.5199509,-0.2963423728942871,0.5248386859893799,-9.973089218139648,-0.7456529703744715,1.1492140764903938,-0.017926501377943323,1.2178262228896473,1.5401988484752676,0.8859146745280657
1731474158.5699735,-0.2980497181415558,0.49068212509155273,-9.973512649536133,-0.7428432638457104,1.146284054555132,-0.017797873667520277,1.2169448890229204,1.5438705975101423,0.8858369263903484
1731474158.6198955,-0.2980497181415558,0.49068212509155273,-9.973512649536133,-0.7400595432167909,1.1431055397048078,-0.01763498775267401,1.215598019396395,1.5482600260502135,0.8857480801486218
1731474158.6698563,-0.3087119460105896,0.5085582733154297,-10.039146423339844,-0.7373042008130963,1.1396982614030404,-0.017438631330031207,1.2204366708937568,1.5428136012754463,0.8859605853079038
1731474158.719787,-0.37044280767440796,0.5171928405761719,-9.983965873718262,-0.7345790277614912,1.1360820127764084,-0.017209835729874327,1.2196793709058873,1.54522860655046,0.8859278998912363
1731474158.769825,-0.35450124740600586,0.50801682472229,-9.950888633728027,-0.7318854853288627,1.1322766734227443,-0.01694991158546771,1.2235113775580704,1.5484209061997993,0.8859735430882244
1731474158.8206687,-0.35450124740600586,0.50801682472229,-9.950888633728027,-0.7292250138294613,1.1283022047712417,-0.01666018985710334,1.2231751637186876,1.5514455032178862,0.8859473296490666
1731474158.8708599,-0.3457523584365845,0.5308553576469421,-10.02107048034668,-0.7265991605651042,1.1241785711465957,-0.01634175899689697,1.2223790139572184,1.5551583372412205,0.8859108631817855
1731474158.9206185,-0.3598632216453552,0.5240755081176758,-9.973990440368652,-0.7240095418118251,1.1199256941655829,-0.015995551265282675,1.2211438956730143,1.5595162954554538,0.885864866742613
1731474158.970634,-0.3892771303653717,0.5268489718437195,-10.022506713867188,-0.7214578445101008,1.1155634470286313,-0.015622599266981091,1.225725309475349,1.5631022789243167,0.8861705728026539
1731474159.0204418,-0.3892771303653717,0.5268489718437195,-10.022506713867188,-0.7189459599981787,1.1111116027403452,-0.015224201977505456,1.225032723782719,1.5665160634357365,0.8861684397004392
1731474159.0705018,-0.42074161767959595,0.5047159194946289,-9.953629493713379,-0.7164761726886363,1.1065897168622008,-0.01480198272867694,1.2288171241965662,1.5777224312456786,0.8863974415073722
1731474159.1203768,-0.4061630666255951,0.5313308238983154,-9.978107452392578,-0.7140513021463579,1.1020169772851491,-0.014357746872698161,1.2309383424129396,1.5891122955569863,0.8864038163164819
1731474159.170345,-0.3965300917625427,0.502784788608551,-9.966509819030762,-0.711674731493848,1.0974120756873118,-0.013893201372887739,1.2307033149777138,1.5944014443458232,0.886404570986501
1731474159.2203305,-0.3965300917625427,0.502784788608551,-9.966509819030762,-0.709350358583281,1.0927930840270137,-0.01340983329460201,1.2300266256465318,1.6003442099291632,0.8863968103546016
1731474159.2702694,-0.3934820294380188,0.535594642162323,-9.982986450195312,-0.7070826817467802,1.0881772824145484,-0.01290901352000811,1.2289060751472827,1.6069834523569904,0.8863808152986369
1731474159.3201983,-0.3934820294380188,0.535594642162323,-9.982986450195312,-0.7048770253659246,1.0835810640672505,-0.012392192854023246,1.2342372950801548,1.604004959248768,0.8863946568526992
1731474159.3701587,-0.35386738181114197,0.5342658758163452,-9.970437049865723,-0.7027395718436222,1.079020002718592,-0.011861048367011105,1.233710504661554,1.6077165114831586,0.8863796892432285
1731474159.4200087,-0.32312655448913574,0.5253065824508667,-10.006949424743652,-0.7006770383542527,1.074508919750855,-0.011317514730928853,1.236982215553314,1.6161639221575606,0.8863899380233088
1731474159.4701254,-0.32851725816726685,0.5242536067962646,-9.958294868469238,-0.6986961783718073,1.070061843178016,-0.010763771433788774,1.2366555334090983,1.6206709968257702,0.8863746812157607
1731474159.5200732,-0.32851725816726685,0.5242536067962646,-9.958294868469238,-0.6968033863498045,1.0656919273341459,-0.01020217004787221,1.2358905706759356,1.6258761762813947,0.8863527696622159
1731474159.5699933,-0.2976040542125702,0.528435468673706,-10.035711288452148,-0.6950045055619286,1.0614114080888706,-0.009635119507511669,1.2346978705479423,1.631710471567848,0.8863248281905152
1731474159.6201284,-0.2584826648235321,0.5214108228683472,-9.999695777893066,-0.6933046572645438,1.05723159976226,-0.009065163340165298,1.240231566998544,1.6328348551163907,0.8861924942211746
1731474159.6698892,-0.29298895597457886,0.5123870372772217,-9.98195743560791,-0.6917079831736408,1.0531628870007594,-0.008495166566105846,1.2396997993962142,1.636685622459028,0.8861569581646138
1731474159.7198591,-0.2805013358592987,0.5189118385314941,-9.997715950012207,-0.6902174971245261,1.0492146838559948,-0.00792827494932743,1.2387300020925698,1.6412314969477668,0.8861159413334766
1731474159.7697053,-0.25231388211250305,0.526025652885437,-9.983038902282715,-0.6888349966665616,1.0453954336093363,-0.00736771374284596,1.2438856915003527,1.6540394600015078,0.8859928410795318
1731474159.8196115,-0.2625800669193268,0.5331252813339233,-9.989421844482422,-0.6875605934979059,1.0417127449387364,-0.006816623309894994,1.2434355934011656,1.6587481623213371,0.8859528449647588
1731474159.870672,-0.25197145342826843,0.5226522088050842,-10.016423225402832,-0.6863920067634568,1.0381735943718793,-0.006277955944873791,1.24256086747114,1.664026235029749,0.8859094514447784
1731474159.9206076,-0.25197145342826843,0.5226522088050842,-10.016423225402832,-0.6853242945301526,1.0347844201178447,-0.005754502490120617,1.241258035939738,1.6699511485233673,0.885862303726264
1731474159.9705005,-0.28480449318885803,0.5353925824165344,-9.947487831115723,-0.6843501275629613,1.0315510944955415,-0.005248960103263348,1.2473009833570254,1.681502308795816,0.8859799640692365
1731474160.0204332,-0.2747306227684021,0.5366898775100708,-10.02096939086914,-0.6834602792766064,1.0284789096542735,-0.004763831589778201,1.2507730611388999,1.7034768751040612,0.8859882424585114
1731474160.0705328,-0.2890772521495819,0.5572153329849243,-9.990310668945312,-0.6826441327846005,1.0255726337760047,-0.004301308714671765,1.2506978245655094,1.7099820604224552,0.8859803980434503
1731474160.120394,-0.2890772521495819,0.5572153329849243,-9.990310668945312,-0.681890104260224,1.0228366041294628,-0.003863324375896775,1.250209285075571,1.7177157482086376,0.8859693831049614
1731474160.1703773,-0.3075338900089264,0.5318730473518372,-9.989680290222168,-0.6811859917434997,1.0202747837241937,-0.003451596645868013,1.2492932231414842,1.7261112707330237,0.8859560488646394
1731474160.220353,-0.3075338900089264,0.5318730473518372,-9.989680290222168,-0.6805193066452679,1.0178906889728605,-0.00306758463468749,1.2542539466981928,1.7034297150623363,0.8859925863798638
1731474160.2703774,-0.34983736276626587,0.5286862254142761,-9.962014198303223,-0.6798776068268069,1.015687224227218,-0.002712443556785072,1.2537571910762129,1.705462048185411,0.8859872720075503
1731474160.3201654,-0.3544542193412781,0.5517596006393433,-9.99022388458252,-0.679248949462144,1.0136666068681035,-0.002386962197476065,1.257849266109289,1.7081102113117719,0.8859955481381103
1731474160.370143,-0.3516252934932709,0.5374683141708374,-9.990341186523438,-0.6786225875247376,1.0118304894530232,-0.0020915221697221033,1.2602523416252644,1.7114042422236684,0.8859969639484597
1731474160.4202018,-0.3516252934932709,0.5374683141708374,-9.990341186523438,-0.6779896441361188,1.0101801442819784,-0.0018261560054592132,1.2601585337684127,1.7153450285036653,0.8859939462983246
1731474160.4702244,-0.3345542550086975,0.5284436941146851,-9.966591835021973,-0.6773433410823542,1.0087165083077243,-0.0015906158976696802,1.259640491197759,1.71990755127432,0.8859898665253124
1731474160.5200076,-0.3611922562122345,0.5078816413879395,-10.020652770996094,-0.6766788286406881,1.007440076268758,-0.0013843876821523983,1.2587014102477756,1.7250888908151727,0.8859848678915171
1731474160.570008,-0.3611922562122345,0.5078816413879395,-10.020652770996094,-0.6759929737014357,1.00635073541989,-0.0012067896475153946,1.263117105298834,1.7308889533343523,0.8861918332790463
1731474160.6198819,-0.33152875304222107,0.5191381573677063,-9.96742057800293,-0.675284215718068,1.0054476322604264,-0.0010571502890134614,1.2625843191652322,1.7373314248225984,0.8862122450366996
1731474160.6699362,-0.3189314603805542,0.520063042640686,-9.994635581970215,-0.6745523335040471,1.0047291587009277,-0.0009348068450885636,1.2654536466343114,1.7444181315342737,0.8864044535817686
1731474160.7198498,-0.31146132946014404,0.49782794713974,-9.991044998168945,-0.6737980811228562,1.004193014039361,-0.0008389540371586822,1.2651007206828666,1.752138823582562,0.8864503317081226
1731474160.7696915,-0.27925825119018555,0.5191643238067627,-9.976333618164062,-0.6730228246337341,1.003836223821272,-0.0007685906270261584,1.2677511129992212,1.7603653426217343,0.8866110658843909
1731474160.8196826,-0.26903486251831055,0.5131709575653076,-9.989280700683594,-0.6722282191124757,1.0036551433418834,-0.0007225367702143774,1.2674165001344213,1.7693291132478917,0.8866610543799042
1731474160.8696597,-0.2614664137363434,0.5186227560043335,-10.001703262329102,-0.6714158286498499,1.003645493010244,-0.0006994414804496437,1.2697371610895258,1.7789184410204562,0.8868034516875022
1731474160.9207711,-0.2614664137363434,0.5186227560043335,-10.001703262329102,-0.6705866042518194,1.0038023314605804,-0.0006978289678758406,1.2692515796278288,1.7894137571873119,0.8868466171985219
1731474160.9705622,-0.274027019739151,0.5083372592926025,-10.000702857971191,-0.6697403904080764,1.004119955499743,-0.0007161604363224101,1.27144266433051,1.8001998992117034,0.8870160995868851
1731474161.02048,-0.274027019739151,0.5083372592926025,-10.000702857971191,-0.6688757911920125,1.0045918444749349,-0.000752861825289556,1.2733836892009536,1.8117003091501311,0.8870187888340471
1731474161.070523,-0.2422710508108139,0.5382094979286194,-10.02502155303955,-0.667990347036834,1.0052107129364067,-0.0008063543097296071,1.2731593481881724,1.8237507289122494,0.8870377358318244
1731474161.1204453,-0.2966766655445099,0.5066756010055542,-9.966814994812012,-0.6670807304423817,1.005968662284498,-0.0008750951206842701,1.2725149544369128,1.8365234062193103,0.8870563006188494
1731474161.1704516,-0.2737577557563782,0.5325854420661926,-10.017370223999023,-0.6661429599967764,1.0068573391827862,-0.0009575473535023095,1.271458111091879,1.849854762288178,0.8870741930090048
1731474161.2202854,-0.2737577557563782,0.5325854420661926,-10.017370223999023,-0.6651726744141246,1.0078680472261148,-0.001052143849417224,1.2749407144314444,1.863854257586832,0.8870111630571215
1731474161.2703397,-0.3137006163597107,0.5183002948760986,-9.986680030822754,-0.6641653552261456,1.0089918590483273,-0.0011573599708305552,1.2742793863814321,1.8784282370749212,0.8870132603790838
1731474161.3202085,-0.3137006163597107,0.5183002948760986,-9.986680030822754,-0.6631165515567689,1.010219690929803,-0.001271737048839496,1.2763945527340013,7.667674312987385,0.8870031946298984
1731474161.370244,-0.3098906874656677,0.528404951095581,-10.000290870666504,-0.6620221544757955,1.0115423137090842,-0.0013937753065370942,1.2775867928590223,7.707617151304357,0.887000667011496
1731474161.4202275,-0.3098906874656677,0.528404951095581,-10.000290870666504,-0.6608786107619329,1.012950406243566,-0.0015218919446029725,1.2770627832069914,7.762040133730261,0.8869991866187731
1731474161.470167,-0.3619610667228699,0.5299280881881714,-10.047443389892578,-0.6596831631290121,1.014434690497065,-0.001654540773115538,1.2761359371650782,7.8163947384436305,0.8869967403460777
1731474161.5199888,-0.36124423146247864,0.5293492674827576,-9.995766639709473,-0.6584342444537615,1.0159860658038364,-0.0017904004396677472,1.274793805519147,7.871703509685241,0.8869932084411307
1731474161.570011,-0.3769206404685974,0.5511707663536072,-9.91990852355957,-0.6571318285172593,1.0175957009592356,-0.0019283702044426906,1.2788876757831968,7.688899754079344,0.8869986032603923
1731474161.6198852,-0.3769206404685974,0.5511707663536072,-9.91990852355957,-0.6557775300130999,1.0192551330036284,-0.0020671661881649026,1.278147537511638,7.6968601284607026,0.8869960312486651
1731474161.6698837,-0.24439649283885956,0.7247949242591858,-9.980547904968262,-0.6543743958301054,1.0209565341557862,-0.002204864388611963,1.2769987061830568,7.705458951189204,0.8869921265522187
1731474161.7198694,0.5133981704711914,1.6614665985107422,-9.919093132019043,-0.652925598388569,1.022694205139246,-0.002338863285314574,1.280206285783834,7.645354355188355,0.8869978387110227
1731474161.769799,0.2999531030654907,1.1952157020568848,-10.016883850097656,-0.6514311935659519,1.0244681788702015,-0.0024661439837389467,1.2795192666629325,7.644346048408486,0.8869946659698759
1731474161.8197489,0.4892212450504303,1.505788803100586,-9.938413619995117,-0.6498846756493296,1.0262875821546236,-0.0025835397276701847,1.2784247271916451,7.6439748121834805,0.8869899105741196
1731474161.8706505,-0.516516387462616,-0.022402653470635414,-9.965340614318848,-0.6482726341550588,1.028169847033924,-0.0026879037679123333,1.2810757007090712,7.605284067613041,0.8869972203079591
1731474161.9206002,-0.9550522565841675,-0.21024510264396667,-10.16689682006836,-0.6465790981124926,1.0301343569524641,-0.0027763016935487836,1.2819192784125482,7.572305054508688,0.8869975136225472
1731474161.9705899,-0.9550522565841675,-0.21024510264396667,-10.16689682006836,-0.6447932786372037,1.0321929599862256,-0.002846548615290434,1.2812717045340765,7.5651197886885715,0.8869938706227055
1731474162.0203743,-0.5015047788619995,0.2697582244873047,-10.028075218200684,-0.6429167143258815,1.0343424325762713,-0.0028975210820338204,1.2823631778822904,7.5323142215451755,0.8869970391881857
1731474162.0706327,-0.6376875638961792,0.10086476802825928,-9.939265251159668,-0.6409659156359431,1.0365622604448792,-0.002928292177978092,1.2816101103486484,7.523648022614073,0.8869930283546761
1731474162.1203902,-0.4812456965446472,0.29825708270072937,-9.977543830871582,-0.6389705850439338,1.0388167676934246,-0.0029366735076541716,1.2804632246316576,7.515732515611251,0.886987219338853
1731474162.1703827,-0.5795964598655701,0.24074093997478485,-9.958183288574219,-0.6369705233975987,1.0410586018352592,-0.002918438528816199,1.278930503346597,7.508518777666543,0.8869796438332066
1731474162.2203078,-0.5795964598655701,0.24074093997478485,-9.958183288574219,-0.6350132412247205,1.043231733524658,-0.002867391153337343,1.282560132790147,7.490821664131012,0.8869964332603135
1731474162.2702415,-0.508804440498352,0.4490143060684204,-9.982624053955078,-0.6331522446077066,1.0452738939752917,-0.002775734437530063,1.2816983253970688,7.486059445830325,0.8869922980510071
1731474162.320172,-0.48865872621536255,0.4541880786418915,-9.978496551513672,-0.6314453889879532,1.0471190462338553,-0.0026344815682640983,1.2804413292765067,7.481938262348522,0.8869864712537661
1731474162.370213,-0.5410983562469482,0.4174778163433075,-9.919493675231934,-0.6299531346071195,1.0486999021658685,-0.0024338225725201216,1.2824741122738785,7.453706371148599,0.8869967162651771
1731474162.4201007,-0.47556886076927185,0.47924375534057617,-9.938119888305664,-0.6287370813108084,1.0499497597462883,-0.0021632758087956087,1.2815701372036918,7.4495068850866,0.8869931351927036
1731474162.47022,-0.47460830211639404,0.529241681098938,-10.030539512634277,-0.6278588152745227,1.050803673411609,-0.001811800539272395,1.280274976176498,7.445969379920033,0.8869883175895712
1731474162.5199964,-0.4850676357746124,0.5224998593330383,-9.974165916442871,-0.6273783802265479,1.0512002323871177,-0.0013684071320717362,1.2821514564940915,7.404984088388978,0.8869973568646723
1731474162.5699408,-0.48955443501472473,0.4771479666233063,-9.996931076049805,-0.6273517163466281,1.0510850585252292,-0.00082336531633371,1.2812091539854216,7.397937369197725,0.8869951296955128
1731474162.6199024,-0.4665283262729645,0.4885329604148865,-9.979948997497559,-0.6278277945550235,1.0504146974113617,-0.00016934917801334124,1.2818811619697044,7.356592363843624,0.8869985118437448
1731474162.669962,-0.46965348720550537,0.5105751752853394,-9.998185157775879,-0.6288470695858597,1.0491582951039493,0.0005981139389090206,1.2812935233392695,7.310546274313573,0.8869994747313409
1731474162.7198188,-0.4509274959564209,0.5246589779853821,-10.004263877868652,-0.6304414209050566,1.0472970666743917,0.0014807602841856525,1.2802390118070957,7.294883106744828,0.8870000330375094
1731474162.7698064,-0.4414564073085785,0.5083518624305725,-9.974061965942383,-0.6326345685465627,1.0448232308566556,0.0024778507307174897,1.278795169555716,7.279936539243989,0.8870018222244006
1731474162.8197534,-0.41812509298324585,0.5166147947311401,-9.975350379943848,-0.6354424748019892,1.041738945106561,0.0035864978683958523,1.2804092083962515,7.2565299123402935,0.8870014855900981
1731474162.8696876,-0.38708367943763733,0.5227304100990295,-9.974908828735352,-0.6388736991680501,1.038055192385296,0.004802065722512336,1.2793798936156504,7.248395975447953,0.887005771707943
1731474162.9196005,-0.36882284283638,0.5231413841247559,-9.979649543762207,-0.6429296980851626,1.0337907349047877,0.006118504432624369,1.278952671275099,7.204562660827318,0.8870038466781737
1731474162.970591,-0.3273898661136627,0.5379171371459961,-10.020581245422363,-0.647605097681927,1.0289711711680924,0.007528531086870139,1.277697736297464,7.192843510664628,0.8870117401368943
1731474163.0204976,-0.3273898661136627,0.5379171371459961,-10.020581245422363,-0.6528879849986928,1.0236280678761902,0.009023657727884117,1.2760579934069571,7.182001724085429,0.8870246860143894
1731474163.070438,-0.3476724922657013,0.5362069010734558,-9.949875831604004,-0.6587602111402948,1.017798124857824,0.01059423406628097,1.2740133564782687,7.171814256412532,0.8870437082168023
1731474163.1203568,-0.3835640251636505,0.5246970653533936,-9.991329193115234,-0.665197656563461,1.0115222951279534,0.012229748063966208,1.2773054091928902,7.155620909472407,0.8870091076995837
1731474163.1703653,-0.3614824414253235,0.5287243723869324,-9.99287223815918,-0.6721705705365498,1.0048448674214643,0.013919229451297515,1.2761437762715568,7.150127976299664,0.887024965716772
1731474163.2202575,-0.377625972032547,0.5039097666740417,-9.963214874267578,-0.6796441629035781,0.9978126158438049,0.015651456755496458,1.2756978039114577,7.108148125549033,0.8870126413952765
1731474163.2702463,-0.3766827881336212,0.5053097605705261,-10.006082534790039,-0.6875793724992403,0.9904740394103211,0.01741505809433028,1.274370277693032,7.098328777250081,0.887033188449816
1731474163.3201778,-0.37935033440589905,0.516689121723175,-9.970401763916016,-0.695933643473376,0.9828786821843274,0.01919862335766621,1.273770625918253,7.053633931510084,0.8870168722896036
1731474163.3702471,-0.40080633759498596,0.4964871406555176,-10.002296447753906,-0.704661668280452,0.9750765776032939,0.020990784830313483,1.2722450409729438,7.0388414332155085,0.8870423645276614
1731474163.4201424,-0.38300633430480957,0.5083088278770447,-10.015450477600098,-0.7137160972434184,0.9671177821773829,0.022780256403972868,1.2702775375373812,7.0246608580865795,0.8870815029406688
1731474163.470025,-0.443865567445755,0.4779611825942993,-10.014248847961426,-0.7230482168639925,0.9590519189500573,0.02455580557611426,1.2721770003689223,7.002495368268421,0.8870234585331522
1731474163.5200374,-0.3783123791217804,0.5307408571243286,-9.943964958190918,-0.7326085946367651,0.9509277591880005,0.026306278195628256,1.270843106332717,6.993993566052094,0.8870567886318587
1731474163.569949,-0.4149475693702698,0.529784619808197,-9.995633125305176,-0.7423475978247155,0.9427929600040978,0.028020848110048485,1.2702454357784938,6.948558901433009,0.8870264808906698
1731474163.6199312,-0.4006003737449646,0.5575022101402283,-9.984058380126953,-0.7522157767261302,0.9346940325421903,0.029689297987722966,1.2687810024348667,6.907868732635013,0.8870257973301867
1731474163.6698508,-0.4396592080593109,0.5405032634735107,-9.956144332885742,-0.7621643271998715,0.9266764761856271,0.03130212280818695,1.2672837804109829,6.895644036920284,0.8870644360421476
1731474163.719805,-0.4295702874660492,0.5543187260627747,-9.9859037399292,-0.7721456829309952,0.9187848740551312,0.03285060050005818,1.2653002069663295,6.883952598330284,0.8871233224269575
1731474163.7697442,-0.42668965458869934,0.5741111636161804,-9.961564064025879,-0.7821140029040404,0.9110627932401679,0.03432688203243973,1.2628429967727655,6.872892840975244,0.8872028209792636
1731474163.8196783,-0.4360142648220062,0.5671287775039673,-9.956544876098633,-0.7920254285631602,0.9035525723213018,0.03572402434294594,1.2662070010940052,6.842783942266151,0.8870384505736788
1731474163.8696399,-0.4315682351589203,0.557338535785675,-9.982433319091797,-0.8018382192318771,0.8962950853096955,0.0370360075682704,1.2647455654934225,6.835023328570409,0.8870883170949427
1731474163.9195507,-0.42473089694976807,0.5397765636444092,-10.009066581726074,-0.8115128629996353,0.8893294193829276,0.03825766990559823,1.2627827548887205,6.827828451130295,0.8871616033678607
1731474163.9695463,-0.42673540115356445,0.5290296673774719,-9.97465991973877,-0.8210121442627525,0.882692468308325,0.039384510954275344,1.264392983839397,6.783099128894916,0.887042414379891
1731474164.0205133,-0.41879597306251526,0.5388911366462708,-9.974834442138672,-0.8303011688317041,0.8764185547707175,0.04041257665241711,1.2628344694524913,6.772834025191105,0.88709882547858
1731474164.070491,-0.41879597306251526,0.5388911366462708,-9.974834442138672,-0.8393473785416026,0.8705391873416887,0.041338533225151616,1.2607900258937383,6.763375707443282,0.8871795262010935
1731474164.1204576,-0.38974595069885254,0.5596628785133362,-10.005626678466797,-0.8481205362439563,0.8650829761761352,0.04215973106197627,1.2624128411120572,6.741677859109305,0.8870471176383151
1731474164.1704335,-0.3518224358558655,0.524154782295227,-9.996140480041504,-0.8565925946719966,0.860075592065888,0.04287410622281951,1.2615129409031374,6.705500137207271,0.887040532631954
1731474164.2203336,-0.3518224358558655,0.524154782295227,-9.996140480041504,-0.8647374011648445,0.8555395718719774,0.04348001886649276,1.2600248660888165,6.6958556599674095,0.8870972631123735
1731474164.270315,-0.3270731568336487,0.5440074801445007,-9.949302673339844,-0.8725303841692037,0.8514940135349944,0.04397621919023877,1.259882047216038,6.665304411328425,0.8870469767243012
1731474164.3202639,-0.3096349239349365,0.5479848384857178,-10.00139331817627,-0.879948380361689,0.8479544715436025,0.04436197044825796,1.2583036777159473,6.656545242494997,0.8871077058372467
1731474164.3701947,-0.3083556592464447,0.5252760648727417,-10.021833419799805,-0.8869695687598359,0.8449330966671129,0.044637090043265486,1.2561889441126335,6.648371486288877,0.8871955822122545
1731474164.4201214,-0.32990550994873047,0.5256478190422058,-9.975671768188477,-0.8935734945155246,0.842438756702222,0.04480178392748183,1.2535085426257246,6.6406783874733994,0.8873117727569029
1731474164.4701505,-0.32990550994873047,0.5256478190422058,-9.975671768188477,-0.8997412442945056,0.8404770655514774,0.04485655788833884,1.258555000177029,6.618049469113041,0.8870552115955675
1731474164.520042,-0.3092363774776459,0.5399481058120728,-9.969268798828125,-0.9054556853887805,0.8390504622104094,0.04480236367628783,1.2570701296725106,6.6123133977353685,0.8871198895572785
1731474164.5699935,-0.3595009446144104,0.7189980745315552,-9.982955932617188,-0.9107016333641136,0.838158563586663,0.044640742511195215,1.2573123838313098,6.572748111438692,0.8870500396473255
1731474164.6199439,-0.6427477598190308,1.415651559829712,-9.925313949584961,-0.9154662821726713,0.8377996443171629,0.044373860690715604,1.2557197551125328,6.563039332570005,0.8871123744498518
1731474164.6699345,-0.6165494918823242,0.5551245808601379,-9.866538047790527,-0.9197404027050101,0.8379733024512848,0.044004663075592566,1.253553254167025,6.55385601889939,0.8872023472405879
1731474164.719879,-1.4786083698272705,0.4926488995552063,-10.089213371276855,-0.9235214901797735,0.8386811885256344,0.043537161866318196,1.2558714818408787,6.530526445773606,0.8870531278502707
1731474164.7698503,-0.5003513693809509,0.51936936378479,-9.853687286376953,-0.9268200825800447,0.8399240765465543,0.042976609213901534,1.2543408505730238,6.524958193516321,0.8871157343557596
1731474164.8198128,0.04512631148099899,0.05102386325597763,-10.057523727416992,-0.9296645913355805,0.8416983769638507,0.04232962770041293,1.2547094780139727,6.486715586271696,0.8870488133130009
1731474164.869673,0.020476045086979866,0.24266284704208374,-10.213884353637695,-0.9320982684752648,0.8439940394801708,0.041604027139625764,1.25312998999144,6.477709761896688,0.8871080991005434
1731474164.9197352,0.020476045086979866,0.24266284704208374,-10.213884353637695,-0.93417202871468,0.8467934947888428,0.04080767084732868,1.2533960277317044,6.439264683675555,0.887047328007298
1731474164.9696233,-0.22866807878017426,0.2495405673980713,-9.991610527038574,-0.935940368753611,0.850072052427838,0.03994726067814297,1.2517295468181735,6.4270740403441975,0.8871044545459511
1731474165.0195842,-0.17199070751667023,0.28089892864227295,-9.977840423583984,-0.937460759315257,0.8537992730367088,0.03902854745813111,1.2494675238790072,6.415345804887167,0.8871866102038003
1731474165.0705101,-0.17199070751667023,0.28089892864227295,-9.977840423583984,-0.9387937818097849,0.8579402149803523,0.038057559715374084,1.2524394003176171,6.396704042466412,0.8870492060472304
1731474165.1204085,-0.17834487557411194,0.4154818058013916,-9.964560508728027,-0.94000260792434,0.8624565539651446,0.03704141793665924,1.2509146468945926,6.390140021024042,0.8871047110296447
1731474165.1703877,-0.23587629199028015,0.5165247917175293,-9.943984985351562,-0.9411519906444732,0.8673079697546406,0.035988439165022326,1.2515660677551381,6.352508706243282,0.8870433139925042
1731474165.220306,-0.22092512249946594,0.4952094256877899,-9.973434448242188,-0.9423074339549538,0.8724537701364327,0.03490802295473658,1.250003197120689,6.342808974979159,0.8870945361372542
1731474165.2703137,-0.2323492467403412,0.5198451280593872,-9.967941284179688,-0.943533433982348,0.877854193636295,0.03381035370769542,1.2478580789246014,6.333694492055314,0.8871669986247954
1731474165.3203123,-0.25136658549308777,0.5174309611320496,-9.953958511352539,-0.944888501362734,0.8834710780888887,0.032705707671279984,1.2451153573471287,6.325102706799067,0.8872605003308051
1731474165.37022,-0.22930991649627686,0.5732638835906982,-9.989588737487793,-0.9464186526403523,0.8892682095252185,0.03160364103179938,1.2417913264662104,6.317090904616115,0.8873737678664968
1731474165.4201612,-0.27895158529281616,0.5520592331886292,-10.02342414855957,-0.9481542364808078,0.8952116137521864,0.03051247172211351,1.2505666001270033,6.3045416396070495,0.8870455661301409
1731474165.4701998,-0.257144570350647,0.5125899314880371,-9.987648010253906,-0.9501107922591114,0.9012696858042583,0.029439040047737394,1.2501902428941003,6.26567960819932,0.887032922847977
1731474165.520094,-0.27159884572029114,0.5109673142433167,-10.002777099609375,-0.9522910873254072,0.9074130014888876,0.02838867164826262,1.2487277859099892,6.256316935887619,0.8870733630191124
1731474165.5700138,-0.27159884572029114,0.5109673142433167,-10.002777099609375,-0.9546869488041516,0.9136139614302442,0.027365328793793147,1.2466885881007348,6.247604369477435,0.8871306882385281
1731474165.6199641,-0.29612553119659424,0.549163281917572,-9.971040725708008,-0.9572809255899473,0.9198465914695839,0.026371812864797554,1.2440298288463296,6.239374695960233,0.8872054250450272
1731474165.6699429,-0.11691132932901382,0.7504041194915771,-9.982314109802246,-0.9600477118388338,0.9260867803944421,0.025409984758781992,1.2407920798453638,6.231775435208448,0.8872957800477248
1731474165.7198658,0.6160908341407776,1.6543776988983154,-9.985828399658203,-0.9629543455063618,0.9323139361354309,0.02448099390773149,1.2491065317871366,6.198950937101431,0.8870371674931952
1731474165.7698388,0.2742922902107239,1.1484307050704956,-9.935419082641602,-0.9659584391464351,0.9385146371256556,0.023585452227141757,1.247611125216216,6.193167807790307,0.8870745201762957
1731474165.8198068,0.2742922902107239,1.1484307050704956,-9.935419082641602,-0.9690062211661743,0.9446860127466656,0.02272362245956308,1.2485629200093635,6.1474492717484015,0.8870291203694783
1731474165.8697546,-0.5117053389549255,-0.020943261682987213,-10.053956031799316,-0.972032775570877,0.9508360192267691,0.021895486198612743,1.247044150556332,6.136403882720186,0.8870617307759981
1731474165.9196506,-0.9748305082321167,-0.22038394212722778,-10.095508575439453,-0.974965565695075,0.9569796281574263,0.021100318278798505,1.2479569065232436,6.095220701877947,0.887026009954714
1731474165.9696872,-0.8960928916931152,-0.2285120189189911,-10.036360740661621,-0.9777307981197437,0.9631322742599399,0.02033598800100761,1.24643040562461,6.082782516593401,0.8870561186334891
1731474166.0196366,-0.8960928916931152,-0.2285120189189911,-10.036360740661621,-0.9802591496162594,0.9693047619908758,0.019598724175306174,1.2473895199086014,6.040135786854543,0.8870240306537794
1731474166.069539,-0.6234802007675171,0.0900634303689003,-9.969280242919922,-0.9824877343204421,0.9755022103445541,0.018883527419814604,1.245897859718813,6.029534920549101,0.8870518944965233
1731474166.120549,-0.6234802007675171,0.0900634303689003,-9.969280242919922,-0.9843591880082752,0.9817256846577521,0.018184830552337664,1.2464396432070008,5.977792968324836,0.8870226498841829
1731474166.1704626,-0.5917204022407532,0.2500773072242737,-9.959190368652344,-0.985820140363816,0.9879745468190326,0.017497076380065604,1.2457333488554907,5.922021982133479,0.8870186241276514
1731474166.2203753,-0.5344301462173462,0.44564783573150635,-9.94918155670166,-0.9868203307285793,0.9942485120876452,0.016815073453827836,1.244113125128743,5.903412096179006,0.8870424401828064
1731474166.2703657,-0.5411988496780396,0.44175106287002563,-10.002894401550293,-0.9873123853804494,1.0005493424220455,0.016134112490150135,1.241893805053269,5.88559370285492,0.8870762860812759
1731474166.3203707,-0.5411988496780396,0.44175106287002563,-10.002894401550293,-0.9872518457599186,1.0068820242729575,0.015449856846541864,1.2390304642559764,5.868220770187412,0.8871204150086989
1731474166.3701982,-0.5401157140731812,0.4218352735042572,-9.947385787963867,-0.9865980847711677,1.013254282057847,0.014758210614362872,1.2444612048422543,5.843973830596264,0.8870211069773967
1731474166.4201555,-0.5067511796951294,0.471881628036499,-9.999462127685547,-0.9853172902399738,1.01967354693177,0.014055533983040418,1.2428719101456618,5.833149787503947,0.8870432743768165
1731474166.4702005,-0.4705067574977875,0.552297055721283,-9.99241828918457,-0.9833862395743191,1.0261431176788491,0.01333903383942568,1.2434362637527954,5.776210888941659,0.8870171882459732
1731474166.520082,-0.46714261174201965,0.5296739935874939,-9.957019805908203,-0.9807938441886895,1.0326605477912412,0.012606882884653729,1.2417984440614103,5.761219598154107,0.8870363772249975
1731474166.5699782,-0.5027879476547241,0.7166739106178284,-10.007081985473633,-0.9775402672076372,1.0392184700075098,0.01185815292311742,1.2395554573339733,5.746897689719844,0.8870631288293452
1731474166.619982,-0.7795722484588623,1.4734464883804321,-9.913012504577637,-0.9736358483459183,1.045806877054638,0.011092784349452421,1.2366899616500415,5.733149554709692,0.8870972041684405
1731474166.6698933,-0.6510591506958008,0.6669668555259705,-9.871582984924316,-0.969100899829132,1.052416524617609,0.010311715009361703,1.2421071924274558,5.706942217730639,0.88701622995475
1731474166.7198677,-0.7435884475708008,0.8559263348579407,-9.995081901550293,-0.9639656211304747,1.0590408233179578,0.009517135088200922,1.2405370889051857,5.698923359793153,0.8870321360502932
1731474166.7698317,-1.0246074199676514,0.7830585241317749,-10.052181243896484,-0.9582695782094922,1.065674566601563,0.008712311474298018,1.2407562669828498,5.638722174462894,0.8870123009658654
1731474166.819787,-0.6633448600769043,-0.09543535858392715,-9.869963645935059,-0.9520611849631095,1.072311432587826,0.007900928758717812,1.239547654745721,5.5860571066190925,0.8870094492295877
1731474166.869679,0.09758414328098297,0.14885461330413818,-10.152352333068848,-0.9453959139563142,1.0789407563571827,0.0070866834779780225,1.237806190488621,5.568030910998104,0.887020363572724
1731474166.9196308,-0.10657283663749695,0.15302258729934692,-10.094240188598633,-0.9383311590787681,1.0855440213456158,0.006273042194983265,1.235477119328318,5.55067535296005,0.88703544497468
1731474166.9695954,-0.24901315569877625,0.22527316212654114,-9.930318832397461,-0.9309198889711847,1.0920933333046965,0.005463034566268376,1.2325697336123373,5.5340214133859105,0.8870541568477003
1731474167.0195537,-0.2635975480079651,0.19347549974918365,-10.03125,-0.9232074381456064,1.0985519072114038,0.0046597801898235775,1.2375341157057933,5.514200467227335,0.8870091495630855
1731474167.0694854,-0.25550612807273865,0.27125734090805054,-9.987833023071289,-0.9152318551476257,1.1048753655139605,0.0038673114050627117,1.236634964750927,5.459397823837597,0.8870058623607732
1731474167.1204903,-0.25550612807273865,0.27125734090805054,-9.987833023071289,-0.9070252054836253,1.1110135272990709,0.0030907323995555142,1.2350123222399,5.444594242346309,0.887011705141398
1731474167.1704047,-0.27211546897888184,0.46041738986968994,-9.987509727478027,-0.8986144931309359,1.1169124557637717,0.002336015739260844,1.232860068623404,5.430851410189037,0.8870191190431403
1731474167.220449,-0.27211546897888184,0.46041738986968994,-9.987509727478027,-0.8900223831008076,1.1225166669744517,0.0016098630061051594,1.2301401592997212,5.417758676786735,0.8870277946658058
1731474167.2703028,-0.29952070116996765,0.47761327028274536,-9.947431564331055,-0.8812679197803549,1.1277712337720467,0.0009195836237094587,1.2268734334191298,5.405400225400682,0.8870372399436216
1731474167.3202782,-0.2390664666891098,0.5071632862091064,-9.96912670135498,-0.8723671686153077,1.1326232644636465,0.0002730288258348263,1.2348033530409397,5.389482156641603,0.8870042084222307
1731474167.3702247,-0.2619829773902893,0.5499357581138611,-9.986207962036133,-0.8633336516034957,1.1370228086267895,-0.0003214788346839035,1.2343318631642006,5.3371123201679405,0.8870017322020445
1731474167.4201815,-0.29614388942718506,0.557115912437439,-10.006966590881348,-0.8541786613750345,1.1409235996755447,-0.0008553926113200384,1.2329268277593024,5.324065426697087,0.8870018368557926
1731474167.4701643,-0.29614388942718506,0.557115912437439,-10.006966590881348,-0.8449118882661449,1.1442840342673821,-0.0013203939462676955,1.2332149275254642,5.264901596291095,0.887000093990511
1731474167.5200758,-0.3237045407295227,0.5025440454483032,-10.022774696350098,-0.8355426620995202,1.1470688599673033,-0.0017090130017932193,1.2317375186019857,5.246570772689714,0.8869986948606863
1731474167.570104,-0.304080992937088,0.5387887954711914,-10.006502151489258,-0.8260813347808627,1.1492510159784153,-0.0020152323541313463,1.229735814161511,5.228897756736753,0.8869961267114149
1731474167.6199863,-0.31559836864471436,0.5186578035354614,-10.001282691955566,-0.8165399900505321,1.1508123177819793,-0.0022347380599087264,1.2322924395996957,5.218418472086652,0.886998593717786
1731474167.6699455,-0.3472784459590912,0.548546552658081,-10.006768226623535,-0.8069324518834313,1.1517429900505802,-0.0023647951131375478,1.2309469116295217,5.210124677335055,0.8869957904374884
1731474167.719859,-0.3457614779472351,0.5572443008422852,-9.950666427612305,-0.7972741587640726,1.1520409541367058,-0.0024039887050581244,1.2320983912698535,5.173286009755583,0.8869979186728079
1731474167.7698534,-0.38967204093933105,0.5511984825134277,-9.947484970092773,-0.7875821288652676,1.151711199625227,-0.0023518855990825255,1.2308691928014543,5.162657094382186,0.886994741228601
1731474167.8198857,-0.4002406895160675,0.520408034324646,-9.988666534423828,-0.7778749566800928,1.1507651110728432,-0.0022086828887825333,1.2318544865598424,5.138107857023566,0.8869976221965659
1731474167.8697584,-0.4084441363811493,0.5258782505989075,-9.968122482299805,-0.7681728021597266,1.1492196542899418,-0.0019750810409968223,1.2306797633638173,5.129622093153804,0.8869945890007817
1731474167.9197118,-0.4301626682281494,0.5229345560073853,-9.957510948181152,-0.7584973080075829,1.1470965341946324,-0.0016523320500108542,1.2318871269031506,5.094103219863847,0.8869977731917665
1731474167.969659,-0.41579771041870117,0.5198242664337158,-9.984099388122559,-0.7488714228896589,1.1444214812616775,-0.0012422175081294624,1.2323207387151653,5.044913889309568,0.8869983270831927
1731474168.0196166,-0.41738006472587585,0.5069164037704468,-9.992772102355957,-0.7393192494508791,1.1412235983411607,-0.0007470257062310216,1.2313977688112576,5.028902775319917,0.8869965829496849
1731474168.06953,-0.42933446168899536,0.48471972346305847,-9.986830711364746,-0.7298661315728742,1.1375345785955104,-0.00016966746415875736,1.2300239126725903,5.0136804321933095,0.8869945630220717
