Timestamp,IMU_Linear_Acc_X,IMU_Linear_Acc_Y,IMU_Linear_Acc_Z,Filtered_X,Filtered_Y,Filtered_Z,Pose_X,Pose_Y,Pose_Z
1731474136.1591787,-0.3503468632698059,0.4290621280670166,-9.984729766845703,-4.935417754212963e-06,-1.1646206482853534e-05,-1.113242264885255e-05,2.449468436946755,8.13316179504406,0.8809999823161554
1731474136.2091148,-0.3425276577472687,0.41691985726356506,-9.980188369750977,-1.0890959865046762e-05,-2.857598384168981e-05,-2.7380580244404434e-05,2.4497845484351757,8.1335250018898,0.8809999822069154
1731474136.25901,-0.34130141139030457,0.4240894317626953,-9.983531951904297,-1.5064257261441002e-05,-4.1177864706692184e-05,-3.986091773551662e-05,2.444639400187539,8.159110627502967,0.880999982317844
1731474136.3090398,-0.3349152207374573,0.42120271921157837,-9.987563133239746,-2.0179259666160764e-05,-5.674482298529517e-05,-5.584523218340173e-05,2.443775321178566,8.164525649362629,0.8809999822157928
1731474136.3588867,-0.27416113018989563,0.43637028336524963,-9.988398551940918,-2.6472569456185497e-05,-7.525150513194707e-05,-7.57661466858239e-05,2.4446632909065933,8.158332464461175,0.8809999822836119
1731474136.408835,-0.46316227316856384,0.3740302622318268,-9.99268913269043,-3.43618500176445e-05,-9.65427264909178e-05,-0.00010007421899323902,2.444470851565045,8.159538445316482,0.8809999821371085
1731474136.4588637,-0.7430660724639893,0.23497319221496582,-10.004386901855469,-4.383311768582054e-05,-0.0001200819326715622,-0.0001292747764699039,2.44260773159155,8.171214246182334,0.8809999746216338
1731474136.5088224,-0.1835746020078659,0.5284029841423035,-9.957141876220703,-5.320715470324653e-05,-0.0001444935429889549,-0.00016393956365658434,2.432617370230507,8.233821153490583,0.8809996981956568
1731474136.5587819,-0.32869449257850647,0.37620213627815247,-10.047292709350586,-5.9158776553652455e-05,-0.00016766360198269725,-0.00020467649698814106,2.4226358749134485,8.29637122527624,0.8809989598070088
1731474136.6086814,-0.3212164640426636,0.5026140809059143,-9.98022747039795,-5.833392264951698e-05,-0.00018747029965139297,-0.00025216762559241427,2.437374407298284,8.213379946160106,0.880999564571147
1731474136.6586556,-0.3097893297672272,0.373074471950531,-9.942727088928223,-4.841279324968506e-05,-0.00020225963697451124,-0.0003071969943149997,2.4347687040848007,8.231963997588759,0.8809984092651535
1731474136.7085814,-0.3097893297672272,0.373074471950531,-9.942727088928223,-2.8049335405326748e-05,-0.00021072991968957896,-0.00037040572693398466,2.439219119685608,8.20131857369557,0.8809990154201253
1731474136.7085814,-0.36415764689445496,0.45885133743286133,-10.01577377319336,3.3442690299444304e-06,-0.0002115940604158539,-0.0004420036528676617,2.439215462695899,8.201344652987844,0.8809990082639775
1731474136.7586725,-0.3174515664577484,0.43460458517074585,-9.97563648223877,4.5804060963429906e-05,-0.00020353191988482393,-0.0005218575870283765,2.438537477351541,8.20617975985925,0.8809970261771113
1731474136.808501,-0.37348827719688416,0.42250683903694153,-9.971975326538086,9.905568189003637e-05,-0.00018546466731358353,-0.000609751483820216,2.4364840516527226,8.192843669702324,0.8809984690421472
1731474136.858473,-0.3333224654197693,0.4560640752315521,-10.020543098449707,0.00016266656282541253,-0.00015670165781272208,-0.0007054722822252803,2.4350328327502804,8.193849376623927,0.8809955354421183
1731474136.9084017,-0.3716474175453186,0.4254069924354553,-9.993083000183105,0.0002361413356398974,-0.0001169144435574121,-0.0008088576179127106,2.4370991533167476,8.336890653424769,0.8809974220982413
1731474136.9583972,-0.30855798721313477,0.4505065679550171,-9.975634574890137,0.0003189544941837635,-6.612092067494708e-05,-0.0009198823952470998,2.436727115596357,8.373104416893671,0.880993347032314
1731474137.0092394,-0.33945232629776,0.44332513213157654,-10.006049156188965,0.0004104683160900313,-4.668028094959918e-06,-0.0010386200947418735,2.4433900441349454,8.410996677508582,0.880996435353685
1731474137.0592687,-0.30693483352661133,0.45724576711654663,-9.974886894226074,0.0005097945593527531,6.677321385488044e-05,-0.0011651529406885102,2.44517535914867,8.4484729696946,0.8809909102070504
1731474137.1091747,-0.3404017686843872,0.42924872040748596,-9.97957992553711,0.0006157246408006777,0.00014720924967271786,-0.001299532015871678,2.442176017667346,8.485763253460796,0.8809954119560404
1731474137.159192,-0.33027854561805725,0.4503231644630432,-9.993732452392578,0.0007267776696383544,0.0002353883840677505,-0.0014417300697740403,2.4422454483210876,8.523291622309596,0.880988473564752
1731474137.2090607,-0.3312438130378723,0.4298307001590729,-9.984983444213867,0.0008413108639207922,0.0003298993019888468,-0.0015916307411697939,2.442316764309323,8.560774917747075,0.8809777326784959
1731474137.2591295,-0.3312438130378723,0.4298307001590729,-9.984983444213867,0.0009576002804631905,0.00042925546376818436,-0.001749070536560652,2.44013930689273,8.597980490700538,0.8809935182336435
1731474137.2591295,-0.32849225401878357,0.44427555799484253,-9.991825103759766,0.0010738677449947363,0.0005319671879612512,-0.0019138553527628835,2.440137346043602,8.598177880780284,0.880993481056263
1731474137.308942,-0.3466336131095886,0.43178790807724,-9.988767623901367,0.0011883097650460285,0.000636570786896132,-0.0020857639281184536,2.439770378117734,8.635267468521567,0.8809839191643568
1731474137.3589773,-0.3226473927497864,0.4400995373725891,-9.986501693725586,0.0012991523468156303,0.0007416177345788602,-0.002264564010996526,2.438106300684176,8.672710666883187,0.8809932650459726
1731474137.4088914,-0.3401765823364258,0.42628738284111023,-10.006254196166992,0.0014046860115630062,0.0008456861208125924,-0.002450027961426548,2.4373718225827767,8.710087438422532,0.8809819946632412
1731474137.4588525,-0.32638588547706604,0.4399968981742859,-9.992179870605469,0.0015032623727702227,0.0009474173632741845,-0.0026419695484372423,2.4369555591330974,8.747484527211029,0.8809909031513855
1731474137.50879,-0.3352645933628082,0.4304140508174896,-9.980989456176758,0.0015932905321269144,0.0010455381485060453,-0.0028402683572564136,2.436347069715881,8.784749325589141,0.8809770383577
1731474137.5588923,-0.33292460441589355,0.43939563632011414,-9.997173309326172,0.001673248277567793,0.0011388582984900794,-0.0030448221271239615,2.435737918853723,8.822308440525854,0.8809556787861504
1731474137.6086698,-0.3363683819770813,0.4308415949344635,-9.980420112609863,0.0017417036099831576,0.0012262642846243212,-0.0032554886032820597,2.4360393707389316,8.86002371239168,0.8809872168204487
1731474137.6586838,-0.3302421271800995,0.4421899914741516,-9.979595184326172,0.001797337956985201,0.0013067175728592715,-0.0034720601569518967,2.435680629676214,8.896898611531352,0.8809697038957344
1731474137.7086177,-0.3302421271800995,0.4421899914741516,-9.979595184326172,0.0018389477871132117,0.001379240424840411,-0.0036942244767095215,2.4350406048691444,8.934251459839302,0.8809858908795204
1731474137.7086177,-0.3371421694755554,0.43059173226356506,-9.996553421020508,0.0018654328199060233,0.0014428940522677471,-0.003921542875707198,2.435019168850941,8.935942369276514,0.8809852016667932
1731474137.758543,-0.3301190137863159,0.4375700056552887,-9.977168083190918,0.0018758017451636876,0.001496790680440574,-0.004153493990930669,2.434567833899539,8.971723226668532,0.88096566086114
1731474137.8085432,-0.34019094705581665,0.43010377883911133,-9.982741355895996,0.0018691925007983763,0.0015401354678709475,-0.0043895126097645825,2.4341011838816042,9.009083876751925,0.8809348379651987
1731474137.8584952,-0.33192288875579834,0.43809831142425537,-9.991263389587402,0.0018448888630025703,0.0015722513220006564,-0.0046289815319868755,2.433638016477304,9.046541303727812,0.8808926643740768
1731474137.9083514,-0.34595686197280884,0.4304082989692688,-9.981121063232422,0.0018023358704064888,0.0015925791386611839,-0.0048712386031415774,2.4337943011457206,9.084581228299742,0.8809833356937211
1731474137.9583144,-0.3420066237449646,0.443705290555954,-9.989968299865723,0.0017411655951705249,0.0016006664564927656,-0.005115606499699,2.4334555369664264,9.121230681859831,0.8809581427377539
1731474138.0092392,-0.3420066237449646,0.443705290555954,-9.989968299865723,0.001661225814376172,0.001596135463782062,-0.005361411255169535,2.432681834834031,9.159473994934311,0.8791537033078167
1731474138.0092392,-0.34163692593574524,0.42966023087501526,-9.989768028259277,0.0015625826682423509,0.00157864509339777,-0.005608004277771491,2.4326789472174686,9.159681058269943,0.8791501956005662
1731474138.0592258,-0.33824580907821655,0.44014066457748413,-9.97556209564209,0.0014454931525511683,0.0015478975881975151,-0.005854771572177498,2.432163163213335,9.196796510246992,0.8785142553700407
1731474138.1091983,-0.341629296541214,0.4363786280155182,-9.98953914642334,0.0013103708500344455,0.0015036732122033743,-0.006101100672756642,2.4316459116332205,9.234268282885512,0.8778573839165793
1731474138.1591976,-0.341629296541214,0.4363786280155182,-9.98953914642334,0.001157762209569938,0.0014458370962219542,-0.00634635748722775,2.431132754118674,9.271670229407926,0.8771862719749612
1731474138.1591976,-0.3402191698551178,0.43175989389419556,-9.978646278381348,0.000988336641651156,0.0013743361767340812,-0.006589908691650685,2.431130420872695,9.271840779819907,0.8771831756592356
1731474138.209059,-0.3402191698551178,0.43175989389419556,-9.978646278381348,0.0008028760650709101,0.001289217152847867,-0.0068311251122447885,2.4306227248838823,9.309025497894332,0.876499670797921
1731474138.209059,-0.3476492762565613,0.432100772857666,-9.985774040222168,0.0006022625147884062,0.0011906479514856778,-0.007069346864549854,2.4306204335218253,9.309193657908118,0.8764965416978053
1731474138.2590916,-0.3476492762565613,0.432100772857666,-9.985774040222168,0.0003874856366490743,0.0010789219676712951,-0.007303880801203533,2.431662205118512,9.346506722263557,0.8777963568479263
1731474138.2590916,-0.33999305963516235,0.4344528317451477,-9.983550071716309,0.00015965764142763714,0.0009544449829264699,-0.007534039378598891,2.431661001238852,9.34668431186719,0.8777948108472436
1731474138.3088815,-0.34422069787979126,0.4327370822429657,-9.9750337600708,-8.000487727498898e-05,0.0008177143122303531,-0.007759157365675005,2.431409170512185,9.383819628455525,0.8774619660467115
1731474138.3589008,-0.3437175154685974,0.44072937965393066,-9.988846778869629,-0.0003302210197634746,0.0006692940205652764,-0.007978572458489295,2.4311547329829564,9.421265785446067,0.8771067812160717
1731474138.4087975,-0.3437175154685974,0.44072937965393066,-9.988846778869629,-0.0005896676404458735,0.0005097789950392438,-0.008191628784447477,2.4306165356300213,9.458968838518347,0.8764290696232672
1731474138.4087975,-0.34332624077796936,0.4315757751464844,-9.98684024810791,-0.0008569874345032075,0.0003397610157795148,-0.00839772458875715,2.4306151257270447,9.459138926814244,0.8764271584951018
1731474138.458818,-0.34332624077796936,0.4315757751464844,-9.98684024810791,-0.0011308015597452383,0.00015983633234060648,-0.008596347216960634,2.4303070945844376,9.49613267190551,0.8760009737965568
1731474138.458818,-0.33988749980926514,0.436118483543396,-9.992659568786621,-0.001409727554131867,-2.9355798352816926e-05,-0.008787074167273612,2.4303054968875015,9.496323692222356,0.8759987187956623
1731474138.5087607,-0.3460216820240021,0.428290456533432,-9.99396800994873,-0.0016923979189149064,-0.00022711565096991153,-0.008969581305932148,2.4299918490433776,9.533572054113401,0.8755478612745864
1731474138.5588555,-0.32766076922416687,0.4385663866996765,-9.993430137634277,-0.001977481537018295,-0.00043269020268288085,-0.009143667861388413,2.429403188633946,9.571190944188535,0.8748748850155598
1731474138.6086557,-0.3306537866592407,0.4353063106536865,-9.987985610961914,-0.002263731396136598,-0.0006452909553585579,-0.009309263729992728,2.4289893706446195,9.609003788597077,0.8743143057955375
1731474138.6586676,-0.3333236277103424,0.4373985528945923,-9.995209693908691,-0.0025500490563086613,-0.0008641232281063423,-0.009466407064593101,2.4280576794647524,9.646010052292807,0.8733179539006221
1731474138.7086084,-0.3333236277103424,0.4373985528945923,-9.995209693908691,-0.0028355060673244865,-0.001088409796902294,-0.009615225942677516,2.4269570724948837,9.683362809953747,0.8735605993862008
1731474138.7086084,-0.3319365978240967,0.4339129328727722,-9.97912311553955,-0.0031193184814545722,-0.0013173969384997057,-0.009755930350461593,2.426953247172889,9.683559402400213,0.8735590500000829
1731474138.758562,-0.333381712436676,0.4398839473724365,-9.9823637008667,-0.003400822762204197,-0.0015503514104188915,-0.009888766109530475,2.4262254047059293,9.72074668030384,0.8732537076758379
1731474138.8085184,-0.3302189111709595,0.438150554895401,-9.991358757019043,-0.0036794656254158634,-0.0017865635736918305,-0.010013948645238125,2.425484709930257,9.758137011813453,0.8729219381485115
1731474138.8586066,-0.3308621346950531,0.44120118021965027,-9.983616828918457,-0.003954799701878851,-0.002025363305530212,-0.01013165266806252,2.4247301991774064,9.795735729585468,0.8725629648814373
1731474138.8586066,-0.3308621346950531,0.44120118021965027,-9.983616828918457,-0.004226481688120296,-0.002266137149933457,-0.010242036750524893,2.4261350823425656,9.807367910273458,0.8738636947261932
1731474139.2399957,-0.3308621346950531,0.44120118021965027,-9.983616828918457,-0.004494265577091583,-0.0025083381467740336,-0.01034524003342182,2.422188454696478,10.080993693428054,0.8731840158048041
1731474139.2399957,-0.3376094102859497,0.43933042883872986,-9.987139701843262,-0.004757983799823225,-0.0027514858087551467,-0.010441369608569374,2.4221865211995257,10.08116526789462,0.873183086036688
1731474139.2900891,-0.3423849642276764,0.43753117322921753,-9.985186576843262,-0.005017506841861177,-0.002995152237475796,-0.010530510767435008,2.421759101295447,10.11853169437102,0.8729673718330138
1731474139.3398674,-0.34360605478286743,0.4366273581981659,-9.992426872253418,-0.005272683133519948,-0.003238938181705478,-0.010612750540145453,2.4225294287764,10.155665774891927,0.8737656840994517
1731474139.389985,-0.3389294445514679,0.4368346929550171,-9.979833602905273,-0.0055232929154865485,-0.00348245048365416,-0.010688196057826845,2.4220839675077626,10.19318835471006,0.8736739228277661
1731474139.4397805,-0.3331068754196167,0.42958614230155945,-9.990646362304688,-0.005769052523744676,-0.003725283797957916,-0.010756972720424836,2.42161344962434,10.231571533337007,0.8735520699049802
1731474139.4898527,-0.335146963596344,0.4248596131801605,-9.98840618133545,-0.006009662430249826,-0.003966990215764735,-0.010819216034589872,2.4211546881715047,10.267822942765576,0.8734108176730578
1731474139.539713,-0.335146963596344,0.4248596131801605,-9.98840618133545,-0.006244852591805523,-0.004207032197570706,-0.010875082840534527,2.4218668044807137,10.30491712964786,0.8739021611634964
1731474139.539713,-0.3328384459018707,0.4296468496322632,-9.984148025512695,-0.0064743972455399285,-0.00444475314551292,-0.010924760737659764,2.4218653749127608,10.305090241214316,0.8739019091547221
1731474139.5897124,-0.3308675289154053,0.4361976087093353,-9.986226081848145,-0.006698118902274402,-0.004679400928068578,-0.010968452273575405,2.421116472253848,10.342514166420026,0.8739504451563951
1731474139.639718,-0.3300713300704956,0.44613346457481384,-9.986385345458984,-0.0069159017803826755,-0.004910203924013212,-0.011006355729969762,2.420638631479837,10.379713887469462,0.8738951860648537
1731474139.6895943,-0.3355879783630371,0.4400116503238678,-9.9830961227417,-0.0071277010252197605,-0.005136464988847293,-0.011038659710387701,2.420142462586906,10.416966714637006,0.8738123822346414
1731474139.7396622,-0.3371192514896393,0.4425605237483978,-9.980547904968262,-0.007333525204792304,-0.005357619727062799,-0.011065535509726743,2.419625842587067,10.454379353513026,0.8737014565136506
1731474139.789675,-0.33719924092292786,0.4419511556625366,-9.980554580688477,-0.007533397959028045,-0.005573240240553222,-0.01108711599257452,2.419091837467905,10.49168807018698,0.8735630365270292
1731474139.8395355,-0.3354564905166626,0.445912629365921,-9.973817825317383,-0.00772732994081131,-0.005783021812745908,-0.011103471135470354,2.4185418074876037,10.528778693395875,0.8733978250655522
1731474139.8896139,-0.3405797779560089,0.44538143277168274,-9.989174842834473,-0.007915312099886275,-0.005986782475799809,-0.011114597023815193,2.4203448167627886,10.565913870068973,0.8739439822807809
1731474139.9394777,-0.33414551615715027,0.4462050497531891,-9.99086856842041,-0.008097314644753852,-0.006184467498612346,-0.01112044811126513,2.4201121688328286,10.603202551742724,0.8738791130542211
1731474139.9894018,-0.33414551615715027,0.4462050497531891,-9.99086856842041,-0.008273293113412478,-0.006376145269896582,-0.011121011739947662,2.4196352898231397,10.640108387215333,0.8739510049056306
1731474139.9894018,-0.3440423011779785,0.44702938199043274,-9.984944343566895,-0.008443201066080878,-0.006561995402158293,-0.011116359336659543,2.4196337890483233,10.640284594555654,0.8739507776327681
1731474140.0392613,-0.32870543003082275,0.43953606486320496,-9.982325553894043,-0.00860698877921165,-0.006742289148592649,-0.011106632162500768,2.419308642290053,10.677202429031816,0.873889414863576
1731474140.089296,-0.34796392917633057,0.4402678906917572,-9.993621826171875,-0.008764595806190158,-0.006917351793682512,-0.01109200244551549,2.4189582804294925,10.714499207417331,0.8737996307898378
1731474140.1402464,-0.33399584889411926,0.432169646024704,-9.98773193359375,-0.008915945121610999,-0.0070875089792781665,-0.011072669568494715,2.418579450859457,10.752383771646809,0.873679837256456
1731474140.1902158,-0.339699923992157,0.42898687720298767,-9.98838996887207,-0.009060935523202423,-0.007253028905750936,-0.011048882144719205,2.418930984282538,10.789355100164093,0.873954910366236
1731474140.2401154,-0.34191736578941345,0.42445263266563416,-9.988052368164062,-0.009199445520242364,-0.007414064830486575,-0.011020939041169027,2.4186778992382814,10.82655727542474,0.8738939659647381
1731474140.2900033,-0.34191736578941345,0.42445263266563416,-9.988052368164062,-0.009331333846456829,-0.0075706090154216595,-0.010989172283237918,2.418029381353927,10.863396552875454,0.8739545854878467
1731474140.2900033,-0.32970547676086426,0.4250764548778534,-9.985917091369629,-0.009456437203479579,-0.0077224749742350555,-0.010953934026188114,2.41802699766602,10.863606946851823,0.873954320227653
1731474140.3400288,-0.32910072803497314,0.4251329004764557,-9.99003791809082,-0.009574609075803575,-0.007869310488136156,-0.010915587171855843,2.417026038970593,10.900506342615737,0.8739649042049754
1731474140.3900661,-0.3384392559528351,0.42610400915145874,-9.983735084533691,-0.009685778934944803,-0.008010628166259824,-0.010874499035249266,2.416335057221914,10.937523989876887,0.8739116628073909
1731474140.439955,-0.3377346694469452,0.435489296913147,-9.978569030761719,-0.009789958293434476,-0.008145847486036124,-0.010831025656630307,2.4156174892048963,10.974638999471212,0.8738310688549459
1731474140.4899478,-0.33423569798469543,0.4322376847267151,-9.991771697998047,-0.009887199198892622,-0.008274354361296619,-0.0107854834148929,2.4164334760947117,11.011626082122506,0.874168406190489
1731474140.5398195,-0.3368098735809326,0.4413033127784729,-9.979137420654297,-0.00997757115488925,-0.00839556633922389,-0.010738142355602573,2.4160912348000347,11.048306379470406,0.8741526527828547
1731474140.5896668,-0.32903242111206055,0.43979355692863464,-9.979314804077148,-0.010061171082456057,-0.008508985687502125,-0.01068923335876695,2.415723526793557,11.08504889771812,0.8741104610040907
1731474140.6397073,-0.33598414063453674,0.4474576413631439,-9.982017517089844,-0.010138141777009193,-0.008614242596344954,-0.010638930650242618,2.4153268801633834,11.122134533660699,0.8740411478039277
1731474140.6897366,-0.341476172208786,0.44930747151374817,-9.990230560302734,-0.01020867189011535,-0.008711134267463248,-0.010587344308408188,2.415981893386072,11.158887078699898,0.874394497236685
1731474140.7397206,-0.3397352695465088,0.44789478182792664,-9.97748851776123,-0.010272959427729888,-0.008799654982979584,-0.010534552058259055,2.415736258311678,11.195966631194329,0.8743860171090055
1731474140.7895658,-0.3330007493495941,0.44037196040153503,-9.997563362121582,-0.010331175352641067,-0.008879994262219233,-0.010480631081839858,2.415466537837951,11.232777233527633,0.8743513589770163
1731474140.8395772,-0.03880907967686653,0.5903394818305969,-9.978856086730957,-0.010383740242054375,-0.008952622237845244,-0.010425677191516207,2.415169557511974,11.269742912133625,0.8742903344471749
1731474140.8895676,-0.0758434385061264,0.5316457748413086,-10.008713722229004,-0.010432345583961795,-0.009018687178083334,-0.010369831639251212,2.4145342687001707,11.306182500618352,0.8746044479407611
1731474140.9393978,0.48951706290245056,0.8079436421394348,-9.981762886047363,-0.01048172899341281,-0.009080719198421185,-0.010313316785903347,2.4141178655834956,11.342954885046296,0.8745996129493078
1731474140.9892786,0.7771492004394531,0.6103816628456116,-10.015816688537598,-0.010542308268722732,-0.009143423047899987,-0.01025646782391476,2.4133404538322494,11.379360717812652,0.8745861558112096
1731474141.0394018,0.1431780755519867,0.499295175075531,-10.044015884399414,-0.010632830522349085,-0.009213893863104233,-0.010199805567772297,2.4128436902627253,11.416512406605738,0.874542714570858
1731474141.0892773,0.413790225982666,0.48516714572906494,-9.909783363342285,-0.010780378419048798,-0.00930062682202349,-0.010144097017758806,2.4123302794765418,11.45290404402032,0.8744749527185202
1731474141.1401522,0.038903508335351944,0.3011943995952606,-9.996171951293945,-0.01101750358554564,-0.009411914606093946,-0.010090154402053804,2.4116884646808705,11.490280177508732,0.8745624481472809
1731474141.1902132,0.22217567265033722,0.33590275049209595,-10.001534461975098,-0.011379203937114724,-0.009554478619735286,-0.010038541818838205,2.4111304455606004,11.526893857019838,0.8745071844570805
1731474141.2402446,0.017560504376888275,0.20069876313209534,-9.97430419921875,-0.011900907508693255,-0.009732466002657179,-0.009989608785462255,2.4102282909611774,11.563477657451621,0.8745583804988105
1731474141.2901216,-0.7728275656700134,-0.02461777999997139,-9.977519989013672,-0.012616314940725171,-0.009946590817871326,-0.009943641439139304,2.4095002363364144,11.599993285727328,0.8745032358712937
1731474141.3400016,-1.2074174880981445,-0.021463442593812943,-10.009428024291992,-0.013553116619587371,-0.010193044778082094,-0.009900857916496284,2.408961789160905,11.63637528185573,0.8745565794514546
1731474141.3900766,-0.23980385065078735,0.27316224575042725,-9.937684059143066,-0.014727900196563259,-0.010462812593103926,-0.009861389268052455,2.4082271896177523,11.672882894418033,0.8745015608687875
1731474141.4400213,-0.7082184553146362,0.12128511071205139,-10.163931846618652,-0.01614516446462012,-0.010742560602116018,-0.009825394232282573,2.407449715490473,11.70956979515751,0.8744215373124473
1731474141.4898539,-0.29287877678871155,0.4290388226509094,-9.929959297180176,-0.0178005677469376,-0.011016570566008558,-0.00979338530800319,2.4079367728562793,11.745603039588538,0.8745531403343666
1731474141.5398967,-0.5628702044487,0.09986446797847748,-10.001678466796875,-0.019683968721154486,-0.011268344147995327,-0.009766381158904942,2.407433681458077,11.782203981837121,0.8744970235092318
1731474141.5897396,-0.3513105511665344,0.46714502573013306,-10.08678913116455,-0.02178091245806021,-0.01148145549240602,-0.009745636627556314,2.4068783572156986,11.818785766535765,0.8744163743082815
1731474141.6397777,-0.5107159614562988,0.16161222755908966,-9.946783065795898,-0.024073537816800966,-0.011639999535023678,-0.00973251750746703,2.404674619150716,11.854775505531038,0.874793071208
1731474141.6896517,-0.4068586826324463,0.43703973293304443,-9.962201118469238,-0.026541226663553984,-0.011728958511988005,-0.009728479947034768,2.40355750080094,11.891064419433178,0.8747999771744076
1731474141.7396317,-0.49801453948020935,0.2526971399784088,-10.004266738891602,-0.02916108373037771,-0.011734490468488876,-0.009734742627077096,2.4023634624913868,11.9275553962016,0.8747825434765941
1731474141.789641,-0.37864023447036743,0.4197238087654114,-9.953781127929688,-0.03190838955605605,-0.011644172004158692,-0.009752064074719426,2.4011044563384054,11.963689274802496,0.874741105115882
1731474141.8394883,-0.42949461936950684,0.29616859555244446,-9.941106796264648,-0.034757184781656486,-0.01144720223080963,-0.009780760008411705,2.4016472330568495,11.999704066087332,0.875009241484447
1731474141.8893626,-0.41107162833213806,0.3372349739074707,-10.000696182250977,-0.037680915759020335,-0.011134431363867343,-0.009820660380863863,2.398216976029769,12.035356179494455,0.8749935781285635
1731474141.9393225,-0.41107162833213806,0.3372349739074707,-10.000696182250977,-0.040652900162367514,-0.010698209898296118,-0.009871180086872107,2.396237792901101,12.071804827638266,0.8749606465479297
1731474141.9393225,-0.3805420398712158,0.7001015543937683,-9.957939147949219,-0.0436466505710084,-0.010132585926911877,-0.009931573913092462,2.3962241672549327,12.072049279611548,0.8749603414289644
1731474141.9893405,-0.4000968039035797,0.667378306388855,-9.877378463745117,-0.04663622325565306,-0.009434515173529737,-0.010000939923308416,2.394238313268679,12.107537815624882,0.8749746899734845
1731474142.0393183,-0.4872780740261078,1.1421082019805908,-9.997286796569824,-0.04959644259395231,-0.008605846891175814,-0.010077889151417172,2.3919710363326003,12.143936975122227,0.8749272689244579
1731474142.0892508,-0.4453103244304657,0.9864438772201538,-9.849359512329102,-0.052502793448366794,-0.007655342425518033,-0.01016034075259557,2.3896045900253613,12.179876042286852,0.8748553280705581
1731474142.139246,-0.4453103244304657,0.9864438772201538,-9.849359512329102,-0.055331246211568,-0.006599815057779364,-0.010245434461900802,2.3925313482011514,12.215592319553565,0.8749594895196133
1731474142.139246,-0.5104879140853882,0.7967690229415894,-10.028023719787598,-0.05805831638794739,-0.00546345018783713,-0.010329402196156953,2.3925239929301316,12.215826343317591,0.8749592083603185
1731474142.1901712,-0.3782177269458771,0.7711344957351685,-9.996058464050293,-0.06066124400194771,-0.004275621300087272,-0.010407940187018069,2.391294809761055,12.25244086869342,0.8749017872314742
1731474142.2401364,-0.3782177269458771,0.7711344957351685,-9.996058464050293,-0.06311835672158791,-0.0030685404596688818,-0.010477059734008028,2.389860409977396,12.288136486759027,0.8749635613148756
1731474142.2401364,-0.4499201774597168,0.7072227597236633,-10.010408401489258,-0.06540963220782592,-0.0018755888887409342,-0.010533575064018363,2.389849682606193,12.288373623034879,0.8749632930326576
1731474142.2900872,-0.3696022629737854,0.713841438293457,-10.044113159179688,-0.06751698623482609,-0.0007302575078917378,-0.010575154426794322,2.388148169083531,12.324146007705291,0.8749097823735897
1731474142.3400176,-0.42195576429367065,0.5679761171340942,-9.984193801879883,-0.06942424949382428,0.000334762172917417,-0.0106003430986869,2.3862515002693425,12.360419487117275,0.8748290356712873
1731474142.3899982,-0.30900314450263977,0.6061761379241943,-10.027217864990234,-0.07111725168786551,0.0012885690871253558,-0.010608513992833548,2.38420140297788,12.396299411269023,0.8747228929788678
1731474142.4399173,-0.36433690786361694,0.5541598200798035,-9.993165969848633,-0.0725840895896881,0.002102936966291567,-0.010599694772840845,2.3880597793472518,12.431937623455452,0.8749602832969288
1731474142.4898849,-0.3449501693248749,0.5600143671035767,-10.049895286560059,-0.07381535044192308,0.0027528153847588667,-0.010574453861747917,2.3870392074094884,12.467927240306334,0.874903171546292
1731474142.5398262,-0.3187732696533203,0.5636372566223145,-10.002037048339844,-0.07480412250737736,0.0032164892223381907,-0.010533899692914522,2.3849378237697927,12.503513391270243,0.874957441317622
1731474142.5898345,-0.3187732696533203,0.5636372566223145,-10.002037048339844,-0.07554592860404882,0.0034755470050769587,-0.010479645094686671,2.3816643121327536,8.445806622724405,0.8749608143540321
1731474142.5898345,-0.30297085642814636,0.5662887096405029,-10.012564659118652,-0.07603872039331078,0.0035147233815308564,-0.010413644852180253,2.381648649773145,8.44566361829022,0.8749605318618139
1731474142.6396751,-0.3056734502315521,0.5174658894538879,-10.006267547607422,-0.07628283942689154,0.003321751623892275,-0.010338039151528623,2.3792061224154075,8.424236215376267,0.8749052841121575
1731474142.689624,-0.32618317008018494,0.5069574117660522,-9.982719421386719,-0.07628087317928996,0.0028873638804440033,-0.010255076189780223,2.3765620122067714,8.40271982864571,0.8748240658904637
1731474142.7396877,-0.273434042930603,0.514680802822113,-9.964303016662598,-0.07603744300101278,0.0022053810203675984,-0.010166976735497503,2.3737285840390956,8.38121979772351,0.8747173380572801
1731474142.7895157,-0.273434042930603,0.514680802822113,-9.964303016662598,-0.07555906787345242,0.0012726760400057998,-0.010075709295094798,2.3780899125313057,8.431479335415172,0.8749589862076917
1731474142.7895157,-0.2996521592140198,0.5227103233337402,-9.985552787780762,-0.07485412652268539,8.894221440079535e-05,-0.009982837115706081,2.3780813617898735,8.431432371148903,0.8749587405137348
1731474142.8395174,-0.3358599841594696,0.5379204750061035,-9.958097457885742,-0.07393266079730451,-0.0013436276916982057,-0.009889527220965161,2.3764895654981846,8.42320065525887,0.8749031967504124
1731474142.8894358,-0.336078017950058,0.4931144118309021,-9.98670482635498,-0.07280591723925599,-0.003020645452023342,-0.009796622893417678,2.374736771088222,8.415063226589421,0.8749656666039959
1731474142.939421,-0.33337661623954773,0.5128029584884644,-10.005820274353027,-0.07148587634949682,-0.004935713927363891,-0.009704731920170096,2.372775821357955,8.406791329985333,0.8749149931972908
1731474142.989331,-0.3498041331768036,0.4721747934818268,-9.94282341003418,-0.06998496789322181,-0.007080497120592458,-0.009614342350712311,2.3706657335615797,8.3986143352898,0.8748410737651082
1731474143.0392566,-0.32534632086753845,0.5132566094398499,-9.986802101135254,-0.06831592331411923,-0.009444799788302403,-0.009525829434569855,2.368365937250185,8.390348875018676,0.8747427093694318
1731474143.0892653,-0.3674081265926361,0.5218324065208435,-10.014200210571289,-0.0664916687090431,-0.01201677750360476,-0.009439405795270677,2.3659042291491645,8.382071457770506,0.8749555923939388
1731474143.1392438,-0.40713658928871155,0.5078936219215393,-9.99518871307373,-0.0645251436536257,-0.014783283449208899,-0.009355252741999064,2.363265027103654,8.373722482578847,0.8749011771044773
1731474143.1901145,-0.3748840391635895,0.5032426118850708,-9.95654582977295,-0.0624289860103207,-0.017730175023434595,-0.00927366880723927,2.3604353459443064,8.36522709432589,0.8752065216030653
1731474143.2401328,-0.41319382190704346,0.513997495174408,-10.000679969787598,-0.06021526816527559,-0.02084247418841951,-0.009194984311896878,2.3574940179028228,8.35680034078772,0.8754487965487416
1731474143.2901106,-0.4174082279205322,0.5009680390357971,-9.988465309143066,-0.057895388419204996,-0.02410449397489024,-0.009119447594249187,2.3544047315731187,8.348338418310316,0.8755296483123275
1731474143.3401623,-0.4119400978088379,0.5024043917655945,-9.968817710876465,-0.05547999351556916,-0.027499985148110452,-0.009047254072099012,2.3511553906857485,8.339763723336945,0.8755881095271203
1731474143.3899338,-0.3861069083213806,0.4877097010612488,-9.973749160766602,-0.052978965161076516,-0.031012248032753254,-0.008978542839837254,2.347814152793236,8.33122820893355,0.8756235166746837
1731474143.4400024,-0.3813762664794922,0.4656544327735901,-10.00214672088623,-0.05040157890251165,-0.03462418268887874,-0.008913335541929175,2.3443019802162426,8.322476588387081,0.8768095546316316
1731474143.489819,-0.3586125075817108,0.4547431170940399,-9.964475631713867,-0.0477567575644442,-0.03831827210447607,-0.008851566001197837,2.3406788314799534,8.31369039689396,0.8770767896838227
1731474143.5397732,-0.3363964855670929,0.4302753210067749,-9.970362663269043,-0.045053318795854155,-0.042076525243779576,-0.008793116265282229,2.336960901892006,8.304853837900453,0.8773206385203958
1731474143.5897393,-0.3363964855670929,0.4302753210067749,-9.970362663269043,-0.042300199844722775,-0.045880436435481294,-0.008737749348623038,2.3331472589508935,8.295897677279598,0.8780212224684423
1731474143.5897393,-0.3230259418487549,0.4246014356613159,-10.018203735351562,-0.03950661740881524,-0.0497110104868934,-0.008685093980385528,2.3331179399267414,8.295829614562575,0.8780233858859946
1731474143.6397502,-0.3195480704307556,0.4174511432647705,-9.99730110168457,-0.03668212872687777,-0.05354887210779966,-0.008634809089157758,2.329177481103628,8.286721841052394,0.8782998940471626
1731474143.6896462,-0.29733991622924805,0.400546669960022,-9.969202995300293,-0.03383664717513937,-0.057374405669317355,-0.008586745535740393,2.325166939023593,8.277516622851065,0.8785538512942358
1731474143.7396011,-0.29733991622924805,0.400546669960022,-9.969202995300293,-0.0309804678236624,-0.06116786209781183,-0.00854087652163609,2.321071997091097,8.268091969537094,0.8793849688773503
1731474143.7396011,-0.2849956750869751,0.3818894624710083,-10.001726150512695,-0.028124287349142747,-0.06490944418276888,-0.00849712437442431,2.3210503796926667,8.268042599294155,0.8793870627495136
1731474143.789569,-0.2620607912540436,0.3989132344722748,-10.011852264404297,-0.02527920240494865,-0.06857941159686122,-0.008455374809713772,2.3168961325451036,8.258541672528914,0.8797759312058916
1731474143.8395295,-0.3114404082298279,0.37750130891799927,-9.98075008392334,-0.022456673402351923,-0.07215822697715382,-0.008415641826141015,2.312678436186755,8.248762801374465,0.8804954849492549
1731474143.8895874,-0.29066282510757446,0.38888999819755554,-10.001361846923828,-0.019668366999349627,-0.07562672195106893,-0.008378125718071025,2.3083782394188854,8.238820083773028,0.8809870488679457
1731474143.939539,-0.31284046173095703,0.36997202038764954,-10.00731372833252,-0.01692588550234146,-0.07896624123081777,-0.008343159048553365,2.304033833174394,8.228687478375965,0.8814574778040234
1731474143.9893997,-0.27976566553115845,0.3753986358642578,-10.026233673095703,-0.014240553700354413,-0.08215875509757502,-0.008311228423684936,2.2996747074859707,8.21841072377341,0.881904619721433
1731474144.0392823,-0.2954639196395874,0.3394887149333954,-9.958551406860352,-0.011623344273395102,-0.08518693021258462,-0.008283029352327914,2.2953129724836416,8.207888053793901,0.8813379163777804
1731474144.089266,-0.5322554707527161,-0.19363191723823547,-10.011695861816406,-0.009084643970555615,-0.08803365022037332,-0.008259370808543281,2.2908830479099445,8.197154113291301,0.8815618124986777
1731474144.139285,-0.4975226819515228,-0.47324222326278687,-10.109478950500488,-0.006633401532597052,-0.09067989716266628,-0.008241133254885308,2.2864670075639086,8.18610694633213,0.8811493227551453
1731474144.1902807,-0.6517626047134399,-0.1517183631658554,-10.05496883392334,-0.0042759041408533295,-0.09310163488962532,-0.00822960693428294,2.281906610145962,8.174667818462236,0.8811743845075946
1731474144.2401178,-0.7958483099937439,-0.4603233337402344,-10.047149658203125,-0.002014721754868892,-0.09526837943815691,-0.008226864803427715,2.2774866357200203,8.163231564745635,0.8810372709988755
1731474144.2899477,-0.3774668574333191,0.1904527246952057,-9.920002937316895,0.0001518461390455422,-0.09714438796681103,-0.008235576736108582,2.273039421401648,8.151625747549915,0.8810104173457788
1731474144.3399312,-0.7103548049926758,-0.2533815801143646,-10.023809432983398,0.002229222533584694,-0.09869121218320111,-0.008258366032579002,2.2685918488655124,8.139612166372919,0.8809893921127819
1731474144.389945,-0.5084047317504883,0.20593859255313873,-9.930323600769043,0.004225361409601594,-0.09987024996294025,-0.008297302669310882,2.264128861281534,8.127440306654417,0.8809483215473295
1731474144.4399543,-0.6116470098495483,0.06604569405317307,-9.929553985595703,0.006150073974302317,-0.10064462856086487,-0.008353710957545597,2.2597061611415947,8.114912297347223,0.8809715843097438
1731474144.489831,-0.5259138345718384,0.24936124682426453,-9.96333122253418,0.008014668144097856,-0.10098074267640562,-0.008428037843339073,2.2553573394508364,8.102277331112106,0.8809709012499816
1731474144.5398407,-0.5633005499839783,0.1612505167722702,-9.892698287963867,0.009831448282410223,-0.10084949565506707,-0.00851977990372359,2.250930615476416,8.089294228708727,0.8809264129549443
1731474144.5897121,-0.5227437615394592,0.1753193736076355,-9.91405963897705,0.011613242123480517,-0.10022683834490799,-0.008627482575723353,2.246569470628548,8.076175389475022,0.8808610036459041
1731474144.6397834,-0.530639111995697,0.1455938071012497,-9.948212623596191,0.013373008193096966,-0.09909367404977656,-0.008748738373731798,2.2422085083230257,8.06271378602675,0.8807733952762057
1731474144.6897333,-0.4877649247646332,0.19532594084739685,-9.93302059173584,0.01512347487999675,-0.0974355160137515,-0.008880351513568878,2.2379728633160685,8.049027048896102,0.8809583023909631
1731474144.7396362,-0.4850020408630371,0.15887004137039185,-9.961091995239258,0.016876774943981,-0.09524225223425065,-0.009018656182932766,2.2336968947519704,8.03510329424214,0.8809074897034852
1731474144.7895703,-0.042006008327007294,0.42955347895622253,-9.968608856201172,0.01864371450759395,-0.09250823537330288,-0.009159793988085772,2.229479393884878,8.020992416395064,0.8808342288743208
1731474144.8395107,-0.042006008327007294,0.42955347895622253,-9.968608856201172,0.02043205551071398,-0.08923295817318003,-0.009299940683094341,2.225379459633413,8.006564369889679,0.8809574378253241
1731474144.8395107,0.20982344448566437,0.5299987196922302,-9.996824264526367,0.022244181495931187,-0.08542210712449964,-0.009435499071642968,2.2253456374802805,8.006446367149694,0.8809571050592515
1731474144.8894217,-0.2961362600326538,0.27400559186935425,-10.028383255004883,0.024075798242028903,-0.08108799370835848,-0.009563290990218324,2.221253997123335,7.9919662578427335,0.8809046965577236
1731474144.9395008,-0.07620701938867569,0.45252323150634766,-9.962984085083008,0.025916824642438642,-0.07624879430412082,-0.009680748622898507,2.2172647726608705,7.977055589768279,0.8809651921179996
1731474144.989377,-0.3626199960708618,0.24273060262203217,-10.05359172821045,0.027753648901460246,-0.07092723968565849,-0.009785975467331839,2.2132875291562217,7.962138276462636,0.8809154650968264
1731474145.0394049,-0.3626199960708618,0.24273060262203217,-10.05359172821045,0.02957124028817623,-0.06514938597385912,-0.009877785149498712,2.2094286981401963,7.946788459724168,0.8809605358061056
1731474145.0394049,-0.1496284306049347,0.48473837971687317,-10.041500091552734,0.03135454832239536,-0.05894364216432852,-0.009955885687932202,2.2093903291757875,7.946637905119327,0.8809601269169679
1731474145.0892012,-0.3409866988658905,0.2217046469449997,-10.007319450378418,0.03308892093275502,-0.05234044776412114,-0.010020947170822952,2.2056272764692166,7.9316514627321135,0.8809074566725628
1731474145.1393504,-0.3409866988658905,0.2217046469449997,-10.007319450378418,0.03476002235100383,-0.04537209354732975,-0.010074347978113806,2.201917910942882,7.915908835080776,0.8809640416084996
1731474145.1393504,-0.19522902369499207,0.4383619427680969,-10.02239990234375,0.03635410718086216,-0.038072009023005164,-0.010117842653340963,2.201894828911239,7.915812535025923,0.8809637954645043
1731474145.1891997,-0.3174585700035095,0.26658883690834045,-9.997493743896484,0.03785820210507552,-0.03047437926246947,-0.010153386914420361,2.1983106720199785,7.900632295883508,0.8809128649708748
1731474145.2401588,-0.2567730247974396,0.41878947615623474,-9.975645065307617,0.03925994815637905,-0.02261434955181803,-0.010183029029780894,2.1946630089976704,7.884697592468134,0.8808336247938264
1731474145.290124,-0.31867489218711853,0.322895348072052,-10.004502296447754,0.040547669777656004,-0.01452803309720199,-0.010208741303738375,2.1912166188796975,7.86915869131071,0.8807310331519077
1731474145.3400424,-0.2900391221046448,0.4151308536529541,-9.99188232421875,0.04171063889675306,-0.006252310582479005,-0.010232308200166991,2.1879761522225225,7.853384703112167,0.8809615907468705
1731474145.390102,-0.331870973110199,0.35072141885757446,-9.961592674255371,0.042739277745855314,0.0021753547485379287,-0.010255316147762785,2.1847134752007022,7.837689085997918,0.8809060088369438
1731474145.4399805,-0.31109046936035156,0.4003080129623413,-9.982954025268555,0.04362530967175944,0.010717147652490176,-0.010279090659663578,2.1817089387314197,7.821954382152787,0.8809588302494881
1731474145.4899025,-0.3297779858112335,0.40445318818092346,-9.977746963500977,0.04436185327565909,0.019335143592914515,-0.010304608352865612,2.178677989752962,7.806366247022528,0.8809026956391239
1731474145.5398126,-0.3312694728374481,0.4171616733074188,-9.975252151489258,0.0449434522980696,0.027991472060529245,-0.010332510557359885,2.17575686200998,7.790829140535772,0.8808207949045854
1731474145.589731,-0.3365127444267273,0.42672958970069885,-9.98169231414795,0.04536608172408422,0.036648424107627975,-0.010363162826235485,2.173118764046252,7.7753172562839925,0.8809524507458865
1731474145.6397784,-0.6444383859634399,0.252627432346344,-9.986760139465332,0.0456274185589745,0.0452687546617219,-0.010396704949108045,2.1704143758488925,7.759891573428214,0.8808934853951171
1731474145.6896195,-0.5891392230987549,0.3251998722553253,-9.954066276550293,0.04572780997659798,0.053816421128508304,-0.010433091190941046,2.1678352309398727,7.744652329603946,0.8808087010147786
1731474145.739691,-0.7718563675880432,0.09749940782785416,-9.974160194396973,0.0456716027755257,0.062257594616186365,-0.010472065539900405,2.165361370650846,7.729502969643718,0.8806973629610132
1731474145.7895942,-0.46285444498062134,0.407083123922348,-9.982929229736328,0.04546776938068666,0.07056144196238032,-0.010513122433974563,2.163207219176569,7.714495066914436,0.8809484138413017
1731474145.839546,0.17480438947677612,0.5993920564651489,-9.956948280334473,0.045128566975169676,0.07869984457719656,-0.010555552432724876,2.1609589691224826,7.699660254487325,0.8808873123412467
1731474145.8895202,-0.4296962022781372,0.3416212499141693,-10.036373138427734,0.04466616777824495,0.08664593265620095,-0.010598548392658686,2.1589598663090355,7.685061939858541,0.8809532278232001
1731474145.9394314,-0.10667605698108673,0.5735830664634705,-9.944799423217773,0.04409010111814439,0.0943729932485059,-0.010641341787655134,2.1569344738807477,7.6706421662745266,0.880893843492589
1731474145.9893925,-0.4261827766895294,0.25164923071861267,-9.998679161071777,0.04340742827281661,0.1018546631936047,-0.0106832676648341,2.155104637786415,7.656489987652582,0.8809531780877272
1731474146.0393891,-0.1757666915655136,0.5858380794525146,-10.030649185180664,0.042623884099545845,0.10906559147726634,-0.010723747734190651,2.153301857072685,7.642615662545275,0.8808936453977932
1731474146.0892906,-0.36952340602874756,0.26452311873435974,-9.984543800354004,0.041744457195672525,0.11598186889338467,-0.010762390707611065,2.151618164303905,7.629129438424964,0.8808078183681439
1731474146.1392066,-0.2180897742509842,0.5275964140892029,-9.984308242797852,0.04077357933880838,0.1225812376542267,-0.010799087041010609,2.1500371389685218,7.615941752003878,0.8806952700875561
1731474146.1892066,-0.35027265548706055,0.3020928204059601,-9.998504638671875,0.03971522948252308,0.1288432788451582,-0.01083389486999029,2.1485540899850077,7.603049593441271,0.8805557023126297
1731474146.2392662,-0.24522694945335388,0.4789474606513977,-9.97572135925293,0.03857305596071008,0.13474957628330436,-0.01086690681674509,2.1472891823068405,7.590206329807802,0.8809445371305907
1731474146.2900531,-0.32880857586860657,0.3587845265865326,-9.992473602294922,0.03735048760693693,0.14028379051089457,-0.010898211646259788,2.1459766910357843,7.577755635549932,0.8808797579316073
1731474146.3401139,-0.28920209407806396,0.4533703923225403,-9.996732711791992,0.03605082737133334,0.1454316475557784,-0.01092788633926566,2.1448091651792462,7.565578723651948,0.8809506906193478
1731474146.3900425,-0.32036682963371277,0.38436904549598694,-9.975886344909668,0.03467737243781437,0.15018088752325487,-0.010956015227376756,2.143701962351526,7.554092923463777,0.8808897093738348
1731474146.4399643,-0.3222068250179291,0.4288286566734314,-9.992498397827148,0.033233544030514706,0.15452124365744027,-0.010982691055655854,2.142672402119102,7.542911574881524,0.8808008198709629
1731474146.4898868,-0.3282969295978546,0.4256960153579712,-9.982223510742188,0.03172300176965647,0.15844442420256194,-0.011007981495868072,2.14173155092019,7.532205673973919,0.8806852829663697
1731474146.5398424,-0.3342430889606476,0.41899538040161133,-9.977553367614746,0.030149737364002872,0.16194404144852642,-0.01103190990399441,2.1409453607305236,7.521569357582693,0.8809449203779213
1731474146.5898244,-0.3272224962711334,0.4375999867916107,-9.990431785583496,0.028518117597967373,0.16501552409686743,-0.011054442567116532,2.1401333659608484,7.511390472820571,0.8809560799973327
1731474146.6398294,-0.348007470369339,0.42216381430625916,-9.980985641479492,0.026832881081527815,0.16765605765656183,-0.011075488864472453,2.1394028710325372,7.50179606138466,0.8808965769364573
1731474146.6897447,-0.3311549723148346,0.43346843123435974,-9.981561660766602,0.02509912850136881,0.1698645378686628,-0.01109492152876498,2.1387456520881476,7.492736223942504,0.8808102744774975
1731474146.7396312,-0.3635404109954834,0.40990909934043884,-9.988479614257812,0.023322319816629355,0.1716415482808754,-0.011112583852796008,2.1381442505255652,7.484039632956939,0.8806956977951593
1731474146.789546,-0.32311975955963135,0.4552238881587982,-9.978585243225098,0.021508261878398906,0.17298934546642053,-0.011128293528214345,2.137603402269901,7.475843676115894,0.8805546551957393
1731474146.8395026,-0.3543110489845276,0.4205108880996704,-9.987153053283691,0.019663048698562814,0.17391177783995948,-0.011141852663014953,2.1371425354270173,7.467692288247029,0.8809428913592686
1731474146.8894835,-0.33690303564071655,0.44204410910606384,-9.983466148376465,0.017792968527366428,0.17441416838225265,-0.01115305312222322,2.1366924601814796,7.460242696511027,0.880877214287998
1731474146.939377,-0.3456494212150574,0.4204249382019043,-9.974058151245117,0.01590443680512671,0.1745032520125756,-0.011161676959926549,2.136186624332342,7.452991781901441,0.8807019642838072
1731474146.9893372,-0.32335811853408813,0.44455331563949585,-9.994388580322266,0.014003930317745786,0.1741871438261291,-0.011167488409621944,2.1358158794372293,7.446452706160728,0.8805607408074143
1731474147.0392928,-0.3419918715953827,0.4153200089931488,-9.980100631713867,0.012097882872083035,0.1734752824073066,-0.011170244959182533,2.135478135169557,7.440354878130007,0.880391767391435
1731474147.0892532,-0.33232659101486206,0.44813141226768494,-9.970808982849121,0.0101925982850639,0.17237835981616598,-0.011169715833783782,2.1351647860882936,7.4346258605914715,0.8801924676245748
1731474147.1392598,-0.3414287269115448,0.42118310928344727,-9.989472389221191,0.008294222171505907,0.17090823900280966,-0.011165655905932891,2.1348042015219098,7.42907663500629,0.8804826185126259
1731474147.1892078,-0.32821929454803467,0.43675288558006287,-9.983247756958008,0.006408730279992125,0.1690778607367059,-0.011157791269578506,2.134533969412879,7.4242565196650245,0.8803624218355044
1731474147.239118,-0.3308393657207489,0.41653814911842346,-9.989508628845215,0.004541887260323024,0.16690117564799611,-0.011145866890056682,2.13427740594081,7.419855871848521,0.8802143671173067
1731474147.2890556,-0.3233639597892761,0.44228991866111755,-9.99915599822998,0.0026991801686343363,0.1643930882719044,-0.011129705719509966,2.1338717685061344,7.41546215507088,0.8849782042483606
1731474147.34003,-0.3317860960960388,0.42187803983688354,-9.981391906738281,0.0008857618755487011,0.16156936413735354,-0.011109248598993959,2.133620197544338,7.41179917583164,0.8859112810700908
1731474147.389953,-0.3199501931667328,0.43816444277763367,-9.984302520751953,-0.0008935749741560465,0.15844651136236154,-0.011084547611238175,2.1333741555184256,7.408620785106305,0.8867958701726475
1731474147.4399762,-0.3348630368709564,0.410004585981369,-9.995926856994629,-0.002634404103763828,0.15504168970034563,-0.011055716869984016,2.13312305976257,7.405827416138401,0.8876549481327001
1731474147.4898822,-0.31965500116348267,0.4335654675960541,-9.987404823303223,-0.0043326615818643196,0.15137265953779702,-0.0110229192006482,2.132821252117563,7.402965420075202,0.8893092545760419
1731474147.5398347,-0.33629316091537476,0.42236918210983276,-9.98745346069336,-0.005984634956759359,0.14745771930635818,-0.010986386154735121,2.1325490428492806,7.400930331827295,0.8902677237025272
1731474147.5897639,-0.32917505502700806,0.4344494938850403,-9.999245643615723,-0.007586943941258198,0.1433155906510011,-0.010946416717077525,2.1322354315273495,7.398771767170628,0.8938400412808656
1731474147.6397233,-0.3516184091567993,0.42074695229530334,-9.990751266479492,-0.009136494035607859,0.138965289136249,-0.010903380872161497,2.131924588783068,7.397441501093486,0.8957037742818549
1731474147.6896822,-0.3454195261001587,0.43337929248809814,-9.982441902160645,-0.010630396440231261,0.13442602483127072,-0.01085772486441746,2.131590135468087,7.396456160410378,0.897534331769085
1731474147.739603,-0.3505779504776001,0.42843934893608093,-9.977140426635742,-0.01206589022270765,0.12971711481165146,-0.010809918424591475,2.131172647091734,7.3952694089262385,0.8932520952010524
1731474147.7895708,-0.3442579209804535,0.44717955589294434,-10.014467239379883,-0.013440316176891256,0.12485787044182645,-0.01076039721147092,2.130775053884442,7.394920627533123,0.8935953905309042
1731474147.839557,-0.2940550446510315,0.5944892764091492,-9.976007461547852,-0.014751191668519488,0.11986731532104972,-0.010709597917897707,2.1302808317660142,7.394327832518093,0.892576244119642
1731474147.889536,-0.20518560707569122,0.54371577501297,-9.946371078491211,-0.015996513615714216,0.114763567965176,-0.010657964148155896,2.129812776618624,7.394572644571061,0.8926219470506854
1731474147.939503,-0.43645983934402466,0.24578015506267548,-9.995434761047363,-0.017175130815540583,0.10956349156498077,-0.010605800843401566,2.1292377264358313,7.394516414309586,0.8869366996304526
1731474147.9893682,-0.2412494719028473,0.5809628963470459,-10.00178050994873,-0.018286660264583147,0.10428330750656337,-0.010553210222106438,2.1286833324914554,7.3952974313226,0.8850986673614134
1731474148.0393229,-0.4226839542388916,0.305077463388443,-9.972904205322266,-0.019331054897253966,0.09893931791085729,-0.0105002425387336,2.128080337158354,7.396333729125238,0.8832284282584675
1731474148.0892675,-0.17636924982070923,0.6643232107162476,-9.994385719299316,-0.020308447696037863,0.09354778783960087,-0.01044700375972786,2.1274274845818986,7.397610786070475,0.8813307434491142
1731474148.1391916,-0.017241640016436577,0.4965020716190338,-10.021503448486328,-0.021219691738221705,0.0881242688192819,-0.010393659551908975,2.126655119460972,7.398463394606335,0.8825167405298596
1731474148.1891968,0.08745230734348297,0.6030604839324951,-10.011589050292969,-0.022067783428990143,0.08268287593971506,-0.010340531338022473,2.1258238880046396,7.399512594524468,0.8788281820850345
1731474148.2391913,-0.9778934717178345,0.07814757525920868,-9.990920066833496,-0.022858525332195442,0.07723637293035295,-0.01028821269169954,2.125003491867522,7.401421789851919,0.8768676945854126
1731474148.289004,-0.13256236910820007,0.6477596163749695,-9.916261672973633,-0.023598341205219784,0.0717973838690691,-0.010237443150086002,2.1241331389107643,7.403498104389742,0.8749001959276338
1731474148.3390393,-0.5607509613037109,0.18505153059959412,-10.030675888061523,-0.02429155245414886,0.0663793011376872,-0.010188788751946697,2.1231944007740338,7.405767521015913,0.8728882433662755
1731474148.3899746,-0.24053697288036346,0.6703055500984192,-9.993346214294434,-0.024940232514672655,0.06099601926324477,-0.01014255290083158,2.1221052339803,7.40749041995568,0.87892426384782
1731474148.4399455,-0.4149532914161682,0.18424800038337708,-9.922703742980957,-0.02554530545343294,0.05566135901488031,-0.01009894398893918,2.1210385893303867,7.4100617722957125,0.8785295685613222
1731474148.4898977,-0.32263457775115967,0.564312756061554,-10.011099815368652,-0.026107128543119442,0.0503888997939652,-0.010058054767412995,1.559186194960327,2.3106902167603303,0.8795794438595493
1731474148.539939,-0.4096713662147522,0.33358514308929443,-9.978320121765137,-0.026625670349419546,0.04519202437599329,-0.010019753785165715,1.5561070362509328,2.3242334436482612,0.879435988425157
1731474148.5898108,-0.33266475796699524,0.4822407364845276,-9.983787536621094,-0.027100502703209434,0.04008377456854122,-0.009983796193254492,1.5531605653355052,2.327849295657843,0.8798256246691275
1731474148.6398258,-0.36633315682411194,0.4079146981239319,-10.017582893371582,-0.027530837024874154,0.03507661349344033,-0.00994997055995832,1.5502115704687809,2.3416477455953357,0.8797466841661611
1731474148.6896837,-0.37975364923477173,0.41329842805862427,-9.984230041503906,-0.027915660460916203,0.030182323665138004,-0.009918178198070397,1.5482966563841083,2.3504137443236877,0.8799130703762609
1731474148.7397082,-0.3236582279205322,0.45023560523986816,-9.957239151000977,-0.028253822373232026,0.02541199282561027,-0.009888444824993386,1.545845383376086,2.3622559180672624,0.8798514837600433
1731474148.7895982,-0.4094269871711731,0.40006208419799805,-10.010847091674805,-0.028544091902782932,0.020775997775228035,-0.009860798367618126,1.5420414178406106,2.379781123542086,0.8799423775914744
1731474148.8395123,-0.3341081142425537,0.49790847301483154,-9.974881172180176,-0.02878519216276005,0.016283915142611974,-0.00983519280881015,1.5364189988728327,2.397843986964981,0.8799560524740143
1731474148.8895173,-0.40162166953086853,0.3858509361743927,-9.979796409606934,-0.028975785121369876,0.011944388928705921,-0.009811556303602085,1.5326277050250288,2.41216550017292,0.8799029491604826
1731474148.9394271,-0.33520281314849854,0.49349677562713623,-9.995915412902832,-0.029114489044152977,0.00776506593096253,-0.009789801825114953,1.5287780247557363,2.4264582273624247,0.8798255721553367
1731474148.989394,-0.39363962411880493,0.3769837021827698,-9.9759521484375,-0.029199946020772964,0.0037526359514759257,-0.009769815132783206,1.5248569822076505,2.4407605878463308,0.8797238587878329
1731474149.0393794,-0.32641667127609253,0.49767252802848816,-9.984671592712402,-0.02923089813464689,-8.70992958721319e-05,-0.009751467869777484,1.5315543706287194,2.426130621450642,0.8799498128704664
1731474149.0893095,-0.39658495783805847,0.40310895442962646,-9.991823196411133,-0.029206260497524037,-0.0037492144787557814,-0.009734613055217119,1.5295599044620223,2.4355974379610665,0.8798932633874122
1731474149.139286,-0.31508591771125793,0.49019932746887207,-9.974615097045898,-0.029125174083967035,-0.007229705635913565,-0.00971908904256932,1.5274828970420238,2.4450954266536504,0.8798120750251951
1731474149.1892076,-0.31508591771125793,0.49019932746887207,-9.974615097045898,-0.028987119763190808,-0.010525587404725117,-0.009704713258031308,1.5265435245254229,2.454471571099023,0.879953032540879
1731474149.1892076,-0.3865351676940918,0.38851404190063477,-9.984769821166992,-0.028792091713178543,-0.013634981999059055,-0.00969123701507665,1.5265328507259004,2.4545267123719126,0.8799527790064983
1731474149.2392628,-0.3284973204135895,0.4553205966949463,-9.989445686340332,-0.02854058100985561,-0.016556960942458974,-0.009678343490491117,1.5246734999962628,2.463926891667598,0.8798973461104198
1731474149.2891707,-0.36882221698760986,0.4021817743778229,-9.976908683776855,-0.02823339138124696,-0.01929120230769072,-0.009665706555175287,1.5227401140043526,2.4732984680902907,0.8798176799072173
1731474149.3390863,-0.339903861284256,0.46282950043678284,-9.997218132019043,-0.027871556150459952,-0.02183783117616175,-0.00965303106549487,1.5207418322859496,2.4825950874365046,0.8797141804472057
1731474149.3890233,-0.36403632164001465,0.4146801829338074,-9.983406066894531,-0.027456337253262023,-0.02419746022133473,-0.009640070880162072,1.5200670208213052,2.4918311861139806,0.8799601918702606
1731474149.4399798,-0.3282560706138611,0.4430561661720276,-9.990992546081543,-0.026989220947850313,-0.026371232031819947,-0.009626650584883602,1.518123063090461,2.5012488089723024,0.8799056159483688
1731474149.489963,-0.34830936789512634,0.4099680185317993,-9.985173225402832,-0.026471950975425425,-0.02836078506140307,-0.009612666674575988,1.5161520328195166,2.5103997570946106,0.8798277868053854
1731474149.5398574,-0.3367198407649994,0.4484230577945709,-9.979958534240723,-0.02590657558349444,-0.030168187560594577,-0.009598062355136276,1.5131271445954153,2.519431162872648,0.8799566285358781
1731474149.5898209,-0.3511849343776703,0.42940324544906616,-9.9827299118042,-0.025295440206435253,-0.03179592912028169,-0.009582788962946266,1.5106017272384629,2.5284156239673647,0.8799022878869303
1731474149.639785,-0.3449540138244629,0.44740235805511475,-9.993281364440918,-0.024641125646693657,-0.03324696975576576,-0.00956678316439952,1.508017115309612,2.5373078350526432,0.8798241192835304
1731474149.689714,-0.348348468542099,0.4309273660182953,-9.968509674072266,-0.023946380708394152,-0.034524770788275566,-0.009549977237998886,1.5065106849788115,2.5461100800756964,0.8799548294043757
1731474149.7397473,-0.3465837836265564,0.4344233572483063,-9.99363899230957,-0.023214078377305904,-0.035633266769584906,-0.00953229697595815,1.504127431978631,2.554876387124788,0.8799000547973376
1731474149.7896135,-0.35121646523475647,0.43669408559799194,-9.989757537841797,-0.022447187869243802,-0.03657680228602689,-0.009513658026230522,1.4994093150249057,2.563504271871523,0.8799574664510522
1731474149.839714,-0.3436480164527893,0.4485608637332916,-9.986307144165039,-0.021648748294584175,-0.03736009443879236,-0.009494008151831169,1.4923606165198184,2.57207265511236,0.8799626422769524
1731474149.8895714,-0.3596985638141632,0.44395580887794495,-9.989258766174316,-0.020821842178502095,-0.037988249921607285,-0.009473361256368665,1.4881376640046553,2.5805099310754698,0.879912130034793
1731474149.9394937,-0.3440133035182953,0.440993994474411,-9.989282608032227,-0.019969562123580302,-0.03846678158591689,-0.009451788734355633,1.4838557322848867,2.588867903684121,0.8798379008627701
1731474149.9894161,-0.3629949986934662,0.4327376186847687,-9.978323936462402,-0.019094974642891387,-0.0388015622419702,-0.009429401011850259,1.4795386376056459,2.5971036192478785,0.8797404268050643
1731474150.0394707,-0.35161831974983215,0.4358040392398834,-9.977865219116211,-0.01820108816660281,-0.038998729156699746,-0.009406308932294008,1.4849580456678955,2.6053076054439726,0.879952609676486
1731474150.0892787,-0.3588835597038269,0.44195646047592163,-9.983288764953613,-0.017290823426630162,-0.03906460423433175,-0.00938256997605013,1.4825510695736095,2.6133580984456652,0.8798980898353062
1731474150.1392915,-0.3525645434856415,0.4376795291900635,-9.988021850585938,-0.016367000711935253,-0.03900566745343709,-0.009358178271308474,1.480099344191291,2.6213206860870453,0.879820151940142
1731474150.1892414,-0.3610277473926544,0.4366692900657654,-9.989734649658203,-0.015432341823347868,-0.03882854844871567,-0.009333111283473538,1.4788076952656155,2.6291991680069517,0.8799547617456145
1731474150.239233,-0.35390523076057434,0.44004589319229126,-9.980785369873047,-0.014489465882640874,-0.038539996106136405,-0.00930737607664802,1.476638675746848,2.6369975587890053,0.8799011418888462
1731474150.2891834,-0.34808841347694397,0.4356316924095154,-9.990507125854492,-0.013540892835360262,-0.038146840647965155,-0.00928101319375227,1.474445996450391,2.644659827876127,0.8798246341396988
1731474150.3391497,-0.3495331108570099,0.4318283796310425,-9.987534523010254,-0.012589078121588982,-0.037655956560545045,-0.009254086271676358,1.471049503945918,2.65227888791202,0.8799551473150907
1731474150.3889644,-0.34229859709739685,0.43807172775268555,-9.979005813598633,-0.011636458887343258,-0.03707421591825455,-0.009226681926438548,1.4682994730326453,2.659739695859942,0.8799024368249065
1731474150.4399717,-0.35194361209869385,0.43843650817871094,-9.987793922424316,-0.010685478200757437,-0.036408456163534615,-0.009198894012561656,1.461001180811716,2.6673509455253703,0.8799576016930715
1731474150.4899325,-0.3497510850429535,0.43838438391685486,-9.9824857711792,-0.009738573570461418,-0.03566547826060055,-0.00917080089994448,1.4537005392102007,2.6746864977509683,0.8799634723473723
1731474150.5399475,-0.3440338671207428,0.4448617100715637,-9.980924606323242,-0.00879814517228008,-0.03485205204781888,-0.009142461023481041,1.4486345021852252,2.6819394513615973,0.8799141841498429
1731474150.5898569,-0.3435697555541992,0.4436219334602356,-9.993441581726074,-0.007866546744590483,-0.03397492040582755,-0.009113916685301843,1.4435856820533874,2.689052400431654,0.879842545477457
1731474150.6397717,-0.3434273302555084,0.4445556402206421,-9.981748580932617,-0.006946104136413087,-0.03304080274173942,-0.009085211396351659,1.4481398280962392,2.6961402259518787,0.8799563421468432
1731474150.6896904,-0.3434273302555084,0.4445556402206421,-9.981748580932617,-0.006039123568091105,-0.032056383592337645,-0.00905640474589413,1.4456262959502348,2.7030894962225425,0.8799046889882278
1731474150.6896904,-0.34205594658851624,0.4357181191444397,-9.985618591308594,-0.005147880613963353,-0.031028278753093982,-0.009027553740592506,1.4456034331839533,2.7031521532340594,0.8799041178377038
1731474150.7397027,-0.3368449807167053,0.4365089237689972,-9.985532760620117,-0.00427461140649262,-0.029962976873249156,-0.008998695998425062,1.4403014209303653,2.710077310142428,0.8799634305367756
1731474150.7896504,-0.3370206654071808,0.44003918766975403,-9.988101959228516,-0.0034215196398136834,-0.028866776208331127,-0.008969865004180334,1.4365215321597133,2.716896318556602,0.8799166563388691
1731474150.839731,-0.34878137707710266,0.4350849390029907,-9.995030403137207,-0.002590777061980284,-0.027745751558790756,-0.008941119632571203,1.4338350811293032,2.7237165765655025,0.879962425032983
1731474150.8894904,-0.34958556294441223,0.43955448269844055,-9.992443084716797,-0.0017844768929527028,-0.02660574514587416,-0.008912579546852204,1.4303097390407233,2.7303675118360418,0.8799139736856648
1731474150.9395454,-0.33814793825149536,0.4347154200077057,-9.992836952209473,-0.0010045656903664188,-0.025452356818218856,-0.008884452393763988,1.4267255679295798,2.7370569860124903,0.8798422602334822
1731474150.9894862,-0.33814793825149536,0.4347154200077057,-9.992836952209473,-0.00025283210823048944,-0.024290929272808532,-0.008857032799466803,1.423205987235366,2.743561331552853,0.8797498856444977
1731474150.9894862,-0.3534073531627655,0.43426117300987244,-9.98823356628418,0.0004690620283605719,-0.023126528679876163,-0.00883068051751137,1.4231755155774686,2.7436173794007215,0.8797489910172533
1731474151.0393903,-0.35689619183540344,0.43784937262535095,-9.982269287109375,0.0011596072985223126,-0.021963931783766877,-0.00880578314487474,1.4266179061721265,2.7501187896381682,0.8799578551150096
1731474151.089344,-0.34376397728919983,0.4424741268157959,-9.984296798706055,0.0018175230024253851,-0.020807637695132386,-0.008782702635692004,1.4242822165957825,2.756560486509927,0.8799097818469548
1731474151.1394033,-0.34501925110816956,0.4349685609340668,-9.980411529541016,0.0024417752171593593,-0.01966189588495814,-0.008761729163873834,1.4196897977619056,2.763060843599735,0.8799617107399313
1731474151.1892505,-0.35001081228256226,0.4367660880088806,-9.98748779296875,0.0030315270807815364,-0.018530714808629084,-0.008743065298902447,1.4162974599649152,2.7693786512429415,0.8799138413531011
1731474151.2393665,-0.35077399015426636,0.4410512447357178,-9.983784675598145,0.003586112078541863,-0.017417847234405315,-0.008726838823647583,1.4128758598448832,2.775721319431736,0.8798435145263315
1731474151.2891529,-0.35077399015426636,0.4410512447357178,-9.983784675598145,0.0041050512360806144,-0.01632679102181165,-0.008713124018515206,1.4117786257659792,2.782039537202246,0.8799588737339094
1731474151.2891529,-0.3346041738986969,0.4414082169532776,-9.978825569152832,0.004588052514188945,-0.015260811387622886,-0.008701945116891204,1.4117578978677083,2.7820913039040733,0.8799585526599804
1731474151.339152,-0.3532467186450958,0.44168803095817566,-9.982125282287598,0.005034965925368539,-0.014222955769083412,-0.008693260463064328,1.4092773542426522,2.788284242301845,0.8799092176054626
1731474151.38902,-0.3444956839084625,0.44681721925735474,-9.989038467407227,0.005445751119363166,-0.013216059735249476,-0.008686959675133766,1.4034968732656747,2.794557200767062,0.8799677618816816
1731474151.4390323,-0.3412024676799774,0.45108357071876526,-9.988518714904785,0.0058204844145542285,-0.012242766144542012,-0.008682898436815693,1.399769350357561,2.8007444963327193,0.8799225065826537
1731474151.4888942,-0.35135704278945923,0.44728460907936096,-9.988907814025879,0.006159358429318107,-0.01130555755291204,-0.008680947292946094,1.393213462141736,2.806963095427595,0.8799648495699078
1731474151.5399947,-0.3428148031234741,0.43845781683921814,-9.985496520996094,0.006462674543171208,-0.010406762895912915,-0.008681013108535128,1.3880408907163033,2.81322313785466,0.8799162539885922
1731474151.589838,-0.35130253434181213,0.43799132108688354,-9.989453315734863,0.006730851119578628,-0.009548510330487581,-0.008683031257000672,1.3830201332518477,2.8192944082091254,0.8798470652749764
1731474151.6397727,-0.35130253434181213,0.43799132108688354,-9.989453315734863,0.006964435345331952,-0.008732661429829059,-0.008686957680938101,1.387472041888471,2.8254594971985965,0.8799595578617551
1731474151.6397727,-0.34227749705314636,0.4340595602989197,-9.994230270385742,0.007164109973243717,-0.007960774780260447,-0.008692778854410568,1.3874511362853625,2.825508401964627,0.8799592461004418
1731474151.6898038,-0.345090389251709,0.4354267120361328,-9.992863655090332,0.007330674338153707,-0.007234095900414659,-0.008700533230075623,1.3848843207122645,2.831525338633114,0.879909984378262
1731474151.7628806,-0.3515869379043579,0.4293767511844635,-9.992466926574707,0.007465008841321785,-0.006553551481261253,-0.008710325700976622,1.3761123194816702,2.8404768453877507,0.8799495543810916
1731474151.7896523,-0.3438718020915985,0.40278133749961853,-9.977875709533691,0.007568068005229402,-0.0059197169010603515,-0.008722310201270487,1.3738085357977314,2.843681328047348,0.8799227872153021
1731474151.839626,-0.3230764865875244,0.15276339650154114,-9.979936599731445,0.007640865039634175,-0.005332492860333521,-0.008736625614102423,1.3689677676223666,2.849845733450231,0.8799627522851042
1731474151.8895721,-0.22208143770694733,0.187400683760643,-10.070066452026367,0.007684286070267827,-0.004790158698179017,-0.008753401873931341,1.3643911927675825,2.8558199526069346,0.8799153430774671
1731474151.939552,-0.3626958727836609,-0.3957504630088806,-10.0033597946167,0.007698744517710482,-0.004287772113214331,-0.008772980368988093,1.3598156631043157,2.8618065516995226,0.8798458545831095
1731474151.989412,-0.49128592014312744,-0.6028002500534058,-10.101073265075684,0.007684259127759382,-0.003814683382371759,-0.008796204093300088,1.3624651024439292,2.867906825617465,0.8799590307139112
1731474152.039409,-0.33004650473594666,0.15001556277275085,-9.991525650024414,0.007641224266370766,-0.0033522070344424795,-0.008824547906619466,1.355367874375804,2.874045872642474,0.8799654703886858
1731474152.0893848,-0.42409035563468933,-0.23452405631542206,-9.928579330444336,0.007570978368845651,-0.0028742451756294815,-0.008859919295104497,1.3512360679980904,2.880008349934833,0.87991842242018
1731474152.139399,-0.3635537326335907,0.16380023956298828,-9.96257495880127,0.007475664463823871,-0.0023505087638455327,-0.008904070100551859,1.34711466942455,2.8859764838313327,0.8798490035303224
1731474152.1892323,-0.3265819549560547,0.03705446049571037,-9.926668167114258,0.007357890563588432,-0.0017493182547791862,-0.008958037745732037,1.343028027849696,2.8919159726138663,0.8797575703700958
1731474152.2392316,-0.34383344650268555,0.2610261142253876,-9.951214790344238,0.00722039179156625,-0.0010394397996969051,-0.009021985962799725,1.3389593618234452,2.897852250312188,0.8796437407985591
1731474152.2891235,-0.35642221570014954,0.23940710723400116,-9.95168685913086,0.007065732361507922,-0.0001916585974090333,-0.009095289075782132,1.3486171203175852,2.9039778955315367,0.8799543758500075
1731474152.3392637,-0.3735845685005188,0.305618554353714,-9.976515769958496,0.006896278981929411,0.0008199882181742768,-0.009176710463758161,1.3468105933580865,2.909975630707227,0.8799009706063974
1731474152.389072,-0.3662432134151459,0.2762035131454468,-9.98367977142334,0.006714364849468765,0.0020174928882639147,-0.009264658355348997,1.3401946136630754,2.916105315201666,0.8839105699932993
1731474152.4390504,-0.3853393793106079,0.2848801612854004,-9.992253303527832,0.0065224203370714716,0.0034187033445929275,-0.009357444907683758,1.3365899605878246,2.9220795453477613,0.8851101730105826
1731474152.4890246,-0.3745778203010559,0.2969180941581726,-9.987142562866211,0.0063230297763579675,0.005037493368071038,-0.009453471577065423,1.3340933030396565,2.928294236444666,0.887774475477661
1731474152.539969,-0.36941108107566833,0.32635197043418884,-10.017279624938965,0.006118932658956849,0.006883975677345719,-0.009551334704159692,1.3307348550023435,2.934406583652045,0.8893880097777307
1731474152.5898287,-0.3613957464694977,0.32036691904067993,-9.987659454345703,0.005912950829362945,0.008964619409072559,-0.00964990194773769,1.3274636750408877,2.9404075761855584,0.8909427327138375
1731474152.6398501,-0.3613957464694977,0.32036691904067993,-9.987659454345703,0.0057078676578499335,0.0112823687045133,-0.009748328454552532,1.3279138153264705,2.94671705805901,0.8875125728708079
1731474152.6398501,-0.3558109700679779,0.3377763330936432,-10.017905235290527,0.005506326055251676,0.013836869227295111,-0.00984599345310004,1.327890569828977,2.9467797238630205,0.887516140325336
1731474152.6896672,0.11172740161418915,0.9410831928253174,-9.988750457763672,0.005310344913315919,0.016624187608842076,-0.009942476020625014,1.3256900838196968,2.952749517767083,0.8878427267946992
1731474152.7397246,0.6022413969039917,1.6053311824798584,-9.950591087341309,0.005119230352063563,0.019634371776186123,-0.010037526599752516,1.3219637191936011,2.9591871510926837,0.8871261357449228
1731474152.7897217,0.45707929134368896,1.1785728931427002,-9.883322715759277,0.004925821894353366,0.022846991142920218,-0.010130797491228374,1.3190322494099156,2.9653773398151295,0.8872435197393286
1731474152.8396256,0.18722468614578247,0.8254978060722351,-10.014012336730957,0.0047139973083141435,0.0262288933111834,-0.010221453977514477,1.31611838647513,2.9716171317714033,0.8873352420628179
1731474152.889567,-0.2138817459344864,0.33085402846336365,-10.020838737487793,0.004460169037201428,0.02973747023150455,-0.010308208276621805,1.3132225256494758,2.9779124712141747,0.8874012074237215
1731474152.939633,-0.84199458360672,-0.42900434136390686,-10.077438354492188,0.004138270763830837,0.03332778360107172,-0.010389908689475476,1.3155778480848486,2.9846380515273725,0.8871054287506953
1731474152.9894435,-1.1347620487213135,-0.6553553342819214,-10.159132957458496,0.0037262764442179725,0.036960616916602636,-0.010466257607201853,1.3136783298751937,2.9910736917738086,0.8871167527493498
1731474153.0395005,-0.5375619530677795,0.026560742408037186,-10.053828239440918,0.0032114998787646483,0.04060839980988078,-0.010538333870486354,1.3082745439432253,2.998051120995236,0.8832193480143523
1731474153.0893981,-0.6419805884361267,-0.14039817452430725,-10.018117904663086,0.002591545112387926,0.04425581245628587,-0.01060861209488207,1.3050411203139127,3.0047064807919543,0.8819480938060031
1731474153.13939,-0.48468977212905884,0.17504572868347168,-9.904268264770508,0.001871478407388276,0.04789620063844273,-0.010680267441195237,1.3017808415522367,3.0115442847740757,0.8806373685147733
1731474153.1893013,-0.5061772465705872,0.20886747539043427,-9.975037574768066,0.001060839082186826,0.051527784480127875,-0.010756186011853451,1.2985547334748375,3.0184416783911088,0.8793122601666371
1731474153.2392278,-0.504601240158081,0.35937514901161194,-9.961531639099121,0.0001719774061963479,0.05515092481469789,-0.01083837552881798,1.295325463188672,3.0254814084890405,0.8779584431553463
1731474153.2890863,-0.5235366225242615,0.4285810589790344,-9.942535400390625,-0.0007808068288886385,0.05876597834457911,-0.010927943809868815,1.302204809241015,3.0330594823074235,0.8802815466763131
1731474153.3391986,-0.5182399153709412,0.41647854447364807,-9.95583724975586,-0.0017816913666666148,0.06237179248885982,-0.011025238940482367,1.3005798425022155,3.040452421290387,0.8795598645389558
1731474153.3890479,-0.5484158992767334,0.4480695128440857,-9.937871932983398,-0.0028135877786651968,0.06596497221599763,-0.011129898504725337,1.2933515962397373,3.0483926466673243,0.8809730134540962
1731474153.4390175,-0.5478430390357971,0.4370619058609009,-9.939542770385742,-0.00385836160624593,0.069539794202014,-0.011240884020983131,1.2896259491532407,3.0560938299302447,0.8808237573114038
1731474153.4889638,-0.5263280868530273,0.4694240391254425,-9.992203712463379,-0.004897049002459705,0.07308840968827307,-0.011356577851005873,1.2863733500033594,3.064434669005552,0.8817093656708073
1731474153.5389593,-0.5467596054077148,0.46723413467407227,-9.985711097717285,-0.005910159402940681,0.07660106820404919,-0.011475025946086376,1.2827948984495894,3.0724974402654577,0.881778732347708
1731474153.5898702,-0.551529049873352,0.4757702946662903,-9.996859550476074,-0.006878005340140561,0.08006633126226216,-0.01159426962978974,1.279050029521597,3.0813872782634935,0.8822255394929713
1731474153.6398945,-0.5152885317802429,0.4587487578392029,-9.976001739501953,-0.0077809667303597365,0.08347133461337644,-0.01171254497174351,1.2757460765378175,3.089913525005018,0.8823130800187401
1731474153.6898081,-0.5710768699645996,0.47691261768341064,-10.003650665283203,-0.008599743892496948,0.0868021240780662,-0.011828307522200463,1.2720596524434697,3.099095596877844,0.8827184517443019
1731474153.7397523,-0.525538980960846,0.48766395449638367,-9.994609832763672,-0.009315580804262792,0.0900439734310812,-0.011940230649343042,1.2660130409539976,3.108500546406243,0.8828937825945371
1731474153.789613,-0.5084438323974609,0.5185731053352356,-9.965476989746094,-0.00991046431701793,0.09318157444188452,-0.012047214718632555,1.261907488442543,3.1176487816034073,0.8829901633132089
1731474153.8396065,-0.5292466878890991,0.4623800218105316,-9.98769760131836,-0.010367412502625076,0.09619915790737837,-0.012148314553015148,1.2577674032587702,3.1270544021641293,0.8830564826952186
1731474153.88953,-0.48913973569869995,0.46731847524642944,-9.979022026062012,-0.01067076537392878,0.09908075734369054,-0.012242636849750991,1.2536183153851592,3.136664075743682,0.8830921622818974
1731474153.9395475,-0.4685397744178772,0.5056860446929932,-9.99309253692627,-0.01080641277444009,0.10181060044111816,-0.012329334187222698,1.2594129051617964,3.1471521203200656,0.883066930060308
1731474153.9894257,-0.45702219009399414,0.4998912811279297,-9.956080436706543,-0.010762067926699549,0.10437333517227754,-0.012407635788087365,1.2542452654023155,3.1578618823021736,0.8830134512564252
1731474154.0394197,-0.4022035002708435,0.5028836131095886,-9.970311164855957,-0.010527573144148714,0.10675405708066174,-0.012476793440260526,1.2510770050636402,3.168293745718664,0.8829753845974477
1731474154.089314,-0.42270535230636597,0.48164358735084534,-9.983999252319336,-0.010095165676107513,0.10893839151598406,-0.012535998184547623,1.24789180185102,3.1789655461395316,0.8829062554540795
1731474154.1392968,-0.38456615805625916,0.5007065534591675,-9.960416793823242,-0.009459646862748854,0.11091270038442114,-0.01258438862892373,1.2446628008096516,3.189977893290199,0.8828051659951681
1731474154.1892097,-0.3837924003601074,0.4896668791770935,-10.00211238861084,-0.008618419110253642,0.11266428055936062,-0.01262111934242528,1.2414460122125084,3.2011492222191857,0.8826739247441289
1731474154.2391903,-0.3806689977645874,0.47306615114212036,-10.001392364501953,-0.007571442338968365,0.1141815066203101,-0.01264545902250233,1.2381870102268049,3.212679643294674,0.8825103196133219
1731474154.2891269,-0.5227342247962952,0.9770021438598633,-9.972333908081055,-0.006320988617422453,0.1154535405471054,-0.012656912587176846,1.2482017327372985,3.2251734152765787,0.8831735433962179
1731474154.3391964,-0.6536251306533813,1.1910713911056519,-9.957026481628418,-0.004870826808285104,0.11646857728837545,-0.01265520535301142,1.2467868545393042,3.237304954196843,0.8831350430002846
1731474154.389024,-0.5680765509605408,0.5152410864830017,-9.884139060974121,-0.003224940007196392,0.11721146053155768,-0.012640018412126065,1.2453659144417557,3.2496933548241795,0.8830650980234456
1731474154.438984,-0.8518714904785156,1.0223649740219116,-10.114818572998047,-0.0013864216814458985,0.11766354520916762,-0.012610764986578666,1.2435133018602997,3.2630987802214824,0.8833787100027455
1731474154.4890203,-0.5428992509841919,0.5303182005882263,-9.948053359985352,0.0006431675495637678,0.11780465592585215,-0.012566851900970654,1.2419738960955848,3.2761457190667445,0.8833589657028603
1731474154.4890203,-0.5428992509841919,0.5303182005882263,-9.948053359985352,0.0028636757115381613,0.11761501394942338,-0.012508065452778652,1.2414907273148008,3.280307070758479,0.883346239456825
1731474154.8706543,-0.253031849861145,0.3442539572715759,-9.981415748596191,0.005275021696472645,0.11707721717377897,-0.01243442057635772,1.2160260620788252,9.101923186957896,0.8836637748063558
1731474154.9205117,-0.23775433003902435,1.9156547784805298,-9.855184555053711,0.007875128595603891,0.11617687170830675,-0.01234575016476179,1.2209001739053522,9.115889675291111,0.883838333412595
1731474154.9705315,-0.4001409411430359,0.5899046659469604,-9.77047061920166,0.01065835440370193,0.1148995241537461,-0.012241244940864628,1.2192659727929185,9.107322890723827,0.883738101298273
1731474155.020408,-0.1947299689054489,1.112312912940979,-10.022409439086914,0.013615228481971754,0.11322757695342359,-0.012118932574874695,1.2193354002953578,9.096276356383978,0.8839006003819765
1731474155.0704117,-0.21322882175445557,0.8714746236801147,-10.088143348693848,0.016732840939244743,0.11114123781248347,-0.011975974033953242,1.2173983412854343,9.083710590450032,0.8838243896483485
1731474155.1203022,-0.2239534556865692,0.9041865468025208,-9.905142784118652,0.019994920189591064,0.10862073662216991,-0.011809855510317655,1.2154311138905871,9.07092536898149,0.8837153674034022
1731474155.1704328,-1.3943976163864136,-0.5810168385505676,-10.084527969360352,0.023383005881160025,0.10564868031991255,-0.011619072751853973,1.2135617159282919,9.058692770488928,0.8835798681664527
1731474155.2202253,-0.5982986688613892,0.3721615672111511,-10.063822746276855,0.02688031310863896,0.10221491120257575,-0.011403115714929583,1.2116951286317785,9.046322863941494,0.8834103913228201
1731474155.2702136,-0.46314603090286255,0.03619835898280144,-10.011496543884277,0.03047495070214397,0.09832083471905115,-0.011162588964499518,1.2168872562996234,9.070796310711746,0.8839287385967692
1731474155.320184,-0.5183843374252319,0.10595713555812836,-10.015792846679688,0.034158704268220014,0.09397929032575279,-0.010899237787157278,1.2160785512200945,9.064075007998202,0.883858642872674
1731474155.3702235,-0.5183843374252319,0.10595713555812836,-10.015792846679688,0.03792413450808769,0.08921245672447031,-0.0106155914761259,1.2141579957998996,9.046366508603583,0.883947149927493
1731474155.3702235,-0.11161405593156815,0.15249505639076233,-10.028287887573242,0.04176317961289482,0.08405041813858415,-0.01031465755348728,1.2141494829716242,9.046292094179922,0.8839467751671671
1731474155.4200754,-0.11161405593156815,0.15249505639076233,-10.028287887573242,0.04566586440291745,0.07852979069160665,-0.009999840598583637,1.2131429897406105,9.037094168055132,0.883887478616712
1731474155.4200754,0.01588253118097782,0.03391246125102043,-10.020575523376465,0.049618360109457235,0.07269237045005973,-0.009674917723288016,1.2131179596986323,9.036854031462745,0.8838855785172273
1731474155.469965,-0.25383296608924866,0.3448643088340759,-9.974748611450195,0.05360197209414214,0.06658409009253485,-0.009343922907003963,1.2122618912758056,9.028106531041205,0.88380453633445
1731474155.5198517,-0.10165785253047943,0.2227284014225006,-9.922452926635742,0.05759380797016586,0.06025367060776246,-0.009010825415916263,1.2115133601467043,9.019220906653244,0.8836983077081672
1731474155.5699394,-0.1839110553264618,0.4192267656326294,-9.99095344543457,0.06156815168417429,0.0537508407426108,-0.008679096292319643,1.2104996311530483,9.01068614856279,0.8839625904928428
1731474155.6198208,-0.19280876219272614,0.3612631559371948,-9.950533866882324,0.0654974942529368,0.04712476838719419,-0.00835150198505357,1.2096475456721993,9.000388088693581,0.883913054262677
1731474155.6698928,-0.00384950777515769,0.6912849545478821,-9.922014236450195,0.06935310986171314,0.04042272816839359,-0.00803014905655548,1.2082914246408365,8.990940391221427,0.8841938312184
1731474155.7207956,0.744889497756958,1.6483407020568848,-9.939879417419434,0.07310443126012735,0.0336876252888916,-0.007716454394494848,1.2058317647913879,8.980881660622437,0.8844674670851623
1731474155.770732,0.3141680657863617,1.1341841220855713,-10.00156307220459,0.07671648969767762,0.026953527802986453,-0.0074111146730631745,1.2045925138547362,8.971416301138259,0.8845659704802892
1731474155.8206358,-0.22723086178302765,1.8611536026000977,-9.893811225891113,0.08014836200321325,0.020241589100700397,-0.007114288857811427,1.2034971104959353,8.961564401340949,0.8846504044324646
1731474155.8706558,-0.4820658564567566,1.1263463497161865,-9.909140586853027,0.08335626062865778,0.013558913846996052,-0.00682567464309339,1.2026580972809884,8.952270504318765,0.8847134305416429
1731474155.9206085,-0.49431735277175903,1.4234706163406372,-9.892594337463379,0.08629930399974212,0.0069001211881306364,-0.006544278420124726,1.2040571734958816,8.94276415276079,0.8846662242276747
1731474155.970523,-0.07631285488605499,0.5004467964172363,-10.070384979248047,0.0889430596227138,0.0002509547230912727,-0.006268382944114279,1.2028488983854397,8.933277685520624,0.8848463529017907
1731474156.0204434,-0.24069371819496155,-0.35270124673843384,-10.206377029418945,0.09125923549945364,-0.006405640655848813,-0.005996308753713213,1.2024293610288095,8.92374535178695,0.8849140521861676
1731474156.0704284,-0.6625279188156128,-0.9579870700836182,-10.202309608459473,0.09322424058601025,-0.013080609644493505,-0.005727828362634448,1.2022412472806394,8.914225410464253,0.8849668855062857
1731474156.1203353,-0.7205891013145447,-0.26662561297416687,-10.021163940429688,0.09481989877950453,-0.01977026867747502,-0.005465130740134706,1.202287207480157,8.904648570289535,0.8850058561426293
1731474156.170457,-0.539745032787323,-0.3440362215042114,-10.02015209197998,0.09603557734765243,-0.026453717870646522,-0.005212403824976474,1.2014731232533293,8.894969625254445,0.8850458915593549
1731474156.220292,-0.539745032787323,-0.3440362215042114,-10.02015209197998,0.09686870450474591,-0.03309611640268657,-0.004974606190464718,1.2015365713484247,8.885294605919876,0.8850730493224946
1731474156.220292,-0.7099660634994507,-0.18074804544448853,-9.97559928894043,0.097323556706424,-0.0396528152295941,-0.004756584718525912,1.2015382222897346,8.885207670734951,0.8850732367029427
1731474156.270222,-0.4648881256580353,-0.01231425255537033,-9.95477294921875,0.09741017753937463,-0.04607242108283963,-0.004562679081373422,1.199937347202515,8.875461755512477,0.8850111945808481
1731474156.320121,-0.6345815658569336,0.11943099647760391,-9.89240837097168,0.09714362284531383,-0.052299963498587156,-0.004396362651753893,1.1996820432222146,8.865384061580382,0.8849984792960843
1731474156.370157,-0.4727819561958313,0.4156271815299988,-9.890789985656738,0.09654298388092106,-0.0582803604871409,-0.004259819872855123,1.1990588693490716,8.855440539084176,0.8849931519215128
1731474156.419992,-0.4746846556663513,0.4383656084537506,-9.960733413696289,0.09563035521463863,-0.06396170913302421,-0.004153705497163583,1.1989606045675045,8.845241578299499,0.884972776829714
1731474156.4700122,-0.4082532823085785,0.4868992269039154,-9.922954559326172,0.09442977150133712,-0.06929787354926359,-0.004077317938859888,1.199099374008675,8.834835283311005,0.8849420377982367
1731474156.5199811,-0.42095184326171875,0.46034306287765503,-9.94420051574707,0.0929661611700017,-0.07424975191972485,-0.004028995476845965,1.1984810068574894,8.82425908850789,0.8849838103522706
1731474156.5699735,-0.3570947051048279,0.568742036819458,-9.979055404663086,0.09126457468169716,-0.07878545005673974,-0.004006420076411482,1.198687209390054,8.813460387636017,0.8849611261056285
1731474156.6198468,-0.35170891880989075,0.5658196806907654,-10.006991386413574,0.08934962246873551,-0.08288019301917104,-0.004006922184265266,1.1984316863646238,8.802488012615607,0.8849829242931179
1731474156.6698449,-0.35522300004959106,0.5524300336837769,-9.985919952392578,0.0872450204704553,-0.08651625588218902,-0.004027864665381651,1.1987672038004313,8.79128591805039,0.8849605710428545
1731474156.7197773,-0.3219449818134308,0.549161434173584,-9.999293327331543,0.0849733143431607,-0.0896826252930552,-0.004066888907715351,1.1993145702161445,8.77993429834729,0.88492830158599
1731474156.7707493,-0.28970977663993835,0.5290778875350952,-9.999696731567383,0.0825557069320604,-0.09237433003940497,-0.004121956698184954,1.2000901275497535,8.768074993035935,0.8848847423811609
1731474156.8206139,-0.3143123984336853,0.5126650929450989,-10.002466201782227,0.08001185888729782,-0.09459166920272383,-0.004191341682865425,1.1986248705465836,8.756010290227799,0.8852057725183381
1731474156.870688,-0.2599155902862549,0.5240530371665955,-9.9974946975708,0.07735974321472659,-0.09633947439780474,-0.004273630526502695,1.1986975133320692,8.743806400005846,0.8854196166752095
1731474156.9205627,-0.2969132363796234,0.4891177713871002,-9.995007514953613,0.07461560869830747,-0.09762645942490962,-0.004367692239130491,1.199134601456111,8.731716981493859,0.8854835263814327
1731474156.9705002,-0.2292598932981491,0.49995648860931396,-10.004132270812988,0.07179397539515286,-0.09846464545355735,-0.004472623693722944,1.1993575160943564,8.719123105767974,0.885669756107938
1731474157.0204966,-0.2579132318496704,0.4924958348274231,-10.007848739624023,0.06890761470026607,-0.09886883412632037,-0.004587725572206396,1.199977145866755,8.70622216280661,0.8857512760075873
1731474157.0704823,-0.24598565697669983,0.4703907370567322,-10.037233352661133,0.06596755010879549,-0.09885615066272303,-0.004712547940981207,1.2007614548550125,8.693154007786104,0.8858206731613884
1731474157.1203732,-0.2604096531867981,0.4892358183860779,-9.96359920501709,0.06298317643079052,-0.09844563236936943,-0.004846940519411043,1.2017099764392996,8.67979270027612,0.8858783461359601
1731474157.1703653,-0.2412901222705841,0.49372807145118713,-10.008519172668457,0.059962473761789425,-0.0976578815736949,-0.004990957296335075,1.2002669296193296,8.666244921396181,0.8858643608510455
1731474157.2202988,-0.25269076228141785,0.49582356214523315,-9.967084884643555,0.05691219169286242,-0.09651484348558113,-0.005144653457493226,1.2016105277809694,8.652366829114841,0.8861650877688708
1731474157.2702527,-0.29472479224205017,0.49913355708122253,-9.967273712158203,0.05383803166655734,-0.09503964283171798,-0.005307931860733093,1.202778594260209,8.638340932016186,0.8863337436224205
1731474157.3201697,-0.2970694601535797,0.489962100982666,-10.00029182434082,0.05074495353968472,-0.09325638764583578,-0.005480461603902794,1.2040859522483183,8.623982672258581,0.8864900065328313
1731474157.370167,-0.34497785568237305,0.48454904556274414,-9.985206604003906,0.0476375850838369,-0.09118992476655317,-0.0056617071413563435,1.205503212185784,8.609530600657958,0.8866309579583596
1731474157.4200604,-0.34497785568237305,0.48454904556274414,-9.985206604003906,0.04452061526774852,-0.08886556627388824,-0.005851045317086147,1.2025400251021463,8.594760061507136,0.8860907748822341
1731474157.4200604,-0.33604687452316284,0.4833928644657135,-9.957088470458984,0.04139907494793743,-0.08630883556365403,-0.006047790999046412,1.202572374501075,8.59391483130793,0.8860912611995612
1731474157.4700716,-0.3997398614883423,0.48361581563949585,-10.031452178955078,0.03827847101073656,-0.08354526632442091,-0.00625114883902198,1.2031548787694155,8.579781758178653,0.88609197456555
1731474157.5199513,-0.34380197525024414,0.5006750226020813,-9.992836952209473,0.03516486533001971,-0.08060025659476494,-0.006460300261079821,1.2032625684081306,8.564052996954503,0.8860100615991192
1731474157.570007,-0.40116724371910095,0.47793707251548767,-9.987176895141602,0.03206491961906932,-0.07749896725650762,-0.006674566491820399,1.2038877772757783,8.549141850244723,0.8859846978975076
1731474157.6199002,-0.3695700168609619,0.49243950843811035,-9.979872703552246,0.0289858574657497,-0.0742662114598629,-0.006893396478965136,1.205175761534783,8.53333415740975,0.8859844898091067
1731474157.6698487,-0.41193339228630066,0.5345649719238281,-9.984530448913574,0.02593541362544447,-0.07092635829307027,-0.007116223881582444,1.2061609533811897,8.51768163398444,0.8859494207790631
1731474157.7197323,-0.39578092098236084,0.5249258279800415,-9.9964017868042,0.02292181323205208,-0.0675033693774374,-0.007342403714167598,1.206772132535895,8.501833226658295,0.8859741732162929
1731474157.7697887,-0.4148857295513153,0.5152393579483032,-10.009360313415527,0.01995374504624927,-0.06402088299669087,-0.007571274956521633,1.207627126679427,8.485748842701959,0.8859347436178453
1731474157.8206913,-0.38384121656417847,0.5252273082733154,-9.947656631469727,0.017040279486219598,-0.06050214765944195,-0.007802231448690155,1.208897964865615,8.468668042260333,0.8862159193467474
1731474157.8705866,-0.37471675872802734,0.512197732925415,-9.963825225830078,0.014190674045713787,-0.05696984596491508,-0.008034625876432288,1.2099061838856378,8.452762371978631,0.886249782000322
1731474157.9205194,-0.39332878589630127,0.548274040222168,-9.980907440185547,0.011414107079173896,-0.05344595975391121,-0.008267577734109417,1.2109933560366462,8.435979604898893,0.886264681145888
1731474157.970504,-0.3940364420413971,0.5331264734268188,-9.951216697692871,0.008719499669973521,-0.049951728281476315,-0.008499927411889693,1.2120771398527426,8.41950650572299,0.8862584397985993
1731474158.0204077,-0.3720216453075409,0.5273372530937195,-10.012054443359375,0.00611545969806826,-0.04650763291022725,-0.008730332257654384,1.213204156362532,8.402538771539707,0.8862302873207488
1731474158.070431,-0.36154696345329285,0.5203379988670349,-9.981355667114258,0.00361018341797694,-0.04313329285493151,-0.008957415334461382,1.2106022130547764,8.385819717731994,0.8861996870776669
1731474158.1203873,-0.33269548416137695,0.5211107134819031,-9.980409622192383,0.0012112337775411668,-0.0398472878389001,-0.009179911424724303,1.2111481379794717,8.368311257832811,0.8861588214780981
1731474158.170318,-0.3207956552505493,0.5135068893432617,-9.99845027923584,-0.0010747322999157813,-0.03666700960447053,-0.009396704224108477,1.2130701965444095,8.351614578924652,0.8861758660405421
1731474158.2202368,-0.30687013268470764,0.5224953889846802,-9.994780540466309,-0.003242208752423282,-0.03360856942100454,-0.009606818315609143,1.2152057165165917,8.333581815582763,0.8861688556404994
1731474158.2701979,-0.3119085729122162,0.5182780623435974,-9.960308074951172,-0.005286993622066668,-0.03068675344088949,-0.009809432654049512,1.216354915029665,8.317108036916862,0.8861212566293402
1731474158.3202002,-0.3232634663581848,0.5220323204994202,-9.994431495666504,-0.007206200160079813,-0.02791501633242656,-0.01000381958200037,1.2175728017945195,8.299347632406484,0.8860450659622039
1731474158.3702445,-0.28144803643226624,0.5371149778366089,-9.997028350830078,-0.008998168670213528,-0.0253055017679321,-0.010189283673062436,1.2173831309041048,8.28218933498311,0.8861565561207301
1731474158.4200966,-0.28144803643226624,0.5371149778366089,-9.997028350830078,-0.010662432746358055,-0.02286910388272496,-0.010365233926802879,1.2182020702579386,8.264782969184557,0.886100190397609
1731474158.4200966,-0.31811031699180603,0.5085797905921936,-9.998974800109863,-0.012199741927321595,-0.020615523753524385,-0.010531285557527215,1.2182195693655895,8.264404141049512,0.8860986801582872
1731474158.4701083,-0.2963423728942871,0.5248386859893799,-9.973089218139648,-0.01361194828474024,-0.01855322777144603,-0.010687260549572204,1.2200692929130805,8.247062520621865,0.8859010573898367
1731474158.5199509,-0.2880183458328247,0.5108221173286438,-10.006240844726562,-0.014901795290881129,-0.016689355537700467,-0.010833111719851206,1.2212901245340186,8.22957769401656,0.8857586367134791
1731474158.5699735,-0.2980497181415558,0.49068212509155273,-9.973512649536133,-0.016072808855645285,-0.01502966185411038,-0.010968864472743027,1.2224817759752586,8.211915420847081,0.8855877897177248
1731474158.6198955,-0.2980497181415558,0.49068212509155273,-9.973512649536133,-0.017129242648024397,-0.013578446232981767,-0.01109457924968488,1.22362937607906,8.194253405840657,0.8853896376512074
1731474158.6198955,-0.31672346591949463,0.5230117440223694,-9.992152214050293,-0.01807594653825907,-0.012338505091413859,-0.01121028573732906,1.2236368071343207,8.194136732488259,0.8853882376559307
1731474158.6698563,-0.3087119460105896,0.5085582733154297,-10.039146423339844,-0.018918179373328525,-0.011311238274412251,-0.011316012715663742,1.2219930902955256,8.176474151151574,0.885908401094639
1731474158.719787,-0.37044280767440796,0.5171928405761719,-9.983965873718262,-0.01966139571310032,-0.010496846291064106,-0.011411982541463358,1.2225140053913248,8.158733425098065,0.8858349399551477
1731474158.769825,-0.35450124740600586,0.50801682472229,-9.950888633728027,-0.02031096562727433,-0.009894458111737718,-0.011498675742348814,1.2253272312821637,8.140797626799014,0.8859372233011183
1731474158.8206687,-0.3457523584365845,0.5308553576469421,-10.02107048034668,-0.020871912006105792,-0.009502200204216864,-0.011576622600908953,1.2266309552470671,8.122760390166224,0.8858700500431224
1731474158.8708599,-0.3598632216453552,0.5240755081176758,-9.973990440368652,-0.021348835872678825,-0.009317298724527896,-0.011646268687103223,1.2278712328539694,8.104832323389914,0.8857737681036689
1731474158.9206185,-0.37419551610946655,0.5006221532821655,-9.971975326538086,-0.021745952005788455,-0.009336183686013867,-0.01170802499630878,1.229039435268825,8.087149485072091,0.8856499287481344
1731474158.970634,-0.3892771303653717,0.5268489718437195,-10.022506713867188,-0.02206704177641003,-0.009554510263858212,-0.011762278778452814,1.227333812846322,8.069113340384183,0.8861612504419546
1731474159.0204418,-0.42074161767959595,0.5047159194946289,-9.953629493713379,-0.022315310046776997,-0.009967153470771437,-0.011809398744847231,1.2279146026404253,8.051342115965062,0.8861357324188331
1731474159.0705018,-0.4061630666255951,0.5313308238983154,-9.978107452392578,-0.022493227028733923,-0.010568264583519327,-0.011849734205790797,1.2307557310651702,8.033145861052331,0.8864384727182105
1731474159.1203768,-0.4061630666255951,0.5313308238983154,-9.978107452392578,-0.022602463742341088,-0.01135138265429816,-0.011883513605723133,1.2327082072902942,8.015040679567251,0.8864130789695072
1731474159.1203768,-0.40526318550109863,0.5140536427497864,-10.022367477416992,-0.02264398403374912,-0.012309560169209107,-0.011910832981041935,1.2327247735019107,8.014820506021291,0.886412972447662
1731474159.170345,-0.3965300917625427,0.502784788608551,-9.966509819030762,-0.022618214085506308,-0.013435408689020264,-0.011931813190686424,1.2340336573589152,7.997034721322318,0.8863895562435231
1731474159.2203305,-0.38581791520118713,0.508468508720398,-9.955740928649902,-0.02252521725367781,-0.014721036659139252,-0.011946648256809652,1.2352962612756127,7.979081901779911,0.8863363440871225
1731474159.2702694,-0.3934820294380188,0.535594642162323,-9.982986450195312,-0.022364870724074434,-0.016158031624665645,-0.011955439022857488,1.2365012356787082,7.961117155865721,0.8862535150155622
1731474159.3201983,-0.35386738181114197,0.5342658758163452,-9.970437049865723,-0.022137034779235662,-0.017737603146556542,-0.011958077047636776,1.2359766986055205,7.9427694636560835,0.8863740811176883
1731474159.3701587,-0.3599652647972107,0.5136325359344482,-9.988588333129883,-0.02184174161860349,-0.019450774046901827,-0.011954310361950996,1.2368326350825078,7.9246652845102705,0.8863145288941674
1731474159.4200087,-0.32312655448913574,0.5253065824508667,-10.006949424743652,-0.021479419348467282,-0.021288446817414826,-0.011943874374501657,1.238762084681624,7.906098231880283,0.8863581504330379
1731474159.4701254,-0.32851725816726685,0.5242536067962646,-9.958294868469238,-0.021051101303552748,-0.02324138255443379,-0.011926600537151303,1.2399386119569478,7.887988320455081,0.8862943992594217
1731474159.5200732,-0.2989529073238373,0.5134327411651611,-9.978981018066406,-0.020558585966076105,-0.025300213235716656,-0.01190240474839597,1.2410785150488994,7.869575214701317,0.8861998125916788
1731474159.5699933,-0.2976040542125702,0.528435468673706,-10.035711288452148,-0.020004549116171198,-0.027455475899274617,-0.011871225291243877,1.242149940139396,7.851392940976382,0.886077356185403
1731474159.6201284,-0.2584826648235321,0.5214108228683472,-9.999695777893066,-0.019392635458090307,-0.029697650578329564,-0.011833149392579283,1.2419570422948671,7.832494500484444,0.8861187068533443
1731474159.6698892,-0.29298895597457886,0.5123870372772217,-9.98195743560791,-0.01872752849601056,-0.032017209197665174,-0.011788585260496389,1.2427893181381517,7.814068254610335,0.8860067323376827
1731474159.7198591,-0.2805013358592987,0.5189118385314941,-9.997715950012207,-0.018014906496700185,-0.034404633678514276,-0.011738191669413117,1.2435827280549743,7.79539855840342,0.8858642659425001
1731474159.7697053,-0.25231388211250305,0.526025652885437,-9.983038902282715,-0.017261286903106503,-0.03685042542636344,-0.011682705501124897,1.2455771767748711,7.776607933310571,0.885903276494897
1731474159.8196115,-0.2625800669193268,0.5331252813339233,-9.989421844482422,-0.0164739254555892,-0.039345176796172825,-0.011622866572941214,1.2466041137305948,7.757135909219839,0.8857753455991494
1731474159.870672,-0.25197145342826843,0.5226522088050842,-10.016423225402832,-0.015660785817829315,-0.04187967683490561,-0.011559420391431461,1.2475398861458578,7.738532741028486,0.8856249358326198
1731474159.9206076,-0.2829984724521637,0.5082409381866455,-9.991646766662598,-0.014830429900146491,-0.044444952741802816,-0.011493181862353367,1.248450360250968,7.719576091999894,0.8854440188754931
1731474159.9705005,-0.28480449318885803,0.5353925824165344,-9.947487831115723,-0.013991777846240054,-0.04703223588705148,-0.011425044068115762,1.248984425885733,7.700034018032152,0.8859112088838336
1731474160.0204332,-0.2747306227684021,0.5366898775100708,-10.02096939086914,-0.013153826649374475,-0.04963297704445123,-0.011355834206225044,1.2527922090869907,7.678649442368404,0.8859364160003651
1731474160.0705328,-0.2890772521495819,0.5572153329849243,-9.990310668945312,-0.012325452593718225,-0.052238979925404994,-0.011286248851454817,1.254274323328711,7.661078647370733,0.8858768208756043
1731474160.120394,-0.30816128849983215,0.5108066201210022,-9.969518661499023,-0.011515279394735765,-0.05484253033643403,-0.011216952805688298,1.2558816902791088,7.641558210213724,0.8857841921403565
1731474160.1703773,-0.3075338900089264,0.5318730473518372,-9.989680290222168,-0.010731502067303719,-0.05743637261219503,-0.011148579194729424,1.2574646340955438,7.621853828558009,0.8856632574360471
1731474160.220353,-0.3075338900089264,0.5318730473518372,-9.989680290222168,-0.009981705156746176,-0.06001359703883144,-0.011081643236951795,1.2560952204983062,7.601679341861345,0.8859395721805238
1731474160.220353,-0.3376113772392273,0.514896035194397,-9.994827270507812,-0.009272749007993474,-0.06256759390462494,-0.011016565014703793,1.2561027728434988,7.601518574400446,0.8859391560919442
1731474160.2703774,-0.3376113772392273,0.514896035194397,-9.994827270507812,-0.008610659586809696,-0.06509203809323214,-0.0109537509136551,1.2570190705437048,7.581704457122854,0.8858744701038098
1731474160.2703774,-0.34983736276626587,0.5286862254142761,-9.962014198303223,-0.008000491343878983,-0.06758084346854307,-0.010893606728614967,1.2570270140621416,7.581529945647628,0.8858737832295847
1731474160.3201654,-0.3544542193412781,0.5517596006393433,-9.99022388458252,-0.007446235321673969,-0.07002819481191146,-0.01083645805245251,1.2600928467208214,7.561475348674751,0.8859610778040921
1731474160.370143,-0.3516252934932709,0.5374683141708374,-9.990341186523438,-0.006950800148374289,-0.07242869551789996,-0.010782486767505293,1.2622697867747597,7.540950910881051,0.8859632500092196
1731474160.4202018,-0.35329899191856384,0.519231379032135,-9.9598970413208,-0.006516053319680067,-0.07477746869286267,-0.010731756741076395,1.2638950680466547,7.520388406129712,0.885908438671321
1731474160.4702244,-0.3345542550086975,0.5284436941146851,-9.966591835021973,-0.006142925563813639,-0.07707009503163362,-0.010684198896790533,1.2654970262959468,7.4997307529791675,0.8858270953859723
1731474160.5200076,-0.3611922562122345,0.5078816413879395,-10.020652770996094,-0.005831551268056752,-0.07930248261840636,-0.01063956529899021,1.2670849612377453,7.478865801249803,0.88571907412702
1731474160.570008,-0.3498118817806244,0.5143244862556458,-10.008946418762207,-0.005581367971992327,-0.08147077320680973,-0.010597568739878448,1.264941668926313,7.457570171951447,0.8861733451267698
1731474160.6198819,-0.33152875304222107,0.5191381573677063,-9.96742057800293,-0.0053911762167828245,-0.08357129321536814,-0.010558099999927158,1.2658047592247628,7.43631284402922,0.8861573243078417
1731474160.6699362,-0.3189314603805542,0.520063042640686,-9.994635581970215,-0.00525927779242953,-0.08560056690829963,-0.010521213720612637,1.2672036959001176,7.414643646628006,0.8864266722271326
1731474160.7198498,-0.31146132946014404,0.49782794713974,-9.991044998168945,-0.005183707283197532,-0.0875553549658822,-0.010486979171395967,1.2683614887526127,7.392878046239301,0.8864623424637703
1731474160.7696915,-0.27925825119018555,0.5191643238067627,-9.976333618164062,-0.005162464236207368,-0.08943264066240615,-0.010455436971281668,1.2694982594248505,7.371108853179153,0.8866482204065005
1731474160.8196826,-0.26903486251831055,0.5131709575653076,-9.989280700683594,-0.005193738248199999,-0.09122961005519456,-0.010426601721094853,1.2706713857903722,7.34893375887822,0.8866923186085963
1731474160.8696597,-0.2614664137363434,0.5186227560043335,-10.001703262329102,-0.00527612637814452,-0.09294369573176803,-0.010400454534897642,1.2713330082007404,7.326460691784592,0.886834568155624
1731474160.9207711,-0.2740640342235565,0.5009732246398926,-9.956851959228516,-0.005408750904736501,-0.09457262245899406,-0.010376965194818781,1.2722670260873328,7.303194264189193,0.8868630275503674
1731474160.9705622,-0.274027019739151,0.5083372592926025,-10.000702857971191,-0.005591220459819543,-0.09611438700153654,-0.010356071509627961,1.2729983399561635,7.280565451065963,0.8870603187248204
1731474161.02048,-0.2422710508108139,0.5382094979286194,-10.02502155303955,-0.005823526562290183,-0.09756724227933479,-0.010337677634603717,1.275033227899505,7.257621596331339,0.8870248272613143
1731474161.070523,-0.2966766655445099,0.5066756010055542,-9.966814994812012,-0.0061059802966264305,-0.09892977093883512,-0.010321780604499302,1.276331204704718,7.234367197756585,0.8870097683831986
1731474161.1204453,-0.24885393679141998,0.5543649792671204,-9.974495887756348,-0.00643913427577094,-0.10020098687883548,-0.010308501185111885,1.277622892476827,7.210693897498557,0.8869687302430758
1731474161.1704516,-0.2737577557563782,0.5325854420661926,-10.017370223999023,-0.006823675358138352,-0.10138041269585982,-0.010297941473222518,1.2788891965472273,7.186931993731201,0.8869023065690925
1731474161.2202854,-0.2737577557563782,0.5325854420661926,-10.017370223999023,-0.007260361787980827,-0.10246813734733685,-0.010290193204485326,1.2764573436558695,7.162986430717024,0.8869773846578654
1731474161.2202854,-0.2906055152416229,0.5151991844177246,-9.989680290222168,-0.007749940088147848,-0.10346477718037939,-0.010285518240888,1.276462371003975,7.162773392945557,0.8869770335421459
1731474161.2703397,-0.3137006163597107,0.5183002948760986,-9.986680030822754,-0.008292972052262308,-0.10437133226134339,-0.010284376680944705,1.277017740760064,7.138676817307273,0.8869248367320391
1731474161.3202085,-0.3133438229560852,0.5345419645309448,-10.003192901611328,-0.008889621035919044,-0.105189068086326,-0.010287282512736091,1.277768083992494,8.039364931591868,0.8869689708333532
1731474161.370244,-0.3098906874656677,0.528404951095581,-10.000290870666504,-0.00953948979463979,-0.10591950717274456,-0.010294727862590222,1.278812996041437,7.869592257861414,0.8869669786479832
1731474161.4202275,-0.3098906874656677,0.528404951095581,-10.000290870666504,-0.010241586011195587,-0.10656447310789598,-0.010307220508087684,1.2794977796891518,7.975356086706936,0.8869140201225475
1731474161.4202275,-0.33454248309135437,0.49304723739624023,-9.936529159545898,-0.010994360895615727,-0.10712605971895628,-0.010325255940348034,1.2795021140643066,7.976037644019213,0.8869135937770972
1731474161.470167,-0.3619610667228699,0.5299280881881714,-10.047443389892578,-0.011795671366497914,-0.1076065039052207,-0.010349184626341008,1.2801484519754893,8.079822012524174,0.8868358410602127
1731474161.5199888,-0.36124423146247864,0.5293492674827576,-9.995766639709473,-0.012642628533933598,-0.1080081131580234,-0.010379231785465196,1.28077011796374,8.184243326834983,0.886731711394504
1731474161.570011,-0.3769206404685974,0.5511707663536072,-9.91990852355957,-0.013531458979137826,-0.10833335635904426,-0.010415624516617036,1.2800949790197453,7.721421009561532,0.8869575587869742
1731474161.6198852,-0.3783719837665558,0.543317973613739,-9.976374626159668,-0.014457472820668869,-0.10858501828192889,-0.010458425383300815,1.2804407900171075,7.730727852761562,0.8869008228739896
1731474161.6698837,-0.24439649283885956,0.7247949242591858,-9.980547904968262,-0.015415232996985091,-0.10876644079435378,-0.010507263891668587,1.280748658621799,7.739747074848413,0.8868179662352794
1731474161.7198694,0.5133981704711914,1.6614665985107422,-9.919093132019043,-0.016399800951070166,-0.108882965682282,-0.010561347471328973,1.2813674592572726,7.6467867809582515,0.8869530912928021
1731474161.769799,0.2999531030654907,1.1952157020568848,-10.016883850097656,-0.017409925906545505,-0.10894552028066228,-0.010619555450354496,1.281766632941888,7.64056943803395,0.8868939582323788
1731474161.8197489,0.4892212450504303,1.505788803100586,-9.938413619995117,-0.018451440471541073,-0.1089739676258141,-0.010680514483567272,1.282122610286367,7.63405884828622,0.8868081151390644
1731474161.8706505,-0.516516387462616,-0.022402653470635414,-9.965340614318848,-0.01953755361499962,-0.10899629069366108,-0.010742703241933795,1.2821297956220117,7.6270833633047594,0.886948944788691
1731474161.9206002,-0.9550522565841675,-0.21024510264396667,-10.16689682006836,-0.020684457174680232,-0.10904220559491569,-0.010804642751719757,1.2828458868371724,7.620072526447579,0.8869578672178698
1731474161.9705899,-0.7593311667442322,-0.04050649330019951,-10.03207015991211,-0.021904292093512842,-0.1091344604638065,-0.010865461428136769,1.2831749813440136,7.612741612584572,0.8869003413030291
1731474162.0203743,-0.5015047788619995,0.2697582244873047,-10.028075218200684,-0.023200680965936426,-0.10928424932859096,-0.010925438137664046,1.2832687462232144,7.605197400272545,0.8869528643416866
1731474162.0706327,-0.6376875638961792,0.10086476802825928,-9.939265251159668,-0.024569290504263323,-0.10949262060205446,-0.010985751798515454,1.28344380252066,7.597228130394231,0.8868917791457761
1731474162.1203902,-0.4812456965446472,0.29825708270072937,-9.977543830871582,-0.026000377623091493,-0.10975364791622359,-0.011047719920237533,1.2835534592656976,7.589073195825172,0.8868037360188077
1731474162.1703827,-0.5795964598655701,0.24074093997478485,-9.958183288574219,-0.02748051210793163,-0.11005653867839059,-0.011112265685217393,1.2835963501938077,7.580688698650135,0.886688722417022
1731474162.2203078,-0.508014976978302,0.46040502190589905,-9.957934379577637,-0.02899354449990334,-0.11038719975805517,-0.011179777819735563,1.2834044759214385,7.571964034714023,0.8869449853813844
1731474162.2702415,-0.508804440498352,0.4490143060684204,-9.982624053955078,-0.030521339141101042,-0.11072991420034178,-0.01125015881123124,1.2833630608695692,7.562999605992209,0.8868805842911135
1731474162.320172,-0.48865872621536255,0.4541880786418915,-9.978496551513672,-0.032044452681152906,-0.11106888442342033,-0.011322945539184778,1.283243633290752,7.553746822306168,0.8867879712752095
1731474162.370213,-0.5410983562469482,0.4174778163433075,-9.919493675231934,-0.03354273877927656,-0.11138909539586041,-0.01139741477650166,1.2831446203847676,7.544214929774181,0.8869462112533497
1731474162.4201007,-0.47556886076927185,0.47924375534057617,-9.938119888305664,-0.03499573243574938,-0.11167649251729247,-0.01147250024486264,1.2829618206969757,7.534383109625991,0.886881222911077
1731474162.47022,-0.47460830211639404,0.529241681098938,-10.030539512634277,-0.036382977447565266,-0.11191809906083083,-0.011546695314873234,1.2826903477172271,7.524295190266302,0.8867876515630949
1731474162.5199964,-0.4850676357746124,0.5224998593330383,-9.974165916442871,-0.03768446862976732,-0.11210241293721876,-0.011618303577862435,1.282698289681291,7.513930503045481,0.8869452793990665
1731474162.5699408,-0.48955443501472473,0.4771479666233063,-9.996931076049805,-0.03888100949038473,-0.1122197472481017,-0.011685818653860744,1.2823968510272605,7.503304368338603,0.8868794202473929
1731474162.6199024,-0.4665283262729645,0.4885329604148865,-9.979948997497559,-0.03995437718977463,-0.1122621563760399,-0.011748026646051719,1.2823167854363018,7.492345986159148,0.8869480528161677
1731474162.669962,-0.46965348720550537,0.5105751752853394,-9.998185157775879,-0.040887471628922235,-0.11222314870099541,-0.011803937286794297,1.2814771166190282,7.481149823297618,0.8869542039113811
1731474162.7198188,-0.4509274959564209,0.5246589779853821,-10.004263877868652,-0.041664525499237465,-0.11209757741262186,-0.011852775572786363,1.2808306885147123,7.46962416503091,0.8868912766089778
1731474162.7698064,-0.4414564073085785,0.5083518624305725,-9.974061965942383,-0.04227131127467931,-0.11188170655157095,-0.011894014432502528,1.2800829188876892,7.457877061757842,0.8867990781843023
1731474162.8197534,-0.41812509298324585,0.5166147947311401,-9.975350379943848,-0.04269533664415222,-0.11157321263722686,-0.011927323078281028,1.2807140283136569,7.445834987264424,0.8869438831881222
1731474162.8696876,-0.38708367943763733,0.5227304100990295,-9.974908828735352,-0.042926061091170864,-0.11117107511087879,-0.01195242508985997,1.2802217855474876,7.433510619079288,0.8868761602314991
1731474162.9196005,-0.36882284283638,0.5231413841247559,-9.979649543762207,-0.04295514223749761,-0.11067547274245867,-0.011969004496549227,1.2789887947649956,7.42088298226411,0.8869466491849188
1731474162.970591,-0.3273898661136627,0.5379171371459961,-10.020581245422363,-0.042776683924062905,-0.11008772423997529,-0.01197674926199701,1.2780683991625685,7.407760214552083,0.8868784414510912
1731474163.0204976,-0.3707225024700165,0.505232036113739,-9.976547241210938,-0.04238740184740171,-0.10941021716670347,-0.011975492186011825,1.2770579901584462,7.39460623480413,0.886781358240063
1731474163.070438,-0.3476724922657013,0.5362069010734558,-9.949875831604004,-0.04178657828367027,-0.10864627618667567,-0.011965251348361624,1.275944761161342,7.3812051511472205,0.8866546834125274
1731474163.1203568,-0.3835640251636505,0.5246970653533936,-9.991329193115234,-0.04097579643865774,-0.10780002045886516,-0.011946062589147037,1.277493269657048,7.367540129290502,0.8869400216511186
1731474163.1703653,-0.3614824414253235,0.5287243723869324,-9.99287223815918,-0.03995860350271107,-0.10687627856205652,-0.011917866984414226,1.2768488969635532,7.353570800953439,0.8868707554453412
1731474163.2202575,-0.3614824414253235,0.5287243723869324,-9.99287223815918,-0.03874023498164507,-0.10588051533112358,-0.011880625169314759,1.2756731341338263,7.3393687466405915,0.886946415320228
1731474163.2202575,-0.377625972032547,0.5039097666740417,-9.963214874267578,-0.037327426605061026,-0.10481871140154508,-0.011834427354565828,1.2756654531790077,7.3392501971488855,0.8869459889421915
1731474163.2702463,-0.3766827881336212,0.5053097605705261,-10.006082534790039,-0.03572822907163046,-0.10369718252691548,-0.011779453216672193,1.2746927275048325,7.324797171682826,0.8868797402226603
1731474163.3201778,-0.37935033440589905,0.516689121723175,-9.970401763916016,-0.033951776743482556,-0.10252238826105994,-0.011715925589798164,1.273495936736072,7.310061732922914,0.8869563047856923
1731474163.3702471,-0.40080633759498596,0.4964871406555176,-10.002296447753906,-0.03200805983882536,-0.10130082087706818,-0.011644132060039714,1.2721681331642622,7.295050892087455,0.886895464174922
1731474163.4201424,-0.38300633430480957,0.5083088278770447,-10.015450477600098,-0.029907712503060038,-0.10003894858473317,-0.011564479035176585,1.270760589247611,7.279762642873807,0.8868054723132578
1731474163.470025,-0.443865567445755,0.4779611825942993,-10.014248847961426,-0.02766179270944739,-0.098743130814886,-0.01147760296662074,1.2722108162288392,7.264317633412232,0.8869487717592085
1731474163.5200374,-0.3783123791217804,0.5307408571243286,-9.943964958190918,-0.02528155773271672,-0.09741953566787348,-0.01138441926454736,1.2714276850807023,7.248535461419668,0.8868841519263445
1731474163.569949,-0.4149475693702698,0.529784619808197,-9.995633125305176,-0.022778329233968844,-0.09607417884531246,-0.011285937244281933,1.2701253081008819,7.232550207085747,0.886950161059739
1731474163.6199312,-0.4006003737449646,0.5575022101402283,-9.984058380126953,-0.02016348576112252,-0.0947131133289359,-0.011183042063714906,1.268610941444643,7.2163472300321825,0.8869561682481142
1731474163.6698508,-0.4396592080593109,0.5405032634735107,-9.956144332885742,-0.01744841866156219,-0.09334262063204166,-0.011076465023554484,1.2674952633120014,7.19986531534962,0.8868965570632548
1731474163.719805,-0.4295702874660492,0.5543187260627747,-9.9859037399292,-0.014644362694934899,-0.09196926990646301,-0.010966788236952688,1.2663389767090645,7.1831448057441305,0.8868093422022765
1731474163.7697442,-0.42668965458869934,0.5741111636161804,-9.961564064025879,-0.011762222587785545,-0.09059989064110886,-0.010854402971830508,1.265152934870754,7.166242451461178,0.8866951702239149
1731474163.8196783,-0.4360142648220062,0.5671287775039673,-9.956544876098633,-0.00881250656910299,-0.08924157089207813,-0.010739494725654974,1.2663949813994457,7.149121199807826,0.8869449706915994
1731474163.8696399,-0.4315682351589203,0.557338535785675,-9.982433319091797,-0.005805327922296462,-0.08790165238960371,-0.010622031142931523,1.2656788452372583,7.1317347104197095,0.8868822706895344
1731474163.9195507,-0.42473089694976807,0.5397765636444092,-10.009066581726074,-0.0027504101152813496,-0.08658760651357011,-0.01050182775565051,1.2649526317919224,7.114145093106963,0.886793247012518
1731474163.9695463,-0.42673540115356445,0.5290296673774719,-9.97465991973877,0.00034288455744731,-0.08530679494691909,-0.01037874104354242,1.2646660663584737,7.096363513166637,0.8869483973528669
1731474164.0205133,-0.41879597306251526,0.5388911366462708,-9.974834442138672,0.0034655026243315306,-0.08406623010021526,-0.010252776036244726,1.263930249456659,7.07791806634667,0.8868868714594822
1731474164.070491,-0.38974595069885254,0.5596628785133362,-10.005626678466797,0.006608628120097389,-0.08287246154074229,-0.010124029034097929,1.2632252209450598,7.059717057880642,0.8868011836864245
1731474164.1204576,-0.38453778624534607,0.5208667516708374,-9.979079246520996,0.009763545608446864,-0.08173159504188961,-0.00999266411885086,1.2627956715931472,7.041286184165102,0.886949908553344
1731474164.1704335,-0.3518224358558655,0.524154782295227,-9.996140480041504,0.012921447016042597,-0.08064927254340415,-0.009858959944302843,1.2617994507775683,7.022671145451188,0.88695961057565
1731474164.2203336,-0.34355854988098145,0.5191760063171387,-10.006608963012695,0.016073240773847062,-0.07963053706388419,-0.009723330721124074,1.2611645945911318,7.0038105550218885,0.8869065491622367
1731474164.270315,-0.3270731568336487,0.5440074801445007,-9.949302673339844,0.019209397613491434,-0.0786797411472706,-0.009586314101050231,1.2602567326587084,6.984812068023992,0.8869565138243379
1731474164.3202639,-0.3096349239349365,0.5479848384857178,-10.00139331817627,0.022319854784961346,-0.07780061559721094,-0.009448483484702556,1.2596152097982305,6.965534749288296,0.8869028131657114
1731474164.3701947,-0.3083556592464447,0.5252760648727417,-10.021833419799805,0.02539397742673106,-0.07699640201945301,-0.009310387701945574,1.2590368328834292,6.946180504027714,0.8868261144161126
1731474164.4201214,-0.32990550994873047,0.5256478190422058,-9.975671768188477,0.028420605324221984,-0.07626988037408317,-0.009172666465538801,1.2585237194123986,6.92657722549753,0.8867261742985123
1731474164.4701505,-0.3092363774776459,0.5399481058120728,-9.969268798828125,0.03138822656723746,-0.07562329865531577,-0.009036104864825128,1.2593335869119802,6.906714234852328,0.8869523429990815
1731474164.520042,-0.2887982428073883,0.5596032738685608,-9.972800254821777,0.03428516550133019,-0.0750583818638715,-0.008901454681498723,1.2591234838308891,6.886754418721588,0.8868993182397347
1731474164.5699935,-0.3595009446144104,0.7189980745315552,-9.982955932617188,0.037099703713438376,-0.07457662264555939,-0.008769270894858416,1.2579252850073397,6.866575332871519,0.8869588633317074
1731474164.6199439,-0.6427477598190308,1.415651559829712,-9.925313949584961,0.039820579781036564,-0.07418061326698781,-0.008639874473177718,1.257472655122225,6.84619812769237,0.8869093947856442
1731474164.6699345,-0.6165494918823242,0.5551245808601379,-9.866538047790527,0.042438355777356336,-0.07387647664263836,-0.008513185869191925,1.257122802867004,6.825634042572266,0.8868384817108093
1731474164.719879,-1.4786083698272705,0.4926488995552063,-10.089213371276855,0.044947721219419756,-0.07367440543107026,-0.008388504644795507,1.2567145556043213,6.804829968810576,0.886957898267013
1731474164.7698503,-0.5003513693809509,0.51936936378479,-9.853687286376953,0.047350119092180565,-0.07358567279350112,-0.008264686393462173,1.2565364052934356,6.783991237657869,0.8869096389523713
1731474164.8198128,0.04512631148099899,0.05102386325597763,-10.057523727416992,0.0496535351476129,-0.07361913882404286,-0.008140499210860453,1.2554588026126958,6.762866791704663,0.8869620389175524
1731474164.869673,0.020476045086979866,0.24266284704208374,-10.213884353637695,0.0518672974579267,-0.07377907205583867,-0.008015004729403653,1.2551511310259493,6.741609047780093,0.8869162931247851
