Timestamp,IMU_Linear_Acc_X,IMU_Linear_Acc_Y,IMU_Linear_Acc_Z,Filtered_X,Filtered_Y,Filtered_Z,Pose_X,Pose_Y,Pose_Z
1731474136.408835,-0.27416113018989563,0.43637028336524963,-9.988398551940918,0.00030899217184224173,0.00044362851018986437,-7.860535538518323e-05,2.444697302781413,8.15801596898684,0.8809999816708998
1731474136.408835,-0.46316227316856384,0.3740302622318268,-9.99268913269043,0.0003668938583017995,0.0005323091336452404,-9.546743775361275e-05,2.444654105293276,8.158283972453143,0.8809999815756565
1731474136.4588637,-0.7430660724639893,0.23497319221496582,-10.004386901855469,0.00042959446743159836,0.0006336848782039952,-0.00011467937325397907,2.444607921086409,8.15857050634349,0.8809999814604413
1731474136.5088224,-0.7430660724639893,0.23497319221496582,-10.004386901855469,0.0004989226832302191,0.0007499429760269833,-0.0001365991154404461,2.4442946834333896,8.160513893778036,0.8809999802155654
1731474136.5088224,-0.1835746020078659,0.5284029841423035,-9.957141876220703,0.000580242142336288,0.0008847900646111121,-0.00016171272464912738,2.4442434374665396,8.160831836003466,0.8809999799313655
1731474136.5587819,-0.1835746020078659,0.5284029841423035,-9.957141876220703,0.0006810078395787518,0.0010426655332187744,-0.00019048294586493196,2.443829383797568,8.163400754636063,0.8809999765246569
1731474136.5587819,-0.32869449257850647,0.37620213627815247,-10.047292709350586,0.0008077118687480269,0.0012272408233388538,-0.00022318139434880158,2.443795214225251,8.163612755881145,0.8809999761525739
1731474136.6086814,-0.32869449257850647,0.37620213627815247,-10.047292709350586,0.0009644443011358482,0.0014409653884456832,-0.0002600656453162436,2.4367926802591096,8.222107554153924,0.8809995844455198
1731474136.6086814,-0.3212164640426636,0.5026140809059143,-9.98022747039795,0.0011534604796775867,0.0016856452428520748,-0.00030175855273652556,2.436755227076022,8.222404631393864,0.8809995785398623
1731474136.6586556,-0.3097893297672272,0.373074471950531,-9.942727088928223,0.0013758943755726254,0.0019627059943490162,-0.00034923124360167646,2.432227405952465,8.258335073504702,0.8809984320426539
1731474136.7085814,-0.3097893297672272,0.373074471950531,-9.942727088928223,0.0016319409710133588,0.0022731311192644163,-0.00040331921962053245,2.4389986460926445,8.204844360536429,0.8809963446078054
1731474136.7085814,-0.36415764689445496,0.45885133743286133,-10.01577377319336,0.0019209331812817228,0.00261766001454342,-0.0004643505648568363,2.4389913146184625,8.20490286745865,0.8809963240674429
1731474136.7586725,-0.3174515664577484,0.43460458517074585,-9.97563648223877,0.0022415627759488875,0.002996856632278465,-0.0005322453144990893,2.4380702071770157,8.212279582967213,0.8809930714704541
1731474136.808501,-0.37348827719688416,0.42250683903694153,-9.971975326538086,0.0025921356025877455,0.0034108555191222295,-0.0006067857964481649,2.43637645004028,8.19418596081196,0.880988376288167
1731474136.858473,-0.3333224654197693,0.4560640752315521,-10.020543098449707,0.0029707369938701666,0.0038592347257062204,-0.0006877118075798372,2.4348759154922766,8.195731635899765,0.8809820980458486
1731474136.9084017,-0.3716474175453186,0.4254069924354553,-9.993083000183105,0.0033753397616837822,0.004341060936266683,-0.0007747768443291825,2.437060043718821,8.337643964053198,0.8809736839848106
1731474136.9583972,-0.30855798721313477,0.4505065679550171,-9.975634574890137,0.003803848800243303,0.004854923787280804,-0.00086784242298953,2.4366905887067474,8.374056010102706,0.8809638178871475
1731474137.0092394,-0.33945232629776,0.44332513213157654,-10.006049156188965,0.004254030305839273,0.005398970933352879,-0.0009668464065941585,2.433872921853201,8.339781506578037,0.8809511638269042
1731474137.0592687,-0.30693483352661133,0.45724576711654663,-9.974886894226074,0.004723384126174497,0.005970930050681327,-0.0010717195032443668,2.432563621831052,8.349897173117977,0.8809360831965781
1731474137.1091747,-0.3404017686843872,0.42924872040748596,-9.97957992553711,0.005209083947275883,0.006568126684305756,-0.0011823510617409321,2.4342566320202623,8.330960069703373,0.8809182720226701
1731474137.159192,-0.33027854561805725,0.4503231644630432,-9.993732452392578,0.005708034693953278,0.007187564188518118,-0.0012985469486882068,2.4339282778173073,8.333688709273982,0.8808972616541921
1731474137.2090607,-0.3312438130378723,0.4298307001590729,-9.984983444213867,0.006216991676315594,0.00782603702425311,-0.0014200232645588439,2.433615036355192,8.336434920499734,0.8808728504095374
1731474137.2591295,-0.32849225401878357,0.44427555799484253,-9.991825103759766,0.00673264694700729,0.008480216176927326,-0.001546458422726832,2.434726278173444,8.33265567509892,0.8808448867480332
1731474137.308942,-0.3466336131095886,0.43178790807724,-9.988767623901367,0.007251672997436747,0.009146708874069868,-0.001677527804859891,2.4346883974036775,8.334921438733478,0.8808129180974917
1731474137.3589773,-0.3226473927497864,0.4400995373725891,-9.986501693725586,0.007770779852406358,0.009822106895626216,-0.001812908702083984,2.4336686498040696,8.330728283154711,0.8807764310818694
1731474137.4088914,-0.3401765823364258,0.42628738284111023,-10.006254196166992,0.008286760114221154,0.010503031717246236,-0.001952289328815789,2.4332804144620437,8.331366289060183,0.8807353449863168
1731474137.4588525,-0.32638588547706604,0.4399968981742859,-9.992179870605469,0.008796493804872057,0.01118618240772616,-0.002095407901650563,2.433789834671395,8.329695733340692,0.8806891633172483
1731474137.50879,-0.3352645933628082,0.4304140508174896,-9.980989456176758,0.00929695230409781,0.011868367955715966,-0.0022420789617800503,2.4337224786183174,8.329911564073702,0.8806376831064431
1731474137.5588923,-0.33292460441589355,0.43939563632011414,-9.997173309326172,0.009785216385446256,0.012546514730642932,-0.002392147288739971,2.4336786469421137,8.330159422611509,0.8805800564119793
1731474137.6086698,-0.3363683819770813,0.4308415949344635,-9.980420112609863,0.01025850389695407,0.013217668810214064,-0.0025454310150255432,2.433946406333504,8.343292296652873,0.8805158948746252
1731474137.6586838,-0.3302421271800995,0.4421899914741516,-9.979595184326172,0.01071419846583394,0.013879002370913678,-0.002701697220298196,2.433978532636295,8.346232113586698,0.880446753028207
1731474137.7086177,-0.3302421271800995,0.4421899914741516,-9.979595184326172,0.011149855962466298,0.014527806780976957,-0.0028606233324616316,2.4303466811871095,8.343339665025805,0.8803697758335735
1731474137.7086177,-0.3371421694755554,0.43059173226356506,-9.996553421020508,0.011563196941846786,0.01516147730951811,-0.0030217759028843463,2.430298850613897,8.343375308748017,0.8803662984213241
1731474137.758543,-0.3301190137863159,0.4375700056552887,-9.977168083190918,0.011952115999244693,0.015777531025940553,-0.0031846545537688804,2.4292497832555466,8.344186554254506,0.8802851907083528
1731474137.8085432,-0.34019094705581665,0.43010377883911133,-9.982741355895996,0.01231470511351904,0.016373653856222303,-0.003348730853743662,2.428183488351429,8.345073378659752,0.8801924672901633
1731474137.8584952,-0.33192288875579834,0.43809831142425537,-9.991263389587402,0.012649272756384613,0.01694772985723167,-0.0035134400496110944,2.427147803750878,8.346002351101962,0.8800911141401737
1731474137.9083514,-0.34595686197280884,0.4304082989692688,-9.981121063232422,0.012954361314287975,0.017497845259105096,-0.0036781878090394707,2.4271349637130974,8.36994894171258,0.8799788244450361
1731474137.9583144,-0.3420066237449646,0.443705290555954,-9.989968299865723,0.013228774361159004,0.018022280290431195,-0.003842379572487953,2.4263925914797784,8.375299539149607,0.8798616280107426
1731474138.0092392,-0.34163692593574524,0.42966023087501526,-9.989768028259277,0.013471606028794986,0.01851949236752119,-0.00400543834052947,2.4275522196960675,8.368795218989682,0.8797292935240844
1731474138.0592258,-0.33824580907821655,0.44014066457748413,-9.97556209564209,0.0136822402626147,0.0189881065398457,-0.0041668127489565086,2.427411352028073,8.370288236314282,0.8795895197034891
1731474138.1091983,-0.341629296541214,0.4363786280155182,-9.98953914642334,0.013860317430368516,0.019426917280069435,-0.0043259616456152086,2.4273046264894655,8.3718331510014,0.8794387541266002
1731474138.1591976,-0.3402191698551178,0.43175989389419556,-9.978646278381348,0.014005704016488655,0.0198348882298271,-0.004482329211799541,2.4272329216408557,8.373425128373409,0.879277166885247
1731474138.209059,-0.3476492762565613,0.432100772857666,-9.985774040222168,0.014118484304882991,0.020211162805312342,-0.004635344671169147,2.4271964686897527,8.375060578550245,0.8791048848953893
1731474138.2590916,-0.33999305963516235,0.4344528317451477,-9.983550071716309,0.0141989651057143,0.02055508610848447,-0.004784433600621152,2.4257611005581796,8.40993792436757,0.8789201227069806
1731474138.3088815,-0.34422069787979126,0.4327370822429657,-9.9750337600708,0.01424767032577827,0.020866207485549598,-0.004929021789398216,2.4254917587578113,8.416656997189213,0.8787245119376488
1731474138.3589008,-0.3437175154685974,0.44072937965393066,-9.988846778869629,0.014265318472918906,0.02114425895433134,-0.005068528364551059,2.4252563752202647,8.423467591179435,0.878515302814296
1731474138.4087975,-0.34332624077796936,0.4315757751464844,-9.98684024810791,0.014252802120106675,0.02138912607427021,-0.005202375147134253,2.4236751505867535,8.409335717751325,0.8782916406922926
1731474138.458818,-0.33988749980926514,0.436118483543396,-9.992659568786621,0.014211169596348147,0.021600831701565675,-0.005330034513061115,2.4232243902712387,8.41081056955465,0.8780579349739278
1731474138.5087607,-0.33988749980926514,0.436118483543396,-9.992659568786621,0.014141593783409777,0.02177953705669322,-0.005451082001076572,2.4228065340860305,8.412346978977325,0.877809618482656
1731474138.5087607,-0.3460216820240021,0.428290456533432,-9.99396800994873,0.014045341437577075,0.02192554375468074,-0.005565225702381836,2.422803129174415,8.412360287480713,0.877807446884024
1731474138.5588555,-0.32766076922416687,0.4385663866996765,-9.993430137634277,0.013923753386578657,0.022039296656940564,-0.005672315444800365,2.4238101230888014,8.43481218585747,0.877546048658327
1731474138.6086557,-0.3306537866592407,0.4353063106536865,-9.987985610961914,0.013778200250585619,0.02212137807524881,-0.005772331182091536,2.423793180070374,8.44247642246716,0.8772654925210169
1731474138.6586676,-0.3333236277103424,0.4373985528945923,-9.995209693908691,0.013610013591586038,0.02217247975827955,-0.005865354945121276,2.422714516537151,8.433020599151504,0.8769784594094119
1731474138.7086084,-0.3319365978240967,0.4339129328727722,-9.97912311553955,0.013420455300532515,0.02219337855063033,-0.00595153852972365,2.4228218678095854,8.430987106591587,0.8766722544917577
1731474138.758562,-0.333381712436676,0.4398839473724365,-9.9823637008667,0.013210732995687664,0.02218492976421671,-0.006031057831643044,2.4227354279839504,8.431809420794144,0.8763523188231891
1731474138.8085184,-0.3302189111709595,0.438150554895401,-9.991358757019043,0.012982015525825528,0.022148056455942745,-0.006104063884930095,2.42268133003763,8.432690266750328,0.8760159901259724
1731474138.8586066,-0.3308621346950531,0.44120118021965027,-9.983616828918457,0.012735433443606265,0.022083727025921873,-0.006170679062233387,2.4226593560538943,8.433630668842012,0.8756627276525186
1731474138.8586066,-0.3308621346950531,0.44120118021965027,-9.983616828918457,0.012472074262611911,0.021992933594283504,-0.0062310205613140875,2.422942796392395,8.446362320179679,0.8755503000563959
1731474139.2399957,-0.3376094102859497,0.43933042883872986,-9.987139701843262,0.012192988814326997,0.021876679213562268,-0.0062851992273419205,2.440144118993401,8.480608262557464,0.8724668090242461
1731474139.2900891,-0.3423849642276764,0.43753117322921753,-9.985186576843262,0.011899225249269991,0.021735979499604027,-0.0063333131500720235,2.441484306537558,8.485532777022495,0.8719782582647005
1731474139.3398674,-0.34360605478286743,0.4366273581981659,-9.992426872253418,0.01159188472306161,0.021571879311037583,-0.006375462772773771,2.433890564453271,8.490463744445409,0.8714789735649253
1731474139.389985,-0.3389294445514679,0.4368346929550171,-9.979833602905273,0.011272162527416113,0.02138547113725063,-0.006411769028436664,2.433893731108876,8.495502331498468,0.8709578849885152
1731474139.4397805,-0.3331068754196167,0.42958614230155945,-9.990646362304688,0.01094133891935606,0.021177909109409927,-0.006442371289266181,2.4339259152807093,8.500709770462828,0.870408317165378
1731474139.4898527,-0.335146963596344,0.4248596131801605,-9.98840618133545,0.01060072632708614,0.020950435030123345,-0.006467418995220611,2.433982472864316,8.50568491647543,0.8698730063300874
1731474139.539713,-0.3328384459018707,0.4296468496322632,-9.984148025512695,0.010251617319451276,0.020704416743384378,-0.0064870788556048095,2.43084546980517,8.510834952674461,0.8693090147367921
1731474139.5897124,-0.3308675289154053,0.4361976087093353,-9.986226081848145,0.009895257708336488,0.020441355058335338,-0.006501535103692431,2.429407191727822,8.516169848349385,0.8687138716558754
1731474139.639718,-0.3300713300704956,0.44613346457481384,-9.986385345458984,0.009532829723524063,0.020162824348434437,-0.0065109737552148245,2.4289315304097543,8.52136192711715,0.8681237361598463
1731474139.6895943,-0.3355879783630371,0.4400116503238678,-9.9830961227417,0.00916544105437794,0.01987037685481554,-0.006515574375974472,2.42847126449359,8.526688486433745,0.8675078098063265
1731474139.7396622,-0.3371192514896393,0.4425605237483978,-9.980547904968262,0.008794138626857519,0.01956547783061116,-0.006515502026203218,2.4280327568691,8.532072929943523,0.86687458097178
1731474139.789675,-0.33719924092292786,0.4419511556625366,-9.980554580688477,0.00841994340696084,0.019249495377875667,-0.006510885736917295,2.42761747298998,8.537483902308164,0.8662276909149147
1731474139.8395355,-0.3354564905166626,0.445912629365921,-9.973817825317383,0.008043875099538479,0.018923707533335176,-0.006501793673376856,2.427220938516062,8.542966832095406,0.865561623291684
1731474139.8896139,-0.3405797779560089,0.44538143277168274,-9.989174842834473,0.007666955697302476,0.018589296669951936,-0.006488221776306105,2.4280379590018906,8.548470237247022,0.864883427912518
1731474139.9394777,-0.33414551615715027,0.4462050497531891,-9.99086856842041,0.0072902075496883946,0.01824733918943544,-0.006470125688554422,2.427826815154474,8.554047193376336,0.8641847783610156
1731474139.9894018,-0.3440423011779785,0.44702938199043274,-9.984944343566895,0.006914653416528484,0.017898803302233895,-0.0064474896424688,2.4271078605354397,8.559620062062638,0.8634772233847502
1731474140.0392613,-0.32870543003082275,0.43953606486320496,-9.982325553894043,0.0065413126483244086,0.01754456019280629,-0.00642035992092067,2.4267890050423557,8.565275585558117,0.8627477869704643
1731474140.089296,-0.34796392917633057,0.4402678906917572,-9.993621826171875,0.006171190426212108,0.017185415911670845,-0.006388826595757225,2.426485911310083,8.570977033231744,0.8620020078197639
1731474140.1402464,-0.33399584889411926,0.432169646024704,-9.98773193359375,0.005805274927046351,0.016822160821027575,-0.006353020244325304,2.426192609874137,8.576827667235245,0.8612260481352795
1731474140.1902158,-0.339699923992157,0.42898687720298767,-9.98838996887207,0.005444543233539292,0.016455624210318407,-0.00631313282404411,2.426067591450207,8.58260566973278,0.8604506240903838
1731474140.2401154,-0.34191736578941345,0.42445263266563416,-9.988052368164062,0.005089955947458798,0.016086728794834165,-0.006269417556625028,2.425814579691724,8.588430618576954,0.8596573515973388
1731474140.2900033,-0.32970547676086426,0.4250764548778534,-9.985917091369629,0.004742444394540704,0.01571653339136767,-0.0062221688360959305,2.42505136475313,8.594267536862477,0.8588537779880004
1731474140.3400288,-0.32910072803497314,0.4251329004764557,-9.99003791809082,0.004402880098878341,0.015346246406097011,-0.006171706443416948,2.4239669178978094,8.600182129242093,0.8580294106372953
1731474140.3900661,-0.3384392559528351,0.42610400915145874,-9.983735084533691,0.004072026989565242,0.014977208612563539,-0.006118367435767872,2.423283566113976,8.606132883262214,0.8571884108736032
1731474140.439955,-0.3377346694469452,0.435489296913147,-9.978569030761719,0.0037505358741555493,0.014610851019685098,-0.006062488829436508,2.4226109013326997,8.612112880847306,0.8563332652091604
1731474140.4899478,-0.33423569798469543,0.4322376847267151,-9.991771697998047,0.003438984356489517,0.014248630740138279,-0.0060043780110825016,2.4232679133078148,8.618165512295006,0.855459608250346
1731474140.5398195,-0.3368098735809326,0.4413033127784729,-9.979137420654297,0.0031378985541786557,0.013891961556800853,-0.005944304931596115,2.4229653988912454,8.62412752174844,0.8545875209068128
1731474140.5896668,-0.32903242111206055,0.43979355692863464,-9.979314804077148,0.0028477419954016235,0.013542156922662321,-0.005882508205905546,2.4226680030542025,8.630167141285057,0.8536944877255647
1731474140.6397073,-0.33598414063453674,0.4474576413631439,-9.982017517089844,0.0025688962332494963,0.013200383165361904,-0.005819176620889083,2.422374751375514,8.63629330379688,0.8527789848737444
1731474140.6897366,-0.341476172208786,0.44930747151374817,-9.990230560302734,0.002301660140724462,0.012867617119253057,-0.0057544407012427665,2.42257201161306,8.642445259442466,0.8518524333460111
1731474140.7397206,-0.3397352695465088,0.44789478182792664,-9.97748851776123,0.0020462858868878627,0.012544613086133064,-0.005688403623652806,2.422339149267686,8.64864993611173,0.850905969451035
1731474140.7895658,-0.3330007493495941,0.44037196040153503,-9.997563362121582,0.00180301499818661,0.01223190201009404,-0.005621172206358795,2.422112782287248,8.654840237272284,0.8499523159816841
1731474140.8395772,-0.03880907967686653,0.5903394818305969,-9.978856086730957,0.0015718015454747134,0.01192970372771214,-0.005552875318758562,2.421889215706175,8.661099864911304,0.8489786439872086
1731474140.8895676,-0.0758434385061264,0.5316457748413086,-10.008713722229004,0.0013512908642710673,0.01163752735886926,-0.005483689982352042,2.4214158972408817,8.667336499463923,0.8480024435341537
1731474140.9393978,0.48951706290245056,0.8079436421394348,-9.981762886047363,0.0011370445181045352,0.01135346578627504,-0.005413876385158266,2.421114983466731,8.673607575505603,0.8470088053858107
1731474140.9892786,0.48951706290245056,0.8079436421394348,-9.981762886047363,0.0009191650091961785,0.011073223822791209,-0.005343778404211401,2.420315920809988,8.679905580745702,0.8460053608724128
1731474140.9892786,0.7771492004394531,0.6103816628456116,-10.015816688537598,0.0006798103834518734,0.010789297989593197,-0.005273783738384772,2.420312413368052,8.67996212135208,0.8459962824264856
1731474141.0394018,0.1431780755519867,0.499295175075531,-10.044015884399414,0.00039216709148086587,0.010491429233951152,-0.005204391204861353,2.4199191596361054,8.686322740651084,0.844970541951534
1731474141.0892773,0.413790225982666,0.48516714572906494,-9.909783363342285,2.214305412460418e-05,0.010168385853166392,-0.0051363286117916684,2.419529385169427,8.69266099128314,0.8439397305476716
1731474141.1401522,0.413790225982666,0.48516714572906494,-9.909783363342285,-0.000468651657191525,0.00980962605698773,-0.005070301434100821,2.418956861455916,8.699161104439826,0.8428776902958526
1731474141.1401522,0.038903508335351944,0.3011943995952606,-9.996171951293945,-0.001120812652306338,0.009406165582090223,-0.005006473324078858,2.4189531401464603,8.699218004290602,0.8428683200607648
1731474141.1902132,0.22217567265033722,0.33590275049209595,-10.001534461975098,-0.0019754314428016184,0.008951263280114547,-0.00494440402274808,2.41853330653356,8.705611024226043,0.8418111941819275
1731474141.2402446,0.017560504376888275,0.20069876313209534,-9.97430419921875,-0.0030720883903455273,0.008441200960686136,-0.004883485940728289,2.417518252672423,8.712081621405217,0.8407369335807484
1731474141.2901216,-0.7728275656700134,-0.02461777999997139,-9.977519989013672,-0.004446639548889689,0.0078760726396241,-0.0048232214853375435,2.4168703411820704,8.718532855591977,0.8396528496001497
1731474141.3400016,-1.2074174880981445,-0.021463442593812943,-10.009428024291992,-0.006127151490153956,0.00726082267849,-0.004763203246249507,2.4163872524717718,8.72502838699541,0.8385573821748402
1731474141.3900766,-0.23980385065078735,0.27316224575042725,-9.937684059143066,-0.00812901369240287,0.006605882660664355,-0.004703080505019215,2.4157526465365593,8.731515206546636,0.8374497286272168
1731474141.4400213,-0.7082184553146362,0.12128511071205139,-10.163931846618652,-0.010454144862479005,0.00592623822750742,-0.00464266037148469,2.415090847416643,8.7380575077996,0.8363235690020888
1731474141.4898539,-0.7082184553146362,0.12128511071205139,-10.163931846618652,-0.013094048557987644,0.005239730399438532,-0.004582431185281996,2.415601507437719,8.744540835528401,0.8352040996759192
1731474141.4898539,-0.29287877678871155,0.4290388226509094,-9.929959297180176,-0.016032207095232835,0.004565901099333465,-0.004524234464238086,2.4155981031382283,8.744598454301777,0.835194061277978
1731474141.5398967,-0.5628702044487,0.09986446797847748,-10.001678466796875,-0.0192457165673248,0.003924971584329736,-0.00447100949735648,2.415188563406094,8.75112727536146,0.8340518575655637
1731474141.5897396,-0.3513105511665344,0.46714502573013306,-10.08678913116455,-0.022707363024093083,0.0033368146706838605,-0.004425865476731209,2.4147290863209427,8.757635912460591,0.8329037731862162
1731474141.6397777,-0.5107159614562988,0.16161222755908966,-9.946783065795898,-0.02638706519638837,0.0028203670961074873,-0.004391739816138636,2.413748412237403,8.764216026553806,0.8317399325345496
1731474141.6896517,-0.4068586826324463,0.43703973293304443,-9.962201118469238,-0.03025255737558515,0.002393284267094456,-0.004371399627377034,2.4130110841367682,8.770780109612089,0.830562708435714
1731474141.7396317,-0.49801453948020935,0.2526971399784088,-10.004266738891602,-0.03426989752874587,0.0020716727451210778,-0.004367134957638585,2.412190127105068,8.777373933361568,0.8293701968648525
1731474141.789641,-0.37864023447036743,0.4197238087654114,-9.953781127929688,-0.03840394337526931,0.0018698682047005226,-0.004380556172871626,2.4112875434235725,8.783906218273923,0.828178873291451
1731474141.8394883,-0.42949461936950684,0.29616859555244446,-9.941106796264648,-0.04261895497839775,0.0018002518586195193,-0.004412630404197901,2.4121102416806535,8.790478199838821,0.8269779656059385
1731474141.8893626,-0.41107162833213806,0.3372349739074707,-10.000696182250977,-0.04687925408676846,0.0018732419011467248,-0.004463656746575598,2.4103836805133025,8.797035678921027,0.8257700554860696
1731474141.9393225,-0.3805420398712158,0.7001015543937683,-9.957939147949219,-0.05114972661954638,0.0020971379612060386,-0.0045333157825893,2.409222343329535,8.8036199772023,0.8245388211344286
1731474141.9893405,-0.4000968039035797,0.667378306388855,-9.877378463745117,-0.055396211889066696,0.002477047879002449,-0.004620759538810413,2.408241559255551,8.81023025106389,0.8233012066364157
1731474142.0393183,-0.4872780740261078,1.1421082019805908,-9.997286796569824,-0.05958576211637835,0.0030129109519868315,-0.004724480668691487,2.4068772948721735,8.816864950083474,0.8220397508019628
1731474142.0892508,-0.4453103244304657,0.9864438772201538,-9.849359512329102,-0.06368657671314759,0.003697451842169642,-0.004842183224395108,2.405372859986123,8.823445170927338,0.8207783552585122
1731474142.139246,-0.5104879140853882,0.7967690229415894,-10.028023719787598,-0.06766778661680026,0.004515227108914067,-0.004970867447930405,2.4069035200317703,8.83006007297963,0.8195100184931386
1731474142.1901712,-0.3782177269458771,0.7711344957351685,-9.996058464050293,-0.07149948022558938,0.005443827253619328,-0.005107138985258042,2.405952415966644,8.836825032448575,0.8181923507435593
1731474142.2401364,-0.3782177269458771,0.7711344957351685,-9.996058464050293,-0.07515314994103872,0.006456373144053142,-0.005247727819763294,2.405029892243292,8.843474115869267,0.816897930648557
1731474142.2401364,-0.4499201774597168,0.7072227597236633,-10.010408401489258,-0.0786023288309585,0.00752347267060668,-0.005389854346941741,2.4050204042864034,8.843526705044157,0.8168875684722372
1731474142.2900872,-0.3696022629737854,0.713841438293457,-10.044113159179688,-0.08182290367645007,0.008614397065570744,-0.005531313390725354,2.4037289900981653,8.850135118818104,0.8155807081965399
1731474142.3400176,-0.42195576429367065,0.5679761171340942,-9.984193801879883,-0.08479311204420537,0.009698101423203162,-0.005670528255716074,2.4022122169522846,8.856853627135688,0.8142425998846367
1731474142.3899982,-0.30900314450263977,0.6061761379241943,-10.027217864990234,-0.08749364227709718,0.010744321794467108,-0.005806530567074097,2.4004972104532376,8.863529778667948,0.8129037487627616
1731474142.4399173,-0.30900314450263977,0.6061761379241943,-10.027217864990234,-0.08990796307168926,0.011724513621663742,-0.005938845443929454,2.4035669064439102,8.870280848363553,0.811553398781981
1731474142.4399173,-0.36433690786361694,0.5541598200798035,-9.993165969848633,-0.0920226784310197,0.012612321183341492,-0.006067439053473109,2.4035604198453178,8.870334168319001,0.8115425999323232
1731474142.4898849,-0.3449501693248749,0.5600143671035767,-10.049895286560059,-0.09382753719122466,0.013383782454284496,-0.006192681928626025,2.4026307210891082,8.877042026203924,0.8101797691377355
1731474142.5398262,-0.3187732696533203,0.5636372566223145,-10.002037048339844,-0.09531513230612276,0.01401753589290048,-0.006315299355361138,2.401442762863591,8.883831736579042,0.8088052163698278
1731474142.5898345,-0.30297085642814636,0.5662887096405029,-10.012564659118652,-0.0964807375890728,0.014494896982955523,-0.006436329517925978,2.399431929918656,8.890666519045508,0.8074133740331183
1731474142.6396751,-0.3056734502315521,0.5174658894538879,-10.006267547607422,-0.09732234555677952,0.014799804372941107,-0.006557010167035065,2.397620283299746,8.897560444823858,0.805986837708188
1731474142.689624,-0.32618317008018494,0.5069574117660522,-9.982719421386719,-0.09784062549052307,0.014918866025845669,-0.006678623783353843,2.3955763357680424,8.904452782088683,0.8045518285161883
1731474142.7396877,-0.273434042930603,0.514680802822113,-9.964303016662598,-0.09803873051068658,0.014841505386156861,-0.006802332661803722,2.393266521333869,8.911448996394538,0.8030860365686083
1731474142.7895157,-0.273434042930603,0.514680802822113,-9.964303016662598,-0.09792215056619191,0.014559980978317085,-0.006928973704431565,2.3972306521426634,8.918367036120785,0.8016433842330578
1731474142.7895157,-0.2996521592140198,0.5227103233337402,-9.985552787780762,-0.09749866183109401,0.014069206896199666,-0.007058923537142964,2.3972205877026944,8.918428062892154,0.8016304752217178
1731474142.8395174,-0.3358599841594696,0.5379204750061035,-9.958097457885742,-0.0967781156232189,0.013366480611278465,-0.007192124205144821,2.3959416557805486,8.925459999373626,0.8001375080439084
1731474142.8894358,-0.3358599841594696,0.5379204750061035,-9.958097457885742,-0.09577196417136585,0.012451183658200509,-0.007328145215578557,2.3944411769110023,8.932366890040585,0.7986655126116728
1731474142.8894358,-0.336078017950058,0.4931144118309021,-9.98670482635498,-0.0944927706628948,0.011324540074470535,-0.007466195643146043,2.3944284922770813,8.932421720839104,0.7986537379983814
1731474142.939421,-0.33337661623954773,0.5128029584884644,-10.005820274353027,-0.09295391418345358,0.009989543451057762,-0.007605225551164023,2.392675430477642,8.939506729928404,0.7971254086555012
1731474142.989331,-0.3498041331768036,0.4721747934818268,-9.94282341003418,-0.09116943865459737,0.00845098697239556,-0.00774411703569801,2.390711731114236,8.946549743496279,0.7955921438280543
1731474143.0392566,-0.32534632086753845,0.5132566094398499,-9.986802101135254,-0.08915392739536501,0.006715437574551486,-0.007881725136238747,2.388496878280651,8.95370439748577,0.7940191710830253
1731474143.0892653,-0.3674081265926361,0.5218324065208435,-10.014200210571289,-0.08692237929779587,0.004791060672871302,-0.008016832061316793,2.3860784880060613,8.960751647634964,0.7924622241259464
1731474143.1392438,-0.40713658928871155,0.5078936219215393,-9.99518871307373,-0.08449001038250868,0.002687305380754485,-0.008148281749102034,2.383425476401758,8.967935604512734,0.7908477493552514
1731474143.1901145,-0.3748840391635895,0.5032426118850708,-9.95654582977295,-0.08187192099516294,0.0004146272333814514,-0.008275130898389185,2.3805390649963107,8.975062166993698,0.7892256743682754
1731474143.2401328,-0.41319382190704346,0.513997495174408,-10.000679969787598,-0.07908281421168656,-0.002015645415732588,-0.008396565317762759,2.3774810127946044,8.98206204911625,0.7876011850095643
1731474143.2901106,-0.4174082279205322,0.5009680390357971,-9.988465309143066,-0.07613686929118285,-0.0045914136420722885,-0.008511787274751617,2.3742348235515096,8.989199935110491,0.7859320697705242
1731474143.3401623,-0.4119400978088379,0.5024043917655945,-9.968817710876465,-0.0730476462659289,-0.007299932747952235,-0.008620045058907448,2.370788438526205,8.99635118368365,0.7842348236867874
1731474143.3899338,-0.3861069083213806,0.4877097010612488,-9.973749160766602,-0.06982805462208723,-0.010127904510392617,-0.008720629504123237,2.3672028259389535,9.003402806682242,0.7825346463211426
1731474143.4400024,-0.3813762664794922,0.4656544327735901,-10.00214672088623,-0.0664904945263681,-0.01306150997299954,-0.008812812254319442,2.363396756611924,9.010373284574078,0.7808204777929143
1731474143.489819,-0.3586125075817108,0.4547431170940399,-9.964475631713867,-0.06304709288721946,-0.01608637734922844,-0.008895874292440197,2.3594793354867387,9.017361490315857,0.779075886327373
1731474143.5397732,-0.3363964855670929,0.4302753210067749,-9.970362663269043,-0.059509933875550786,-0.01918751177846722,-0.008969140436618016,2.355372436521853,9.024370464732979,0.7772927789438819
1731474143.5897393,-0.3363964855670929,0.4302753210067749,-9.970362663269043,-0.05589126709413303,-0.022349243321761844,-0.009031910120212224,2.3511637895198567,9.031078831709284,0.7755398613823609
1731474143.5897393,-0.3230259418487549,0.4246014356613159,-10.018203735351562,-0.052203651307301875,-0.02555524248657652,-0.00908343980431566,2.3511304219943665,9.031132315562303,0.7755258333482563
1731474143.6397502,-0.3195480704307556,0.4174511432647705,-9.99730110168457,-0.048459999952088786,-0.028788621768466267,-0.00912310479055105,2.346762066760971,9.038000367393112,0.7737034917314752
1731474143.6896462,-0.29733991622924805,0.400546669960022,-9.969202995300293,-0.04467358174627528,-0.032032069140081706,-0.009150557981222161,2.34230095564064,9.04475771698513,0.771867932340664
1731474143.7396011,-0.2849956750869751,0.3818894624710083,-10.001726150512695,-0.0408580429835627,-0.035267933430519684,-0.009165686270518263,2.3377149651402855,9.051230432002697,0.7700397061177517
1731474143.789569,-0.2620607912540436,0.3989132344722748,-10.011852264404297,-0.037027465828032,-0.03847827406588242,-0.009168525823492226,2.3330277500258383,9.057842722371522,0.7681494607512218
1731474143.8395295,-0.3114404082298279,0.37750130891799927,-9.98075008392334,-0.03319638283417738,-0.041644965490089766,-0.009159310172031827,2.328249054263239,9.064073150322965,0.766274237273343
1731474143.8895874,-0.29066282510757446,0.38888999819755554,-10.001361846923828,-0.029379616946628898,-0.04474986784144316,-0.009138497625350163,2.323397204082186,9.070471594402807,0.7643389382254852
1731474143.939539,-0.31284046173095703,0.36997202038764954,-10.00731372833252,-0.025591986260158572,-0.047774993534620315,-0.009106716102205821,2.318472524280763,9.07676006236225,0.7623791848066667
1731474143.9893997,-0.27976566553115845,0.3753986358642578,-10.026233673095703,-0.0218480675862892,-0.050702642107666354,-0.009064783506294333,2.3135043438577223,9.082906347624949,0.7604030023052442
1731474144.0392823,-0.2954639196395874,0.3394887149333954,-9.958551406860352,-0.018162099974408888,-0.05351549321142263,-0.009013760959113343,2.3084923020294106,5.965944809499581,0.7584519747243267
1731474144.089266,-0.5322554707527161,-0.19363191723823547,-10.011695861816406,-0.014547730384194948,-0.05619614914971842,-0.008954855536639331,2.3034173674841854,5.905552508816053,0.7564247297818469
1731474144.139285,-0.4975226819515228,-0.47324222326278687,-10.109478950500488,-0.011017142480358257,-0.05872503793504268,-0.008889376295561415,2.298325957535785,5.634186773376233,0.7544274359022338
1731474144.1902807,-0.6517626047134399,-0.1517183631658554,-10.05496883392334,-0.0075798153232037304,-0.06107731799547611,-0.008819070423023394,2.293087003443263,5.498945353382956,0.7523118272933732
1731474144.2401178,-0.7958483099937439,-0.4603233337402344,-10.047149658203125,-0.004241451304699258,-0.06322146945488108,-0.008746493907649432,2.2879836647687597,5.326645298253956,0.7502832150067043
1731474144.2899477,-0.3774668574333191,0.1904527246952057,-9.920002937316895,-0.0010034078354027303,-0.06512050353125157,-0.008674823383788405,2.2828691333408435,5.18345534054931,0.7481831357237292
1731474144.3399312,-0.7103548049926758,-0.2533815801143646,-10.023809432983398,0.002136768403683892,-0.06673453594769382,-0.008607210207207531,2.277732712904016,5.03705336038264,0.7461019674588205
1731474144.389945,-0.5084047317504883,0.20593859255313873,-9.930323600769043,0.005184162417661594,-0.06802335801675023,-0.008546271217399468,2.272594273603305,4.8901979736543675,0.7439448501276223
1731474144.4399543,-0.6116470098495483,0.06604569405317307,-9.929553985595703,0.008145828315944799,-0.06894833876373757,-0.008493893874404395,2.26749852054134,4.737983217647693,0.7418285367867662
1731474144.489831,-0.5259138345718384,0.24936124682426453,-9.96333122253418,0.011030438738419333,-0.06947398131903604,-0.008451102021036164,2.2624616678620115,4.519415524299544,0.7397071358085869
1731474144.5398407,-0.5633005499839783,0.1612505167722702,-9.892698287963867,0.013847793333322506,-0.06956918183252941,-0.008417980342050099,2.2573913798954295,4.367685076855593,0.7374851244849462
1731474144.5897121,-0.5227437615394592,0.1753193736076355,-9.91405963897705,0.016608353253924207,-0.06920778540346142,-0.008393671072651473,2.2523794154336643,4.216393147132144,0.73525114092299
1731474144.6397834,-0.530639111995697,0.1455938071012497,-9.948212623596191,0.01932285502325972,-0.06836850744493417,-0.008376369726287886,2.2473865863472793,4.06414876029648,0.7329846451869402
1731474144.6897333,-0.4877649247646332,0.19532594084739685,-9.93302059173584,0.0220019549610546,-0.06703460689802551,-0.008363487273280828,2.242509398616002,4.2311359890637865,0.7307833937206475
1731474144.7396362,-0.4850020408630371,0.15887004137039185,-9.961091995239258,0.02465586800107827,-0.06519366607650989,-0.008351966022079898,2.2376420682069,4.139146128910762,0.7284823799424336
1731474144.7895703,-0.042006008327007294,0.42955347895622253,-9.968608856201172,0.027293639989547338,-0.06283769489813779,-0.008338554743912485,2.232853914247319,4.047274332637612,0.7261675675977487
1731474144.8395107,0.20982344448566437,0.5299987196922302,-9.996824264526367,0.029921206223762778,-0.05996391014665068,-0.008320058508132904,2.228171370788646,3.968831830674657,0.723905422176092
1731474144.8894217,-0.2961362600326538,0.27400559186935425,-10.028383255004883,0.032538871624571294,-0.05657582793060548,-0.008293629671511428,2.2235165890350386,3.8670176359398836,0.7215412246577457
1731474144.9395008,-0.07620701938867569,0.45252323150634766,-9.962984085083008,0.03514079647829883,-0.052683337655211736,-0.008257013845404284,2.2190141989423533,3.728504852540191,0.7192473376337342
1731474144.989377,-0.3626199960708618,0.24273060262203217,-10.05359172821045,0.03771686105797644,-0.04830164426890593,-0.008208618530424563,2.2145561575067814,3.631472607965996,0.7168532604724962
1731474145.0394049,-0.1496284306049347,0.48473837971687317,-10.041500091552734,0.04025465912556839,-0.04345022317743171,-0.008147540751084328,2.2102427924614565,3.4244389273980644,0.7145156550641321
1731474145.0892012,-0.3409866988658905,0.2217046469449997,-10.007319450378418,0.042740595236399496,-0.0381521949871366,-0.008073689468008455,2.2059956327879506,3.2951749204811107,0.7120868740667489
1731474145.1393504,-0.19522902369499207,0.4383619427680969,-10.02239990234375,0.0451604646008554,-0.0324337900065014,-0.007987764631992899,2.201900820657568,3.124909922478243,0.7097089892271836
1731474145.1891997,-0.3174585700035095,0.26658883690834045,-9.997493743896484,0.04749983089037972,-0.026323774060426564,-0.007891022687249949,2.1978663657298094,2.9800454697317975,0.7072327654398188
1731474145.2401588,-0.2567730247974396,0.41878947615623474,-9.975645065307617,0.04974434513765168,-0.019852991257369758,-0.007785023197945159,2.193870759287983,2.8320405846104793,0.7046837813920722
1731474145.290124,-0.31867489218711853,0.322895348072052,-10.004502296447754,0.051880074194628506,-0.013054055629242861,-0.00767140756977366,2.1900825516354976,2.6869472839318966,0.7021662306607626
1731474145.3400424,-0.2900391221046448,0.4151308536529541,-9.99188232421875,0.053893817476403955,-0.0059611125970073535,-0.00755177144281433,2.1865294232481345,2.883456800184592,0.6997404085929109
1731474145.390102,-0.331870973110199,0.35072141885757446,-9.961592674255371,0.055773358483268656,0.0013903844394689805,-0.0074276395904011635,2.1830000374687604,2.7985215601795908,0.6971773503770249
1731474145.4399805,-0.31109046936035156,0.4003080129623413,-9.982954025268555,0.05750766049198336,0.008963943421149544,-0.007300388939486435,2.179759752004093,2.630813431148601,0.6947283721116315
1731474145.4899025,-0.3297779858112335,0.40445318818092346,-9.977746963500977,0.05908700189957428,0.016722315233359097,-0.007171147280070371,2.176526685334831,2.5159221744424474,0.6921346842712125
1731474145.5398126,-0.3312694728374481,0.4171616733074188,-9.975252151489258,0.060503043779789566,0.024627695936260546,-0.007040794335214031,2.1734466691476544,2.401228641939065,0.689526598123321
1731474145.589731,-0.3365127444267273,0.42672958970069885,-9.98169231414795,0.06174887027153038,0.03264187310265741,-0.006910009483971557,2.170675228332377,2.3858834691554747,0.6870399151974647
1731474145.6397784,-0.6444383859634399,0.252627432346344,-9.986760139465332,0.06281929039279487,0.04072656671339117,-0.0067793107202204885,2.167889327761893,2.3000710527167727,0.6843828657165837
1731474145.6896195,-0.5891392230987549,0.3251998722553253,-9.954066276550293,0.06371183412532258,0.04884420601076073,-0.006649084549647957,2.1652799439163677,2.2149490083704153,0.6817269961667171
1731474145.739691,-0.7718563675880432,0.09749940782785416,-9.974160194396973,0.06442810684657388,0.0569589785377391,-0.0065195515883312285,2.1628143914236833,2.12940777729789,0.6790373862911859
1731474145.7895942,-0.46285444498062134,0.407083123922348,-9.982929229736328,0.0649744374873596,0.06503764944556199,-0.006390718312089902,2.160714296760819,2.1326485105087554,0.6765038388184307
1731474145.839546,0.17480438947677612,0.5993920564651489,-9.956948280334473,0.06536055713888077,0.07304931699022194,-0.0062624144021068045,2.15857696233463,2.057695158659738,0.6737821429252463
1731474145.8895202,-0.4296962022781372,0.3416212499141693,-10.036373138427734,0.06559624626276876,0.08096398268445765,-0.006134391224169603,2.156800948565512,1.8899434926800676,0.671232670047373
1731474145.9394314,-0.10667605698108673,0.5735830664634705,-9.944799423217773,0.06568879128841264,0.08875149450910974,-0.006006451061591378,2.1549927871137675,1.7976783022217049,0.668477464396953
1731474145.9893925,-0.4261827766895294,0.25164923071861267,-9.998679161071777,0.06564317170457776,0.0963817741220933,-0.0058785055706382545,2.1535542686150695,1.5922170758421155,0.6659064026796676
1731474146.0393891,-0.4261827766895294,0.25164923071861267,-9.998679161071777,0.06546343679323777,0.10382581280992967,-0.005750524210451632,2.152081370803942,1.463633078696275,0.6631278745232346
1731474146.0393891,-0.1757666915655136,0.5858380794525146,-10.030649185180664,0.06515375784636564,0.11105669627660392,-0.005622589157537999,2.152069142189329,1.462502834382507,0.6631033621406036
1731474146.0892906,-0.36952340602874756,0.26452311873435974,-9.984543800354004,0.0647185714942177,0.11804967062533989,-0.005495063887048742,2.150783518816221,1.3364948237183667,0.6603606736512035
1731474146.1392066,-0.2180897742509842,0.5275964140892029,-9.984308242797852,0.06416206254790441,0.1247815598458879,-0.00536860260216885,2.149641024570481,1.2091878335286304,0.6575697315814779
1731474146.1892066,-0.35027265548706055,0.3020928204059601,-9.998504638671875,0.06348794919598422,0.13123065182550672,-0.005243977722031962,2.1486574035435635,1.0821922060187212,0.6547654132611364
1731474146.2392662,-0.24522694945335388,0.4789474606513977,-9.97572135925293,0.06269962251500447,0.1373769001887265,-0.005121945632584078,2.1480334605171847,1.6615562845301237,0.6521227832583811
1731474146.2900531,-0.32880857586860657,0.3587845265865326,-9.992473602294922,0.061800272818487115,0.14320203479888333,-0.005003207609344763,2.147355160143489,1.648645806813605,0.6492413611654192
1731474146.3401139,-0.28920209407806396,0.4533703923225403,-9.996732711791992,0.06079299654911353,0.1486895855370603,-0.004888401460671401,2.1470247331001318,1.721055516445306,0.6465910100457404
1731474146.3900425,-0.32036682963371277,0.38436904549598694,-9.975886344909668,0.05968092783610808,0.15382486440974252,-0.004778120518243082,2.146666258363653,1.724854322066881,0.6437417026416913
1731474146.4399643,-0.3222068250179291,0.4288286566734314,-9.992498397827148,0.05846737802281367,0.15859497661453506,-0.0046729148215156995,2.146453927531274,1.7290640369699843,0.640865889627631
1731474146.4898868,-0.3282969295978546,0.4256960153579712,-9.982223510742188,0.05715595813763555,0.16298883288934402,-0.004573258001147409,2.146386774969792,1.7336504754379287,0.6379947580951874
1731474146.5398424,-0.3342430889606476,0.41899538040161133,-9.977553367614746,0.0557506792052244,0.16699710752818925,-0.004479528636982885,2.1466864017313663,1.7546421238513015,0.6353215335800466
1731474146.5898244,-0.3272224962711334,0.4375999867916107,-9.990431785583496,0.05425600046238931,0.17061217820228544,-0.004391998318032218,2.1470910523976534,1.7741803485585963,0.6326632302723312
1731474146.6398294,-0.348007470369339,0.42216381430625916,-9.980985641479492,0.052676830049955777,0.1738280923020233,-0.004310832811909267,2.1474432026683195,1.7829193488425077,0.6297376409691554
1731474146.6897447,-0.3311549723148346,0.43346843123435974,-9.981561660766602,0.0510185180186554,0.17664054480843544,-0.004236113512847258,2.147920784035294,1.7920062671305677,0.626830860294123
1731474146.7396312,-0.3635404109954834,0.40990909934043884,-9.988479614257812,0.04928685518864338,0.1790468788282823,-0.004167845996800101,2.1485244376224832,1.8015620632707676,0.6239050620921088
1731474146.789546,-0.32311975955963135,0.4552238881587982,-9.978585243225098,0.04748806143452885,0.18104609230335367,-0.00410596535427867,2.1492446841007755,1.8115155989930711,0.6209834782073126
1731474146.8395026,-0.3543110489845276,0.4205108880996704,-9.987153053283691,0.04562872571075784,0.18263877686610924,-0.004050347831872505,2.150335004808027,1.7981593143170709,0.6182852991342145
1731474146.8894835,-0.33690303564071655,0.44204410910606384,-9.983466148376465,0.043715712062435096,0.18382701917563699,-0.004000817911677004,2.1512928268297595,1.8038998391840833,0.6153211350999394
1731474146.939377,-0.33690303564071655,0.44204410910606384,-9.983466148376465,0.04175608291069169,0.18461433607353583,-0.003957159035024804,2.152561904619833,1.821103999401012,0.6126315398020524
1731474146.939377,-0.3456494212150574,0.4204249382019043,-9.974058151245117,0.039757028480987014,0.1850056252482093,-0.003919113221871875,2.152570986217723,1.8211865073589302,0.6126073919755431
1731474146.9893372,-0.32335811853408813,0.44455331563949585,-9.994388580322266,0.03772578881250843,0.18500713189003806,-0.003886366648959399,2.1537272013860607,1.8314951584522416,0.6096526507141277
1731474147.0392928,-0.3419918715953827,0.4153200089931488,-9.980100631713867,0.03566957448547763,0.18462643293854886,-0.003858565492716549,2.1549824980503014,1.8423334802508946,0.606668107535295
1731474147.0892532,-0.33232659101486206,0.44813141226768494,-9.970808982849121,0.033595497273695374,0.18387239508907394,-0.0038353398842297494,2.1563271004284137,1.853655804931422,0.6036675765688985
1731474147.1392598,-0.3414287269115448,0.42118310928344727,-9.989472389221191,0.031510540698055256,0.18275509709257673,-0.0038162794551777463,2.1580062930008075,1.8400523921633571,0.6009527378371695
1731474147.1892078,-0.32821929454803467,0.43675288558006287,-9.983247756958008,0.029421546718626682,0.18128574122895785,-0.00380092060308146,2.159507369979652,1.8467556738391668,0.5979442758461992
1731474147.239118,-0.3308393657207489,0.41653814911842346,-9.989508628845215,0.027335172501831703,0.17947658954579773,-0.0037887958757335145,2.161077236896845,1.8538994440995875,0.5949298282950803
1731474147.2890556,-0.3233639597892761,0.44228991866111755,-9.99915599822998,0.025257821618885026,0.17734091175037062,-0.0037794948531431017,5.776087958527552,1.8590338016376906,0.5922114421267625
1731474147.34003,-0.3317860960960388,0.42187803983688354,-9.981391906738281,0.02319558488808035,0.17489289579448022,-0.0037727058375028742,5.688161484019097,1.86630345959809,0.5891063676606076
1731474147.389953,-0.3199501931667328,0.43816444277763367,-9.984302520751953,0.02115421155380381,0.17214753261477023,-0.0037682110050324914,5.602145231387641,1.8738577292705871,0.5860572596285295
1731474147.4399762,-0.3348630368709564,0.410004585981369,-9.995926856994629,0.019139100190506703,0.16912052797426522,-0.0037658389961049052,5.516056240358195,1.88184973520453,0.582994361364431
1731474147.4898822,-0.31965500116348267,0.4335654675960541,-9.987404823303223,0.01715529963742267,0.16582825390869066,-0.003765453389481013,5.508489576838847,1.8815510302908407,0.5802775807136616
1731474147.5398347,-0.33629316091537476,0.42236918210983276,-9.98745346069336,0.015207516678174188,0.1622876882450544,-0.0037669744947440445,5.428535150416025,1.888519967300464,0.5772053069868117
1731474147.5897639,-0.32917505502700806,0.4344494938850403,-9.999245643615723,0.013300132105739122,0.15851630153991414,-0.003770379814266798,5.174072740775477,1.90707789128473,0.5744912293167778
1731474147.6397233,-0.3516184091567993,0.42074695229530334,-9.990751266479492,0.011437243816211588,0.15453192922618095,-0.003775709333800864,5.02614476246305,1.919127094187994,0.5713991458600663
1731474147.6896822,-0.3454195261001587,0.43337929248809814,-9.982441902160645,0.00962274360841784,0.1503526733172881,-0.0037830724699743556,4.878642808750555,1.9315228925358503,0.5683060198026194
1731474147.739603,-0.3505779504776001,0.42843934893608093,-9.977140426635742,0.007860391751310467,0.1459968157155289,-0.003792596940779631,4.912113656605237,1.9301773430642288,0.5655861174607254
1731474147.7895708,-0.3442579209804535,0.44717955589294434,-10.014467239379883,0.0061538399053014566,0.1414827059984594,-0.003804372802844279,4.818957807166081,1.9386975475820214,0.5624598735242158
1731474147.839557,-0.2940550446510315,0.5944892764091492,-9.976007461547852,0.00450655312501392,0.13682847957697122,-0.00381848909947794,4.591817932825908,1.9564248243873608,0.5597311392641121
1731474147.889536,-0.20518560707569122,0.54371577501297,-9.946371078491211,0.0029215038147325486,0.1320514403087775,-0.0038350412221686593,4.447534225764148,1.9689358415034752,0.5565976087351588
1731474147.939503,-0.43645983934402466,0.24578015506267548,-9.995434761047363,0.001400796443003883,0.12716770992015192,-0.0038539867582970504,4.26654781576185,1.9827929256085284,0.5538711924298237
1731474147.9893682,-0.2412494719028473,0.5809628963470459,-10.00178050994873,-5.425161594543469e-05,0.12219284093414406,-0.003875082788638838,4.102414401487999,1.996820759366681,0.5507356187559359
1731474148.0393229,-0.4226839542388916,0.305077463388443,-9.972904205322266,-0.0014426805239647817,0.11714253837545738,-0.003898037934956207,3.937423231127763,2.0112199065416405,0.5475740100216218
1731474148.0892675,-0.17636924982070923,0.6643232107162476,-9.994385719299316,-0.0027637346462163746,0.1120325409129071,-0.0039226212543090125,3.7727044423632496,2.0258803729738544,0.5444079769589397
1731474148.1391916,-0.017241640016436577,0.4965020716190338,-10.021503448486328,-0.004017404998280851,0.10687794310486458,-0.0039486673731718176,4.005422664038944,2.007167131602756,0.541686983494695
1731474148.1891968,0.08745230734348297,0.6030604839324951,-10.011589050292969,-0.005205854714512074,0.10169247101848952,-0.003976173614540607,3.75301511209712,2.0295843257496524,0.5389695918783737
1731474148.2391913,-0.9778934717178345,0.07814757525920868,-9.990920066833496,-0.006334083942019987,0.09648856564017659,-0.004005417389122658,3.611677219113567,2.042573947350121,0.5357646967122444
1731474148.289004,-0.13256236910820007,0.6477596163749695,-9.916261672973633,-0.007407746761260714,0.09127859274639183,-0.0040368309281057484,3.4711393248847497,2.05572236535299,0.5325683129433753
1731474148.3390393,-0.5607509613037109,0.18505153059959412,-10.030675888061523,-0.00843042934542019,0.08607574886365743,-0.004070682664923904,3.3299576623058003,2.069150878593246,0.5293476014631406
1731474148.3899746,-0.24053697288036346,0.6703055500984192,-9.993346214294434,-0.00940350586129829,0.08089379297114234,-0.004106988865572248,3.440622098410661,2.059604785214264,0.5265763525645045
1731474148.4399455,-0.4149532914161682,0.18424800038337708,-9.922703742980957,-0.010327238404946022,0.07574646833014301,-0.004145681943408213,3.3504250519187155,2.0684981663241153,0.5233297269633514
1731474148.4898977,-0.32263457775115967,0.564312756061554,-10.011099815368652,-0.011201360725051337,0.07064733249234018,-0.004186590444791902,3.119066642363383,2.0892566903708243,0.5206092868074116
1731474148.539939,-0.4096713662147522,0.33358514308929443,-9.978320121765137,-0.012025257272952642,0.06560979955942778,-0.0042293310285731415,2.969660878086169,2.103427061556244,0.5173554609355295
1731474148.5898108,-0.33266475796699524,0.4822407364845276,-9.983787536621094,-0.01279795595444391,0.060646993272278404,-0.004273419737636638,2.816145848342459,2.117005037133225,0.5146481499732476
1731474148.6398258,-0.36633315682411194,0.4079146981239319,-10.017582893371582,-0.013518165052959092,0.05577150665136055,-0.004318419209099894,2.66402519812866,2.1313231074557484,0.5113695968264377
1731474148.6896837,-0.37975364923477173,0.41329842805862427,-9.984230041503906,-0.014184409787844134,0.05099529737364088,-0.0043640183263560384,2.551746275075367,2.1444989572438646,0.5086657639205713
1731474148.7397082,-0.3236582279205322,0.45023560523986816,-9.957239151000977,-0.014795119052418697,0.04632967085923085,-0.0044100441354446695,2.4253094170933145,2.1572689842762465,0.5053737254503323
1731474148.7895982,-0.4094269871711731,0.40006208419799805,-10.010847091674805,-0.015348683058578609,0.04178526131968383,-0.004456339839822984,2.232515139819521,2.1726011425944827,0.5026695347402053
1731474148.8395123,-0.3341081142425537,0.49790847301483154,-9.974881172180176,-0.01584348744869442,0.037371939723055886,-0.0045026887726306,1.9425363888251674,2.197864280003941,0.4999468905583154
1731474148.8895173,-0.40162166953086853,0.3858509361743927,-9.979796409606934,-0.01627789794115108,0.03309867852258453,-0.004548862576973763,1.754923125515556,2.2147760209471343,0.4966457802098045
1731474148.9394271,-0.33520281314849854,0.49349677562713623,-9.995915412902832,-0.01665027738615639,0.028973484266022857,-0.004594631856819771,1.5663714291932933,2.231846078793036,0.4933174732378657
1731474148.989394,-0.39363962411880493,0.3769837021827698,-9.9759521484375,-0.016959052763902804,0.025003435000105653,-0.004639754093766345,1.3776725259249003,2.2489932121298906,0.4899757524308109
1731474149.0393794,-0.39363962411880493,0.3769837021827698,-9.9759521484375,-0.017202730292080103,0.021194854832572243,-0.004683978805074783,1.6358447845632538,2.224366300409245,0.48728173610215003
1731474149.0393794,-0.32641667127609253,0.49767252802848816,-9.984671592712402,-0.017379859434972632,0.01755354543237751,-0.004727014237716465,1.635299382040582,2.2244147712115234,0.4872648010690425
1731474149.0893095,-0.39658495783805847,0.40310895442962646,-9.991823196411133,-0.01748910843274982,0.014084722774755528,-0.004768517731980563,1.527806428046266,2.2339834582744915,0.4839218307654499
1731474149.139286,-0.31508591771125793,0.49019932746887207,-9.974615097045898,-0.01752943142928376,0.010792707480184042,-0.004808147195652757,1.4198997384860592,2.243616048801753,0.48055543040944215
1731474149.1892076,-0.31508591771125793,0.49019932746887207,-9.974615097045898,-0.017500233715262756,0.007680715219549361,-0.004845573737971486,1.4027736807430524,2.2532584512747458,0.4778601177304553
1731474149.1892076,-0.3865351676940918,0.38851404190063477,-9.984769821166992,-0.017401534968020313,0.004750778051039078,-0.004880434300857014,1.4020010911456602,2.25334617998052,0.477829431477967
1731474149.2392628,-0.3284973204135895,0.4553205966949463,-9.989445686340332,-0.017233943146117134,0.00200391233584867,-0.004912327511226787,1.3172484342838449,2.262970060372074,0.4744578962678552
1731474149.2891707,-0.36882221698760986,0.4021817743778229,-9.976908683776855,-0.016998461018592592,-0.0005595294970898764,-0.0049408704482357315,1.2322341466908737,2.272620616087908,0.47106542241666477
1731474149.3390863,-0.339903861284256,0.46282950043678284,-9.997218132019043,-0.016696394342735434,-0.0029396910294583636,-0.00496573693177359,1.146998457823751,2.2822871778514653,0.46765344790006225
1731474149.3890233,-0.36403632164001465,0.4146801829338074,-9.983406066894531,-0.016329342566144624,-0.005137244657559529,-0.004986673597731748,1.4892792189488968,2.2919306817082137,0.4649639283453254
1731474149.4399798,-0.36403632164001465,0.4146801829338074,-9.983406066894531,-0.015899154512592273,-0.007153401220601478,-0.005003512926424867,1.4838358663255178,2.3017984401268508,0.4614502017596429
1731474149.4399798,-0.3282560706138611,0.4430561661720276,-9.990992546081543,-0.01540788094767108,-0.008989826738341916,-0.00501615850572389,1.4837876274071113,2.3018854694268174,0.46141912431826704
1731474149.489963,-0.3282560706138611,0.4430561661720276,-9.990992546081543,-0.014857829652582775,-0.01064861512803241,-0.005024573569780106,1.4784721271865642,2.311428934560154,0.45800030378980233
1731474149.489963,-0.34830936789512634,0.4099680185317993,-9.985173225402832,-0.014251693881666576,-0.012132357748868852,-0.005028798018281743,1.478426066651269,2.3115112326545866,0.4579707270190167
1731474149.5398574,-0.3367198407649994,0.4484230577945709,-9.979958534240723,-0.013592569670977859,-0.013444135018099278,-0.005028940371241434,1.5556592940202403,2.3209968418387,0.45532061671599827
1731474149.5898209,-0.3511849343776703,0.42940324544906616,-9.9827299118042,-0.012883850357546772,-0.014587454658657613,-0.00502512763287445,1.5651297730881018,2.3305669073819857,0.45184817755681467
1731474149.639785,-0.3449540138244629,0.44740235805511475,-9.993281364440918,-0.012129123521150899,-0.015566262460593012,-0.005017473727425533,1.5745437331439802,2.340073783826036,0.4483725166319104
1731474149.689714,-0.348348468542099,0.4309273660182953,-9.968509674072266,-0.011332100724391213,-0.016384965781481468,-0.005006089083126729,1.5525025063473845,2.3495554504425074,0.445691752572203
1731474149.7397473,-0.3465837836265564,0.4344233572483063,-9.99363899230957,-0.010496571236640464,-0.017048398949247565,-0.004991077868781731,1.5530095282842573,2.359010568542544,0.44218450421842675
1731474149.7896135,-0.35121646523475647,0.43669408559799194,-9.989757537841797,-0.00962637204141975,-0.01756175436672859,-0.004972533704255137,1.5440642724494196,2.3684032447851098,0.43951298563618263
1731474149.839714,-0.3436480164527893,0.4485608637332916,-9.986307144165039,-0.008725359852622466,-0.017930540077599234,-0.004950581322003667,1.5371214180428343,2.3777910269138425,0.4368319375419621
1731474149.8895714,-0.3596985638141632,0.44395580887794495,-9.989258766174316,-0.007797383357221315,-0.018160592677286293,-0.004925410028746823,1.5339782078820743,2.3870530217527266,0.4333196094007921
1731474149.9394937,-0.3440133035182953,0.440993994474411,-9.989282608032227,-0.006846248949450823,-0.018258090421446715,-0.0048972645259419975,1.5307904242432089,2.3963467929569555,0.42976565362101926
1731474149.9894161,-0.3629949986934662,0.4327376186847687,-9.978323936462402,-0.005875683963248085,-0.018229504242864375,-0.004866425954622429,1.527616797104619,2.4055081071008546,0.4262329627859758
1731474150.0394707,-0.35161831974983215,0.4358040392398834,-9.977865219116211,-0.004889304385045968,-0.018081500100238422,-0.0048331728193826435,1.5306534969714987,2.414721234027844,0.42356599925374133
1731474150.0892787,-0.3588835597038269,0.44195646047592163,-9.983288764953613,-0.0038905852308769133,-0.01782085760759057,-0.004797726779848827,1.5288318712199753,2.4238297679653855,0.4199997637633233
1731474150.1392915,-0.3525645434856415,0.4376795291900635,-9.988021850585938,-0.002882848060228297,-0.017454442481099394,-0.004760242267047708,1.5269963282766246,2.4329215563129343,0.41641090226675564
1731474150.1892414,-0.3610277473926544,0.4366692900657654,-9.989734649658203,-0.0018692634358079018,-0.016989197655146962,-0.0047208528114561,1.5251714181746185,2.4419489671727583,0.41378220382297315
1731474150.239233,-0.3610277473926544,0.4366692900657654,-9.989734649658203,-0.0008528410652037458,-0.01643210986633957,-0.004679725016732101,1.5234256340085395,2.450973625103395,0.41016780490168286
1731474150.239233,-0.35390523076057434,0.44004589319229126,-9.980785369873047,0.00016358913002481932,-0.015790167576908803,-0.0046370762110218644,1.5234117731633545,2.4510450685796132,0.4101390785628459
1731474150.2891834,-0.34808841347694397,0.4356316924095154,-9.990507125854492,0.0011773634195808122,-0.015070335344064597,-0.004593152608532561,1.5216879649583708,2.4599189877138987,0.4065578571165538
1731474150.3391497,-0.3495331108570099,0.4318283796310425,-9.987534523010254,0.0021859279895144043,-0.014279526736226062,-0.004548208885392607,1.5187986617702427,2.468854836431173,0.40394008350699145
1731474150.3889644,-0.34229859709739685,0.43807172775268555,-9.979005813598633,0.0031867835570057275,-0.013424561222904757,-0.004502506949023044,1.5166041082850745,2.477713602301717,0.40031925322993583
1731474150.4399717,-0.35194361209869385,0.43843650817871094,-9.987793922424316,0.004177460692727692,-0.012512134832206834,-0.004456300882485604,1.5114800619459072,2.486792484384749,0.39763235314284495
1731474150.4899325,-0.3497510850429535,0.43838438391685486,-9.9824857711792,0.005155530614986937,-0.011548821524441588,-0.004409814893616524,1.5053322166435017,2.495635640165439,0.3950366734617941
1731474150.5399475,-0.3440338671207428,0.4448617100715637,-9.980924606323242,0.006118636071492818,-0.010541082069080672,-0.00436323952426475,1.5013250667303901,2.5044492624111103,0.39137512294885357
1731474150.5898569,-0.3435697555541992,0.4436219334602356,-9.993441581726074,0.0070644993695734605,-0.009495272005552582,-0.004316736099530703,1.4973497724918803,2.5132039643363826,0.3877168827804823
1731474150.6397717,-0.3434273302555084,0.4445556402206421,-9.981748580932617,0.007990902591083275,-0.008417649152820669,-0.004270454703702572,1.499371407049646,2.5219662182146796,0.3851483334943466
1731474150.6896904,-0.34205594658851624,0.4357181191444397,-9.985618591308594,0.008895676719457431,-0.00731435849612727,-0.004224553148578567,1.4971049371686194,2.530694492418367,0.3814682099726406
1731474150.7397027,-0.3368449807167053,0.4365089237689972,-9.985532760620117,0.009776702976280284,-0.006191380898648502,-0.004179188704914901,1.4927254833824308,2.539478876789177,0.3788953242045656
1731474150.7896504,-0.3370206654071808,0.44003918766975403,-9.988101959228516,0.010631905214536087,-0.005054473632895571,-0.004134508700236763,1.489631419779703,2.5481859715252617,0.37519631482749083
1731474150.839731,-0.34878137707710266,0.4350849390029907,-9.995030403137207,0.011459249470548914,-0.003909140436406108,-0.004090668878828101,1.4858465526781808,2.5569435365137174,0.372648942790683
1731474150.8894904,-0.34958556294441223,0.43955448269844055,-9.992443084716797,0.012256790586073865,-0.0027606246560117364,-0.004047869972391827,1.482488347783284,2.5655893900015156,0.3689536952002478
1731474150.9395454,-0.33814793825149536,0.4347154200077057,-9.992836952209473,0.013022740242544488,-0.0016139018389259635,-0.004006386021949457,1.4791369196394457,2.5742937211081016,0.3652210477656666
1731474150.9894862,-0.3534073531627655,0.43426117300987244,-9.98823356628418,0.013755491686914034,-0.00047366702344654976,-0.003966560320323714,1.4758308384873153,2.5829644829209952,0.36149172427185755
1731474151.0393903,-0.35689619183540344,0.43784937262535095,-9.982269287109375,0.014453630333736409,0.0006556800198356483,-0.003928767511137049,1.4796969000605842,2.591678963969055,0.35900112606198786
1731474151.089344,-0.34376397728919983,0.4424741268157959,-9.984296798706055,0.015115974597079779,0.0017700323418386886,-0.0038933583137583426,1.477688310390142,2.60036886218249,0.3552519913126986
1731474151.1394033,-0.34501925110816956,0.4349685609340668,-9.980411529541016,0.015741583601757286,0.0028655507836582114,-0.003860613462491592,1.4724176903814457,2.6091439812959365,0.35277088285916697
1731474151.1892505,-0.35001081228256226,0.4367660880088806,-9.98748779296875,0.016329709029406177,0.0039386531781857494,-0.003830727569176415,1.4690457470846139,2.6178258762400657,0.3490191188163179
1731474151.2393665,-0.35077399015426636,0.4410512447357178,-9.983784675598145,0.016879769776069024,0.004986026847038898,-0.0038038216540042,1.4656975304943598,2.6265650359876744,0.34523787546880536
1731474151.2891529,-0.3346041738986969,0.4414082169532776,-9.978825569152832,0.017391355810555384,0.0060046253386137165,-0.0037799597120892594,1.466095881100122,2.635332957301546,0.3428132773965167
1731474151.339152,-0.3532467186450958,0.44168803095817566,-9.982125282287598,0.017864204147454037,0.00699164286126586,-0.0037591422602397413,1.4639842994560592,2.6440798606938167,0.33902994354778326
1731474151.38902,-0.3444956839084625,0.44681721925735474,-9.989038467407227,0.018298174762107662,0.007944491556810668,-0.003741298852880873,1.4581014609904417,2.6529041352683604,0.33663252927858184
1731474151.4390323,-0.3412024676799774,0.45108357071876526,-9.988518714904785,0.018693258769764822,0.00886077721778441,-0.003726319222461616,1.454633251121412,2.6617369067498653,0.33281815124497743
1731474151.4888942,-0.35135704278945923,0.44728460907936096,-9.988907814025879,0.019049578260042,0.009738266266541284,-0.003714102346338225,1.4495184005659505,2.670612136582486,0.3304528701728198
1731474151.5399947,-0.3428148031234741,0.43845781683921814,-9.985496520996094,0.019367378835278205,0.010574878443018758,-0.003704578178283297,1.4451431256197462,2.6796668655180915,0.32655325095812376
1731474151.589838,-0.35130253434181213,0.43799132108688354,-9.989453315734863,0.01964703779498461,0.01136873332224932,-0.0036977001095648203,1.4409342057648529,2.6885065551949014,0.3227488154982579
1731474151.6397727,-0.34227749705314636,0.4340595602989197,-9.994230270385742,0.019889067722399213,0.012118219007251498,-0.0036934415943091327,1.4433636014470144,2.6974916138089853,0.32041738236727296
1731474151.6898038,-0.345090389251709,0.4354267120361328,-9.992863655090332,0.02009410251925802,0.012822036678496795,-0.003691817326977716,1.440952957785169,2.7064558432517436,0.31657502424825945
1731474151.7628806,-0.3515869379043579,0.4293767511844635,-9.992466926574707,0.020262880096302033,0.01347921678437286,-0.0036929069449348727,1.4337603203876357,2.719699341059395,0.31249676734076626
1731474151.7896523,-0.3438718020915985,0.40278133749961853,-9.977875709533691,0.02039624316250682,0.014089151513617955,-0.0036968414484260196,1.4318225217963994,2.724533826405345,0.31043525731401345
1731474151.839626,-0.3230764865875244,0.15276339650154114,-9.979936599731445,0.02049512248065123,0.01465191763060931,-0.0037037387699977407,1.427477693187101,2.73374312957833,0.308147128978003
1731474151.8895721,-0.22208143770694733,0.187400683760643,-10.070066452026367,0.020560349736477926,0.015169222610611688,-0.003713709568698833,1.4235855595867761,2.742800328087916,0.30430506013377395
1731474151.939552,-0.3626958727836609,-0.3957504630088806,-10.0033597946167,0.02059231051734812,0.015646004355924552,-0.0037270773531894496,1.419736073058449,2.7519162941748716,0.30044509152797627
1731474151.989412,-0.49128592014312744,-0.6028002500534058,-10.101073265075684,0.020591020909738685,0.016092916403661835,-0.0037446683816662035,1.4207156811535784,2.7612188100470396,0.29822276787508734
1731474152.039409,-0.33004650473594666,0.15001556277275085,-9.991525650024414,0.02055689633634407,0.016528655671972786,-0.0037679416954456988,1.4142974865674605,2.7706347035417354,0.2959966506566055
1731474152.0893848,-0.42409035563468933,-0.23452405631542206,-9.928579330444336,0.020491318529786345,0.016979338550897956,-0.0037987896775942566,1.4105864807350774,2.779892222053836,0.29211883616626644
1731474152.139399,-0.3635537326335907,0.16380023956298828,-9.96257495880127,0.020396494570474835,0.01747527904433517,-0.003838949602973697,1.406920604365936,2.789208536981609,0.2882249267314477
1731474152.1892323,-0.3265819549560547,0.03705446049571037,-9.926668167114258,0.020275115786735427,0.018048187543066568,-0.0038894447058634186,1.403333603237193,2.7984969565783953,0.2843515209482086
1731474152.2392316,-0.34383344650268555,0.2610261142253876,-9.951214790344238,0.020130018394352914,0.018729334051622172,-0.003950424770775299,1.3997769051865054,2.8078833902090232,0.280446599213096
1731474152.2891235,-0.35642221570014954,0.23940710723400116,-9.95168685913086,0.019963883995904128,0.019547974269072017,-0.0040212502961470935,1.4065751978720478,2.8175123452454702,0.27832100221462375
1731474152.3392637,-0.3735845685005188,0.305618554353714,-9.976515769958496,0.01977921151899753,0.020530116144623373,-0.004100670856248931,1.4047471482783072,2.827039736133155,0.27438801632566534
1731474152.389072,-0.3662432134151459,0.2762035131454468,-9.98367977142334,0.019578479762243757,0.021697800643482264,-0.004187080810684823,1.398690251077255,2.8367585781708473,0.27230624951166743
1731474152.4390504,-0.3853393793106079,0.2848801612854004,-9.992253303527832,0.01936427665968261,0.02306892753227202,-0.004278778313454806,1.395338107346435,2.846376088972887,0.2683699466301291
1731474152.4890246,-0.3745778203010559,0.2969180941581726,-9.987142562866211,0.01913935466747493,0.024657425023775104,-0.0043741506276459615,1.3910745085538612,2.856273847726728,0.266305310084397
1731474152.539969,-0.36941108107566833,0.32635197043418884,-10.017279624938965,0.018906630601744797,0.026473462369155553,-0.0044717796674596,1.387331925077482,2.8662121482617837,0.2622775736740558
1731474152.5898287,-0.3613957464694977,0.32036691904067993,-9.987659454345703,0.018669111503884374,0.028523566860787213,-0.004570518400532167,1.3837352188922512,2.8759572156611255,0.258344754668003
1731474152.6398501,-0.3558109700679779,0.3377763330936432,-10.017905235290527,0.018429767507416865,0.030810726319336918,-0.00466953417251393,1.3844232366289708,2.8861346303513833,0.25631283239760794
1731474152.6896672,0.11172740161418915,0.9410831928253174,-9.988750457763672,0.01819099430051246,0.03333402875398055,-0.0047682961594093885,1.3820861576789678,2.8960173082535534,0.25237350619663035
1731474152.7397246,0.6022413969039917,1.6053311824798584,-9.950591087341309,0.017952489572537603,0.03608622615501218,-0.004866479436455828,1.3769482490805012,2.906400168783832,0.2503679381414817
1731474152.7897217,0.45707929134368896,1.1785728931427002,-9.883322715759277,0.017707488362221947,0.039049295501771025,-0.004963663999265714,1.3735265274941268,2.9165544646152943,0.24637889716227948
1731474152.8396256,0.18722468614578247,0.8254978060722351,-10.014012336730957,0.017440265696779818,0.042192209823218585,-0.00505894578911672,1.370155433393218,2.926790520401276,0.2423851101933338
1731474152.889567,-0.2138817459344864,0.33085402846336365,-10.020838737487793,0.01712763095396583,0.045474218573370466,-0.005150970557623012,1.3668401866131945,2.9370962401613188,0.23839394121643795
1731474152.939633,-0.84199458360672,-0.42900434136390686,-10.077438354492188,0.016743912493266018,0.04885198708090992,-0.005238522933057833,1.3700301254328895,2.947931500068797,0.2364636398414791
1731474152.9894435,-0.84199458360672,-0.42900434136390686,-10.077438354492188,0.016267211842063464,0.05228745909535061,-0.00532117095228774,1.367990016505346,2.958447822307092,0.23246983038210664
1731474152.9894435,-1.1347620487213135,-0.6553553342819214,-10.159132957458496,0.015684492217707936,0.05575383074556347,-0.005399674813577016,1.3679705261895556,2.958549923196918,0.2324312297203326
1731474153.0395005,-0.5375619530677795,0.026560742408037186,-10.053828239440918,0.014993598273858993,0.05923747990440195,-0.0054762069366902305,1.3619483874672684,2.969627475469098,0.23055254392546914
1731474153.0893981,-0.6419805884361267,-0.14039817452430725,-10.018117904663086,0.014201797503682063,0.06273567721197801,-0.005554192501069323,1.3583012031337078,2.9804837958081833,0.22652431001705348
1731474153.13939,-0.48468977212905884,0.17504572868347168,-9.904268264770508,0.013322401959750913,0.06625236472997459,-0.005637571480656862,1.354669800789657,2.9915569030564755,0.22246149769279788
1731474153.1893013,-0.5061772465705872,0.20886747539043427,-9.975037574768066,0.012371888733392147,0.0697945250161727,-0.0057298253805348354,1.3510864934359081,3.0027503640805366,0.2184025328591029
1731474153.2392278,-0.5061772465705872,0.20886747539043427,-9.975037574768066,0.011368343845141881,0.07336973542564289,-0.005833415557189651,1.3475289910270791,3.014133694857559,0.21432493862338914
1731474153.2392278,-0.504601240158081,0.35937514901161194,-9.961531639099121,0.010330687454125721,0.07698461418625757,-0.0059498278711471115,1.3474966839967635,3.014238328662364,0.21428769242002396
1731474153.2890863,-0.5235366225242615,0.4285810589790344,-9.942535400390625,0.009278300043460367,0.0806438021775851,-0.006079779680851522,1.3554079078866244,9.369298612571347,0.2125464630591037
1731474153.3391986,-0.5182399153709412,0.41647854447364807,-9.95583724975586,0.008230815393174787,0.08434904802122271,-0.0062232522143034095,1.3536975952960493,9.37142148106339,0.20842519789185024
1731474153.3890479,-0.5484158992767334,0.4480695128440857,-9.937871932983398,0.007207960697840583,0.08809864586090313,-0.006379473047920114,1.3475059219910699,9.381151118040728,0.20666520489890758
1731474153.4390175,-0.5478430390357971,0.4370619058609009,-9.939542770385742,0.006229449430083685,0.09188747709148948,-0.006546958169964055,1.344056786547172,9.379395482343066,0.202531599638332
1731474153.4889638,-0.5263280868530273,0.4694240391254425,-9.992203712463379,0.005314871704250395,0.09570733344453929,-0.006723615981992814,1.3396895480434743,9.378561176293235,0.20079069203367647
1731474153.5389593,-0.5467596054077148,0.46723413467407227,-9.985711097717285,0.004483492768252011,0.09954725381660738,-0.00690699662055907,1.3359630223641412,9.37610764443303,0.1966484303187493
1731474153.5898702,-0.551529049873352,0.4757702946662903,-9.996859550476074,0.0037540186667273092,0.103393844168839,-0.0070946298169550425,1.3330993580779424,9.372855526064912,0.1948618008261662
1731474153.6398945,-0.5152885317802429,0.4587487578392029,-9.976001739501953,0.0031444219038202284,0.10723163930217716,-0.007284229867832766,1.330004753624987,9.37056870673005,0.19066678807497653
1731474153.6898081,-0.5710768699645996,0.47691261768341064,-10.003650665283203,0.002671773004687421,0.11104353174720218,-0.0074737255046676936,1.3253104964384899,9.365278285696563,0.1890007703685086
1731474153.7397523,-0.525538980960846,0.48766395449638367,-9.994609832763672,0.0023520966282652277,0.1148111764584639,-0.007661262922207068,1.3184588091647282,9.359329721694133,0.18733382359175602
1731474153.789613,-0.5084438323974609,0.5185731053352356,-9.965476989746094,0.0022002466685908583,0.11851526163522177,-0.007845219223279298,1.3140316260733036,9.355915690654967,0.18313369038764013
1731474153.8396065,-0.5292466878890991,0.4623800218105316,-9.98769760131836,0.0022296873298542946,0.12213570471906453,-0.00802413373673286,1.309600363017856,9.352794346289572,0.17890465659435054
1731474153.88953,-0.48913973569869995,0.46731847524642944,-9.979022026062012,0.00245226709215878,0.12565198544923567,-0.008196608902093172,1.3051778777212504,9.349984085162234,0.17465819897320897
1731474153.9395475,-0.4685397744178772,0.5056860446929932,-9.99309253692627,0.002878050930935218,0.12904360129218284,-0.008361307371962768,1.3111178140857138,9.350526553762512,0.17303411919039677
1731474153.9894257,-0.45702219009399414,0.4998912811279297,-9.956080436706543,0.0035151024588829455,0.13229035234623565,-0.00851698551602712,1.3053763061348354,9.343117113452399,0.17144362804798222
1731474154.0394197,-0.4022035002708435,0.5028836131095886,-9.970311164855957,0.004369229643658618,0.135372422457754,-0.008662441745462122,1.301961096382356,9.339774076139893,0.1671501499139742
1731474154.089314,-0.42270535230636597,0.48164358735084534,-9.983999252319336,0.005443766289346631,0.13827051052240144,-0.008796435283657493,1.2985642030163471,9.336778163019266,0.16284255173868795
1731474154.1392968,-0.38456615805625916,0.5007065534591675,-9.960416793823242,0.006739446261893592,0.14096608174490477,-0.008917696260127546,1.2951788639878572,9.33412743219175,0.15850822688450916
1731474154.1892097,-0.3837924003601074,0.4896668791770935,-10.00211238861084,0.008254406104697451,0.14344160620596144,-0.009024995597196956,1.291822833102361,9.331838421406054,0.1541652859532615
1731474154.2391903,-0.3806689977645874,0.47306615114212036,-10.001392364501953,0.009984264547052908,0.1456807376046465,-0.00911724439966884,1.2884733794679541,9.329899611098897,0.1497786903800793
1731474154.2891269,-0.5227342247962952,0.9770021438598633,-9.972333908081055,0.011922400347114438,0.1476680550016172,-0.009193617014896082,1.2986636412856858,9.329978568641407,0.14827233291179123
1731474154.3391964,-0.6536251306533813,1.1910713911056519,-9.957026481628418,0.014060796796650732,0.1493873366775249,-0.009253535940034755,1.2971953655051363,9.328258888009199,0.14383666494341626
1731474154.389024,-0.5680765509605408,0.5152410864830017,-9.884139060974121,0.016391350258681266,0.1508192006264953,-0.00929640770517372,1.2957762947577087,9.32692657906069,0.13941188986310177
1731474154.438984,-0.8518714904785156,1.0223649740219116,-10.114818572998047,0.018906996981554083,0.15194098840889037,-0.009321399525777836,1.2924832448372603,9.31790008409681,0.1379692982042464
1731474154.4890203,-0.5428992509841919,0.5303182005882263,-9.948053359985352,0.02160237639639998,0.15272874173415898,-0.009327700880077996,1.2906855024816102,9.315374998320275,0.13347950407321607
1731474154.4890203,-0.5428992509841919,0.5303182005882263,-9.948053359985352,0.024473724264478927,0.15315914459984775,-0.00931490930531513,1.290132576190304,9.314661486426415,0.1320648353619681
1731474154.8706543,-0.253031849861145,0.3442539572715759,-9.981415748596191,0.027517549665748764,0.15321151557398494,-0.00928287932281095,1.2607963285636257,9.251278933299416,0.10790542397817009
1731474154.9205117,-0.23775433003902435,1.9156547784805298,-9.855184555053711,0.03072858065936348,0.15286844905100921,-0.009231311369645728,1.2645374315265456,9.2536529238782,0.1065486808858125
1731474154.9705315,-0.4001409411430359,0.5899046659469604,-9.77047061920166,0.034098205016252624,0.15211275471290353,-0.009159291141656459,1.2625469592999339,9.249750822328611,0.10195796328932039
1731474155.020408,-0.1947299689054489,1.112312912940979,-10.022409439086914,0.03761421454915652,0.15092437775209996,-0.009064768057663162,1.2614571149912188,9.240271452588242,0.10062604654184966
1731474155.0704117,-0.21322882175445557,0.8714746236801147,-10.088143348693848,0.04126120033527485,0.14928135101224413,-0.008944850843020906,1.258970220751559,9.233719029082101,0.096000374491071
1731474155.1203022,-0.2239534556865692,0.9041865468025208,-9.905142784118652,0.0450206342223609,0.14716201264302772,-0.008796998590833192,1.2565414729748625,9.227406645339059,0.09125843293286891
1731474155.1704328,-1.3943976163864136,-0.5810168385505676,-10.084527969360352,0.04887204394285079,0.14454735985454978,-0.00861970413636121,1.2542721937310624,9.221567871391231,0.08657950337170504
1731474155.2202253,-0.5982986688613892,0.3721615672111511,-10.063822746276855,0.05279687787514687,0.141425904438716,-0.008412477675381185,1.2520412034395392,9.215859057405112,0.08168374796190761
1731474155.2702136,-0.46314603090286255,0.03619835898280144,-10.011496543884277,0.056781722368414375,0.13779799622933814,-0.008175966062189179,1.257806319478628,9.225722399749294,0.08068342218318965
1731474155.320184,-0.5183843374252319,0.10595713555812836,-10.015792846679688,0.06081708242681177,0.13367568822520948,-0.007911977763050679,1.2568306815230716,9.222576087651872,0.07573173192307808
1731474155.3702235,-0.11161405593156815,0.15249505639076233,-10.028287887573242,0.0648941109176568,0.12908059301780045,-0.007623136160395323,1.2528954204009688,9.209940084704204,0.07478557542062116
1731474155.4200754,-0.11161405593156815,0.15249505639076233,-10.028287887573242,0.06900216974119659,0.124042322361578,-0.007312604365769934,1.2513057951328095,9.204744812992491,0.06999664688824903
1731474155.4200754,0.01588253118097782,0.03391246125102043,-10.020575523376465,0.07312692264680268,0.11859715422307054,-0.00698401107647406,1.2512405422972142,9.204525763672256,0.06978785787863573
1731474155.469965,-0.25383296608924866,0.3448643088340759,-9.974748611450195,0.07724937204099054,0.11278681555552714,-0.00664133117234446,1.2498992439200813,9.199849764968631,0.06519475070349129
1731474155.5198517,-0.10165785253047943,0.2227284014225006,-9.922452926635742,0.08134651730800457,0.10665703700139764,-0.006288556168803451,1.2486939614200692,9.195243799456208,0.06039401647599599
1731474155.5699394,-0.1839110553264618,0.4192267656326294,-9.99095344543457,0.08539271875785312,0.10025567843127427,-0.005929253061350985,1.2475416894819467,9.188743215025655,0.05932353205154569
1731474155.6198208,-0.19280876219272614,0.3612631559371948,-9.950533866882324,0.08936071796057188,0.09363106955112359,-0.005566350632241558,1.2463102789615068,9.18313020235281,0.054324857116500765
1731474155.6698928,-0.19280876219272614,0.3612631559371948,-9.950533866882324,0.09322237301257322,0.08683088640715729,-0.005202202778529654,1.2427832792662639,9.178111786186546,0.05354665895575954
1731474155.6698928,-0.00384950777515769,0.6912849545478821,-9.922014236450195,0.09694917736537664,0.079901291597141,-0.004838608654083058,1.2427691766306521,9.178068519296382,0.05350559367576814
1731474155.7207956,-0.00384950777515769,0.6912849545478821,-9.922014236450195,0.10051211276797038,0.0728856241841293,-0.004476693540401421,1.2367177718755944,9.172952136141006,0.05245982550170718
1731474155.7207956,0.744889497756958,1.6483407020568848,-9.939879417419434,0.10388043979783305,0.06582186560091542,-0.004116827459418757,1.236686702256843,9.17290617390024,0.052414572536485314
1731474155.770732,0.3141680657863617,1.1341841220855713,-10.00156307220459,0.10701941353190551,0.05873895608669744,-0.003758756172192884,1.23356314938834,9.168165465327858,0.04767266865643768
1731474155.8206358,0.3141680657863617,1.1341841220855713,-10.00156307220459,0.10988874218763056,0.051654317711521916,-0.003401995277586829,1.230590306019695,9.163376073255185,0.04273333042928669
1731474155.8206358,-0.22723086178302765,1.8611536026000977,-9.893811225891113,0.11244414954554803,0.044574169209486716,-0.0030461752348266294,1.2305671528988478,9.163337436057393,0.0426928806067435
1731474155.8706558,-0.4820658564567566,1.1263463497161865,-9.909140586853027,0.11464171191844497,0.03749428184495347,-0.002690897276840223,1.2279840459414106,9.158841723568944,0.03793567130849721
1731474155.9206085,-0.49431735277175903,1.4234706163406372,-9.892594337463379,0.11644274732424956,0.030400631377075073,-0.002335262232714428,1.2330628107888888,9.15433749549275,0.037157807672229114
1731474155.970523,-0.49431735277175903,1.4234706163406372,-9.892594337463379,0.11781705996904547,0.023271442436770484,-0.001977598459959215,1.2295995552561272,9.149906332361278,0.03641507170135686
1731474155.970523,-0.07631285488605499,0.5004467964172363,-10.070384979248047,0.11874334335398878,0.016079965038143847,-0.0016156342597293738,1.229583866370385,9.149865533357572,0.03637030143666225
1731474156.0204434,-0.24069371819496155,-0.35270124673843384,-10.206377029418945,0.11920725897920448,0.008799368426375052,-0.001247339489356531,1.2280471084958209,9.145496179427987,0.0315620450714127
1731474156.0704284,-0.24069371819496155,-0.35270124673843384,-10.206377029418945,0.11919916643604536,0.0014110106386141987,-0.0008723549344485377,1.2267942998959205,9.141105015487891,0.026713243451002303
1731474156.0704284,-0.6625279188156128,-0.9579870700836182,-10.202309608459473,0.11871356720588318,-0.0060879460020868414,-0.0004931213450028877,1.226785527399127,9.141070105411053,0.026674671513366263
1731474156.1203353,-0.6625279188156128,-0.9579870700836182,-10.202309608459473,0.11775056087389395,-0.01368065075139421,-0.00011506758701341463,1.2258365720464026,9.136696783293807,0.0218610967063106
1731474156.1203353,-0.7205891013145447,-0.26662561297416687,-10.021163940429688,0.11631776237346356,-0.02133017834002286,0.00025396550741095503,1.2258293767202941,9.136657446725717,0.021817966969431526
1731474156.170457,-0.7205891013145447,-0.26662561297416687,-10.021163940429688,0.11443109078838459,-0.02898318338434201,0.0006048511511563326,1.2257315008250893,9.13221776313128,0.021272268361370698
1731474156.170457,-0.539745032787323,-0.3440362215042114,-10.02015209197998,0.11211413999427197,-0.036576035974441215,0.0009284687316874701,1.22572545818628,9.132179566832267,0.02123121326235252
1731474156.220292,-0.539745032787323,-0.3440362215042114,-10.02015209197998,0.10939657311500514,-0.044039283650888106,0.0012164794516646188,1.2251559506209588,9.127672378256596,0.016446476476364925
1731474156.220292,-0.7099660634994507,-0.18074804544448853,-9.97559928894043,0.10631234641675337,-0.05129969473205256,0.0014615339715064863,1.2251523936871886,9.127635050924164,0.016407335123072686
1731474156.270222,-0.4648881256580353,-0.01231425255537033,-9.95477294921875,0.10289864698822318,-0.05828219307448412,0.0016574157325626013,1.221686945016538,9.122980137779878,0.015959783062543663
1731474156.320121,-0.4648881256580353,-0.01231425255537033,-9.95477294921875,0.09919506789178703,-0.06491252607904294,0.0017992866334048123,1.2202528650944815,9.118086646080306,0.011092481292435175
1731474156.320121,-0.6345815658569336,0.11943099647760391,-9.89240837097168,0.09524242878666953,-0.07111976419632543,0.0018838948627174776,1.2202407383778147,9.118040436223874,0.011047314182929457
1731474156.370157,-0.4727819561958313,0.4156271815299988,-9.890789985656738,0.09108203365124733,-0.07683830746966763,0.0019097467716697749,1.2185010151521023,9.113117744579402,0.01075720785077047
1731474156.419992,-0.4746846556663513,0.4383656084537506,-9.960733413696289,0.08675539211256866,-0.08201002366537798,0.001877190521671472,1.217058830387921,9.107927575612601,0.005990990119442898
1731474156.4700122,-0.4082532823085785,0.4868992269039154,-9.922954559326172,0.08230352861720928,-0.08658626283721925,0.0017881828972517427,1.2158207775349357,9.102502926701709,0.00120713895598936
1731474156.5199811,-0.42095184326171875,0.46034306287765503,-9.94420051574707,0.07776604909443709,-0.09052874913902038,0.0016458576332017774,1.2161969234745587,9.096846940932865,0.0009714730211180395
1731474156.5699735,-0.3570947051048279,0.568742036819458,-9.979055404663086,0.07318048202284921,-0.09380939855952279,0.001454188368595744,1.2155953534085018,9.090973986554332,-0.0037845176206067373
1731474156.6198468,-0.3570947051048279,0.568742036819458,-9.979055404663086,0.06858183361062561,-0.09640989633288435,0.0012176779052001357,1.2138758927574351,9.084860787899958,-0.003913992594712399
1731474156.6198468,-0.35170891880989075,0.5658196806907654,-10.006991386413574,0.06400225565792035,-0.09832132891496707,0.0009409975806438076,1.213869002463261,9.084814306099787,-0.003949304774414157
1731474156.6698449,-0.35522300004959106,0.5524300336837769,-9.985919952392578,0.0594709081718819,-0.0995435860136262,0.0006287066534090861,1.2130234261170953,9.078485382625722,-0.00866230246692882
1731474156.7197773,-0.3219449818134308,0.549161434173584,-9.999293327331543,0.05501399199294565,-0.10008444373778225,0.0002851210179074052,1.2123187358350096,9.07190079933081,-0.013380200454766027
1731474156.7707493,-0.3219449818134308,0.549161434173584,-9.999293327331543,0.05065477969796172,-0.09995857115913458,-8.57139788166394e-05,1.2117334915610125,9.064908406343463,-0.018206024500034813
1731474156.7707493,-0.28970977663993835,0.5290778875350952,-9.999696731567383,0.04641358181152885,-0.0991866127411285,-0.0004800322476239729,1.2117290076459524,9.064846858631205,-0.01824772227511778
1731474156.8206139,-0.3143123984336853,0.5126650929450989,-10.002466201782227,0.04230773091170309,-0.09779431018590781,-0.0008943640608608905,1.211778057509727,9.05765049681654,-0.018225038227511155
1731474156.870688,-0.2599155902862549,0.5240530371665955,-9.9974946975708,0.038351638274634926,-0.09581164007440375,-0.001325535314299279,1.2102124742833182,9.050271872260332,-0.018132007929004827
1731474156.9205627,-0.2969132363796234,0.4891177713871002,-9.995007514953613,0.03455688547854621,-0.09327203056624112,-0.0017706415242880879,1.2095225392114008,9.042748570557688,-0.022796798634959616
1731474156.9705002,-0.2292598932981491,0.49995648860931396,-10.004132270812988,0.030932311260854245,-0.09021166301954917,-0.0022270104821995092,1.2081263871765657,9.035000774551822,-0.022567599238480198
1731474157.0204966,-0.2292598932981491,0.49995648860931396,-10.004132270812988,0.027484055421528448,-0.08666884061244937,-0.002692190375506702,1.2073055057198228,9.026778894933544,-0.027373899423447423
1731474157.0204966,-0.2579132318496704,0.4924958348274231,-10.007848739624023,0.024215584915990407,-0.08268347103493041,-0.0031639734550050393,1.207299298893917,9.02671296204567,-0.027411942809577185
1731474157.0704823,-0.24598565697669983,0.4703907370567322,-10.037233352661133,0.02112788105605295,-0.07829661562713922,-0.0036404455427191413,1.2065772715787302,9.018681200291462,-0.031996644682717734
1731474157.1203732,-0.2604096531867981,0.4892358183860779,-9.96359920501709,0.018219806760734165,-0.07355002073702244,-0.004120022892872288,1.2058886145433443,9.010301428006706,-0.036683701936121305
1731474157.1703653,-0.2604096531867981,0.4892358183860779,-9.96359920501709,0.015488468714175481,-0.06848570730273229,-0.0046013197892805936,1.206565927559091,9.001629389636957,-0.03635586962548429
1731474157.1703653,-0.2412901222705841,0.49372807145118713,-10.008519172668457,0.012929498072413524,-0.06314569704766815,-0.005082879795775857,1.2065610308645383,9.001538017758207,-0.03640540798065997
1731474157.2202988,-0.25269076228141785,0.49582356214523315,-9.967084884643555,0.010537245825050792,-0.057571805998033285,-0.00556308303702914,1.2047052136883913,8.992784245891304,-0.03600407262501407
1731474157.2702527,-0.29472479224205017,0.49913355708122253,-9.967273712158203,0.008304970978091526,-0.051805436497076876,-0.006040211749805398,1.2033973712915138,8.983900548677775,-0.04071005862173558
1731474157.3201697,-0.29472479224205017,0.49913355708122253,-9.967273712158203,0.006225170303785069,-0.045887372036502935,-0.006512419632737349,1.202105352434756,8.974879831790291,-0.045439826591044584
1731474157.3201697,-0.2970694601535797,0.489962100982666,-10.00029182434082,0.00428997827448409,-0.03985757089268163,-0.0069776919271094,1.2020944142093095,8.97480250774827,-0.04548018184344857
1731474157.370167,-0.34497785568237305,0.48454904556274414,-9.985206604003906,0.002491473613439227,-0.03375493410869372,-0.007433961292147859,1.2008221284662028,8.965744642958427,-0.05019480082146084
1731474157.4200604,-0.34497785568237305,0.48454904556274414,-9.985206604003906,0.000821952556329969,-0.027617057920953453,-0.007879263495178727,1.2040411893195682,8.956508920562579,-0.049682286576028335
1731474157.4200604,-0.33604687452316284,0.4833928644657135,-9.957088470458984,-0.0007258031852536612,-0.02148002082774865,-0.008311757702096561,1.2040247833551674,8.956127787051594,-0.04987868191541266
1731474157.4700716,-0.33604687452316284,0.4833928644657135,-9.957088470458984,-0.002158418955076592,-0.015378231594491254,-0.008729605773201306,1.2036397847564597,8.947223619975047,-0.05446772761258432
1731474157.4700716,-0.3997398614883423,0.48361581563949585,-10.031452178955078,-0.0034819310069190484,-0.00934432091244169,-0.00913089837153372,1.2036363084899468,8.94714358577841,-0.05450898450411238
1731474157.5199513,-0.3997398614883423,0.48361581563949585,-10.031452178955078,-0.004701650284751518,-0.0034090585707491562,-0.009513859002857327,1.2035559380791765,8.937624149648824,-0.05404589218312603
1731474157.5199513,-0.34380197525024414,0.5006750226020813,-9.992836952209473,-0.005821965758607004,0.002398694771564655,-0.00987719156856914,1.2035525569831926,8.937548355972233,-0.054084963520293565
1731474157.570007,-0.40116724371910095,0.47793707251548767,-9.987176895141602,-0.0068463932655805654,0.008051997823493142,-0.010220152956470253,1.2031436297597788,8.928571439495999,-0.05872942188010363
1731474157.6199002,-0.3695700168609619,0.49243950843811035,-9.979872703552246,-0.00777777283994594,0.013525850202513645,-0.01054231700120879,1.2036621218486876,8.919070993619256,-0.05822835432262622
1731474157.6698487,-0.41193339228630066,0.5345649719238281,-9.984530448913574,-0.008618344769949896,0.01879719910169638,-0.010843347795153755,1.203492246614676,8.910020050587127,-0.06297687178577707
1731474157.7197323,-0.41193339228630066,0.5345649719238281,-9.984530448913574,-0.009369716307681191,0.023844803190573517,-0.011122920420677206,1.2036494537281777,8.900776114376864,-0.06235138848762041
1731474157.7197323,-0.39578092098236084,0.5249258279800415,-9.9964017868042,-0.010032827419725023,0.028649023816916076,-0.011380736164918026,1.2036486324392055,8.900706089345661,-0.06238861871753286
1731474157.7697887,-0.4148857295513153,0.5152393579483032,-10.009360313415527,-0.010607999412836418,0.03319177238329218,-0.011616595644979931,1.2035288875706365,8.891662296878788,-0.06723331356354435
1731474157.8206913,-0.4148857295513153,0.5152393579483032,-10.009360313415527,-0.011095048106756392,0.0374566312051091,-0.011830510355138902,1.2041420549748676,8.882022399886827,-0.0668662200318347
1731474157.8206913,-0.38384121656417847,0.5252273082733154,-9.947656631469727,-0.011493389974535884,0.04142897832415963,-0.012022737399962694,1.2041426423030879,8.88195420701652,-0.06690351321117988
1731474157.8705866,-0.37471675872802734,0.512197732925415,-9.963825225830078,-0.011802221339222865,0.04509602576345066,-0.012193599071915967,1.204202615163803,8.873480649984096,-0.07157950596303674
1731474157.9205194,-0.39332878589630127,0.548274040222168,-9.980907440185547,-0.012020775500412749,0.04844679157391693,-0.012343231535791341,1.2042368574679108,8.864571379179072,-0.07659073983185262
1731474157.970504,-0.3940364420413971,0.5331264734268188,-9.951216697692871,-0.01214846918883104,0.051472014181359396,-0.012471521716326598,1.2042404153306834,8.856027765775186,-0.08149600596826857
1731474158.0204077,-0.3940364420413971,0.5331264734268188,-9.951216697692871,-0.012184890833785137,0.054164048424185075,-0.01257814507185484,1.204213334951799,8.847390163920524,-0.08656349915061724
1731474158.0204077,-0.3720216453075409,0.5273372530937195,-10.012054443359375,-0.012129789542423844,0.05651683807610392,-0.012662583184114498,1.204212948910715,8.84731290781876,-0.08660934016375733
1731474158.070431,-0.3720216453075409,0.5273372530937195,-10.012054443359375,-0.011983167841968536,0.05852595558156656,-0.012724298425175432,1.2044822799595958,8.838965803228684,-0.08570923052177654
1731474158.070431,-0.36154696345329285,0.5203379988670349,-9.981355667114258,-0.011745426217645795,0.060188631812602186,-0.012763029468780976,1.2044825089875137,8.83889745642292,-0.08575056618588896
1731474158.1203873,-0.33269548416137695,0.5211107134819031,-9.980409622192383,-0.011417497241759528,0.06150376195241337,-0.012778872934505362,1.2044960015938924,8.830502483238668,-0.09089301590116866
1731474158.170318,-0.3207956552505493,0.5135068893432617,-9.99845027923584,-0.011001001629103153,0.062471897657881095,-0.012772143105974338,1.2051286260781147,8.822425445148996,-0.08995428618638734
1731474158.2202368,-0.30687013268470764,0.5224953889846802,-9.994780540466309,-0.01049843046746897,0.06309521823011714,-0.012743294527829626,1.2058341674227948,8.814102003964537,-0.08927119383360178
1731474158.2701979,-0.3119085729122162,0.5182780623435974,-9.960308074951172,-0.00991326338772065,0.06337746583629797,-0.012692930677191044,1.206119718161108,8.806549255394845,-0.09422458818714785
1731474158.3202002,-0.3232634663581848,0.5220323204994202,-9.994431495666504,-0.009249948679314309,0.06332384827284285,-0.012621738331993749,1.2063969255342846,8.798732320778095,-0.09948968644664778
1731474158.3702445,-0.28144803643226624,0.5371149778366089,-9.997028350830078,-0.008513788081487056,0.06294092072094278,-0.012530421949023072,1.2066603145384047,8.791205512699785,-0.09850449781285488
1731474158.4200966,-0.28144803643226624,0.5371149778366089,-9.997028350830078,-0.007710879755863148,0.062236432389208333,-0.012419771590864662,1.2069019844813038,8.783910151283521,-0.10366652695843134
1731474158.4200966,-0.31811031699180603,0.5085797905921936,-9.998974800109863,-0.006848121309229783,0.06121918398710166,-0.012290760656983684,1.2069080941140926,8.783720016681032,-0.10380295569031585
1731474158.4701083,-0.2963423728942871,0.5248386859893799,-9.973089218139648,-0.005933080225013437,0.05989898912858469,-0.012144542602821861,1.2079149489948262,8.77646715885152,-0.10277310031904666
1731474158.5199509,-0.2880183458328247,0.5108221173286438,-10.006240844726562,-0.004973769890093691,0.05828669199565539,-0.011982371397084655,1.2084200829494263,8.769469604357113,-0.10797198827479587
1731474158.5699735,-0.2980497181415558,0.49068212509155273,-9.973512649536133,-0.003978530944055161,0.0563941566313466,-0.011805539910057615,1.2089172871691822,8.762570265570327,-0.1132343035876474
1731474158.6198955,-0.2980497181415558,0.49068212509155273,-9.973512649536133,-0.002955969902427961,0.054234274364052,-0.011615339241439187,1.2094062453310521,8.755803468545867,-0.11853106647831797
1731474158.6198955,-0.31672346591949463,0.5230117440223694,-9.992152214050293,-0.0019148237255281648,0.051820954110020884,-0.011412990056128282,1.2094114005018008,8.75573230672809,-0.11858749893925048
1731474158.6698563,-0.3087119460105896,0.5085582733154297,-10.039146423339844,-0.0008637713805062095,0.04916896380795381,-0.011199669812472298,1.2089872397758128,8.748923851721838,-0.11748514960183189
1731474158.719787,-0.37044280767440796,0.5171928405761719,-9.983965873718262,0.00018877814094922496,0.04629368648696739,-0.010976704880048916,1.2092717895700338,8.742412498402542,-0.12280746862709571
1731474158.769825,-0.35450124740600586,0.50801682472229,-9.950888633728027,0.0012349624133528138,0.043210950993598875,-0.010745633022648972,1.2106378598868612,8.735733748823117,-0.12174108392454061
1731474158.8206687,-0.35450124740600586,0.50801682472229,-9.950888633728027,0.0022677303474858534,0.03993694708267081,-0.010507930067638175,1.2113180078038304,8.729363865784745,-0.12715553811075272
1731474158.8206687,-0.3457523584365845,0.5308553576469421,-10.02107048034668,0.003280918705330805,0.03648814386839405,-0.010264737313658954,1.2113236099137303,8.729312048322791,-0.12720005416963387
1731474158.8708599,-0.3598632216453552,0.5240755081176758,-9.973990440368652,0.004269168679650591,0.03288114847263638,-0.010016946516361832,1.2120037317001244,8.7231123585741,-0.13257444897031878
1731474158.9206185,-0.37419551610946655,0.5006221532821655,-9.971975326538086,0.005227871528026294,0.0291325583243491,-0.009765410716418768,1.2126902034231484,8.71703835805133,-0.13793077333764564
1731474158.970634,-0.3892771303653717,0.5268489718437195,-10.022506713867188,0.006153224037324529,0.025258912931140673,-0.009510982138050373,1.212222883361975,8.710621977007168,-0.1367388092983861
1731474159.0204418,-0.42074161767959595,0.5047159194946289,-9.953629493713379,0.007042361415406977,0.021276686522785065,-0.009254510030633307,1.212698460643134,8.704655980081974,-0.14213057016515887
1731474159.0705018,-0.4061630666255951,0.5313308238983154,-9.978107452392578,0.00789350374780951,0.017202223269279844,-0.00899683301418601,1.2145617680111738,8.698314156144413,-0.14089227123463965
1731474159.1203768,-0.40526318550109863,0.5140536427497864,-10.022367477416992,0.008706006720936646,0.013051637056218857,-0.008738711145998727,1.2162204052178003,8.692052438533844,-0.13960516676978196
1731474159.170345,-0.3965300917625427,0.502784788608551,-9.966509819030762,0.009480245277388184,0.008840739644488307,-0.008480871267292234,1.2173265540645286,8.68614828153484,-0.14505433556252562
1731474159.2203305,-0.38581791520118713,0.508468508720398,-9.955740928649902,0.010217395909872291,0.004585043065863258,-0.008224061021439225,1.2184531379441075,8.68028262989322,-0.15050419239250706
1731474159.2702694,-0.3934820294380188,0.535594642162323,-9.982986450195312,0.010919217008564089,0.00029975825178135056,-0.007968905437988635,1.2196097240383852,8.674404252307598,-0.15599174586518935
1731474159.3201983,-0.35386738181114197,0.5342658758163452,-9.970437049865723,0.01158785192866935,-0.004000335967880962,-0.007715788228266556,1.2186421629535915,8.668107185243633,-0.15454916221623444
1731474159.3701587,-0.3599652647972107,0.5136325359344482,-9.988588333129883,0.012225612507511672,-0.008301069500805646,-0.0074649153208948445,1.2194093282116905,8.662203764953532,-0.1600507930318968
1731474159.4200087,-0.32312655448913574,0.5253065824508667,-10.006949424743652,0.012834727517524123,-0.012588930293048852,-0.007216443907124853,1.2209084290012548,8.655693404808527,-0.15867795064088647
1731474159.4701254,-0.32851725816726685,0.5242536067962646,-9.958294868469238,0.013417105990935197,-0.016851023853338053,-0.006970589589055758,1.2219785668225307,8.649839381104817,-0.16408242658062439
1731474159.5200732,-0.2989529073238373,0.5134327411651611,-9.978981018066406,0.013974150242585005,-0.02107506401026704,-0.006727613592395378,1.2231040495680694,8.643820957354373,-0.16961227246519606
1731474159.5699933,-0.2976040542125702,0.528435468673706,-10.035711288452148,0.014506617043730612,-0.02524938365490586,-0.006487759822667035,1.2242607281632671,8.637767313205924,-0.1751380453876083
1731474159.6201284,-0.2584826648235321,0.5214108228683472,-9.999695777893066,0.015014499783655585,-0.029362947512724134,-0.006251380834602724,1.2232294467546128,1.5837222746768687,-0.1734903634814023
1731474159.6698892,-0.29298895597457886,0.5123870372772217,-9.98195743560791,0.015496932920878384,-0.0334053743368908,-0.006019109553878719,1.2240118280777794,1.5836751986252848,-0.1790017868491666
1731474159.7198591,-0.2805013358592987,0.5189118385314941,-9.997715950012207,0.015952210956725988,-0.03736692695333953,-0.005791788803738244,1.2248424320196283,1.5835390500959026,-0.18459059244085563
1731474159.7697053,-0.25231388211250305,0.526025652885437,-9.983038902282715,0.016377919631630145,-0.0412384925111892,-0.005570299027510037,1.2256564587689742,1.5733617768005261,-0.18273372410785627
1731474159.8196115,-0.2625800669193268,0.5331252813339233,-9.989421844482422,0.016771013146264863,-0.04501162370773232,-0.0053554835211766065,1.2265254495045297,1.5761067785225515,-0.18843151840269143
1731474159.870672,-0.25197145342826843,0.5226522088050842,-10.016423225402832,0.017127821663803403,-0.048678613457687155,-0.005148151797737792,1.2274154521251437,1.5786658431824212,-0.19400091858641597
1731474159.9206076,-0.2829984724521637,0.5082409381866455,-9.991646766662598,0.017444138948399114,-0.0522325046116544,-0.004949144097412976,1.22835123468408,1.581106764186754,-0.1995996342840765
1731474159.9705005,-0.28480449318885803,0.5353925824165344,-9.947487831115723,0.01771544121631824,-0.05566702372328691,-0.004759341138795187,1.2282134050524298,1.5841633126327246,-0.19754707032114757
1731474160.0204332,-0.2747306227684021,0.5366898775100708,-10.02096939086914,0.017937148270850172,-0.05897656367368261,-0.004579521188497178,1.2308928743012488,1.597584783291972,-0.19609722352838735
1731474160.0705328,-0.2890772521495819,0.5572153329849243,-9.990310668945312,0.018104801757243823,-0.06215628438699872,-0.0044102965964838165,1.232070700073584,1.6028895486492356,-0.2011086192939875
1731474160.120394,-0.30816128849983215,0.5108066201210022,-9.969518661499023,0.018214178690664554,-0.0652022090996868,-0.00425221404589182,1.2334256723705967,1.608647598772393,-0.2067010558919215
1731474160.1703773,-0.3075338900089264,0.5318730473518372,-9.989680290222168,0.018261450250467885,-0.06811116796884488,-0.0041057561619103735,1.2348271243444129,1.614243168959239,-0.2123077911697198
1731474160.220353,-0.3376113772392273,0.514896035194397,-9.994827270507812,0.018243374246990303,-0.07088063760757297,-0.003971261514813017,1.2337221190851764,1.5990243888404787,-0.2100604006831416
1731474160.2703774,-0.34983736276626587,0.5286862254142761,-9.962014198303223,0.01815748117062444,-0.07350863194490564,-0.0038489327174437964,1.2346246712252078,1.6001835115650451,-0.21567282201010177
1731474160.3201654,-0.3544542193412781,0.5517596006393433,-9.99022388458252,0.018002253053693254,-0.07599370247742512,-0.0037388381621120863,1.236906447659765,1.6011457472359165,-0.21329006160701927
1731474160.370143,-0.3544542193412781,0.5517596006393433,-9.99022388458252,0.01777723049237701,-0.0783350372551813,-0.0036408870685155597,1.2391669637866662,1.601924399031673,-0.21096090500214523
1731474160.370143,-0.3516252934932709,0.5374683141708374,-9.990341186523438,0.017482995164760106,-0.08053257036759438,-0.0035548878932772404,1.239176752305286,1.6019287004694251,-0.21099613025808903
1731474160.4202018,-0.35329899191856384,0.519231379032135,-9.9598970413208,0.01712106862422877,-0.08258694961585827,-0.0034806051484516953,1.2407468429864779,1.6025054796583342,-0.21657327402563864
1731474160.4702244,-0.3345542550086975,0.5284436941146851,-9.966591835021973,0.016693774258860858,-0.08449936095751262,-0.0034176857264008823,1.242356644973395,1.6028732907144476,-0.22215047753233508
1731474160.5200076,-0.3611922562122345,0.5078816413879395,-10.020652770996094,0.0162040873633511,-0.08627135289298812,-0.003365584206446034,1.2440084443334098,1.6030286186999165,-0.22773966198569776
1731474160.570008,-0.3611922562122345,0.5078816413879395,-10.020652770996094,0.01565554190415842,-0.08790471658744659,-0.003323714109768868,1.2418421247384945,1.6029679537570805,-0.2251662728035925
1731474160.570008,-0.3498118817806244,0.5143244862556458,-10.008946418762207,0.015052212767811024,-0.08940139643386236,-0.00329173349400971,1.2418498164387108,1.6029664847590972,-0.22521389551909046
1731474160.6198819,-0.33152875304222107,0.5191381573677063,-9.96742057800293,0.014398646597044467,-0.09076346332757068,-0.0032696276843798746,1.2427632748932707,1.6026826719460938,-0.23076275892507508
1731474160.6699362,-0.3189314603805542,0.520063042640686,-9.994635581970215,0.013699659437934567,-0.09199316371128534,-0.0032575151225303547,1.2448175662966157,1.6021715123266518,-0.22812468286214752
1731474160.7198498,-0.31146132946014404,0.49782794713974,-9.991044998168945,0.012960082602066537,-0.0930929577173806,-0.003255448763649685,1.2462739800792597,1.601424661391142,-0.23371882439488087
1731474160.7696915,-0.27925825119018555,0.5191643238067627,-9.976333618164062,0.012184536419692377,-0.09406548425580517,-0.0032633803531403435,1.2476191130053595,1.6004613534196794,-0.2309439624303646
1731474160.8196826,-0.26903486251831055,0.5131709575653076,-9.989280700683594,0.011377211370690723,-0.09491352125509334,-0.003281170296999375,1.249104855098701,1.5992466397734408,-0.2365233847918146
1731474160.8696597,-0.2614664137363434,0.5186227560043335,-10.001703262329102,0.010541657171059184,-0.09564001062942784,-0.0033085871148343855,1.2498970564494591,1.597800928021018,-0.2337366433391283
1731474160.9207711,-0.2614664137363434,0.5186227560043335,-10.001703262329102,0.00968066046086334,-0.09624810219338384,-0.0033453764991387396,1.2511198594568544,1.5960613289983296,-0.23944769905519844
1731474160.9207711,-0.2740640342235565,0.5009732246398926,-9.956851959228516,0.00879625861764855,-0.09674115544379178,-0.0033913218456901565,1.2511301883775894,1.5960457179046077,-0.23949547494055715
1731474160.9705622,-0.274027019739151,0.5083372592926025,-10.000702857971191,0.007889863730722174,-0.09712268445247996,-0.003446169655510901,1.2527178008870379,1.5941434128181697,-0.2365519416106814
1731474161.02048,-0.274027019739151,0.5083372592926025,-10.000702857971191,0.006962427003063366,-0.0973962876063214,-0.0035095591862299284,1.2552676766874102,1.5919684250574193,-0.2337196051799702
1731474161.02048,-0.2422710508108139,0.5382094979286194,-10.02502155303955,0.00601453915879268,-0.09756565330742825,-0.0035811342300233703,1.2552833397330871,1.5919484311663612,-0.2337676252146676
1731474161.070523,-0.2966766655445099,0.5066756010055542,-9.966814994812012,0.005046449363519792,-0.09763464959220453,-0.0036606933467634283,1.2570725014211437,1.5895522256467725,-0.23923828381910356
1731474161.1204453,-0.24885393679141998,0.5543649792671204,-9.974495887756348,0.004058120964852427,-0.09760740472324533,-0.003748131278057617,1.258897082440471,1.5868804798796567,-0.24479181153098353
1731474161.1704516,-0.2737577557563782,0.5325854420661926,-10.017370223999023,0.0030493309062253333,-0.09748836340883474,-0.003843259545468429,1.2607196683973665,1.5839820455014662,-0.25032179758088396
1731474161.2202854,-0.2737577557563782,0.5325854420661926,-10.017370223999023,0.0020197257935666317,-0.0972823325328147,-0.003945823641016257,1.257610311565135,1.5808320182209787,-0.24725327451643933
1731474161.2202854,-0.2906055152416229,0.5151991844177246,-9.989680290222168,0.0009688992670234023,-0.09699443171489762,-0.004055691862933988,1.2576190749468503,1.5808007044709578,-0.24730623414116978
1731474161.2703397,-0.3137006163597107,0.5183002948760986,-9.986680030822754,-0.00010343972699053481,-0.09662994060224239,-0.004172891252725623,1.2585241812685375,1.5774472606962848,-0.25278187473848074
1731474161.3202085,-0.3137006163597107,0.5183002948760986,-9.986680030822754,-0.0011972566998005372,-0.09619415834151306,-0.004297455730325708,1.2598180682612001,1.573821700119532,-0.24964254427954902
1731474161.3202085,-0.3133438229560852,0.5345419645309448,-10.003192901611328,-0.00231202835455437,-0.09569235300707832,-0.004429317700408067,1.2598281318695201,1.5737888095947452,-0.249691003110854
1731474161.370244,-0.3133438229560852,0.5345419645309448,-10.003192901611328,-0.003446697855965956,-0.09512980201131241,-0.00456834177865809,1.2619469411712303,1.5699741907294438,-0.24650330639770338
1731474161.370244,-0.3098906874656677,0.528404951095581,-10.000290870666504,-0.004599724811007356,-0.09451185501083625,-0.004714414240714673,1.2619573393404533,1.5699411088825623,-0.24654903531560415
1731474161.4202275,-0.3098906874656677,0.528404951095581,-10.000290870666504,-0.0057691635991029425,-0.09384393557114443,-0.00486748382703747,1.2632027405451587,1.5658380783820278,-0.2520639380360213
1731474161.4202275,-0.33454248309135437,0.49304723739624023,-9.936529159545898,-0.006952718749348128,-0.09313145266201246,-0.005027488525920557,1.2632128413331092,1.56580364538347,-0.2521089782799389
1731474161.470167,-0.3619610667228699,0.5299280881881714,-10.047443389892578,-0.008147699702991017,-0.09237965748585189,-0.005194211677847758,1.2644256519794888,1.5615222118367724,-0.2575677715547025
1731474161.5199888,-0.36124423146247864,0.5293492674827576,-9.995766639709473,-0.009350861757575327,-0.09159357330077401,-0.005367307556212829,1.2656311812897696,1.5569628206814463,-0.26310419567234855
1731474161.570011,-0.36124423146247864,0.5293492674827576,-9.995766639709473,-0.010558273455245095,-0.0907780699645026,-0.00554650195271567,1.2642365056678526,1.5521858592283813,-0.2597521554064179
1731474161.570011,-0.3769206404685974,0.5511707663536072,-9.91990852355957,-0.011765317540113706,-0.08993797423011479,-0.005731573127952677,1.2642427459538579,1.5521418876855908,-0.2598017812971462
1731474161.6198852,-0.3783719837665558,0.543317973613739,-9.976374626159668,-0.012966753997527069,-0.08907814656025896,-0.005922032502806489,1.2649178020417526,1.547161729694142,-0.265305131614193
1731474161.6698837,-0.24439649283885956,0.7247949242591858,-9.980547904968262,-0.01415689523537309,-0.08820369287139353,-0.006116916426613108,1.265563066433657,1.5419341190584253,-0.2708543025890499
1731474161.7198694,-0.24439649283885956,0.7247949242591858,-9.980547904968262,-0.015330149688916623,-0.08732057482431152,-0.00631491120592257,1.266368478676123,1.5364978179464277,-0.2673688744588652
1731474161.7198694,0.5133981704711914,1.6614665985107422,-9.919093132019043,-0.016482451920594606,-0.08643723694224631,-0.006514519454339519,1.2663773904341242,1.5364335018584117,-0.2674330758608971
1731474161.769799,0.2999531030654907,1.1952157020568848,-10.016883850097656,-0.01761408836961769,-0.08556773355622177,-0.006714034999607899,1.2671180470502061,1.530826252361766,-0.27293334873113234
1731474161.8197489,0.4892212450504303,1.505788803100586,-9.938413619995117,-0.018732639125549403,-0.08473452908470645,-0.006911545791537238,1.2678225014043552,1.5249407450492252,-0.2785163649758488
1731474161.8706505,-0.516516387462616,-0.022402653470635414,-9.965340614318848,-0.019853122319371364,-0.08396753857508418,-0.007105035101929019,1.268369020193266,1.518747846864192,-0.2750118656630558
1731474161.9206002,-0.516516387462616,-0.022402653470635414,-9.965340614318848,-0.020993987751826107,-0.08329795674614714,-0.007292391395935238,1.2701224159314635,1.5124898616756755,-0.2714176661049652
1731474161.9206002,-0.9550522565841675,-0.21024510264396667,-10.16689682006836,-0.02217101762579291,-0.08274992865335636,-0.00747158129535809,1.2701312091559753,1.512428126690791,-0.27147132386132494
1731474161.9705899,-0.7593311667442322,-0.04050649330019951,-10.03207015991211,-0.023392656308969164,-0.08233552556959664,-0.007641294111980438,1.2710064555864002,1.5059789982222938,-0.2769977611927696
1731474162.0203743,-0.5015047788619995,0.2697582244873047,-10.028075218200684,-0.024658642881259782,-0.08205485814015716,-0.007801474008402538,1.2723616557047455,1.4993636124890646,-0.2733237619957325
1731474162.0706327,-0.6376875638961792,0.10086476802825928,-9.939265251159668,-0.025961571894127143,-0.08189901570894678,-0.007953037284153607,1.2733529909148764,1.4923511886903653,-0.2789909061112662
1731474162.1203902,-0.4812456965446472,0.29825708270072937,-9.977543830871582,-0.027289375376358428,-0.08185315431001311,-0.008097107095588557,1.274263560630526,1.4852328222135727,-0.2845979213515963
1731474162.1703827,-0.5795964598655701,0.24074093997478485,-9.958183288574219,-0.028626983958542154,-0.08189852666812533,-0.008234476712790982,1.2751013827535622,1.4779398642681232,-0.2902031008824052
1731474162.2203078,-0.508014976978302,0.46040502190589905,-9.957934379577637,-0.029957235734549795,-0.08201397347445075,-0.00836546557254211,1.2736004767055555,1.4704382988622016,-0.2863886674230088
1731474162.2702415,-0.508804440498352,0.4490143060684204,-9.982624053955078,-0.0312615527879515,-0.08217752969140078,-0.008489963694994145,1.2739680150919894,1.462721874704812,-0.2920201682510601
1731474162.320172,-0.48865872621536255,0.4541880786418915,-9.978496551513672,-0.03252056566412943,-0.08236790120486437,-0.008607548541950038,1.274256737010008,1.4547917843488076,-0.29767963278440923
1731474162.370213,-0.5410983562469482,0.4174778163433075,-9.919493675231934,-0.03371466649957962,-0.08256526518268485,-0.00871758678363984,1.2747533435341418,1.4467059113677598,-0.2937337239463127
1731474162.4201007,-0.47556886076927185,0.47924375534057617,-9.938119888305664,-0.034824344216498986,-0.08275138872796928,-0.008819147666957346,1.2750094048399132,1.4383242423765565,-0.2994363029730403
1731474162.47022,-0.47460830211639404,0.529241681098938,-10.030539512634277,-0.03583046524865436,-0.08290969055323638,-0.008910902084969216,1.2751763568220111,1.429761840694509,-0.3051431363964777
1731474162.5199964,-0.4850676357746124,0.5224998593330383,-9.974165916442871,-0.036714671408357755,-0.08302558530528645,-0.008991369582994464,1.275855499429267,1.4210899052798234,-0.30107029235577076
1731474162.5699408,-0.48955443501472473,0.4771479666233063,-9.996931076049805,-0.03745969554799547,-0.08308677488052607,-0.0090592946736928,1.2760914915592745,1.4121485058786936,-0.3067720560837073
1731474162.6199024,-0.4665283262729645,0.4885329604148865,-9.979948997497559,-0.03804948680969808,-0.08308312835311456,-0.009113745878818223,1.2770423882342627,1.40303810908691,-0.30269452249568407
1731474162.669962,-0.46965348720550537,0.5105751752853394,-9.998185157775879,-0.038469322267850985,-0.08300635148287205,-0.009154043549546863,1.2778074799565948,1.393804890430258,-0.2986275370068163
1731474162.7198188,-0.4509274959564209,0.5246589779853821,-10.004263877868652,-0.038705981754590765,-0.08284983715195117,-0.009179748269208601,1.2782226152795675,1.3841998230836223,-0.3043694980841806
1731474162.7698064,-0.4414564073085785,0.5083518624305725,-9.974061965942383,-0.03874792180429624,-0.08260869374563945,-0.0091906903872616,1.2785402096209284,1.374409112987536,-0.3101219428052108
1731474162.8197534,-0.41812509298324585,0.5166147947311401,-9.975350379943848,-0.038585440167883574,-0.0822797117193517,-0.009186915342039763,1.2781971911613497,1.3645477965055381,-0.3059493027305744
1731474162.8696876,-0.38708367943763733,0.5227304100990295,-9.974908828735352,-0.03821086355457898,-0.08186122146797184,-0.009168538823681143,1.2782388671332157,1.3543459248001155,-0.311720510874322
1731474162.9196005,-0.36882284283638,0.5231413841247559,-9.979649543762207,-0.03761876716649325,-0.08135295953533205,-0.0091356500484896,1.2782837180278286,1.3440984972309074,-0.3075209345015683
1731474162.970591,-0.3273898661136627,0.5379171371459961,-10.020581245422363,-0.03680619794600821,-0.08075598129513731,-0.00908835255222025,1.2782360230378138,1.333281517423703,-0.31342363840390997
1731474163.0204976,-0.3707225024700165,0.505232036113739,-9.976547241210938,-0.03577281729913005,-0.0800725641030935,-0.009026902519755353,1.2780969546437946,1.3224213991877687,-0.3192615259330025
1731474163.070438,-0.3476724922657013,0.5362069010734558,-9.949875831604004,-0.034520834770164315,-0.07930605183801154,-0.008951746778583302,1.277871879316222,1.3114636444030188,-0.32506783840389464
1731474163.1203568,-0.3835640251636505,0.5246970653533936,-9.991329193115234,-0.03305472314793659,-0.07846069055203127,-0.008863352952665377,1.2781729300262399,1.3004453898561796,-0.3206614054761213
1731474163.1703653,-0.3614824414253235,0.5287243723869324,-9.99287223815918,-0.031380864022960316,-0.07754152351424706,-0.008762094736853734,1.2780123813545328,1.2890628831097075,-0.32650207899802375
1731474163.2202575,-0.377625972032547,0.5039097666740417,-9.963214874267578,-0.029507241801196418,-0.07655427763769462,-0.00864833749846003,1.2780335684649204,1.2777084589214158,-0.3220596443881681
1731474163.2702463,-0.3766827881336212,0.5053097605705261,-10.006082534790039,-0.027443201138134043,-0.07550516461654236,-0.008522509296272296,1.2778420508596504,1.2658904587222477,-0.3279425545918407
1731474163.3201778,-0.37935033440589905,0.516689121723175,-9.970401763916016,-0.025199229381160777,-0.07440066892770142,-0.00838509995851442,1.2777434140402164,1.254105866774959,-0.3234881067481438
1731474163.3702471,-0.40080633759498596,0.4964871406555176,-10.002296447753906,-0.022786731529260466,-0.07324742075674534,-0.008236680833648254,1.2774837914438164,1.2419610560795675,-0.3293622023797202
1731474163.4201424,-0.38300633430480957,0.5083088278770447,-10.015450477600098,-0.02021779925528596,-0.07205212060295071,-0.008077955579913022,1.2771707829570822,1.2296454435443531,-0.3352516455398106
1731474163.470025,-0.443865567445755,0.4779611825942993,-10.014248847961426,-0.017504973270980773,-0.07082143751453503,-0.007909868301966319,1.2775623621789602,1.2173990145654578,-0.33065016111334905
1731474163.5200374,-0.3783123791217804,0.5307408571243286,-9.943964958190918,-0.014661002725710076,-0.06956191097188155,-0.007733649573038241,1.2773814088919326,1.2047090960414448,-0.33656056565744824
1731474163.569949,-0.4149475693702698,0.529784619808197,-9.995633125305176,-0.011698695624285495,-0.06827997566065075,-0.0075506286777335,1.277178125913376,1.1921286119144279,-0.3319283786891071
1731474163.6199312,-0.4006003737449646,0.5575022101402283,-9.984058380126953,-0.008630898014741175,-0.06698213832356317,-0.007362013031969456,1.276701450669021,1.179375295629677,-0.32736167434919883
1731474163.6698508,-0.4396592080593109,0.5405032634735107,-9.956144332885742,-0.005470437889017122,-0.06567515744352437,-0.007168856148251864,1.2764039642714367,1.1662130724362723,-0.333255754415883
1731474163.719805,-0.4295702874660492,0.5543187260627747,-9.9859037399292,-0.002229945030597175,-0.06436609197034382,-0.006972060148909685,1.2760958050436395,1.152842194253162,-0.3391880425881702
1731474163.7697442,-0.42668965458869934,0.5741111636161804,-9.961564064025879,0.0010783320031960786,-0.06306226475858635,-0.006772332126416473,1.27578781533318,1.1393827041049256,-0.34510637145011264
1731474163.8196783,-0.4360142648220062,0.5671287775039673,-9.956544876098633,0.004442600779140506,-0.0617712525901941,-0.0065701674060891216,1.2760027287517866,1.1260229311442194,-0.3403192556499478
1731474163.8696399,-0.4315682351589203,0.557338535785675,-9.982433319091797,0.007851530784600535,-0.06050087406289428,-0.006365835816722597,1.2758248388892892,1.1122222945829507,-0.3462561949571657
1731474163.9195507,-0.42473089694976807,0.5397765636444092,-10.009066581726074,0.011294254614475734,-0.05925905927400795,-0.006159445944473168,1.2756709583379202,1.0982825140002994,-0.35220435783015314
1731474163.9695463,-0.42673540115356445,0.5290296673774719,-9.97465991973877,0.014760344667987431,-0.058053605048940096,-0.005951136861717967,1.2751780058139701,1.0845169895853122,-0.34727796217989804
1731474164.0205133,-0.41879597306251526,0.5388911366462708,-9.974834442138672,0.018239765211693477,-0.05689193074966792,-0.005741184547687922,1.2749493377142245,1.0699558995308405,-0.3533650747841284
1731474164.070491,-0.38974595069885254,0.5596628785133362,-10.005626678466797,0.0217228046032445,-0.05578096084070318,-0.005529943572127556,1.2747766383895993,1.0556219683329817,-0.35931218263986964
1731474164.1204576,-0.38974595069885254,0.5596628785133362,-10.005626678466797,0.025199945712499484,-0.05472717563222125,-0.0053178465601603315,1.274340202439247,7.086282568647113,-0.35425032498843273
1731474164.1204576,-0.38453778624534607,0.5208667516708374,-9.979079246520996,0.028661717368369106,-0.053736684619881,-0.005105502529915995,1.2743379439152194,7.0861359219051945,-0.3543184810955693
1731474164.1704335,-0.3518224358558655,0.524154782295227,-9.996140480041504,0.03209860185984161,-0.052815132872594435,-0.0048936967281632575,1.2732452646841637,7.057236064744451,-0.3492338358799514
