Timestamp,IMU_Linear_Acc_X,IMU_Linear_Acc_Y,IMU_Linear_Acc_Z,Filtered_X,Filtered_Y,Filtered_Z,Pose_X,Pose_Y,Pose_Z
1731474136.3090398,-0.3349152207374573,0.42120271921157837,-9.987563133239746,-1.5773521924990185e-05,-4.1103477379461315e-05,-3.980397350358697e-05,2.444449856120077,8.160494804442314,0.8809999818145255
1731474136.3588867,-0.27416113018989563,0.43637028336524963,-9.988398551940918,-2.1735231927937594e-05,-5.6420254417913886e-05,-5.570566357674735e-05,2.4446429838183827,8.158611927067048,0.8809999815606715
1731474136.408835,-0.46316227316856384,0.3740302622318268,-9.99268913269043,-2.950537718439384e-05,-7.444925948229083e-05,-7.554122701140719e-05,2.444506680566002,8.15946927293857,0.880999981413178
1731474136.4588637,-0.7430660724639893,0.23497319221496582,-10.004386901855469,-3.9102417145455594e-05,-9.471055682545618e-05,-9.983795946610154e-05,2.444362092221354,8.160378731834967,0.8809999812248674
1731474136.5088224,-0.1835746020078659,0.5284029841423035,-9.957141876220703,-4.887168708857388e-05,-0.00011587907699851411,-0.00012919476347311119,2.4437608354507496,8.16416062784577,0.8809999799484731
1731474136.5587819,-0.1835746020078659,0.5284029841423035,-9.957141876220703,-5.56357878122504e-05,-0.00013602235712352896,-0.00016417010048465567,2.4428060284546707,8.170166343327084,0.8809999759277847
1731474136.5587819,-0.32869449257850647,0.37620213627815247,-10.047292709350586,-5.6675411154877555e-05,-0.00015360561179540363,-0.00020514976105959751,2.4427153110988375,8.170736953132932,0.8809999754040756
1731474136.6086814,-0.3212164640426636,0.5026140809059143,-9.98022747039795,-5.094073950115928e-05,-0.0001679475764557746,-0.0002524686968494824,2.4361022885986965,8.22612827099813,0.8809995961682813
1731474136.6586556,-0.3097893297672272,0.373074471950531,-9.942727088928223,-3.857289138593738e-05,-0.00017888226535853107,-0.0003065791022988459,2.4308423215118173,8.266484542899677,0.8809985175055501
1731474136.7085814,-0.3097893297672272,0.373074471950531,-9.942727088928223,-2.0285725230876797e-05,-0.00018635369653448755,-0.00036785011285563724,2.437988306704078,8.21199072475022,0.8809966030637006
1731474136.7085814,-0.36415764689445496,0.45885133743286133,-10.01577377319336,2.8166031440274284e-06,-0.00019009812355397983,-0.0004362742880043932,2.4379812926221525,8.21204453504638,0.8809965907502962
1731474136.7586725,-0.3174515664577484,0.43460458517074585,-9.97563648223877,2.9414648938320262e-05,-0.00018961533346922692,-0.0005115510070414291,2.4366252942290556,8.22244746219256,0.880993568465058
1731474136.808501,-0.37348827719688416,0.42250683903694153,-9.971975326538086,5.818518679156515e-05,-0.00018446101518448458,-0.0005933419918713926,2.4360603423295193,8.196521399106302,0.8809891860703283
1731474136.858473,-0.3333224654197693,0.4560640752315521,-10.020543098449707,8.792506943251349e-05,-0.00017441072036261014,-0.0006813527670524805,2.434454245892898,8.198706517019442,0.880983191066158
1731474136.9084017,-0.3716474175453186,0.4254069924354553,-9.993083000183105,0.00011761980723624275,-0.00015945005781781935,-0.0007753762263087896,2.436937413048907,8.338339466115258,0.8809751321724051
1731474136.9583972,-0.30855798721313477,0.4505065679550171,-9.975634574890137,0.00014645085547072403,-0.0001397741475710837,-0.0008753752916735881,2.4365276788878365,8.375054638277827,0.8809655220627133
1731474137.0092394,-0.33945232629776,0.44332513213157654,-10.006049156188965,0.00017368957952229128,-0.00011578477503644376,-0.000981440534100659,2.4338195421109066,8.34004010165575,0.8809531478548202
1731474137.0592687,-0.30693483352661133,0.45724576711654663,-9.974886894226074,0.00019853637162170167,-8.80990573372908e-05,-0.0010936968735724066,2.432482466453426,8.350168406512887,0.8809383042488821
1731474137.1091747,-0.3404017686843872,0.42924872040748596,-9.97957992553711,0.00022002958564582085,-5.7560721391967685e-05,-0.001212260438921191,2.4342259024172317,8.331027005770267,0.880920646150671
1731474137.159192,-0.33027854561805725,0.4503231644630432,-9.993732452392578,0.00023707362266661784,-2.518775361174305e-05,-0.001337188327085264,2.433869453013197,8.333729941084636,0.8808997351162651
1731474137.2090607,-0.33027854561805725,0.4503231644630432,-9.993732452392578,0.00024852978739394556,7.896417919225726e-06,-0.001468472836892952,2.4335149698019283,8.336422533056139,0.8808754084970895
1731474137.2090607,-0.3312438130378723,0.4298307001590729,-9.984983444213867,0.00025327708075732725,4.048454575340334e-05,-0.001606103082488283,2.4335120110028323,8.336445027437222,0.8808751898736379
1731474137.2591295,-0.32849225401878357,0.44427555799484253,-9.991825103759766,0.000250221649976569,7.132281000108287e-05,-0.0017500897113764506,2.434738791254978,8.332393573339703,0.8808469642221063
1731474137.308942,-0.32849225401878357,0.44427555799484253,-9.991825103759766,0.00023829676333070933,9.917328520246907e-05,-0.0019004458757335015,2.434678482726889,8.334595504184684,0.8808141370790153
1731474137.308942,-0.3466336131095886,0.43178790807724,-9.988767623901367,0.00021648192573038338,0.00012283489283904434,-0.0020571835089149564,2.4346780068931952,8.334612964517719,0.8808138579485826
1731474137.3589773,-0.3226473927497864,0.4400995373725891,-9.986501693725586,0.00018384896643762363,0.0001411584069507954,-0.00222031109305171,2.4336278772391533,8.330348233341102,0.8807759553605475
1731474137.4088914,-0.3401765823364258,0.42628738284111023,-10.006254196166992,0.00013959096867831257,0.0001530922748728116,-0.002389827274671177,2.43317321894401,8.330805999712343,0.8807320534001778
1731474137.4588525,-0.32638588547706604,0.4399968981742859,-9.992179870605469,8.300761328463625e-05,0.00015772153393441233,-0.002565751347195327,2.4337484808827687,8.32950967791653,0.8806821156558639
1731474137.50879,-0.3352645933628082,0.4304140508174896,-9.980989456176758,1.3488542223506228e-05,0.00015427756846480808,-0.0027481485798019913,2.433629585383915,8.329629836240166,0.8806256237759319
1731474137.5588923,-0.33292460441589355,0.43939563632011414,-9.997173309326172,-6.948740500157586e-05,0.00014212466628825903,-0.002937083468061986,2.433508886848526,8.329752120097622,0.8805610951622004
1731474137.6086698,-0.3363683819770813,0.4308415949344635,-9.980420112609863,-0.0001663415988515116,0.00012074306440317239,-0.003132562488822598,2.4402229270441502,8.329873095019279,0.8804898024038259
1731474137.6586838,-0.3302421271800995,0.4421899914741516,-9.979595184326172,-0.0002773823558224369,8.971763566939173e-05,-0.0033345096120719537,2.4414834789908806,8.329993539447408,0.8804110305128182
1731474137.7086177,-0.3302421271800995,0.4421899914741516,-9.979595184326172,-0.0004028123323675108,4.87148096354117e-05,-0.003542727872144327,2.4392399612712046,8.330114712752025,0.880323375561285
1731474137.7086177,-0.3371421694755554,0.43059173226356506,-9.996553421020508,-0.0005427484234804909,-2.5474067548137684e-06,-0.003756878541686388,2.4392389676527944,8.330119851196171,0.8803194665811742
1731474137.758543,-0.3301190137863159,0.4375700056552887,-9.977168083190918,-0.0006972232943932796,-6.42947838085732e-05,-0.003976525683578266,2.4392155507642737,8.330236586583885,0.8802258414431499
1731474137.8085432,-0.34019094705581665,0.43010377883911133,-9.982741355895996,-0.0008661715372562186,-0.0001366616831055077,-0.004201175815118415,2.439189150253874,8.330358342323793,0.8801179304886824
1731474137.8584952,-0.33192288875579834,0.43809831142425537,-9.991263389587402,-0.00104941873979602,-0.00021967232143835406,-0.004430270591666594,2.4391605168339097,8.330478950829075,0.8799998922830515
1731474137.9083514,-0.34595686197280884,0.4304082989692688,-9.981121063232422,-0.0012466709844162122,-0.00031324598726162643,-0.004663194644807743,2.437367388559254,8.330601098772343,0.879868030991428
1731474137.9583144,-0.3420066237449646,0.443705290555954,-9.989968299865723,-0.0014574933043051228,-0.0004172132482797234,-0.004899306154602021,2.437056893688677,8.330718041419924,0.8797291977343787
1731474138.0092392,-0.34163692593574524,0.42966023087501526,-9.989768028259277,-0.0016812849142016808,-0.0005313396228627347,-0.005137955964347812,2.4355624858151987,8.330838394728755,0.8795720696549068
1731474138.0592258,-0.33824580907821655,0.44014066457748413,-9.97556209564209,-0.0019172834919400092,-0.0006553408776121682,-0.00537849707347499,2.4348610213297883,8.330955106023268,0.8794045529848883
1731474138.1091983,-0.341629296541214,0.4363786280155182,-9.98953914642334,-0.002164601106374236,-0.0007888859173242084,-0.005620270706699899,2.4341542455032674,8.331070047219264,0.8792232400194017
1731474138.1591976,-0.3402191698551178,0.43175989389419556,-9.978646278381348,-0.002422256121398141,-0.0009316007110109856,-0.0058625829873960675,2.433442228654831,8.331182761023456,0.8790277134543262
1731474138.209059,-0.3476492762565613,0.432100772857666,-9.985774040222168,-0.0026891822347530664,-0.0010830604046880674,-0.006104706244184406,2.4327248817756466,8.331292801605823,0.8788175660003626
1731474138.2590916,-0.33999305963516235,0.4344528317451477,-9.983550071716309,-0.0029642236565683767,-0.0012427692297353236,-0.00634589195211184,2.434384608682855,8.331400324647058,0.8785910304840331
1731474138.3088815,-0.34422069787979126,0.4327370822429657,-9.9750337600708,-0.003246139687393667,-0.0014101589194797698,-0.0065853762425179055,2.4340658019745938,8.33150371875753,0.878350315432468
1731474138.3589008,-0.3437175154685974,0.44072937965393066,-9.988846778869629,-0.0035336256634447435,-0.0015846104662495713,-0.006822374688382329,2.4337361277493685,8.331604155264266,0.8780910516015007
1731474138.4087975,-0.34332624077796936,0.4315757751464844,-9.98684024810791,-0.0038253313002947513,-0.001765482698455548,-0.007056093319043186,2.433104980562124,8.331700644967352,0.8778138017126534
1731474138.458818,-0.33988749980926514,0.436118483543396,-9.992659568786621,-0.004119876223307952,-0.0019521272877903067,-0.0072857781285357755,2.4326991066651873,8.331791805126619,0.877520598769515
1731474138.5087607,-0.33988749980926514,0.436118483543396,-9.992659568786621,-0.004415877859829008,-0.002143885811108822,-0.007510769311125953,2.4322819169969945,8.331878026952465,0.8772084862896057
1731474138.5087607,-0.3460216820240021,0.428290456533432,-9.99396800994873,-0.0047119783263569305,-0.0023400852674850398,-0.007730532250453396,2.4322785738252604,8.331878687544398,0.8772059434106785
1731474138.5588555,-0.32766076922416687,0.4385663866996765,-9.993430137634277,-0.005006860011411837,-0.0025400322415052804,-0.00794466826779848,2.431890219237354,8.331959033624718,0.8768751448635534
1731474138.6086557,-0.3306537866592407,0.4353063106536865,-9.987985610961914,-0.005299285254347084,-0.0027430152309461716,-0.008152904533421145,2.4314381194479644,8.332033695649526,0.8765191895875727
1731474138.6586676,-0.3333236277103424,0.4373985528945923,-9.995209693908691,-0.005588160263240532,-0.0029483287559604002,-0.008355067491715443,2.430565009911183,8.332100005280255,0.8761509223536317
1731474138.7086084,-0.3319365978240967,0.4339129328727722,-9.97912311553955,-0.005872560508122221,-0.003155293406073121,-0.008551051969715059,2.429589382018932,8.332159794959969,0.8757571056143354
1731474138.758562,-0.333381712436676,0.4398839473724365,-9.9823637008667,-0.00615170985994836,-0.0033632578299828,-0.008740776874681538,2.428886633567736,8.332210780347632,0.8753428917723087
1731474138.8085184,-0.333381712436676,0.4398839473724365,-9.9823637008667,-0.006424956581908862,-0.0035716060751226236,-0.008924129451171688,2.4281671776846707,8.332253208346614,0.8749060672832457
1731474138.8085184,-0.3302189111709595,0.438150554895401,-9.991358757019043,-0.006691759550578069,-0.0037797764654367927,-0.00910094675349964,2.4281611479241167,8.332253522787047,0.874902353958296
1731474138.8586066,-0.3308621346950531,0.44120118021965027,-9.983616828918457,-0.006951684834252179,-0.0039872721462937775,-0.009271049058534899,2.4274274179963036,8.332286360444266,0.8744442730494374
1731474138.8586066,-0.3308621346950531,0.44120118021965027,-9.983616828918457,-0.007204408439633177,-0.004193661690624167,-0.009434269637782194,2.4288560686179577,8.332294953212454,0.8742957416642969
1731474139.2399957,-0.3376094102859497,0.43933042883872986,-9.987139701843262,-0.007449705997962821,-0.004398580638028823,-0.009590450236915599,2.4254129553970944,8.33218319892218,0.8701497290277487
1731474139.2900891,-0.3423849642276764,0.43753117322921753,-9.985186576843262,-0.0076874131949233385,-0.004601724753298307,-0.009739434737742591,2.4249799915366697,8.3321216893171,0.8694813776884684
1731474139.3398674,-0.34360605478286743,0.4366273581981659,-9.992426872253418,-0.007917364467469424,-0.004802828089189525,-0.009881084305977346,2.4253547286299098,8.332049980224173,0.8687944031819514
1731474139.389985,-0.3389294445514679,0.4368346929550171,-9.979833602905273,-0.008139346239406169,-0.005001639229012735,-0.0100152955385368,2.424822246458723,8.331964382911178,0.868075883816071
1731474139.4397805,-0.3331068754196167,0.42958614230155945,-9.990646362304688,-0.008353100472218183,-0.005197901828199222,-0.010141998394950572,2.4242593141390794,8.33186414447315,0.8673189848903589
1731474139.4898527,-0.335146963596344,0.4248596131801605,-9.98840618133545,-0.008558371880538576,-0.005391323091165196,-0.010261147777579348,2.423698997872724,8.33175511356143,0.8665684539250872
1731474139.539713,-0.3328384459018707,0.4296468496322632,-9.984148025512695,-0.008754954451193966,-0.005581529891938438,-0.010372730653942406,2.424691713365566,8.331631929493067,0.8657806848630528
1731474139.5897124,-0.3308675289154053,0.4361976087093353,-9.986226081848145,-0.008942712920390023,-0.005768056353309115,-0.010476766200727797,2.4237083309850798,8.331492532202281,0.8649513491329718
1731474139.639718,-0.3300713300704956,0.44613346457481384,-9.986385345458984,-0.009121594291532998,-0.0059503977894103475,-0.010573289920219485,2.4231217062069264,8.331340189073497,0.864114366699372
1731474139.6895943,-0.3355879783630371,0.4400116503238678,-9.9830961227417,-0.009291633619449811,-0.006128101007631628,-0.010662345234566425,2.422507448473442,8.331171612848712,0.8632442093390426
1731474139.7396622,-0.3371192514896393,0.4425605237483978,-9.980547904968262,-0.009452935210795594,-0.006300823856000977,-0.01074397522592977,2.421866818529847,8.330986657338869,0.8623431526572943
1731474139.789675,-0.33719924092292786,0.4419511556625366,-9.980554580688477,-0.009605632966038986,-0.006468340185538178,-0.010818200878403083,2.421206536733795,8.330786976004376,0.8614209875304792
1731474139.8395355,-0.3354564905166626,0.445912629365921,-9.973817825317383,-0.009749861008817931,-0.006630527690747858,-0.010884995977661995,2.420519646653672,8.330570200518977,0.8604683152357616
1731474139.8896139,-0.3405797779560089,0.44538143277168274,-9.989174842834473,-0.009885745660867095,-0.006787368578943802,-0.010944275460033407,2.422475400559328,8.330338925845078,0.8594911458003436
1731474139.9394777,-0.33414551615715027,0.4462050497531891,-9.99086856842041,-0.010013403104226685,-0.006938955109266773,-0.010995927019863964,2.4221522349061275,8.330088422861984,0.8584844024516118
1731474139.9894018,-0.3440423011779785,0.44702938199043274,-9.984944343566895,-0.010132935275538582,-0.007085487219208478,-0.011039879651803756,2.4215881340734744,8.329824102888216,0.8574557353119533
1731474140.0392613,-0.32870543003082275,0.43953606486320496,-9.982325553894043,-0.010244429858857332,-0.007227256953578643,-0.01107613674242169,2.4211722753335105,8.329539022737446,0.8563964959197269
1731474140.089296,-0.34796392917633057,0.4402678906917572,-9.993621826171875,-0.010347967450610158,-0.007364612365590612,-0.01110475741650602,2.4207271459710924,8.329233278323143,0.8553008019580494
1731474140.1402464,-0.34796392917633057,0.4402678906917572,-9.993621826171875,-0.010443608486449513,-0.0074979113490798235,-0.01112585813236145,2.420252318952425,8.328906392648495,0.8541689781586526
1731474140.1402464,-0.33399584889411926,0.432169646024704,-9.98773193359375,-0.010531353749310699,-0.0076274867349465985,-0.011139647539774587,2.420250084793668,8.328904852766664,0.8541637338087535
1731474140.1902158,-0.339699923992157,0.42898687720298767,-9.98838996887207,-0.010611146379653907,-0.007753610291051577,-0.011146431721669556,2.4207882186961043,8.328567170828217,0.8530239297043639
1731474140.2401154,-0.34191736578941345,0.42445263266563416,-9.988052368164062,-0.010682920291455159,-0.007876440360811933,-0.01114658017269489,2.420490104779753,8.328203216101791,0.8518424164753032
1731474140.2900033,-0.32970547676086426,0.4250764548778534,-9.985917091369629,-0.010746628470019833,-0.007995975276822125,-0.011140494829050308,2.419846538904581,8.327829983848803,0.8506553969770998
1731474140.3400288,-0.32910072803497314,0.4251329004764557,-9.99003791809082,-0.010802268971250178,-0.00811203695154111,-0.011128595283905012,2.419004531874006,8.327432112526932,0.8494240857035454
1731474140.3900661,-0.3384392559528351,0.42610400915145874,-9.983735084533691,-0.010849928547376868,-0.008224285396106952,-0.011111311598871692,2.418364043215706,8.327010918056876,0.8481684430540689
1731474140.439955,-0.3377346694469452,0.435489296913147,-9.978569030761719,-0.010889784359623853,-0.008332258369927539,-0.011089067833816831,2.417689590013125,8.326564525906855,0.846872067687558
1731474140.4899478,-0.33423569798469543,0.4322376847267151,-9.991771697998047,-0.010922060594304145,-0.008435433252139884,-0.011062253233130342,2.418493839404608,8.326105746639078,0.84556063083133
1731474140.5398195,-0.3368098735809326,0.4413033127784729,-9.979137420654297,-0.010947003620177321,-0.008533294437571972,-0.011031215126010463,2.4181793329379557,8.325628720921017,0.8442410793870706
1731474140.5896668,-0.32903242111206055,0.43979355692863464,-9.979314804077148,-0.01096489029969189,-0.008625388521085214,-0.010996265667433105,2.41783496869546,8.32512616451964,0.8428821666371075
1731474140.6397073,-0.33598414063453674,0.4474576413631439,-9.982017517089844,-0.010976044907365607,-0.008711369497448097,-0.01095766392524837,2.41745839345626,8.324595091171721,0.8414775354419565
1731474140.6897366,-0.341476172208786,0.44930747151374817,-9.990230560302734,-0.010980837682976523,-0.008791039751238417,-0.010915607966504618,2.417954137487582,8.324054285275247,0.8400640134687071
1731474140.7397206,-0.3397352695465088,0.44789478182792664,-9.97748851776123,-0.010979647009198103,-0.00886438193218142,-0.01087026623655528,2.4176946051245918,8.323481661566264,0.8386110570414945
1731474140.7895658,-0.3330007493495941,0.44037196040153503,-9.997563362121582,-0.010972821799196944,-0.008931558826225521,-0.010821808961189882,2.417409462706536,8.322890645981168,0.8371406187103173
1731474140.8395772,-0.03880907967686653,0.5903394818305969,-9.978856086730957,-0.010960957042707452,-0.008993000356170787,-0.01077042691953923,2.4170931759816683,8.322269842099846,0.8356251105298854
1731474140.8895676,-0.0758434385061264,0.5316457748413086,-10.008713722229004,-0.01094591409162066,-0.009049802640923612,-0.010716357862089276,2.416799581035997,8.32164599759605,0.8341142652314667
1731474140.9393978,0.48951706290245056,0.8079436421394348,-9.981762886047363,-0.010932594963423978,-0.009104433159073572,-0.010659921798907752,2.41644099067875,8.320987965889357,0.8325639786002721
1731474140.9892786,0.7771492004394531,0.6103816628456116,-10.015816688537598,-0.010931575579591119,-0.009161524904208707,-0.010601552352457846,2.4156703390062138,8.320313859819947,0.8309843860536511
1731474141.0394018,0.1431780755519867,0.499295175075531,-10.044015884399414,-0.010961754170575863,-0.009228093427363337,-0.01054186919030256,2.415208971244087,8.319604761971403,0.8293685904958182
1731474141.0892773,0.413790225982666,0.48516714572906494,-9.909783363342285,-0.011050356876819855,-0.009312547701052148,-0.010481738244054916,2.4147216026892173,8.318874860918907,0.8277319840312123
1731474141.1401522,0.038903508335351944,0.3011943995952606,-9.996171951293945,-0.011230070606691482,-0.009423088715472245,-0.010422070420386589,2.41420590314959,8.318126031899036,0.8260604047395649
1731474141.1902132,0.22217567265033722,0.33590275049209595,-10.001534461975098,-0.011536019893354944,-0.009566341758457738,-0.01036352792641941,2.4136971423827243,8.317347381179946,0.8243681594352075
1731474141.2402446,0.017560504376888275,0.20069876313209534,-9.97430419921875,-0.01200375033469067,-0.009746354416726262,-0.010306557517145834,2.412760749457987,8.31655288688719,0.8226456807511586
1731474141.2901216,-0.7728275656700134,-0.02461777999997139,-9.977519989013672,-0.012667070762920523,-0.009963738683615338,-0.010251541409845839,2.4120610926777957,8.315734453974203,0.8209206989488977
1731474141.3400016,-1.2074174880981445,-0.021463442593812943,-10.009428024291992,-0.013553770140179089,-0.010214582538240383,-0.010198792393255588,2.411645469527098,8.314898447757283,0.8191622991194021
1731474141.3900766,-0.23980385065078735,0.27316224575042725,-9.937684059143066,-0.014680524900351847,-0.010489766080978189,-0.010148534487904912,2.41096719720463,8.314018854972549,0.8173648453224862
1731474141.4400213,-0.7082184553146362,0.12128511071205139,-10.163931846618652,-0.016051912712766167,-0.010775850891338245,-0.010101017482548293,2.4102521841718727,8.313114929183552,0.8155467737355703
1731474141.4898539,-0.29287877678871155,0.4290388226509094,-9.929959297180176,-0.017663660817999124,-0.011057014485723738,-0.010056842785621922,2.4107470042319066,8.312204591737798,0.8137235638825543
1731474141.5398967,-0.5628702044487,0.09986446797847748,-10.001678466796875,-0.01950568685608528,-0.011316655405498942,-0.010017115625671065,2.4102887551813796,8.31124824583864,0.8118602857869456
1731474141.5897396,-0.3513105511665344,0.46714502573013306,-10.08678913116455,-0.021563584962177862,-0.01153824634751158,-0.009983174878124999,2.4097820880996745,8.310268558784088,0.8099818588059836
1731474141.6397777,-0.5107159614562988,0.16161222755908966,-9.946783065795898,-0.023819533268082463,-0.011705782972662442,-0.00995646766699226,2.40838177191496,8.309266241915058,0.8080684545308563
1731474141.6896517,-0.4068586826324463,0.43703973293304443,-9.962201118469238,-0.026252943272998694,-0.01180415086175984,-0.009938528615220729,2.4075145402314297,8.308227063910149,0.8061374855366468
1731474141.7396317,-0.49801453948020935,0.2526971399784088,-10.004266738891602,-0.028840939896602448,-0.011819414422088208,-0.009930651885284074,2.406566262893821,8.307144304286021,0.8041558610121124
1731474141.789641,-0.37864023447036743,0.4197238087654114,-9.953781127929688,-0.031558814652764,-0.01173905998379044,-0.009933668372567397,2.405560162526637,8.306051645207644,0.8021848778781598
1731474141.8394883,-0.42949461936950684,0.29616859555244446,-9.941106796264648,-0.03438061021316031,-0.01155220006388492,-0.009947962946072314,2.406181561651666,8.30494081443189,0.8001866565933452
1731474141.8893626,-0.41107162833213806,0.3372349739074707,-10.000696182250977,-0.03727976631560785,-0.011249602221425249,-0.009973431402927866,2.4038425842420694,8.303796960127318,0.7981553445251334
1731474141.9393225,-0.41107162833213806,0.3372349739074707,-10.000696182250977,-0.04022958570398372,-0.01082353845673339,-0.010009551103328147,2.4024193970313967,8.30261096747281,0.7960939968640385
1731474141.9393225,-0.3805420398712158,0.7001015543937683,-9.957939147949219,-0.04320355806449767,-0.010267982714715228,-0.010055635862557564,2.4025466566739717,8.58585035254775,0.7961083192029887
1731474141.9893405,-0.4000968039035797,0.667378306388855,-9.877378463745117,-0.04617570918766649,-0.00957982106679229,-0.010110839293214397,2.4010065356936963,8.585224270815763,0.7940298074734233
1731474142.0393183,-0.4872780740261078,1.1421082019805908,-9.997286796569824,-0.04912082577858341,-0.008760837723738167,-0.01017382446938383,2.3993233597236063,8.584565838668158,0.7918951997374174
1731474142.0892508,-0.4453103244304657,0.9864438772201538,-9.849359512329102,-0.0520143482456394,-0.00781973368160295,-0.010242559062714339,2.397548147980248,8.583899787365418,0.789777138828956
1731474142.139246,-0.5104879140853882,0.7967690229415894,-10.028023719787598,-0.05483213760890713,-0.006773096196755669,-0.010314388326430514,2.3993447867358997,8.57952592640494,0.7876238516771916
1731474142.1901712,-0.3782177269458771,0.7711344957351685,-9.996058464050293,-0.05755048829005982,-0.005644212678861064,-0.010386333215059737,2.398307329193467,8.577994931009737,0.7853946588459552
1731474142.2401364,-0.4499201774597168,0.7072227597236633,-10.010408401489258,-0.060146501095149664,-0.00446053266996457,-0.010455611809181779,2.396696303459414,8.571991118839396,0.783191492379194
1731474142.2900872,-0.3696022629737854,0.713841438293457,-10.044113159179688,-0.06259860395418536,-0.003251569969458567,-0.010520062506356932,2.395172210707013,8.568921936189156,0.7809536828896136
1731474142.3400176,-0.42195576429367065,0.5679761171340942,-9.984193801879883,-0.06488693324559577,-0.0020475496946312038,-0.010578268495285505,2.393467141887468,8.565806841296824,0.7786605589842162
1731474142.3899982,-0.30900314450263977,0.6061761379241943,-10.027217864990234,-0.0669935861625079,-0.0008782413105287648,-0.010629492819087937,2.3916356465746804,8.562754485331546,0.7763901130293918
1731474142.4399173,-0.36433690786361694,0.5541598200798035,-9.993165969848633,-0.06890291488772193,0.00022806642010082616,-0.01067352272973254,2.3945621632603156,8.562430386129572,0.7740814858689306
1731474142.4898849,-0.3449501693248749,0.5600143671035767,-10.049895286560059,-0.0706017740719265,0.0012451992946339707,-0.010710571909981552,2.3935386031923658,8.560113805816027,0.7717330691125612
1731474142.5398262,-0.3187732696533203,0.5636372566223145,-10.002037048339844,-0.07207955348625501,0.0021493822817680412,-0.010741294940227322,2.391644512680905,8.541734370049218,0.7693892377623441
1731474142.5898345,-0.30297085642814636,0.5662887096405029,-10.012564659118652,-0.07332814594641154,0.002919323181886777,-0.01076677539170459,2.388748701942106,8.52148493463947,0.7670180966843813
1731474142.6396751,-0.3056734502315521,0.5174658894538879,-10.006267547607422,-0.07434199778104005,0.0035362026879285895,-0.01078839786825261,2.3864869867875345,8.509300161966866,0.7645831535875915
1731474142.689624,-0.32618317008018494,0.5069574117660522,-9.982719421386719,-0.07511808039519485,0.003983760958178783,-0.010807679492164617,2.3840441933623002,8.497155814858766,0.7621274135068946
1731474142.7396877,-0.273434042930603,0.514680802822113,-9.964303016662598,-0.07565571156968771,0.00424848085249478,-0.010826092227331753,2.381393639970545,8.48493490312364,0.7596267896210748
1731474142.7895157,-0.2996521592140198,0.5227103233337402,-9.985552787780762,-0.07595639969461,0.004319634174659829,-0.010844864887868321,2.3861736275237284,8.49771878009772,0.7571771576673897
1731474142.8395174,-0.3358599841594696,0.5379204750061035,-9.958097457885742,-0.07602370906949307,0.004189098825345266,-0.010864866705370839,2.38480106425962,8.49018105921926,0.7546098503438472
1731474142.8894358,-0.336078017950058,0.4931144118309021,-9.98670482635498,-0.07586293995179119,0.0038511061814493564,-0.010886604475760942,2.383265798896436,8.48279496817802,0.7520956929874554
1731474142.939421,-0.33337661623954773,0.5128029584884644,-10.005820274353027,-0.07548069631811204,0.0033021060822957123,-0.010910301776541153,2.381525051590428,8.475340893682649,0.7494961682821868
1731474142.989331,-0.3498041331768036,0.4721747934818268,-9.94282341003418,-0.07488458306917943,0.0025407503152282966,-0.010936024399926267,2.3796255437233245,8.468005507921168,0.746908680145154
1731474143.0392566,-0.32534632086753845,0.5132566094398499,-9.986802101135254,-0.0740830396806294,0.0015678606434687287,-0.010963696200933674,2.377505512089799,8.460544199762241,0.7442475309061138
1731474143.0892653,-0.3674081265926361,0.5218324065208435,-10.014200210571289,-0.07308521382997704,0.0003862607508795241,-0.010993057448129295,2.375229994716573,8.453176531169964,0.7416293385254566
1731474143.1392438,-0.40713658928871155,0.5078936219215393,-9.99518871307373,-0.07190076036826196,-0.0009995339083096822,-0.011023803609319696,2.3727397689763614,8.445707107361462,0.7389097863891916
1731474143.1901145,-0.3748840391635895,0.5032426118850708,-9.95654582977295,-0.07053950584466306,-0.0025835911726244574,-0.011055740691089062,2.3700535775034615,8.438182761869067,0.7361850375726173
1731474143.2401328,-0.41319382190704346,0.513997495174408,-10.000679969787598,-0.0690111641058868,-0.004358695816426222,-0.011088705963915028,2.367222972901757,8.430731864077744,0.733465326449881
1731474143.2901106,-0.4174082279205322,0.5009680390357971,-9.988465309143066,-0.06732520676931096,-0.006316453928183542,-0.011122459739082494,2.3642403045461253,8.423325145313797,0.7306962326349515
1731474143.3401623,-0.4119400978088379,0.5024043917655945,-9.968817710876465,-0.06549076462521392,-0.00844742177276442,-0.01115671939623161,2.3610469880560214,8.415793339304638,0.7278592047395864
1731474143.3899338,-0.4119400978088379,0.5024043917655945,-9.968817710876465,-0.0635165696824076,-0.010741217086372289,-0.011191155961434107,2.3577679406848993,8.408409878833037,0.7250594562032915
1731474143.3899338,-0.3861069083213806,0.4877097010612488,-9.973749160766602,-0.06141102263864379,-0.01318661659995039,-0.011225298787657408,2.3577475092524027,8.408364857158396,0.7250423314222006
1731474143.4400024,-0.3813762664794922,0.4656544327735901,-10.00214672088623,-0.05918236097807151,-0.01577161681501378,-0.011258524052161233,2.3542679712560726,8.400825773699193,0.7222197173559222
1731474143.489819,-0.3586125075817108,0.4547431170940399,-9.964475631713867,-0.05683886922964824,-0.01848341221300257,-0.011290162724568755,2.3506572260584764,8.393287967095672,0.7193346993710938
1731474143.5397732,-0.3363964855670929,0.4302753210067749,-9.970362663269043,-0.054389092116582424,-0.02130832622989614,-0.011319556714978094,2.346883013397219,8.385650048512806,0.7164021185819304
1731474143.5897393,-0.3230259418487549,0.4246014356613159,-10.018203735351562,-0.051842043480787095,-0.024231758188409953,-0.011346033638915632,2.3430334034702245,8.378045531267478,0.7135346647522409
1731474143.6397502,-0.3195480704307556,0.4174511432647705,-9.99730110168457,-0.04920737623408923,-0.027238183152677467,-0.01136899348190692,2.3389936157140663,8.370273018644014,0.7105408751769702
1731474143.6896462,-0.29733991622924805,0.400546669960022,-9.969202995300293,-0.04649546227056839,-0.030311219419176846,-0.011388051490070623,2.334854980572159,8.362468835789176,0.7075341440210906
1731474143.7396011,-0.2849956750869751,0.3818894624710083,-10.001726150512695,-0.04371741945405015,-0.0334337155534491,-0.011403005022095517,2.3306270521211414,8.354593767599674,0.7045695403920342
1731474143.789569,-0.2620607912540436,0.3989132344722748,-10.011852264404297,-0.04088515147070438,-0.03658782763368813,-0.01141375297884523,2.326280148684191,8.346639085961458,0.7015129731055078
1731474143.8395295,-0.3114404082298279,0.37750130891799927,-9.98075008392334,-0.038011344288293156,-0.039755151022144164,-0.011420347964315411,2.321837254296236,8.338544170763612,0.6984849540751973
1731474143.8895874,-0.29066282510757446,0.38888999819755554,-10.001361846923828,-0.03510928847055233,-0.04291691815426567,-0.01142302766718959,2.317292630179534,8.3303742866012,0.6953658803490299
1731474143.939539,-0.31284046173095703,0.36997202038764954,-10.00731372833252,-0.03219256662376573,-0.04605419191472978,-0.011422163562572533,2.312634109976403,8.322039975618258,0.6921980562466091
1731474143.9893997,-0.27976566553115845,0.3753986358642578,-10.026233673095703,-0.02927480002017064,-0.04914802688445538,-0.011418285048356491,2.3079688552131534,8.313711950281466,0.6890491111599445
1731474144.0392823,-0.2954639196395874,0.3394887149333954,-9.958551406860352,-0.026369535546037534,-0.05217958826562688,-0.011412136324178701,2.303199953009648,8.305140843108328,0.6859123426752144
1731474144.089266,-0.5322554707527161,-0.19363191723823547,-10.011695861816406,-0.023489975172566922,-0.05512971982768465,-0.011404582653600216,2.2983881187602315,8.296524329699794,0.682696438995927
1731474144.139285,-0.4975226819515228,-0.47324222326278687,-10.109478950500488,-0.020648088923140177,-0.05797687177864746,-0.011396569790172686,2.293516483856449,8.287671605215255,0.6795104550489022
1731474144.1902807,-0.6517626047134399,-0.1517183631658554,-10.05496883392334,-0.017853358113931826,-0.060694029642172465,-0.011389463396885142,2.288479391102827,8.27854104552922,0.6761562569310104
1731474144.2401178,-0.7958483099937439,-0.4603233337402344,-10.047149658203125,-0.015111688221883215,-0.06324732901189993,-0.011385422852915711,2.283544215988926,8.269410400304686,0.6729321050241304
1731474144.2899477,-0.3774668574333191,0.1904527246952057,-9.920002937316895,-0.012424825890311677,-0.06559728768239356,-0.011387216096369494,2.2785675515912795,8.260208348672103,0.6696116091867481
1731474144.3399312,-0.7103548049926758,-0.2533815801143646,-10.023809432983398,-0.009790878891597844,-0.06770140101033821,-0.011397576558561755,2.2735241952351553,8.250639781586697,0.6663005083543004
1731474144.389945,-0.5084047317504883,0.20593859255313873,-9.930323600769043,-0.007205481279289303,-0.06951673413059238,-0.011418696642906411,2.2684831011160576,8.241067820481057,0.6629126555989958
1731474144.4399543,-0.6116470098495483,0.06604569405317307,-9.929553985595703,-0.004662442482171764,-0.07100184436124604,-0.011452035434757896,2.2634543826450577,8.231212826416112,0.6595774261059937
1731474144.489831,-0.5259138345718384,0.24936124682426453,-9.96333122253418,-0.0021540847998501355,-0.07211835700058605,-0.011498186892074672,2.258418085833052,8.221162251609165,0.6562139266234339
1731474144.5398407,-0.5633005499839783,0.1612505167722702,-9.892698287963867,0.0003282777382193503,-0.07283224274650155,-0.011556806587935307,2.253349812277894,8.211043413447573,0.652738586871051
1731474144.5897121,-0.5227437615394592,0.1753193736076355,-9.91405963897705,0.0027938861118324172,-0.07311439121316601,-0.011626610557293441,2.2482914536452556,8.200755827142652,0.6492386709710251
1731474144.6397834,-0.530639111995697,0.1455938071012497,-9.948212623596191,0.005252161991359256,-0.07294054894989783,-0.011705373018375514,2.2431892098597666,8.190174609854928,0.645672019527777
1731474144.6897333,-0.4877649247646332,0.19532594084739685,-9.93302059173584,0.007712363550677107,-0.0722910083668117,-0.011790090401188922,2.2382275559387743,8.179456897047439,0.6422310042972754
1731474144.7396362,-0.4850020408630371,0.15887004137039185,-9.961091995239258,0.010183235235699499,-0.07115040234169216,-0.011877298936265941,2.233204752461799,8.16859566253858,0.6386339946606833
1731474144.7895703,-0.042006008327007294,0.42955347895622253,-9.968608856201172,0.012672290575444469,-0.06950782226114538,-0.011963351346164846,2.2282174068638883,8.157574868558378,0.6350124075647622
1731474144.8395107,0.20982344448566437,0.5299987196922302,-9.996824264526367,0.015183880791781441,-0.06735761014080036,-0.012044668109164118,2.2233161056256825,8.146272620076767,0.6314748241051468
1731474144.8894217,-0.2961362600326538,0.27400559186935425,-10.028383255004883,0.017716684599090628,-0.06470046299455498,-0.012118029740881936,2.2183963986503925,8.134893720801518,0.6277872044494848
1731474144.9395008,-0.07620701938867569,0.45252323150634766,-9.962984085083008,0.020263203127859203,-0.06154351777614921,-0.012180823920589435,2.213580965879831,8.123231452524296,0.6241887593077746
1731474144.989377,-0.3626199960708618,0.24273060262203217,-10.05359172821045,0.022811633281180146,-0.05789930366485263,-0.012231115154976813,2.20877568262669,8.111572346096734,0.6204504282863624
1731474145.0394049,-0.3626199960708618,0.24273060262203217,-10.05359172821045,0.025348060895778457,-0.05378448866027249,-0.012267684179437091,2.2040995165929496,8.099649054682995,0.6168120264685147
1731474145.0394049,-0.1496284306049347,0.48473837971687317,-10.041500091552734,0.027857936648681064,-0.04921888225322462,-0.012290212669539509,2.204067164123545,8.09956757358134,0.6167860514766326
1731474145.0892012,-0.3409866988658905,0.2217046469449997,-10.007319450378418,0.03032656638031661,-0.04422508774729551,-0.012299351238342542,2.199433534168104,8.08774951832747,0.6130208492258412
1731474145.1393504,-0.19522902369499207,0.4383619427680969,-10.02239990234375,0.032738965768673196,-0.03882849194847526,-0.012296479412858259,2.1948633181054533,8.075448316062374,0.6092858535802309
1731474145.1891997,-0.3174585700035095,0.26658883690834045,-9.997493743896484,0.03507993628659162,-0.03305692423211117,-0.012283389652716224,2.190387026273388,8.063420649462516,0.6054558604019652
1731474145.2401588,-0.2567730247974396,0.41878947615623474,-9.975645065307617,0.037334385408343995,-0.026940210176966913,-0.0122620476626997,2.1858652796737785,8.050945038186091,0.6014762270086873
1731474145.290124,-0.31867489218711853,0.322895348072052,-10.004502296447754,0.03948765626403488,-0.020509873791726863,-0.012234384052045102,2.1815357010071486,8.038673181242611,0.5975498381188445
1731474145.3400424,-0.2900391221046448,0.4151308536529541,-9.99188232421875,0.041525845470759125,-0.01379890925826436,-0.012202178937146898,2.177399024075943,8.026177848842156,0.5937415989521917
1731474145.390102,-0.331870973110199,0.35072141885757446,-9.961592674255371,0.04343605563412539,-0.006841567464583404,-0.01216704834293578,2.1732803313621947,8.013839406299974,0.5897569333258407
1731474145.4399805,-0.31109046936035156,0.4003080129623413,-9.982954025268555,0.04520659191261564,0.0003269037291926914,-0.012130378039036804,2.169405016374247,8.001391887535434,0.5859292759326269
1731474145.4899025,-0.3297779858112335,0.40445318818092346,-9.977746963500977,0.046827098129782634,0.007670531885963346,-0.012093232398997402,2.1654922838716497,7.988985011897222,0.5818632730593676
1731474145.5398126,-0.3312694728374481,0.4171616733074188,-9.975252151489258,0.04828862499634389,0.015152813408356964,-0.012056364974878615,2.161714981051584,7.976659101073838,0.5777842752758053
1731474145.589731,-0.3365127444267273,0.42672958970069885,-9.98169231414795,0.04958367106362519,0.022736851472056195,-0.0120202751003623,2.1582322113100827,7.964337518556852,0.5739034877026892
1731474145.6397784,-0.6444383859634399,0.252627432346344,-9.986760139465332,0.050706485004242303,0.030385688938181794,-0.011985255126187373,2.1546853577841496,7.952056926558788,0.5697439641236154
1731474145.6896195,-0.5891392230987549,0.3251998722553253,-9.954066276550293,0.05165406206776036,0.03806307765492794,-0.011951428011002818,2.151279361933961,7.939905409763381,0.5655690719718296
1731474145.739691,-0.7718563675880432,0.09749940782785416,-9.974160194396973,0.05242749879070755,0.04573452038368764,-0.011918720051878464,2.1479937966639056,7.9278219485938575,0.5613513287989447
1731474145.7895942,-0.46285444498062134,0.407083123922348,-9.982929229736328,0.053032641342178846,0.05336808343750897,-0.011886819224403137,2.145056069380535,7.915868862402308,0.5573825531121386
1731474145.839546,0.17480438947677612,0.5993920564651489,-9.956948280334473,0.05347876423187609,0.06093414595559009,-0.011855218598546,2.14202946803627,7.904012075595547,0.553093283584543
1731474145.8895202,-0.4296962022781372,0.3416212499141693,-10.036373138427734,0.053775217537413496,0.06840396428159194,-0.011823320388214896,2.1393136243639983,7.89233571021746,0.5490759875887633
1731474145.9394314,-0.10667605698108673,0.5735830664634705,-9.944799423217773,0.05392888343855326,0.07574860984895233,-0.01179057027503135,2.1365563859805707,7.8808081095705305,0.5447244828558164
1731474145.9893925,-0.4261827766895294,0.25164923071861267,-9.998679161071777,0.05394436316887738,0.08293919150899445,-0.011756520495467715,2.134088838372285,7.869513433065784,0.5406716804311723
1731474146.0393891,-0.4261827766895294,0.25164923071861267,-9.998679161071777,0.053825353536430046,0.08994784704265515,-0.011720782463484026,2.1316136215573134,7.858443749486073,0.5362804463279245
1731474146.0393891,-0.1757666915655136,0.5858380794525146,-10.030649185180664,0.05357569885778379,0.0967487639449281,-0.011683085458696747,2.1315988112351913,7.858376338804387,0.5362533352448132
1731474146.0892906,-0.36952340602874756,0.26452311873435974,-9.984543800354004,0.05319953393785143,0.1033182418304984,-0.011643448582047206,2.129295259196498,7.847720919153391,0.5319026457955488
1731474146.1392066,-0.2180897742509842,0.5275964140892029,-9.984308242797852,0.05270076650209133,0.10963410676470915,-0.011602193179797358,2.1270920585326323,7.837184797684768,0.5274633647050594
1731474146.1892066,-0.35027265548706055,0.3020928204059601,-9.998504638671875,0.052082861924747134,0.1156755945283546,-0.011559772965520073,2.1250371103113013,7.8270160295971,0.5230326133324138
1731474146.2392662,-0.24522694945335388,0.4789474606513977,-9.97572135925293,0.05134898221698721,0.1214235501105713,-0.011516642063475054,2.1232530744049005,7.816820992402403,0.5188074864160537
1731474146.2900531,-0.32880857586860657,0.3587845265865326,-9.992473602294922,0.05050211180340502,0.12686053625097743,-0.011473217900985828,2.121416246339383,7.807039681198333,0.514220854601011
1731474146.3401139,-0.28920209407806396,0.4533703923225403,-9.996732711791992,0.04954516379560636,0.13197085563393052,-0.011429874516767038,2.1198400497710908,7.7974685521547515,0.5099539771683864
1731474146.3900425,-0.32036682963371277,0.38436904549598694,-9.975886344909668,0.04848111088884921,0.13674053177262013,-0.011386962929919444,2.118286678575779,7.788526896628121,0.5053980916555497
1731474146.4399643,-0.3222068250179291,0.4288286566734314,-9.992498397827148,0.047313124190677056,0.1411573191980275,-0.011344813433983067,2.1168427641090535,7.779872311035282,0.5007823718325743
1731474146.4898868,-0.3282969295978546,0.4256960153579712,-9.982223510742188,0.04604469495863787,0.1452107152631986,-0.011303703338306126,2.115525651930062,7.7716376630406705,0.49617234463117055
1731474146.5398424,-0.3282969295978546,0.4256960153579712,-9.982223510742188,0.044679728805290496,0.14889191191007733,-0.011263843145238098,2.1144702604685444,7.763461168265029,0.491837034379185
1731474146.5398424,-0.3342430889606476,0.41899538040161133,-9.977553367614746,0.043222584281278564,0.15219373520554133,-0.01122536534312268,2.1144633632257794,7.76341491318256,0.4918090521323555
1731474146.5898244,-0.3342430889606476,0.41899538040161133,-9.977553367614746,0.041678071025767496,0.15511065412053493,-0.011188295574481727,2.113471071601175,7.755707158703195,0.48751741792664827
1731474146.5898244,-0.3272224962711334,0.4375999867916107,-9.990431785583496,0.040051427482883206,0.15763880363355273,-0.01115254538053646,2.113464341020712,7.755659976040525,0.48748722688847707
1731474146.6398294,-0.3272224962711334,0.4375999867916107,-9.990431785583496,0.038348259834671744,0.15977592696185294,-0.0111179597987236,2.112467104461032,7.748532127360756,0.4827839838442088
1731474146.6398294,-0.348007470369339,0.42216381430625916,-9.980985641479492,0.03657447358217073,0.16152127634264138,-0.01108438587548443,2.1124611372537565,7.748488574589549,0.4827543260996563
1731474146.6897447,-0.3311549723148346,0.43346843123435974,-9.981561660766602,0.034736257583604685,0.16287557546202858,-0.01105168696325842,2.1115652496814206,7.741838371954168,0.4780760809640821
1731474146.7396312,-0.3635404109954834,0.40990909934043884,-9.988479614257812,0.03284010433462713,0.1638410435035807,-0.011019710802195862,2.1107393943837884,7.735489650988008,0.4732951892712653
1731474146.789546,-0.32311975955963135,0.4552238881587982,-9.978585243225098,0.03089281018968649,0.16442139315762574,-0.010988278899118426,2.1100040617978943,7.729637483017051,0.4685565607877285
1731474146.8395026,-0.3543110489845276,0.4205108880996704,-9.987153053283691,0.028901420160991655,0.1646217442694079,-0.010957195815708977,2.1094806580940926,7.723785285387516,0.46409889340000515
1731474146.8894835,-0.33690303564071655,0.44204410910606384,-9.983466148376465,0.026873138938594526,0.16444850302555747,-0.010926253869493032,2.1088852267202403,7.718700690665204,0.45927059841488554
1731474146.939377,-0.3456494212150574,0.4204249382019043,-9.974058151245117,0.024815267245158187,0.1639092973082583,-0.01089523301112597,2.1084238376204323,7.71368344013724,0.45481250955873964
1731474146.9893372,-0.32335811853408813,0.44455331563949585,-9.994388580322266,0.022735138900922547,0.16301294432678265,-0.010863892340339944,2.107950516053919,7.709395307073225,0.44991739554011173
1731474147.0392928,-0.3419918715953827,0.4153200089931488,-9.980100631713867,0.0206400189585344,0.16176939463194245,-0.010831980782283028,2.1075321656143373,7.705520161307651,0.44500440263369356
1731474147.0892532,-0.33232659101486206,0.44813141226768494,-9.970808982849121,0.018537018743021688,0.16018966400790366,-0.010799255243075664,2.1071622316947054,7.702042430183056,0.44005895846103893
1731474147.1392598,-0.3414287269115448,0.42118310928344727,-9.989472389221191,0.016433069321126433,0.1582857538957375,-0.010765454259276455,4.245670594734847,1.965729178255089,0.4355163853836078
1731474147.1892078,-0.32821929454803467,0.43675288558006287,-9.983247756958008,0.014334911186436289,0.1560705623381196,-0.010730283373856262,4.126852710281528,1.9705960335216126,0.4305276345881144
1731474147.239118,-0.3308393657207489,0.41653814911842346,-9.989508628845215,0.012249054078877206,0.15355782094743986,-0.010693462646140283,4.008032609967511,1.975849885699699,0.42551072397092843
1731474147.2890556,-0.3233639597892761,0.44228991866111755,-9.99915599822998,0.010181711277655856,0.1507620446966128,-0.010654785681148212,3.77547895752807,1.9752477264682726,0.4209379743992576
1731474147.34003,-0.3317860960960388,0.42187803983688354,-9.981391906738281,0.008138743564040367,0.1476984454849307,-0.010614159495437066,3.627780536471288,1.9838799312299484,0.4157607322400648
1731474147.389953,-0.3199501931667328,0.43816444277763367,-9.984302520751953,0.006125633531553985,0.1443828208559243,-0.010571597879407146,3.4831085519036464,1.9927045551218117,0.4106622361844134
1731474147.4399762,-0.3348630368709564,0.410004585981369,-9.995926856994629,0.004147479617395932,0.14083147072898994,-0.010527172238097283,3.337403202936436,2.0019527020107195,0.4055002563471833
1731474147.4898822,-0.31965500116348267,0.4335654675960541,-9.987404823303223,0.002209000147342685,0.13706115456618437,-0.010480998361436067,3.276983082509273,2.005396793520255,0.400881783936849
1731474147.5398347,-0.33629316091537476,0.42236918210983276,-9.98745346069336,0.0003145440956238461,0.13308903736152455,-0.010433256562711032,3.142957930406925,2.0146059771585967,0.3957131833252948
1731474147.5897639,-0.32917505502700806,0.4344494938850403,-9.999245643615723,-0.0015318898115328607,0.12893258372221078,-0.010384190540797863,2.710504971085309,2.0337814287564635,0.39107550816295544
1731474147.6397233,-0.3516184091567993,0.42074695229530334,-9.990751266479492,-0.0033266070161637783,0.12460943775488374,-0.010334111128996652,2.4620637150806726,2.0476913136589134,0.3858443882280769
1731474147.6896822,-0.3454195261001587,0.43337929248809814,-9.982441902160645,-0.005066137405634058,0.12013733303239017,-0.010283401762079352,2.2144554810469868,2.0618588325445746,0.380605347566815
1731474147.739603,-0.3505779504776001,0.42843934893608093,-9.977140426635742,-0.00674715789379594,0.11553401461699242,-0.010232465930519283,2.272357903907243,2.061091602885997,0.37595622562681436
1731474147.7895708,-0.3442579209804535,0.44717955589294434,-10.014467239379883,-0.008366466728467366,0.11081713594563518,-0.01018166986816988,2.116398376618778,2.0709387815498514,0.3706451224082425
1731474147.839557,-0.2940550446510315,0.5944892764091492,-9.976007461547852,-0.009921058805327957,0.10600398640525363,-0.010131377919457039,1.7371235512678644,2.0877079343381904,0.365933669332893
1731474147.889536,-0.20518560707569122,0.54371577501297,-9.946371078491211,-0.011408429123736876,0.10111088361898453,-0.010081958690442521,1.4962127633544926,2.100769624054493,0.3605895064643112
1731474147.939503,-0.43645983934402466,0.24578015506267548,-9.995434761047363,-0.012826945584033394,0.09615283273603288,-0.010033639757837113,1.19316163536814,2.1146274782044157,0.3558414557322077
1731474147.9893682,-0.2412494719028473,0.5809628963470459,-10.00178050994873,-0.01417576576391243,0.0911441493661792,-0.009986443900486336,0.9179457511483806,2.1290989435320884,0.3504565359328116
1731474148.0393229,-0.4226839542388916,0.305077463388443,-9.972904205322266,-0.015454405088398885,0.08609919137475884,-0.009940340154238805,0.643768203961903,2.143733472359022,0.34506796400474665
1731474148.0892675,-0.17636924982070923,0.6643232107162476,-9.994385719299316,-0.016662581339553117,0.08103225014759151,-0.009895351787111352,0.36738456969761746,2.158692685538562,0.339612007721809
1731474148.1391916,-0.017241640016436577,0.4965020716190338,-10.021503448486328,-0.017800755063441184,0.07595688294275918,-0.009851560587809767,1.370305961878134,2.1396283652271233,0.33486547222790025
1731474148.1891968,0.08745230734348297,0.6030604839324951,-10.011589050292969,-0.018871553118240944,0.07088519855446787,-0.00980920322046813,1.5232593770769074,2.1638007538005524,0.3300738792326869
1731474148.2391913,-0.9778934717178345,0.07814757525920868,-9.990920066833496,-0.019880431769725416,0.06582795066379289,-0.009768787916102497,1.5308675642098488,2.177371981868066,0.32455978791340157
1731474148.289004,-0.13256236910820007,0.6477596163749695,-9.916261672973633,-0.02083349193636419,0.0607957575057865,-0.00973096857741728,1.5384207933632728,2.1910945865669507,0.3190241830900534
1731474148.3390393,-0.5607509613037109,0.18505153059959412,-10.030675888061523,-0.021734755796918102,0.055800017444920746,-0.009696225603280694,1.5458995181260016,2.204923496631781,0.31348009937517196
1731474148.3899746,-0.24053697288036346,0.6703055500984192,-9.993346214294434,-0.022586021263378765,0.0508526500784213,-0.009664777031094775,1.569193251060251,2.195052720507722,0.3085715979060012
1731474148.4399455,-0.4149532914161682,0.18424800038337708,-9.922703742980957,-0.023387960612134794,0.04596552722072266,-0.009636746431461016,1.5694854071584958,2.204147288759092,0.30295604757536254
1731474148.4898977,-0.32263457775115967,0.564312756061554,-10.011099815368652,-0.024140703025503647,0.04115031179268295,-0.009612142539765767,1.5690791095930166,2.227076167719458,0.2981227490720001
1731474148.539939,-0.4096713662147522,0.33358514308929443,-9.978320121765137,-0.024844012581194813,0.03641850866266192,-0.00959075094578857,1.5671671074398428,2.242085095580521,0.2924707503960034
1731474148.5898108,-0.33266475796699524,0.4822407364845276,-9.983787536621094,-0.02549728006312804,0.03178132599483277,-0.009572245137481122,1.5647849010372512,2.2528096169457132,0.28764383661023535
1731474148.6398258,-0.36633315682411194,0.4079146981239319,-10.017582893371582,-0.026099559061056547,0.027249442806285887,-0.009556333543304778,1.5623174785310348,2.2666634354471005,0.2819504532250852
1731474148.6896837,-0.37975364923477173,0.41329842805862427,-9.984230041503906,-0.026649701820197866,0.022832911900566983,-0.00954283907398478,1.560789482632999,2.280628730703948,0.2771157398771868
1731474148.7397082,-0.3236582279205322,0.45023560523986816,-9.957239151000977,-0.02714644538273012,0.01854115013581225,-0.009531710983718765,1.558696902431281,2.2933360589862244,0.2713747531244513
1731474148.7895982,-0.4094269871711731,0.40006208419799805,-10.010847091674805,-0.02758846874475067,0.014382926266703854,-0.0095229028623699,1.554799642668301,2.308293628139572,0.2664922128522047
1731474148.8395123,-0.3341081142425537,0.49790847301483154,-9.974881172180176,-0.02797442658601743,0.010366275305007978,-0.009516296655114548,1.549973284828818,2.3328440993055715,0.2616795202521393
1731474148.8895173,-0.40162166953086853,0.3858509361743927,-9.979796409606934,-0.02830293363513008,0.006498369237442006,-0.009511750937379406,1.5465912700514333,2.349568777429517,0.25585289333265326
1731474148.9394271,-0.33520281314849854,0.49349677562713623,-9.995915412902832,-0.028572581542865613,0.0027854552119547914,-0.009509111704914874,1.543175343251274,2.3661226348968047,0.2500661354876217
1731474148.989394,-0.39363962411880493,0.3769837021827698,-9.9759521484375,-0.028782005791641883,-0.000767101896997286,-0.009508200471485422,1.539676018447507,2.3827372401789324,0.2442353499130405
1731474149.0393794,-0.32641667127609253,0.49767252802848816,-9.984671592712402,-0.02892996120271561,-0.004154748620922048,-0.009508827481054602,1.5447857394572702,2.3615938682580127,0.23935873134151653
1731474149.0893095,-0.39658495783805847,0.40310895442962646,-9.991823196411133,-0.029015394266623182,-0.007373729617496537,-0.009510787300113278,1.5428073780946043,2.371461592891982,0.23349004319564362
1731474149.139286,-0.31508591771125793,0.49019932746887207,-9.974615097045898,-0.029037495235352827,-0.010421131463448674,-0.009513862861673075,1.5407535573938849,2.381322156180413,0.22758866560193108
1731474149.1892076,-0.3865351676940918,0.38851404190063477,-9.984769821166992,-0.028995747181180642,-0.0132948876873637,-0.009517828398788928,1.5404352092806874,2.3911718041272203,0.22269022867825308
1731474149.2392628,-0.3284973204135895,0.4553205966949463,-9.989445686340332,-0.028889968700213563,-0.01599366820317627,-0.009522434391211013,1.5387462641886693,2.4009479703448555,0.21675816829583827
1731474149.2891707,-0.36882221698760986,0.4021817743778229,-9.976908683776855,-0.028720321204414617,-0.018516719405266394,-0.009527418614671102,1.5369776570174107,2.410724355983321,0.21077588319588655
1731474149.3390863,-0.339903861284256,0.46282950043678284,-9.997218132019043,-0.0284873051153436,-0.02086378870011472,-0.009532530386005676,1.5351431186760516,2.4204209072308727,0.20478853313201073
1731474149.3890233,-0.36403632164001465,0.4146801829338074,-9.983406066894531,-0.02819175201342387,-0.023035157578111365,-0.009537550632746097,1.534070997282294,2.4300029317629614,0.19993615163333658
1731474149.4399798,-0.3282560706138611,0.4430561661720276,-9.990992546081543,-0.027834813658009907,-0.025031677029298476,-0.009542315552047653,1.5321769393786462,2.4398098867743307,0.19376546059754737
1731474149.489963,-0.34830936789512634,0.4099680185317993,-9.985173225402832,-0.02741798863987843,-0.026854727163699757,-0.009546719612074624,1.5302535251135188,2.4493412636107545,0.18770273039519442
1731474149.5398574,-0.3367198407649994,0.4484230577945709,-9.979958534240723,-0.026943163080930987,-0.02850614536445452,-0.009550692061175085,1.5279803034066712,2.458768722950124,0.18282557915084469
1731474149.5898209,-0.3511849343776703,0.42940324544906616,-9.9827299118042,-0.026412597178326183,-0.029988212578248498,-0.00955415994639422,1.5256850432483844,2.468189834568885,0.17670088717694898
1731474149.639785,-0.3449540138244629,0.44740235805511475,-9.993281364440918,-0.025828857438895406,-0.031303697645559764,-0.009557026807006513,1.5233497304725885,2.4774335385449007,0.17061844752529434
1731474149.689714,-0.348348468542099,0.4309273660182953,-9.968509674072266,-0.025194743557877514,-0.032455883902409395,-0.009559184349021668,1.521410390408569,2.4866602282196864,0.16572623586207685
1731474149.7397473,-0.3465837836265564,0.4344233572483063,-9.99363899230957,-0.024513239037918282,-0.033448537274247084,-0.009560511641016487,1.5190888575974024,2.495865153452928,0.1595209068722312
1731474149.7896135,-0.35121646523475647,0.43669408559799194,-9.989757537841797,-0.023787477872149465,-0.034285839673703654,-0.009560872655641003,1.51514310262436,2.504934660007675,0.1546275520778947
1731474149.839714,-0.3436480164527893,0.4485608637332916,-9.986307144165039,-0.023020713040474754,-0.03497234847500804,-0.009560159637093968,1.5081294216555416,2.5138849316410297,0.14976275771914338
1731474149.8895714,-0.3596985638141632,0.44395580887794495,-9.989258766174316,-0.02221628505981605,-0.03551301096257557,-0.009558328146908253,1.5040481625141486,2.522730511080615,0.14356922871905975
1731474149.9394937,-0.3440133035182953,0.440993994474411,-9.989282608032227,-0.021377583875802214,-0.035913178620836816,-0.009555389350035201,1.4998966900758468,2.5315216368848557,0.1373277337017627
1731474149.9894161,-0.3629949986934662,0.4327376186847687,-9.978323936462402,-0.020508008124510015,-0.03617855899119795,-0.009551392410186984,1.495704640217447,2.5401988717281814,0.1310797479411476
1731474150.0394707,-0.35161831974983215,0.4358040392398834,-9.977865219116211,-0.019610928767483063,-0.03631511853510386,-0.009546386652693448,1.5015430691322211,2.5488472604036447,0.12618756226978242
1731474150.0892787,-0.3588835597038269,0.44195646047592163,-9.983288764953613,-0.01868965530439296,-0.03632900146781632,-0.009540368486748687,1.4993377275695272,2.5573344333800447,0.11990684607016887
1731474150.1392915,-0.3525645434856415,0.4376795291900635,-9.988021850585938,-0.01774741905543708,-0.036226502115914536,-0.009533272048058226,1.4970728429173,2.5657848080025887,0.1135624090094772
1731474150.1892414,-0.3610277473926544,0.4366692900657654,-9.989734649658203,-0.01678737134150759,-0.03601405566674415,-0.009525016452319544,1.4953171901869189,2.574124680632789,0.10871390372164957
1731474150.239233,-0.35390523076057434,0.44004589319229126,-9.980785369873047,-0.015812575715675806,-0.03569820715902178,-0.009515552556429923,1.4931837655603712,2.582400232211541,0.10232593453345634
1731474150.2891834,-0.34808841347694397,0.4356316924095154,-9.990507125854492,-0.014826008083968797,-0.035285573172376926,-0.009504867277205467,1.491022942228354,2.5905455521403016,0.09594653192316946
1731474150.3391497,-0.3495331108570099,0.4318283796310425,-9.987534523010254,-0.013830588187758085,-0.03478280455061952,-0.009492973587208887,1.4883592987206393,2.598656258447075,0.09109188875172607
1731474150.3889644,-0.34229859709739685,0.43807172775268555,-9.979005813598633,-0.012829222818271608,-0.03419653969476613,-0.009479910725814123,1.4858409762974336,2.606606541843012,0.08469179234276215
1731474150.4399717,-0.35194361209869385,0.43843650817871094,-9.987793922424316,-0.011824827224876797,-0.03353337246901381,-0.009465728732823031,1.4798643817465202,2.6147166849490904,0.07971845778910534
1731474150.4899325,-0.3497510850429535,0.43838438391685486,-9.9824857711792,-0.010820311011718875,-0.03279985062127021,-0.009450465950960657,1.4731683293197873,2.6226148939460434,0.07486523574028665
1731474150.5399475,-0.3440338671207428,0.4448617100715637,-9.980924606323242,-0.009818543925722888,-0.03200248152791075,-0.009434144755493236,1.4686320610342505,2.6303653054919733,0.06837196079930938
1731474150.5898569,-0.3435697555541992,0.4436219334602356,-9.993441581726074,-0.008822344492884842,-0.03114773686523124,-0.009416775493772954,1.4641016564296785,2.637988029789076,0.0618967848055531
1731474150.6397717,-0.3434273302555084,0.4445556402206421,-9.981748580932617,-0.007834496483241435,-0.0302420566940241,-0.009398373924289058,1.4667088644536461,2.64560274170928,0.05710712359488325
1731474150.6896904,-0.34205594658851624,0.4357181191444397,-9.985618591308594,-0.00685775649259235,-0.02929183080658131,-0.009378979623763446,1.464126279759607,2.6531001155242904,0.050573958890882634
1731474150.7397027,-0.3368449807167053,0.4365089237689972,-9.985532760620117,-0.005894849358042566,-0.028303343804178337,-0.009358647135840083,1.4595858658227434,2.660633406584205,0.04575941015843969
1731474150.7896504,-0.3370206654071808,0.44003918766975403,-9.988101959228516,-0.004948472573547928,-0.027282711919526918,-0.009337435967367757,1.4561482528890157,2.667999541986135,0.039181243862450206
1731474150.839731,-0.34878137707710266,0.4350849390029907,-9.995030403137207,-0.00402129361574043,-0.026235849307693192,-0.009315428330800254,1.452158722944602,2.675402680401895,0.03439103263969289
1731474150.8894904,-0.34958556294441223,0.43955448269844055,-9.992443084716797,-0.0031159002798038945,-0.02516845738798343,-0.009292765083853387,1.4484301415568257,2.682605014858434,0.027807584308461794
1731474150.9395454,-0.33814793825149536,0.4347154200077057,-9.992836952209473,-0.0022347296935969147,-0.024086013612487994,-0.009269673409569159,1.4446391223541586,2.6898528542765643,0.021102385094378843
1731474150.9894862,-0.3534073531627655,0.43426117300987244,-9.98823356628418,-0.0013800407397782637,-0.022993754930726362,-0.009246462108639636,1.44089875113927,2.6969367523315073,0.014471717957861957
1731474151.0393903,-0.35689619183540344,0.43784937262535095,-9.982269287109375,-0.0005539007094972233,-0.021896659217111633,-0.009223483042355053,1.4446055671717493,2.704071263463017,0.009760188405541848
1731474151.089344,-0.34376397728919983,0.4424741268157959,-9.984296798706055,0.0002418581586946663,-0.020799443930701832,-0.009201075197957497,1.4421629326318932,2.7110903804617763,0.003053587582815186
1731474151.1394033,-0.34501925110816956,0.4349685609340668,-9.980411529541016,0.0010056488978759397,-0.019706587401509053,-0.009179517966956197,1.4368878423355436,2.718145502594143,-0.0016585450459924744
1731474151.1892505,-0.35001081228256226,0.4367660880088806,-9.98748779296875,0.0017360840398452676,-0.018622335938540676,-0.009159014347745579,1.4331337102375523,2.725068957635361,-0.008402399482978927
1731474151.2393665,-0.35077399015426636,0.4410512447357178,-9.983784675598145,0.002431952522375347,-0.01755068770959025,-0.009139702819406622,1.4293901763334254,2.7319373694500255,-0.015159345555916488
1731474151.2891529,-0.3346041738986969,0.4414082169532776,-9.978825569152832,0.0030922256621992617,-0.01649539245846546,-0.009121673256209986,1.4301289799048074,2.738837702010945,-0.01979979608829288
1731474151.339152,-0.3532467186450958,0.44168803095817566,-9.982125282287598,0.003716035104694028,-0.015459973616261806,-0.009104959829144256,1.4277490412971883,2.7456704693252325,-0.02663682027869326
1731474151.38902,-0.3444956839084625,0.44681721925735474,-9.989038467407227,0.004302650575437557,-0.014447747671226809,-0.0090895328851978,1.4215539319212565,2.7524668825430467,-0.031211156054939196
1731474151.4390323,-0.3412024676799774,0.45108357071876526,-9.988518714904785,0.004851489754452794,-0.013461845202633065,-0.00907532946139667,1.417740362181405,2.7592146450257617,-0.038068404572437035
1731474151.4888942,-0.35135704278945923,0.44728460907936096,-9.988907814025879,0.005362119663569002,-0.012505240768580497,-0.009062301737157373,1.4124275794293306,2.765987847331954,-0.04264557294092738
1731474151.5399947,-0.3428148031234741,0.43845781683921814,-9.985496520996094,0.005834250615441719,-0.011580757208036127,-0.009050438164561423,1.4076729647862594,2.772814068804616,-0.04968130022132328
1731474151.589838,-0.35130253434181213,0.43799132108688354,-9.989453315734863,0.006267745667017516,-0.010691016242334418,-0.009039755342846883,1.4030486969585567,2.7794469469052823,-0.05656956915944984
1731474151.6397727,-0.34227749705314636,0.4340595602989197,-9.994230270385742,0.006662625334624841,-0.009838367035983517,-0.009030294073073762,1.4059087676563164,2.7861485587727812,-0.06109244586716323
1731474151.6898038,-0.345090389251709,0.4354267120361328,-9.992863655090332,0.0070190546185233725,-0.009024839040254987,-0.009022139981928409,1.40326292091896,2.7927546161059484,-0.06803548426997842
1731474151.7628806,-0.3515869379043579,0.4293767511844635,-9.992466926574707,0.007337326546664939,-0.008252123339028337,-0.009015446688672175,1.39587306453718,2.802472346040388,-0.07575716798367033
1731474151.7896523,-0.3438718020915985,0.40278133749961853,-9.977875709533691,0.0076178636833614845,-0.007521537859047372,-0.00901042170847614,1.393794717027117,2.8059891240957366,-0.0794989978231615
1731474151.839626,-0.3230764865875244,0.15276339650154114,-9.979936599731445,0.007861201973623477,-0.006833702366103346,-0.00900726152499012,1.3893452901102283,2.8126665925186396,-0.08398625622249631
1731474151.8895721,-0.22208143770694733,0.187400683760643,-10.070066452026367,0.008067804073969478,-0.006187590311728112,-0.009006156908198967,1.3851720344030325,2.819202461876169,-0.09099762635960176
1731474151.939552,-0.3626958727836609,-0.3957504630088806,-10.0033597946167,0.008237712669522482,-0.005578927250468398,-0.009007512582305638,1.3810478317185664,2.8256786036296164,-0.09798297040927914
1731474151.989412,-0.49128592014312744,-0.6028002500534058,-10.101073265075684,0.008370627290983298,-0.004997703917365901,-0.009012236692061838,1.3828252951135542,2.8323191209523664,-0.10239791179773039
1731474152.039409,-0.33004650473594666,0.15001556277275085,-9.991525650024414,0.008466673256779994,-0.004425846918572856,-0.009021870424804863,1.3762191453692842,2.838971005595048,-0.10680934233497238
1731474152.0893848,-0.42409035563468933,-0.23452405631542206,-9.928579330444336,0.008526968642192937,-0.003837841228057839,-0.009038388179910362,1.3723712263117342,2.8454335525146113,-0.11385465866870145
1731474152.139399,-0.3635537326335907,0.16380023956298828,-9.96257495880127,0.008553483208019285,-0.003203950782518447,-0.009063608752261526,1.3685136676335012,2.851939536386003,-0.12097977296598866
1731474152.1892323,-0.3265819549560547,0.03705446049571037,-9.926668167114258,0.008548697092113262,-0.0024930185926164273,-0.009098636056037404,1.3647152654577306,2.858374567972621,-0.12805757240557347
1731474152.2392316,-0.34383344650268555,0.2610261142253876,-9.951214790344238,0.00851526114632372,-0.0016743025453346612,-0.009143699394494493,1.3609319842325138,2.8648147133031947,-0.13516934637437233
1731474152.2891235,-0.35642221570014954,0.23940710723400116,-9.95168685913086,0.008455697044716274,-0.0007190484944803578,-0.00919823732540347,1.369399376106598,2.871436120270076,-0.13943588650057903
1731474152.3392637,-0.3735845685005188,0.305618554353714,-9.976515769958496,0.008372368747807182,0.0003982769848507275,-0.009261075747374083,1.3676321900483734,2.8779519886947966,-0.14666439113639196
1731474152.389072,-0.3662432134151459,0.2762035131454468,-9.98367977142334,0.008267644497318599,0.0016992679170084422,-0.009330683356274481,1.3614087933782384,2.8845898753376793,-0.15086505430841665
1731474152.4390504,-0.3853393793106079,0.2848801612854004,-9.992253303527832,0.008144025457912058,0.003201405135071838,-0.009405430423464804,1.3579949887691876,2.8910661793133365,-0.15806917366565837
1731474152.4890246,-0.3745778203010559,0.2969180941581726,-9.987142562866211,0.008004200415460669,0.004918226222831831,-0.009483773901601265,1.3529414773790591,2.897768424035772,-0.16224725772113258
1731474152.539969,-0.36941108107566833,0.32635197043418884,-10.017279624938965,0.007851044866493169,0.006859538282305793,-0.009564362779343742,1.3488669194697387,2.9043930114556016,-0.16961811799991758
1731474152.5898287,-0.3613957464694977,0.32036691904067993,-9.987659454345703,0.007687546080842497,0.009031534994844652,-0.009646114317492053,1.344900833109462,2.910892920564126,-0.1768522083998433
1731474152.6398501,-0.3558109700679779,0.3377763330936432,-10.017905235290527,0.007516675117265011,0.011436899054644976,-0.009728257228028602,1.346445306546487,2.9176883534178955,-0.1809710727134124
1731474152.6896672,0.11172740161418915,0.9410831928253174,-9.988750457763672,0.0073408483917256125,0.014074441668904262,-0.009810319001034986,1.3440220947573458,2.9242078571031542,-0.18819321322460014
1731474152.7397246,0.6022413969039917,1.6053311824798584,-9.950591087341309,0.007159803192239867,0.016936666089406256,-0.009892029867676969,1.3384705496939342,2.9311688546074937,-0.19234585968472848
1731474152.7897217,0.45707929134368896,1.1785728931427002,-9.883322715759277,0.006966832063260514,0.020005328264124482,-0.009973021734359815,1.3348115928529742,2.9378162898082882,-0.19964586969074877
1731474152.8396256,0.18722468614578247,0.8254978060722351,-10.014012336730957,0.006746284454223891,0.02324920745194794,-0.010052439139276503,1.3311474027295194,2.9445586465758233,-0.2070156842929377
1731474152.889567,-0.2138817459344864,0.33085402846336365,-10.020838737487793,0.006475060069374836,0.026627386068585182,-0.010128973065887774,1.3275259760418046,2.951314550364743,-0.21435763709651964
1731474152.939633,-0.84199458360672,-0.42900434136390686,-10.077438354492188,0.006127592470056724,0.030096388528879518,-0.010201449974879777,1.331993309815213,2.958515196011822,-0.21836615260516734
1731474152.9894435,-1.1347620487213135,-0.6553553342819214,-10.159132957458496,0.0056823652676359394,0.033618246487067335,-0.010269549719278948,1.329933703953339,2.965375202343234,-0.22569001590302692
1731474153.0395005,-0.5375619530677795,0.026560742408037186,-10.053828239440918,0.005127208978447306,0.0371664360891243,-0.01033432783320336,1.3233505712942852,2.9727597884698085,-0.22965878303755963
1731474153.0893981,-0.6419805884361267,-0.14039817452430725,-10.018117904663086,0.004460248834714893,0.04072649501436387,-0.010398234806504546,1.3195497869412687,2.9798591837400434,-0.23707182408384342
1731474153.13939,-0.48468977212905884,0.17504572868347168,-9.904268264770508,0.003687074297319823,0.04429244987603205,-0.010464420822845467,1.3157165616307867,2.9871454293963016,-0.24459441511428248
1731474153.1893013,-0.5061772465705872,0.20886747539043427,-9.975037574768066,0.0028177475651457303,0.0478630369844693,-0.010535746140587861,1.311946742733017,2.994440650209512,-0.2520344285183607
1731474153.2392278,-0.504601240158081,0.35937514901161194,-9.961531639099121,0.0018651392724022215,0.05143898042637014,-0.010614191770566966,1.3081381190920107,3.0019466590776576,-0.2595890661075081
1731474153.2890863,-0.5235366225242615,0.4285810589790344,-9.942535400390625,0.000844064994893803,0.05502085860680308,-0.010700837966150142,1.3177194180199823,9.337945852811991,-0.2633103696786153
1731474153.3391986,-0.5182399153709412,0.41647854447364807,-9.95583724975586,-0.00022914373980842688,0.05860761014202959,-0.010796004421419323,1.3160556269499122,9.340081889397698,-0.27092196441128286
1731474153.3890479,-0.5484158992767334,0.4480695128440857,-9.937871932983398,-0.0013368975446742593,0.0621958113920216,-0.010899299539574496,1.309908263056546,9.351212588446987,-0.27462052460882935
1731474153.4390175,-0.5478430390357971,0.4370619058609009,-9.939542770385742,-0.002460570982804954,0.06577960096583658,-0.011009654916104544,1.3064368848827517,9.349172122461198,-0.28223033678279685
1731474153.4889638,-0.5263280868530273,0.4694240391254425,-9.992203712463379,-0.003580720745980275,0.06935089256764357,-0.01112542230399163,1.3032888040616222,9.348304820898534,-0.285955142749808
1731474153.5389593,-0.5467596054077148,0.46723413467407227,-9.985711097717285,-0.004677389732618534,0.07289960834321384,-0.011244616423602255,1.2999051492254774,9.345426339083053,-0.2935848619314849
1731474153.5898702,-0.551529049873352,0.4757702946662903,-9.996859550476074,-0.005730438141179047,0.076413901830779,-0.011365246815579398,1.2966558320547836,9.342366307845424,-0.2973813847627886
1731474153.6398945,-0.5152885317802429,0.4587487578392029,-9.976001739501953,-0.0067198089105308615,0.07988042909768932,-0.011485517290195549,1.2936200266214415,9.339752425681874,-0.3050717631506707
1731474153.6898081,-0.5710768699645996,0.47691261768341064,-10.003650665283203,-0.007625781768596876,0.08328469308081757,-0.011603850741885732,1.2900222668975316,9.33447528594015,-0.3085959019194787
1731474153.7397523,-0.525538980960846,0.48766395449638367,-9.994609832763672,-0.008429197397705923,0.08661136960138485,-0.011718887569992543,1.2842042389327943,9.32738362284032,-0.31217673638204774
1731474153.789613,-0.5084438323974609,0.5185731053352356,-9.965476989746094,-0.009111657440780126,0.08984450515890788,-0.011829494944144873,1.280318299153536,9.323304678824025,-0.31988372175741203
1731474153.8396065,-0.5292466878890991,0.4623800218105316,-9.98769760131836,-0.009655813524971383,0.09296764533958357,-0.011934694352256152,1.276394468627023,9.3194388391642,-0.3276490499507952
1731474153.88953,-0.48913973569869995,0.46731847524642944,-9.979022026062012,-0.01004565854782271,0.0959641055069376,-0.012033559106136807,1.2724722277166318,9.315832599464182,-0.33539262999374636
1731474153.9395475,-0.4685397744178772,0.5056860446929932,-9.99309253692627,-0.01026675502520932,0.0988173688805202,-0.012125208437359055,1.276821199606397,9.316627519883506,-0.33888359518783395
1731474153.9894257,-0.45702219009399414,0.4998912811279297,-9.956080436706543,-0.010306508994405186,0.10151131889519617,-0.012208838349073384,1.271953312994487,9.307725874144085,-0.34227182289153596
1731474154.0394197,-0.4022035002708435,0.5028836131095886,-9.970311164855957,-0.010154475981151065,0.10403027237151202,-0.012283667624651965,1.2688577564465124,9.30345078984333,-0.3501207089260113
1731474154.089314,-0.42270535230636597,0.48164358735084534,-9.983999252319336,-0.009802627004519643,0.10635906726755848,-0.012348854601412253,1.2657618499895809,9.299469321783809,-0.35793837922700394
1731474154.1392968,-0.38456615805625916,0.5007065534591675,-9.960416793823242,-0.009245517800799246,0.10848327458520773,-0.012403505568908953,1.2626026372431802,9.295706758261593,-0.3658866250787305
1731474154.1892097,-0.3837924003601074,0.4896668791770935,-10.00211238861084,-0.00848032578102073,0.11038940158179233,-0.012446743244293712,1.2594598226452947,9.292261238985017,-0.3737691196146123
1731474154.2391903,-0.3806689977645874,0.47306615114212036,-10.001392364501953,-0.007506806379482389,0.11206503896100554,-0.012477805018173735,1.2562712797538595,9.2890649406568,-0.38174739151834786
1731474154.2891269,-0.5227342247962952,0.9770021438598633,-9.972333908081055,-0.00632704751073465,0.11349857467691186,-0.01249616512194299,1.2652071500142503,9.28929432747827,-0.38495017911718793
1731474154.3391964,-0.6536251306533813,1.1910713911056519,-9.957026481628418,-0.00494465396576145,0.11467744327736563,-0.012501518877262504,1.2636843744558273,9.286482113454216,-0.3930113076786062
1731474154.389024,-0.5680765509605408,0.5152410864830017,-9.884139060974121,-0.0033634645329846105,0.1155857451220255,-0.012493518140642017,1.2621635192187437,9.283980387291717,-0.4010385019922254
1731474154.438984,-0.8518714904785156,1.0223649740219116,-10.114818572998047,-0.0015864477557723656,0.11620411201807745,-0.012471547721193858,1.2596649976232477,9.272297375430059,-0.40414697849254294
1731474154.4890203,-0.5428992509841919,0.5303182005882263,-9.948053359985352,0.00038494172690346914,0.11651166846707955,-0.01243498691221515,1.257934464356177,9.268308393904741,-0.4122466199003864
1731474154.4890203,-0.5428992509841919,0.5303182005882263,-9.948053359985352,0.002550639471441356,0.11648796117544592,-0.012383595415930846,1.2573972340829858,9.267128487832768,-0.41476958057978003
1731474154.8706543,-0.253031849861145,0.3442539572715759,-9.981415748596191,0.004910633993833736,0.11611494124619118,-0.012317362557210875,1.226961876362841,9.169710189653573,-0.4594643899490759
1731474154.9205117,-0.23775433003902435,1.9156547784805298,-9.855184555053711,0.0074629006903409395,0.1153775977166045,-0.012236096650308257,1.232064433052331,9.17738003632256,-0.4622847120669361
1731474154.9705315,-0.23775433003902435,1.9156547784805298,-9.855184555053711,0.010201687267518576,0.11425970034410239,-0.012139041024332883,1.229962841930832,9.170638964002647,-0.4704906221426105
1731474154.9705315,-0.4001409411430359,0.5899046659469604,-9.77047061920166,0.013117021674590053,0.11273780780768158,-0.012024342659252852,1.2299478116835154,9.170591474183848,-0.4705497704094097
1731474155.020408,-0.1947299689054489,1.112312912940979,-10.022409439086914,0.016195410958880108,0.11078171666596265,-0.011888750857721194,1.2307874317329388,9.160634442320129,-0.47328220990380954
1731474155.0704117,-0.1947299689054489,1.112312912940979,-10.022409439086914,0.01942052227783332,0.10835999090224661,-0.011728217842776199,1.2285213280968443,9.150285976946575,-0.48152889400802407
1731474155.0704117,-0.21322882175445557,0.8714746236801147,-10.088143348693848,0.022773172074915877,0.10544300122070907,-0.011539198222709464,1.2285040644400702,9.150207325512447,-0.4815925017899897
1731474155.1203022,-0.2239534556865692,0.9041865468025208,-9.905142784118652,0.02623135174852145,0.10200349156878748,-0.011319536417370511,1.2262575463848027,9.139950303460651,-0.490007221939829
1731474155.1704328,-1.3943976163864136,-0.5810168385505676,-10.084527969360352,0.029771816581975946,0.0980189504817047,-0.011068387575052227,1.224119008491438,9.130117930960587,-0.4983033099607346
1731474155.2202253,-0.5982986688613892,0.3721615672111511,-10.063822746276855,0.0333740716015423,0.09347671140317566,-0.010785927098175952,1.2219843663674443,9.120175673926292,-0.5069283095693061
1731474155.2702136,-0.46314603090286255,0.03619835898280144,-10.011496543884277,0.03702349834121814,0.088377987640514,-0.010473463318561901,1.228125782580579,9.142716445579659,-0.5091311032404534
1731474155.320184,-0.5183843374252319,0.10595713555812836,-10.015792846679688,0.04071005060857279,0.08273746811767439,-0.010133456500843524,1.2272675204540755,9.13796746300245,-0.5178144867341345
1731474155.3702235,-0.11161405593156815,0.15249505639076233,-10.028287887573242,0.044424904218699546,0.07658092286643478,-0.009769166835916134,1.2248511667391078,9.121252181050457,-0.5199480641334198
1731474155.4200754,-0.11161405593156815,0.15249505639076233,-10.028287887573242,0.04815794393847529,0.06994340939935906,-0.009384374549639654,1.223700366375885,9.11366024150396,-0.5284080678092806
1731474155.4200754,0.01588253118097782,0.03391246125102043,-10.020575523376465,0.05189578713250401,0.06286772361373738,-0.008983301629561303,1.2236596315149306,9.113379472736773,-0.5287251483350499
1731474155.469965,-0.25383296608924866,0.3448643088340759,-9.974748611450195,0.05562075626481564,0.05540298279423146,-0.008570488834619756,1.2226794822928428,9.106232825940312,-0.5368815722314518
1731474155.5198517,-0.10165785253047943,0.2227284014225006,-9.922452926635742,0.059311477587938484,0.04760299624551505,-0.008150463073112246,1.221801867798888,9.098937278875399,-0.5453713637336577
1731474155.5699394,-0.1839110553264618,0.4192267656326294,-9.99095344543457,0.06294418994740199,0.03952422180118463,-0.00772729365396067,1.220691670642195,9.091726281721984,-0.5475670656267152
1731474155.6198208,-0.19280876219272614,0.3612631559371948,-9.950533866882324,0.06649371427601121,0.031223951787371793,-0.0073043764525809966,1.2197174606662493,9.083359460554206,-0.5563705520913431
1731474155.6698928,-0.00384950777515769,0.6912849545478821,-9.922014236450195,0.06993397236452634,0.02275875210636189,-0.006884469897333975,1.2179007688549077,9.075568796307012,-0.5581557667367976
1731474155.7207956,0.744889497756958,1.6483407020568848,-9.939879417419434,0.07323730872387216,0.014181773874429563,-0.006469657175196013,1.2138184907172516,9.067367700671586,-0.5603883098429572
1731474155.770732,0.3141680657863617,1.1341841220855713,-10.00156307220459,0.07637188065999467,0.00553808920575304,-0.006061308372634322,1.2117613309341126,9.059475468139881,-0.5688369584292488
1731474155.8206358,-0.22723086178302765,1.8611536026000977,-9.893811225891113,0.0793000590444495,-0.0031395676815861463,-0.005660256316742862,1.2098583802449365,9.05142297744236,-0.577475093929564
1731474155.8706558,-0.4820658564567566,1.1263463497161865,-9.909140586853027,0.08198147547962234,-0.011832101381891745,-0.0052668669771420784,1.2081949784345267,9.04352212213234,-0.5859443472797392
1731474155.9206085,-0.49431735277175903,1.4234706163406372,-9.892594337463379,0.0843787530799394,-0.020532645014820414,-0.0048808039984009535,1.210753146569215,9.03550925114536,-0.5876750236883139
1731474155.970523,-0.07631285488605499,0.5004467964172363,-10.070384979248047,0.08646101319672068,-0.02924308981827633,-0.004500991503515591,1.2086567553357244,9.02744300954765,-0.5893518032722233
1731474156.0204434,-0.24069371819496155,-0.35270124673843384,-10.206377029418945,0.08820353351800408,-0.03796813509267897,-0.004126371194121979,1.2076688870851024,9.019279527888502,-0.5978862850077294
1731474156.0704284,-0.6625279188156128,-0.9579870700836182,-10.202309608459473,0.0895862781575884,-0.04670649365693881,-0.0037573127401069103,1.2069020989603798,9.011002708075974,-0.606438559203033
1731474156.1203353,-0.7205891013145447,-0.26662561297416687,-10.021163940429688,0.09059458409795612,-0.055442476926218065,-0.003396574948526029,1.206361040181946,9.002610922441837,-0.6149869901985773
1731474156.170457,-0.539745032787323,-0.3440362215042114,-10.02015209197998,0.09122126478164023,-0.06414349868915326,-0.0030488854300929056,1.2062066292192475,8.994019062855402,-0.6164290954916998
1731474156.220292,-0.539745032787323,-0.3440362215042114,-10.02015209197998,0.09146710543593795,-0.0727634317798481,-0.0027197098549356057,1.2059301403411264,8.98532032854571,-0.6249528981769046
1731474156.220292,-0.7099660634994507,-0.18074804544448853,-9.97559928894043,0.09133963058525237,-0.08124681207786769,-0.002414367630169249,1.2059289466192302,8.98525559167809,-0.6250157008225284
1731474156.270222,-0.4648881256580353,-0.01231425255537033,-9.95477294921875,0.09085200551018263,-0.08953196431787125,-0.002137634772912507,1.204284344313921,8.976391181861459,-0.626220800690127
1731474156.320121,-0.6345815658569336,0.11943099647760391,-9.89240837097168,0.09002226617686017,-0.09755422197800033,-0.0018933835753527104,1.2037049247737093,8.967053398356084,-0.6349165268482909
1731474156.370157,-0.4727819561958313,0.4156271815299988,-9.890789985656738,0.08887232932367559,-0.10524943736822956,-0.0016841590690982325,1.202979145086298,8.957815473635414,-0.6358793670635248
1731474156.419992,-0.4727819561958313,0.4156271815299988,-9.890789985656738,0.08742694758367602,-0.11255728828086486,-0.0015108748316327127,1.20256261209551,8.94816188103287,-0.6443652436969549
1731474156.419992,-0.4746846556663513,0.4383656084537506,-9.960733413696289,0.0857126919309346,-0.11942379343529763,-0.0013728417746011025,1.2025605769611298,8.948097028514118,-0.644421445432186
1731474156.4700122,-0.4082532823085785,0.4868992269039154,-9.922954559326172,0.08375705352199773,-0.12580247406454995,-0.0012681562195831838,1.2023580062812351,8.938161512030769,-0.6528975300848718
1731474156.5199811,-0.4082532823085785,0.4868992269039154,-9.922954559326172,0.08158776584104699,-0.13165453760918958,-0.001194128820569638,1.2020695151100693,8.927853267215843,-0.6537915425730291
1731474156.5199811,-0.42095184326171875,0.46034306287765503,-9.94420051574707,0.07923224744606365,-0.13694872689998633,-0.0011474861583433155,1.2020687821203695,8.927786254587824,-0.6538459055668587
1731474156.5699735,-0.3570947051048279,0.568742036819458,-9.979055404663086,0.07671721071289578,-0.1416610043179432,-0.00112451834893345,1.2020503082293459,8.917193772034292,-0.6622973613207447
1731474156.6198468,-0.35170891880989075,0.5658196806907654,-10.006991386413574,0.07406834832149407,-0.14577430916790934,-0.0011214076333555245,1.201401112457779,8.906186702019285,-0.6630412354314456
1731474156.6698449,-0.35522300004959106,0.5524300336837769,-9.985919952392578,0.07130997729025158,-0.14927846470566875,-0.001134625221222914,1.2013695061452614,8.894799752913615,-0.6715231079335403
1731474156.7197773,-0.3219449818134308,0.549161434173584,-9.999293327331543,0.0684647914150269,-0.15216986292856605,-0.0011611518703500772,1.2015119194712762,8.883084402021456,-0.67997312547907
1731474156.7707493,-0.28970977663993835,0.5290778875350952,-9.999696731567383,0.06555371694982476,-0.15445081432986574,-0.001198495754231424,1.2018295677846718,8.870710740085356,-0.6886170394045169
1731474156.8206139,-0.3143123984336853,0.5126650929450989,-10.002466201782227,0.06259574132377965,-0.1561287915373616,-0.001244661377712334,1.200847766529531,8.857987790399092,-0.6891474793500748
1731474156.870688,-0.2599155902862549,0.5240530371665955,-9.9974946975708,0.05960779560151131,-0.15721570366959692,-0.0012981296040472697,1.2002233106791247,8.845008769693072,-0.6895292658488037
1731474156.9205627,-0.2969132363796234,0.4891177713871002,-9.995007514953613,0.05660474554414539,-0.1577272550538054,-0.0013578072099159502,1.2002224946295783,8.831925514684617,-0.6978105519898433
1731474156.9705002,-0.2292598932981491,0.49995648860931396,-10.004132270812988,0.053599414396562635,-0.15768237672679475,-0.0014229539418352606,1.1998681493775138,8.818193884035948,-0.6980269638050772
1731474157.0204966,-0.2579132318496704,0.4924958348274231,-10.007848739624023,0.05060258982668475,-0.1571027033944972,-0.0014931412615134423,1.1999491881101108,8.804002076597456,-0.706486816911058
1731474157.0704823,-0.24598565697669983,0.4703907370567322,-10.037233352661133,0.04762305107768226,-0.15601211820282404,-0.0015682819322465364,1.2001517113583557,8.78956726474019,-0.7148629298325792
1731474157.1203732,-0.2604096531867981,0.4892358183860779,-9.96359920501709,0.04466771402552455,-0.15443634098388478,-0.0016486654614980502,1.2004765069217243,8.774427957375204,-0.7234216479201496
1731474157.1703653,-0.2412901222705841,0.49372807145118713,-10.008519172668457,0.04174187038704924,-0.1524025792384998,-0.001734849007144781,1.1998314816483215,8.759399947848838,-0.7231462051182936
1731474157.2202988,-0.25269076228141785,0.49582356214523315,-9.967084884643555,0.03884939650846181,-0.1499393025886223,-0.0018274416634612286,1.2000719625445109,8.74367669247097,-0.7229831075072609
1731474157.2702527,-0.29472479224205017,0.49913355708122253,-9.967273712158203,0.035992959591451906,-0.1470760747600282,-0.0019269393176603797,1.20037736512508,8.727669973349292,-0.7313448834101154
1731474157.3201697,-0.2970694601535797,0.489962100982666,-10.00029182434082,0.033174347373046184,-0.14384335168025872,-0.0020336325766240975,1.2007688636620941,8.711307178441878,-0.7397081636631807
1731474157.370167,-0.34497785568237305,0.48454904556274414,-9.985206604003906,0.03039489994969829,-0.14027223043210413,-0.002147626175272526,1.2012401637216743,8.694571181147095,-0.7480861255962844
1731474157.4200604,-0.34497785568237305,0.48454904556274414,-9.985206604003906,0.027655924553713674,-0.13639416846922786,-0.0022689471909184515,1.2005173729279448,8.67746081973614,-0.7475670604481267
1731474157.4200604,-0.33604687452316284,0.4833928644657135,-9.957088470458984,0.024958996876770542,-0.13224072195604317,-0.002397562705325676,1.2005271303546505,8.676730728907067,-0.7479204784610998
1731474157.4700716,-0.3997398614883423,0.48361581563949585,-10.031452178955078,0.022306114956236515,-0.12784333664710948,-0.002533324396821023,1.2007752915437968,8.660021477192712,-0.7559376588049497
1731474157.5199513,-0.34380197525024414,0.5006750226020813,-9.992836952209473,0.01969979696535999,-0.1232331936224114,-0.002676049124348287,1.2009347966603179,8.641823182973997,-0.7554874360643928
1731474157.570007,-0.40116724371910095,0.47793707251548767,-9.987176895141602,0.017143143966656133,-0.11844109936130352,-0.0028256762764049255,1.2012263135246666,8.624200813060035,-0.7636369483838005
1731474157.6199002,-0.3695700168609619,0.49243950843811035,-9.979872703552246,0.014639818902516538,-0.11349736676693714,-0.0029822506920101077,1.2023729642433254,8.605599328789244,-0.762954801979796
1731474157.6698487,-0.41193339228630066,0.5345649719238281,-9.984530448913574,0.012194011886247129,-0.10843171055886786,-0.003145775298524213,1.2029985532884424,8.587250440510653,-0.7711650181161064
1731474157.7197323,-0.39578092098236084,0.5249258279800415,-9.9964017868042,0.009810434446331628,-0.10327327580950986,-0.0033161440109738534,1.20355534283237,8.568313308144507,-0.770251316688886
1731474157.7697887,-0.4148857295513153,0.5152393579483032,-10.009360313415527,0.007494306839260291,-0.09805071431811216,-0.0034932011682032027,1.2041157945806873,8.549198371227694,-0.7785578601178984
1731474157.8206913,-0.38384121656417847,0.5252273082733154,-9.947656631469727,0.005251289175737656,-0.09279211079628866,-0.0036768097894400104,1.205393495063147,8.528844116201713,-0.7778995639893854
1731474157.8705866,-0.37471675872802734,0.512197732925415,-9.963825225830078,0.0030872989680932254,-0.08752479980134349,-0.0038667534220400606,1.2061640808690237,8.509845108233074,-0.7859429286188481
1731474157.9205194,-0.39332878589630127,0.548274040222168,-9.980907440185547,0.0010082560847720651,-0.08227522445674643,-0.004062542433572968,1.2069836071285684,8.489549946141207,-0.794453438548079
1731474157.970504,-0.3940364420413971,0.5331264734268188,-9.951216697692871,-0.0009800851628674187,-0.077068888745324,-0.004263366862410589,1.2077629329242832,8.470058586793762,-0.8025556179433507
1731474158.0204077,-0.3720216453075409,0.5273372530937195,-10.012054443359375,-0.002872182673111903,-0.071930336915348,-0.004468191645472982,1.208567122154784,8.449636420469876,-0.8109779865614495
1731474158.070431,-0.36154696345329285,0.5203379988670349,-9.981355667114258,-0.004662796620143532,-0.0668830445639039,-0.0046759049132698936,1.2068761204352443,8.429420396602696,-0.809387156525721
1731474158.1203873,-0.33269548416137695,0.5211107134819031,-9.980409622192383,-0.006347203686258826,-0.06194923728485985,-0.004885463873701592,1.2072799547372994,8.408465675573687,-0.8178765754578737
1731474158.170318,-0.3207956552505493,0.5135068893432617,-9.99845027923584,-0.007921463217798241,-0.05714973884386619,-0.005095932198956107,1.208811862996178,8.388122634403784,-0.8160812180945272
1731474158.2202368,-0.30687013268470764,0.5224953889846802,-9.994780540466309,-0.009382656365353952,-0.05250387603776577,-0.005306472478340483,1.2104574015777803,8.366706666707731,-0.8146373742146348
1731474158.2701979,-0.3119085729122162,0.5182780623435974,-9.960308074951172,-0.010729034471291666,-0.04802943209706985,-0.005516360440697158,1.211340158093499,8.346328638514771,-0.8227007595906832
1731474158.3202002,-0.3232634663581848,0.5220323204994202,-9.994431495666504,-0.011960026135425343,-0.04374263906315877,-0.0057249249418649065,1.2122380635410785,8.324816360112212,-0.8311810902611082
1731474158.3702445,-0.28144803643226624,0.5371149778366089,-9.997028350830078,-0.013076145807381138,-0.039658197716313084,-0.005931487988629101,1.2124495389125518,8.30391057890639,-0.8291643804688064
1731474158.4200966,-0.28144803643226624,0.5371149778366089,-9.997028350830078,-0.014078957532781204,-0.0357893391634176,-0.006135438300001951,1.2131270035494905,8.282735827963544,-0.8374278733315644
1731474158.4200966,-0.31811031699180603,0.5085797905921936,-9.998974800109863,-0.014971095845973809,-0.03214788212279924,-0.006336334625607017,1.2131449116808233,8.282159613906446,-0.8376524727499333
1731474158.4701083,-0.2963423728942871,0.5248386859893799,-9.973089218139648,-0.015756151293948865,-0.028744192766458183,-0.006533907972487188,1.214510431741331,8.261179529472505,-0.835473932587229
1731474158.5199509,-0.2963423728942871,0.5248386859893799,-9.973089218139648,-0.016438451426844775,-0.025587107323055462,-0.006727957674459188,1.2154424819019132,8.239883314112268,-0.8437235155471614
1731474158.5199509,-0.2880183458328247,0.5108221173286438,-10.006240844726562,-0.01702293987307469,-0.02268393061381599,-0.006918239979501662,1.2154500138699091,8.239707083767158,-0.843791749769357
1731474158.5699735,-0.2980497181415558,0.49068212509155273,-9.973512649536133,-0.017515137904817738,-0.02004043730136082,-0.007104475451108929,1.2163402586991208,8.218340935116014,-0.8520636297974143
1731474158.6198955,-0.2980497181415558,0.49068212509155273,-9.973512649536133,-0.01792106510678732,-0.017660786752344834,-0.007286395282596164,1.2171932443033808,8.196756034560153,-0.8604199478794827
1731474158.6198955,-0.31672346591949463,0.5230117440223694,-9.992152214050293,-0.018247094421838413,-0.015547467608242656,-0.007463702308261382,1.2171985538274817,8.19661786139238,-0.8604734435420871
1731474158.6698563,-0.3087119460105896,0.5085582733154297,-10.039146423339844,-0.018499774746017817,-0.013701413869725029,-0.007636100421543255,1.2161142568053143,8.175125365087558,-0.8580800279495074
1731474158.719787,-0.37044280767440796,0.5171928405761719,-9.983965873718262,-0.01868562762448865,-0.0121222116508538,-0.0078034887863871385,1.2165168836319993,8.153547952385757,-0.86640662356302
1731474158.769825,-0.35450124740600586,0.50801682472229,-9.950888633728027,-0.018810877121164228,-0.01080823643760936,-0.007966026300149188,1.2187342567814567,8.131720539532548,-0.8640022309884503
1731474158.8206687,-0.35450124740600586,0.50801682472229,-9.950888633728027,-0.01888118942693253,-0.009756710994312376,-0.008123860114033755,1.219739317657071,8.109733639273523,-0.8724681008108149
1731474158.8206687,-0.3457523584365845,0.5308553576469421,-10.02107048034668,-0.01890159877518322,-0.008963764759232022,-0.008276854749904097,1.2197459130808956,8.109585664992776,-0.8725251152116859
1731474158.8708599,-0.3598632216453552,0.5240755081176758,-9.973990440368652,-0.018876591477328578,-0.008424557720494708,-0.008424678642001094,1.220689586003793,8.087867557409362,-0.8808996314721038
1731474158.9206185,-0.37419551610946655,0.5006221532821655,-9.971975326538086,-0.018810159218887366,-0.008133415137779706,-0.008567016358538737,1.2215779370709394,8.066328234952714,-0.8892183396912668
1731474158.970634,-0.3892771303653717,0.5268489718437195,-10.022506713867188,-0.018705740968192854,-0.008083867100779804,-0.008703607723899621,1.2209528095487643,8.044430709734486,-0.8864731982803579
1731474159.0204418,-0.3892771303653717,0.5268489718437195,-10.022506713867188,-0.018566114296749297,-0.008268671216365858,-0.008834308593395018,1.2215207214676036,8.022797623090407,-0.8948173474525832
1731474159.0204418,-0.42074161767959595,0.5047159194946289,-9.953629493713379,-0.018393310626604896,-0.008679909230156506,-0.008959237569288032,1.2215243899996686,8.022651874830796,-0.8948736117401893
1731474159.0705018,-0.4061630666255951,0.5313308238983154,-9.978107452392578,-0.01818855835704562,-0.009309065013673488,-0.009078690589837676,1.2241507255190016,8.000750150785835,-0.8919981027011721
1731474159.1203768,-0.4061630666255951,0.5313308238983154,-9.978107452392578,-0.01795228037436135,-0.0101470821755444,-0.00919287402200204,1.2263743710439319,7.978723552250686,-0.8891581394957833
1731474159.1203768,-0.40526318550109863,0.5140536427497864,-10.022367477416992,-0.01768419901560525,-0.011184470293799952,-0.009301841339716283,1.2263845780000076,7.97856464392698,-0.8892191150820667
1731474159.170345,-0.3965300917625427,0.502784788608551,-9.966509819030762,-0.01738350314111191,-0.012411358133261208,-0.009405652073873387,1.2277535371091526,7.95690044380408,-0.8975377713741068
1731474159.2203305,-0.3965300917625427,0.502784788608551,-9.966509819030762,-0.017049011450720273,-0.01381743318305344,-0.009504431534151191,1.2290876695168405,7.935077452606058,-0.9059283859011155
1731474159.2203305,-0.38581791520118713,0.508468508720398,-9.955740928649902,-0.016679327334890637,-0.015391891134497442,-0.009598209109973692,1.2290963969887545,7.934932251717012,-0.90598424842199
1731474159.2702694,-0.3934820294380188,0.535594642162323,-9.982986450195312,-0.016272978076823666,-0.017123509371140364,-0.009686758804597545,1.230381332156322,7.913197373427383,-0.9143500646475824
1731474159.3201983,-0.35386738181114197,0.5342658758163452,-9.970437049865723,-0.015828545118951612,-0.019000846726309653,-0.0097696208321664,1.2294405587559214,7.891014895473852,-0.91118718381784
1731474159.3701587,-0.3599652647972107,0.5136325359344482,-9.988588333129883,-0.015344835751706604,-0.021012446754991025,-0.009846224110958902,1.2302784505918924,7.869050909270349,-0.9196135382040288
1731474159.4200087,-0.32312655448913574,0.5253065824508667,-10.006949424743652,-0.014821100068112162,-0.02314690357899539,-0.009916014919126727,1.2326301897466623,7.846474811809724,-0.9164529141754773
1731474159.4701254,-0.32851725816726685,0.5242536067962646,-9.958294868469238,-0.01425723404545948,-0.025392839640622514,-0.009978563457512638,1.23393801759504,7.824601848834395,-0.9248097253944603
1731474159.5200732,-0.2989529073238373,0.5134327411651611,-9.978981018066406,-0.013653933967767998,-0.02773891621978015,-0.010033550289027231,1.2352310445688144,7.802325770414782,-0.9333201835719911
1731474159.5699933,-0.2976040542125702,0.528435468673706,-10.035711288452148,-0.013012803772392185,-0.03017386531410034,-0.010080702441925507,1.2364777454304647,7.780205294562004,-0.9417687028391394
1731474159.6201284,-0.2584826648235321,0.5214108228683472,-9.999695777893066,-0.012336442516244711,-0.03268652477498259,-0.0101199182557005,1.2353511106132706,1.639804469196564,-0.9382493085588479
1731474159.6698892,-0.29298895597457886,0.5123870372772217,-9.98195743560791,-0.011628510688185954,-0.035265883943155635,-0.010151437818191649,1.2361453271227578,1.6409846020123842,-0.946707312152584
1731474159.7198591,-0.2805013358592987,0.5189118385314941,-9.997715950012207,-0.010893683159228016,-0.03790109806863019,-0.010175771056286084,1.2369194838199702,1.6420851145196702,-0.9552779283264781
1731474159.7697053,-0.2805013358592987,0.5189118385314941,-9.997715950012207,-0.01013746576466955,-0.040581487334830135,-0.010193537068501495,1.2382920750351847,1.6324244028250672,-0.9514310125082172
1731474159.7697053,-0.25231388211250305,0.526025652885437,-9.983038902282715,-0.009366029788565974,-0.0432965793965112,-0.010205419311165465,1.2382970051554338,1.632447225607794,-0.9514784577158838
1731474159.8196115,-0.2625800669193268,0.5331252813339233,-9.989421844482422,-0.008586162234257826,-0.046036193031857645,-0.010212144504861556,1.2391836041245423,1.63654346180988,-0.9601303282311783
1731474159.870672,-0.25197145342826843,0.5226522088050842,-10.016423225402832,-0.007805242173319222,-0.04879052421065624,-0.010214452412997347,1.2400396497965698,1.640474525302991,-0.9687113399865548
1731474159.9206076,-0.25197145342826843,0.5226522088050842,-10.016423225402832,-0.007031157478768528,-0.05155018594107159,-0.010213166137487507,1.2408762331740804,1.644275933851274,-0.9773088232981869
1731474159.9206076,-0.2829984724521637,0.5082409381866455,-9.991646766662598,-0.006272156952041323,-0.05430617871990119,-0.01020930467983022,1.240880485195992,1.6442951281905707,-0.9773530529404676
1731474159.9705005,-0.2829984724521637,0.5082409381866455,-9.991646766662598,-0.005536615087585019,-0.057049820505266295,-0.010204056198830183,1.2411869294984132,1.6488817444012316,-0.973185776855402
1731474159.9705005,-0.28480449318885803,0.5353925824165344,-9.947487831115723,-0.004832748966892016,-0.05977270903419616,-0.01019858987792516,1.2411917768974423,1.6489130794691365,-0.9732385228716665
1731474160.0204332,-0.2747306227684021,0.5366898775100708,-10.02096939086914,-0.004168425094845908,-0.062466801310209444,-0.010193863091274,1.244654053429178,1.662525761364969,-0.9698971436063192
1731474160.0705328,-0.2890772521495819,0.5572153329849243,-9.990310668945312,-0.0035510892361165143,-0.06512459137393814,-0.010190617725731349,1.246030418628243,1.6686488185951438,-0.9777080855089695
1731474160.120394,-0.2890772521495819,0.5572153329849243,-9.990310668945312,-0.0029877175179611297,-0.06773928135012716,-0.010189530238959141,1.2475344359221106,1.6752159768521278,-0.9863116971905523
1731474160.120394,-0.30816128849983215,0.5108066201210022,-9.969518661499023,-0.002484719629586872,-0.07030484225315047,-0.010191252570417362,1.2475423797230765,1.6752502998744967,-0.9863573198911626
1731474160.1703773,-0.3075338900089264,0.5318730473518372,-9.989680290222168,-0.002047808320097873,-0.07281588953741239,-0.010196305506959507,1.2490358826660304,1.6816236829841904,-0.9949621435554494
1731474160.220353,-0.3075338900089264,0.5318730473518372,-9.989680290222168,-0.0016818898508491682,-0.0752674904979456,-0.010205023036475308,1.2475038973510595,1.6536620720239148,-0.9905846046675943
1731474160.220353,-0.3376113772392273,0.514896035194397,-9.994827270507812,-0.0013909982275942014,-0.07765508664431653,-0.010217612911209723,1.2475084032039552,1.6536592838961985,-0.9906293637127036
1731474160.2703774,-0.3376113772392273,0.514896035194397,-9.994827270507812,-0.0011782157842322122,-0.07997446834552241,-0.010234243081444093,1.2483717585853877,1.6530248233900413,-0.9992327987228343
1731474160.2703774,-0.34983736276626587,0.5286862254142761,-9.962014198303223,-0.001045564841600701,-0.08222171931524543,-0.010255059469563203,1.248376692661892,1.6530206222019945,-0.9992821236550113
1731474160.3201654,-0.34983736276626587,0.5286862254142761,-9.962014198303223,-0.0009939468332822439,-0.08439321801693125,-0.010280085364111326,1.2511091638985519,1.6521895622786913,-0.9946735387539501
1731474160.3201654,-0.3544542193412781,0.5517596006393433,-9.99022388458252,-0.0010231575138753676,-0.08648572975392801,-0.010309089972164159,1.2511179416221863,1.652184757429437,-0.9947174120567654
1731474160.370143,-0.3544542193412781,0.5517596006393433,-9.99022388458252,-0.0011319487856018288,-0.08849653580834002,-0.010341610416523078,1.2538706182423465,1.651134200973442,-0.9901977840367373
1731474160.370143,-0.3516252934932709,0.5374683141708374,-9.990341186523438,-0.0013181206104859644,-0.09042353097355278,-0.010377112680540021,1.253878744732949,1.651128670742927,-0.9902386592828628
1731474160.4202018,-0.35329899191856384,0.519231379032135,-9.9598970413208,-0.0015786361262508373,-0.09226519254555585,-0.010415081063167641,1.2555916550353818,1.6498460075899768,-0.998877388758303
1731474160.4702244,-0.3345542550086975,0.5284436941146851,-9.966591835021973,-0.0019097600428215735,-0.09402042030377271,-0.010454942256720744,1.257301544458154,1.6483296505192426,-1.0075489286396975
1731474160.5200076,-0.3611922562122345,0.5078816413879395,-10.020652770996094,-0.0023072083660138597,-0.09568837601961674,-0.010495988283190266,1.2590049170492768,1.6465776057077024,-1.0162402641955428
1731474160.570008,-0.3498118817806244,0.5143244862556458,-10.008946418762207,-0.0027662511387756506,-0.09726838404712798,-0.010537514753721767,1.256446718760277,1.6445904851677748,-1.0114179977511337
1731474160.6198819,-0.33152875304222107,0.5191381573677063,-9.96742057800293,-0.0032817744277649974,-0.0987598768395534,-0.010579036756745994,1.2573207963888078,1.6423533849180652,-1.020120307253071
1731474160.6699362,-0.33152875304222107,0.5191381573677063,-9.96742057800293,-0.003848408329677566,-0.10016240206542276,-0.010620248866125278,1.259647025363672,1.6398708275495648,-1.015226248136972
1731474160.6699362,-0.3189314603805542,0.520063042640686,-9.994635581970215,-0.004460719777234433,-0.10147567384231869,-0.010660808344104529,1.2596541769005933,1.639858026799158,-1.0152689016043426
1731474160.7198498,-0.31146132946014404,0.49782794713974,-9.991044998168945,-0.005113380496257524,-0.10269959061528422,-0.010700279571462325,1.261105345333662,1.6371204706515918,-1.0239755862573738
1731474160.7696915,-0.27925825119018555,0.5191643238067627,-9.976333618164062,-0.0058013229830868405,-0.10383419156983277,-0.010738236747576345,1.2621758456104029,1.6341675611661692,-1.0188791840263463
1731474160.8196826,-0.26903486251831055,0.5131709575653076,-9.989280700683594,-0.00651994249210428,-0.10487962538300015,-0.01077430512065607,1.2635097848646781,1.6309074367447889,-1.0276180309017902
1731474160.8696597,-0.26903486251831055,0.5131709575653076,-9.989280700683594,-0.007265303109542328,-0.10583618322241774,-0.010808137157935422,1.264702262917587,1.6273927194558422,-1.0225512006733908
1731474160.8696597,-0.2614664137363434,0.5186227560043335,-10.001703262329102,-0.008034242264606929,-0.10670434101724288,-0.010839438318326601,1.2647085400554081,1.6273728680214496,-1.022598626844025
1731474160.9207711,-0.2614664137363434,0.5186227560043335,-10.001703262329102,-0.00882436005142559,-0.10748478201056563,-0.010868041586167556,1.2658785377726482,1.6234947633999808,-1.0315403125583935
1731474160.9207711,-0.2740640342235565,0.5009732246398926,-9.956851959228516,-0.00963394780106083,-0.10817840516685534,-0.010893929650620996,1.265884452924243,1.6234742389542607,-1.031586044841777
1731474160.9705622,-0.274027019739151,0.5083372592926025,-10.000702857971191,-0.010461863092046312,-0.10878628504368487,-0.010917136507759908,1.2672576746540234,1.619478586878651,-1.026300035874164
1731474161.02048,-0.274027019739151,0.5083372592926025,-10.000702857971191,-0.011307374284336136,-0.10930960965467576,-0.010937667477873392,1.269935209015845,1.6151484996798482,-1.0211974159509998
1731474161.02048,-0.2422710508108139,0.5382094979286194,-10.02502155303955,-0.012170068223789868,-0.1097496937788767,-0.010955601802863337,1.26994449346212,1.6151247717069936,-1.0212437081169434
1731474161.070523,-0.2966766655445099,0.5066756010055542,-9.966814994812012,-0.013049838658171737,-0.11010807567345032,-0.01097123414833202,1.2716611927501755,1.6105606555361767,-1.0298968452115305
1731474161.1204453,-0.24885393679141998,0.5543649792671204,-9.974495887756348,-0.013946837103992695,-0.11038660424358641,-0.010985007731390375,1.2733659536336193,1.605663093283219,-1.0386872923240322
1731474161.1704516,-0.2737577557563782,0.5325854420661926,-10.017370223999023,-0.01486137935598297,-0.1105875013260273,-0.010997327072212794,1.2750243290570273,1.6005204370282222,-1.0474509671034404
1731474161.2202854,-0.2737577557563782,0.5325854420661926,-10.017370223999023,-0.015793894702979903,-0.1107134129722522,-0.01100856777157819,1.2717402715593535,1.595102580290461,-1.041993558962464
1731474161.2202854,-0.2906055152416229,0.5151991844177246,-9.989680290222168,-0.01674485323968828,-0.11076736505623609,-0.011019258360918988,1.2717441450353328,1.5950729601977849,-1.0420402653597973
1731474161.2703397,-0.3137006163597107,0.5183002948760986,-9.986680030822754,-0.01771460171912841,-0.11075261511394076,-0.011030109673917944,1.272445490580346,1.5894052897519306,-1.0507749163448783
1731474161.3202085,-0.3137006163597107,0.5183002948760986,-9.986680030822754,-0.01870315692064843,-0.11067251587151519,-0.011041856828891368,1.2736642863309136,1.5834388585417223,-1.04524071920619
1731474161.3202085,-0.3133438229560852,0.5345419645309448,-10.003192901611328,-0.019710045504470596,-0.11053046824695703,-0.011055145086925362,1.2736693457449997,1.5834063098205609,-1.0452874768467921
1731474161.370244,-0.3098906874656677,0.528404951095581,-10.000290870666504,-0.020734265056365588,-0.1103299593475242,-0.011070555618563162,1.2751319471253504,1.5772250208166385,-1.0397159868196517
1731474161.4202275,-0.3098906874656677,0.528404951095581,-10.000290870666504,-0.021774345124881564,-0.11007461237949512,-0.01108868259333378,1.276015498224901,1.5706482420462407,-1.0485666369681426
1731474161.4202275,-0.33454248309135437,0.49304723739624023,-9.936529159545898,-0.02282840948852911,-0.10976815125444936,-0.01111010856982437,1.2760202938850105,1.5706106050899264,-1.048616309843452
1731474161.470167,-0.3619610667228699,0.5299280881881714,-10.047443389892578,-0.02389413655944713,-0.1094142729774941,-0.011135271859386049,1.276830834441467,1.5638857166858904,-1.0573285066262221
1731474161.5199888,-0.36124423146247864,0.5293492674827576,-9.995766639709473,-0.024968605185222672,-0.10901657551621304,-0.011164486359078737,1.2775903903101398,1.5568104377546546,-1.0661714904376687
1731474161.570011,-0.3769206404685974,0.5511707663536072,-9.91990852355957,-0.026048152428466163,-0.10857864969710225,-0.011198068694452447,1.276386558755849,1.5495107993205508,-1.0603157315223641
1731474161.6198852,-0.3769206404685974,0.5511707663536072,-9.91990852355957,-0.027128338699678005,-0.10810424256545154,-0.011236121049888676,1.2767252129346027,1.541889808426821,-1.0691761345598205
1731474161.6198852,-0.3783719837665558,0.543317973613739,-9.976374626159668,-0.028203995466659235,-0.10759735800350619,-0.011278114970968485,1.2767268066243427,1.5418492239922355,-1.0692225676317262
1731474161.6698837,-0.24439649283885956,0.7247949242591858,-9.980547904968262,-0.029269444998839097,-0.10706240822414599,-0.011322878004694436,1.2769932852071917,1.5340059839093352,-1.0780582031535177
1731474161.7198694,0.5133981704711914,1.6614665985107422,-9.919093132019043,-0.0303197774656095,-0.10650559353733544,-0.011368899224454554,1.2776865204789536,1.525905294107898,-1.0720075910974494
1731474161.769799,0.2999531030654907,1.1952157020568848,-10.016883850097656,-0.03135403666015357,-0.10593847461587982,-0.011414489858461701,1.2780678573680007,1.5174961438508854,-1.08089638465965
1731474161.8197489,0.4892212450504303,1.505788803100586,-9.938413619995117,-0.03237859570519622,-0.1053813326481939,-0.01145784569357199,1.278370193059808,1.5088107800216637,-1.0898268450537352
1731474161.8706505,0.4892212450504303,1.505788803100586,-9.938413619995117,-0.03340833407738484,-0.10486373685441938,-0.011497115177156968,1.2785871439658931,1.4997544530792295,-1.0837422755583326
1731474161.8706505,-0.516516387462616,-0.022402653470635414,-9.965340614318848,-0.034465181462966184,-0.1044222306078865,-0.011530328275123115,1.2785887216955252,1.4996930992069346,-1.0838025825575197
1731474161.9206002,-0.9550522565841675,-0.21024510264396667,-10.16689682006836,-0.03557323283005906,-0.10409383008571978,-0.011555525087989649,1.2795915001345612,1.4906245194752106,-1.0775414520503979
1731474161.9705899,-0.9550522565841675,-0.21024510264396667,-10.16689682006836,-0.03675125450739658,-0.10390680789956153,-0.011571581447407482,1.2799785666538133,1.481171590288246,-1.0864515440461857
1731474161.9705899,-0.7593311667442322,-0.04050649330019951,-10.03207015991211,-0.03800740291506108,-0.10387524208209657,-0.011579163296814148,1.2799802269865346,1.4811249423347572,-1.0864949872760767
1731474162.0203743,-0.7593311667442322,-0.04050649330019951,-10.03207015991211,-0.03933889247748497,-0.10399946661756146,-0.01158071636004429,1.2804706356486595,1.4715978952671525,-1.0800962237552887
1731474162.0203743,-0.5015047788619995,0.2697582244873047,-10.028075218200684,-0.0407345161829463,-0.10426908122567856,-0.011579621091873287,1.2804725130698769,1.4715468005837076,-1.0801424825473813
1731474162.0706327,-0.6376875638961792,0.10086476802825928,-9.939265251159668,-0.0421775071249856,-0.1046661878602378,-0.011579432953175045,1.2807830363375259,1.4615067418378402,-1.0891267498620543
1731474162.1203902,-0.4812456965446472,0.29825708270072937,-9.977543830871582,-0.043647752471409104,-0.10516805875803278,-0.011583384781639904,1.2809844533212773,1.4512558849754618,-1.0980934701264973
1731474162.1703827,-0.5795964598655701,0.24074093997478485,-9.958183288574219,-0.04512317351594497,-0.10574893762038745,-0.01159402100731093,1.2810747046228759,1.4408225424656402,-1.1070205767530845
1731474162.2203078,-0.5795964598655701,0.24074093997478485,-9.958183288574219,-0.04658049916275848,-0.1063812855164175,-0.011613080993268729,1.281002399390947,1.430082172322719,-1.1004452956819761
1731474162.2203078,-0.508014976978302,0.46040502190589905,-9.957934379577637,-0.047995692453918895,-0.1070367908321151,-0.01164154784912067,1.2810027259307448,1.4300217625316713,-1.1004950855827857
1731474162.2702415,-0.508804440498352,0.4490143060684204,-9.982624053955078,-0.04934440606540756,-0.1076875567264512,-0.011679731237721366,1.2810003809308053,1.4190910676408703,-1.109409345157721
1731474162.320172,-0.48865872621536255,0.4541880786418915,-9.978496551513672,-0.05060265688635701,-0.1083074664162551,-0.011727425678750195,1.280874011962235,1.4077922853752887,-1.1184342930873574
1731474162.370213,-0.5410983562469482,0.4174778163433075,-9.919493675231934,-0.05174737481219083,-0.10887295321787624,-0.011784049181752652,1.281580671898928,1.3963018085273882,-1.1116173507395977
1731474162.4201007,-0.47556886076927185,0.47924375534057617,-9.938119888305664,-0.05275663464157433,-0.10936303177516526,-0.011848572246117867,1.2815204898899233,1.3844249682427223,-1.1206817824601898
1731474162.47022,-0.47460830211639404,0.529241681098938,-10.030539512634277,-0.053609838573713445,-0.10975927604797699,-0.011919431838134226,1.2813274769508451,1.372299296918805,-1.129756788230239
1731474162.5199964,-0.4850676357746124,0.5224998593330383,-9.974165916442871,-0.054288020806906784,-0.11004608363711596,-0.011994792591439506,1.2818336030107833,1.3600357327632324,-1.1227103369275664
1731474162.5699408,-0.48955443501472473,0.4771479666233063,-9.996931076049805,-0.05477407478128353,-0.1102108907297142,-0.012072936614766206,1.281680781128879,1.3474005511261695,-1.1317709130656677
1731474162.6199024,-0.4665283262729645,0.4885329604148865,-9.979948997497559,-0.05505279474722779,-0.11024397922981101,-0.012152375336553532,1.282152545174787,1.3345356488917948,-1.1247046921150168
1731474162.669962,-0.46965348720550537,0.5105751752853394,-9.998185157775879,-0.055110908350569435,-0.1101380769815665,-0.012231789450708035,1.2819287197575109,1.3214107717553027,-1.1177038286788024
1731474162.7198188,-0.4509274959564209,0.5246589779853821,-10.004263877868652,-0.05493717690958318,-0.10988814237264864,-0.012310028780174781,1.281630083427946,1.3079629743457628,-1.126756234157383
1731474162.7698064,-0.4414564073085785,0.5083518624305725,-9.974061965942383,-0.054522499203280755,-0.10949133026972159,-0.01238615262044752,1.281194880075165,1.2942210506903533,-1.1358537292752593
1731474162.8197534,-0.41812509298324585,0.5166147947311401,-9.975350379943848,-0.05386001010393622,-0.10894689946266592,-0.012459385234288257,1.2816765826119496,1.2803278014366712,-1.1286319721280325
1731474162.8696876,-0.38708367943763733,0.5227304100990295,-9.974908828735352,-0.05294520659239107,-0.1082560146662824,-0.012528980563246347,1.2813374908377189,1.2660398714262717,-1.1377474271902064
1731474162.9196005,-0.36882284283638,0.5231413841247559,-9.979649543762207,-0.05177610960117803,-0.10742156004789923,-0.012594134441840588,1.2805221207257937,1.2515458263408263,-1.1305105615183781
1731474162.970591,-0.3273898661136627,0.5379171371459961,-10.020581245422363,-0.05035343348414094,-0.10644800234090254,-0.0126540337369194,1.2798381725122518,1.2364687884108922,-1.1397969335497715
1731474163.0204976,-0.3707225024700165,0.505232036113739,-9.976547241210938,-0.048680678753445616,-0.10534124747078995,-0.012708002445085256,1.2790398588605991,1.2213532728943763,-1.1489746768817077
1731474163.070438,-0.3476724922657013,0.5362069010734558,-9.949875831604004,-0.04676401943628128,-0.10410844153655738,-0.012755546891389098,1.2781261238349073,1.2060371268270744,-1.1581478927091096
1731474163.1203568,-0.3835640251636505,0.5246970653533936,-9.991329193115234,-0.04461197540776404,-0.1027577657908757,-0.012796192542022551,1.2795348926880818,1.1906101010036685,-1.1505150713880923
1731474163.1703653,-0.3614824414253235,0.5287243723869324,-9.99287223815918,-0.04223501859522348,-0.10129829382501623,-0.012829375407638635,1.2790216020186869,1.1747387620599414,-1.1597307771685303
1731474163.2202575,-0.377625972032547,0.5039097666740417,-9.963214874267578,-0.03964523093494213,-0.09973984286863123,-0.012854533260663863,1.2783199107086507,1.1588449595335315,-1.1520289155759675
1731474163.2702463,-0.3766827881336212,0.5053097605705261,-10.006082534790039,-0.03685602892030938,-0.09809274244995775,-0.012871181773929445,1.277590150787547,1.1424452922269175,-1.1612789484193577
1731474163.3201778,-0.37935033440589905,0.516689121723175,-9.970401763916016,-0.033881916204563683,-0.09636759248808742,-0.012878918239381337,1.2767744912322398,1.1260079027933232,-1.1535617872448964
1731474163.3702471,-0.40080633759498596,0.4964871406555176,-10.002296447753906,-0.03073823164250926,-0.09457510879345443,-0.012877445498237595,1.2757984855466133,1.1091971229824238,-1.1627897545211558
1731474163.4201424,-0.38300633430480957,0.5083088278770447,-10.015450477600098,-0.027440894192120265,-0.09272602264658489,-0.012866626466125224,1.2747462079900245,1.0920905315065397,-1.1720838076381146
1731474163.470025,-0.443865567445755,0.4779611825942993,-10.014248847961426,-0.024006143832363654,-0.09083095632053204,-0.012846595579333223,1.275789393175881,1.0750970339592152,-1.1641111427521371
1731474163.5200374,-0.3783123791217804,0.5307408571243286,-9.943964958190918,-0.020450282065027983,-0.0889003044784007,-0.012817807718465333,1.275190007225989,1.0575493762173878,-1.1734150868399749
1731474163.569949,-0.4149475693702698,0.529784619808197,-9.995633125305176,-0.01678950586361561,-0.08694424060089495,-0.012780852962563503,1.274265871338015,1.0400931094338557,-1.1654119618846146
1731474163.6199312,-0.4006003737449646,0.5575022101402283,-9.984058380126953,-0.013039872698851665,-0.08497287754528687,-0.012736238148154184,1.2730051409921244,1.0223765078019331,-1.1575342183605193
1731474163.6698508,-0.4396592080593109,0.5405032634735107,-9.956144332885742,-0.009217232463659488,-0.0829964329008302,-0.012684356619375992,1.272144087606028,1.0042661179529444,-1.166797149524042
1731474163.719805,-0.4295702874660492,0.5543187260627747,-9.9859037399292,-0.005337037412913859,-0.08102526526512571,-0.012625492189723354,1.2712602088038176,0.9858530973867315,-1.1761416013075436
1731474163.7697442,-0.4295702874660492,0.5543187260627747,-9.9859037399292,-0.0014141486002693959,-0.0790698092380666,-0.012559798501229772,1.27037253255397,0.9673370222975956,-1.1854685944019958
1731474163.7697442,-0.42668965458869934,0.5741111636161804,-9.961564064025879,0.002537244103576167,-0.07714051232945004,-0.012487349642326237,1.2703681561940652,0.967245429017356,-1.185514564834824
1731474163.8196783,-0.4360142648220062,0.5671287775039673,-9.956544876098633,0.006503615956009944,-0.07524781796097772,-0.012408146166846455,1.2713478209226998,0.94888552347677,-1.1772346317905729
1731474163.8696399,-0.4315682351589203,0.557338535785675,-9.982433319091797,0.01047210987189111,-0.07340213045786304,-0.012322032049260204,1.2708697977036578,0.9299158272520712,-1.1866135323312006
1731474163.9195507,-0.42473089694976807,0.5397765636444092,-10.009066581726074,0.014430550808324085,-0.07161367637695205,-0.012228727997443645,1.2704242400228924,0.9108226215567099,-1.1959947454530615
1731474163.9695463,-0.42673540115356445,0.5290296673774719,-9.97465991973877,0.018367423332579645,-0.06989226681588619,-0.012128023503954545,1.2697780805290202,0.891890892991979,-1.1875482018949841
1731474164.0205133,-0.41879597306251526,0.5388911366462708,-9.974834442138672,0.022271823037968156,-0.06824706103761358,-0.012019883358294646,1.269241093558725,0.8719331398300301,-1.1971903631127505
1731474164.070491,-0.38974595069885254,0.5596628785133362,-10.005626678466797,0.026133386724615248,-0.06668645751656033,-0.011904389207332668,1.2687796013842942,0.8523498108329811,-1.2065996850425695
1731474164.1204576,-0.38974595069885254,0.5596628785133362,-10.005626678466797,0.029942159500658358,-0.06521815375658405,-0.011781738697704242,1.2682244376060026,6.844573452301023,-1.1979630389359572
1731474164.1204576,-0.38453778624534607,0.5208667516708374,-9.979079246520996,0.03368844174748216,-0.06384922923238405,-0.011652343307074507,1.2682208913642101,6.844457180803951,-1.1980372407474869
1731474164.1704335,-0.3518224358558655,0.524154782295227,-9.996140480041504,0.03736269108894304,-0.06258606183961475,-0.01151682750450279,1.2665396933260742,6.808087392425359,-1.189401626479469
1731474164.2203336,-0.34355854988098145,0.5191760063171387,-10.006608963012695,0.04095542437043094,-0.06143413009369809,-0.01137594971015162,1.265836613330281,6.780910506756248,-1.1988310839057275
1731474164.270315,-0.34355854988098145,0.5191760063171387,-10.006608963012695,0.044457094863946556,-0.06039789494253724,-0.011230612149194096,1.2646945003502306,6.758369087178538,-1.190280329704473
1731474164.270315,-0.3270731568336487,0.5440074801445007,-9.949302673339844,0.047858038883900327,-0.05948081958744776,-0.011081875228094399,1.2646909032219034,6.758237945398118,-1.1903274590231891
1731474164.3202639,-0.3096349239349365,0.5479848384857178,-10.00139331817627,0.051148486600144205,-0.058685500122212145,-0.010930818633917658,1.2640419640957816,6.73221010215868,-1.1996687442009195
1731474164.3701947,-0.3096349239349365,0.5479848384857178,-10.00139331817627,0.05431855482994309,-0.05801384945151622,-0.010778416522660305,1.2635214798944896,6.705990246861377,-1.2090541402178008
1731474164.3701947,-0.3083556592464447,0.5252760648727417,-10.021833419799805,0.057358254355653206,-0.0574672053469576,-0.010625637883678781,1.263519175651021,6.70585659491474,-1.2091019181328462
