Timestamp,IMU_Linear_Acc_X,IMU_Linear_Acc_Y,IMU_Linear_Acc_Z,Filtered_X,Filtered_Y,Filtered_Z,Pose_X,Pose_Y,Pose_Z
1731474136.3090398,-0.3349152207374573,0.42120271921157837,-9.987563133239746,0.00013190423714150008,0.00019387112590810445,-3.06630922753318e-05,2.4438716803379488,8.16413666959434,0.8809999822190094
1731474136.3588867,-0.27416113018989563,0.43637028336524963,-9.988398551940918,0.00016566916726797949,0.00024249568540231773,-3.996995959008057e-05,2.444580620626456,8.158908705709212,0.8809999822249371
1731474136.408835,-0.46316227316856384,0.3740302622318268,-9.99268913269043,0.00020444321636314388,0.0002998348604569637,-5.098457728233793e-05,2.4444236778016646,8.159894720102534,0.8809999820943913
1731474136.4588637,-0.7430660724639893,0.23497319221496582,-10.004386901855469,0.00024870815128561716,0.00036726437730184744,-6.39365968472838e-05,2.4442848389141396,8.160766995595855,0.8809999819292579
1731474136.5088224,-0.1835746020078659,0.5284029841423035,-9.957141876220703,0.00030058307114794994,0.0004469343250136182,-7.913959736043872e-05,2.4438581334171214,8.163447846340139,0.8809999810362114
1731474136.5587819,-0.1835746020078659,0.5284029841423035,-9.957141876220703,0.00036366837762970695,0.0005415230045671005,-9.688247542015752e-05,2.4435955134219567,8.16509781139677,0.8809999801553664
1731474136.6086814,-0.3212164640426636,0.5026140809059143,-9.98022747039795,0.00053413577547084,0.000783290239307702,-0.00014049781052533674,2.436618469989418,8.223202175968721,0.8809998369273705
1731474136.6586556,-0.3097893297672272,0.373074471950531,-9.942727088928223,0.0006430281095098037,0.0009323578032488002,-0.00016672107884772196,2.431344247042733,8.264780944712168,0.8809993086118262
1731474136.7085814,-0.36415764689445496,0.45885133743286133,-10.01577377319336,0.0007672919421598862,0.0011007818923318995,-0.0001962228663586718,2.438090086552026,8.211862154318627,0.8809995056268926
1731474136.7586725,-0.3174515664577484,0.43460458517074585,-9.97563648223877,0.000906180869056795,0.0012887510333844617,-0.00022912116823560865,2.4367296645679697,8.222617482765635,0.8809985357972289
1731474136.808501,-0.37348827719688416,0.42250683903694153,-9.971975326538086,0.0010588193594227118,0.0014962843933590915,-0.0002654668203283819,2.436016728657118,8.198779368054721,0.8809991703456794
1731474136.858473,-0.3333224654197693,0.4560640752315521,-10.020543098449707,0.0012243213650358952,0.0017231949523577408,-0.0003052934547469085,2.434433047750616,8.201637174244345,0.8809977928418442
1731474136.9084017,-0.3716474175453186,0.4254069924354553,-9.993083000183105,0.0014018659407959602,0.001969090665860237,-0.00034866861481321244,2.436910493088937,8.338671537246237,0.8809987748406439
1731474136.9583972,-0.30855798721313477,0.4505065679550171,-9.975634574890137,0.0015907117190541074,0.0022333676499592192,-0.0003957833432918303,2.436509027932621,8.374944962268684,0.8809969954481487
1731474137.0092394,-0.33945232629776,0.44332513213157654,-10.006049156188965,0.0017900981654443834,0.0025152068514208807,-0.0004469161463249704,2.4360891976367305,8.176107841674037,0.8809984101906322
1731474137.0592687,-0.30693483352661133,0.45724576711654663,-9.974886894226074,0.00199909204968816,0.0028135602970058415,-0.0005023454835880058,2.435680540216898,8.132655340644167,0.8809960233462284
1731474137.1091747,-0.3404017686843872,0.42924872040748596,-9.97957992553711,0.0022165037603651665,0.003127135732933786,-0.0005623118962786,2.4352786721734603,8.196749708323237,0.8809979966122119
1731474137.159192,-0.33027854561805725,0.4503231644630432,-9.993732452392578,0.002440922761169971,0.0034544458092018743,-0.0006269725429804318,2.4348798396113054,8.192956142788757,0.8809949915201306
1731474137.2090607,-0.3312438130378723,0.4298307001590729,-9.984983444213867,0.0026708166433139433,0.0037938929786031127,-0.0006963918868882382,2.434488397037929,8.1891809760203,0.8809903339714557
1731474137.2591295,-0.32849225401878357,0.44427555799484253,-9.991825103759766,0.002904599161550911,0.00414382878071667,-0.0007705910445395463,2.4341057089927727,8.229355667046967,0.880997158593037
1731474137.308942,-0.3466336131095886,0.43178790807724,-9.988767623901367,0.0031406573056434986,0.00450258959785536,-0.0008495799957330692,2.4337302447275277,8.234043756476723,0.880993026040451
1731474137.3589773,-0.3226473927497864,0.4400995373725891,-9.986501693725586,0.0033773933910223363,0.004868523084405563,-0.0009333603504991104,2.4333621619112265,8.256811399992928,0.8809966303471882
1731474137.4088914,-0.3401765823364258,0.42628738284111023,-10.006254196166992,0.0036132566449215107,0.00524001341940708,-0.001021932446646718,2.4330021679874982,8.266183696931025,0.8809916431837284
1731474137.4588525,-0.32638588547706604,0.4399968981742859,-9.992179870605469,0.0038467360627256284,0.005615511214136488,-0.0011153327570928185,2.4326527681994494,8.276499732310027,0.8809958924901943
1731474137.50879,-0.3352645933628082,0.4304140508174896,-9.980989456176758,0.004076353759472793,0.005993549661530523,-0.0012136587724673222,2.4323130053448954,8.28563904151849,0.8809899352230761
1731474137.5588923,-0.33292460441589355,0.43939563632011414,-9.997173309326172,0.004300673746843932,0.006372737545331797,-0.001317021694027089,2.4319823747960716,8.294830434630706,0.8809807841833475
1731474137.6086698,-0.3363683819770813,0.4308415949344635,-9.980420112609863,0.004518321611604593,0.006751748755532569,-0.0014254885338768905,2.4316601003011518,8.293422119235112,0.8809944056165298
1731474137.6586838,-0.3302421271800995,0.4421899914741516,-9.979595184326172,0.00472800640543942,0.007129317422101484,-0.0015390568889185549,2.4313570622252305,8.2994096104339,0.8809867413142488
1731474137.7086177,-0.3302421271800995,0.4421899914741516,-9.979595184326172,0.004928521413297406,0.007504221223472578,-0.0016576157037545606,2.4310602204492673,8.309056422183128,0.8809937204671026
1731474137.7086177,-0.3371421694755554,0.43059173226356506,-9.996553421020508,0.005118731951553825,0.007875257701975343,-0.00178092357803269,2.431049589284893,8.309332043414368,0.8809934703328295
1731474137.758543,-0.3301190137863159,0.4375700056552887,-9.977168083190918,0.005297581067294492,0.008241255080406282,-0.001908652404713745,2.4307798657950603,8.316497103346531,0.8809847209403141
1731474137.8085432,-0.34019094705581665,0.43010377883911133,-9.982741355895996,0.005464110148174628,0.008601113468049652,-0.002040426084102511,2.4305110512517807,8.32400732870215,0.8809707555136052
1731474137.8584952,-0.33192288875579834,0.43809831142425537,-9.991263389587402,0.005617476158662672,0.008953829440724714,-0.0021758122306323384,2.430254778625263,8.331578131302477,0.8809514217151739
1731474137.9083514,-0.34595686197280884,0.4304082989692688,-9.981121063232422,0.005756967988413262,0.00929849647008515,-0.0023143290165491648,2.4300096111180203,8.325582439812093,0.8809923315208615
1731474137.9583144,-0.3420066237449646,0.443705290555954,-9.989968299865723,0.005882033391736578,0.009634294143940523,-0.0024554747404525543,2.4297886931664294,8.330489583069893,0.8809804873841518
1731474138.0092392,-0.34163692593574524,0.42966023087501526,-9.989768028259277,0.0059923087072874534,0.009960469687795275,-0.0025987459368448456,2.4295732927973646,8.345748992401289,0.8791669423488202
1731474138.0592258,-0.33824580907821655,0.44014066457748413,-9.97556209564209,0.006087619089786887,0.010276327610543336,-0.002743645869384643,2.429376543624959,8.354849073128548,0.878539664589235
1731474138.1091983,-0.33824580907821655,0.44014066457748413,-9.97556209564209,0.006167943627169513,0.010581228115463314,-0.0028896570542462268,2.4291957822444283,8.363942937489108,0.8779075809046303
1731474138.1091983,-0.341629296541214,0.4363786280155182,-9.98953914642334,0.006233379749506293,0.01087457384747324,-0.00303619113803429,2.4291945195228846,8.364009401470069,0.8779029414871045
1731474138.1591976,-0.341629296541214,0.4363786280155182,-9.98953914642334,0.006284131508896866,0.01115580170979806,-0.003182603354835705,2.429030207446015,8.373082500686616,0.8772666244066176
1731474138.1591976,-0.3402191698551178,0.43175989389419556,-9.978646278381348,0.0063205127185919415,0.011424402547392031,-0.003328259656849094,2.42902919055037,8.373141538827623,0.8772624645777048
1731474138.209059,-0.3476492762565613,0.432100772857666,-9.985774040222168,0.006342948150293951,0.011679952473057423,-0.0034725586195354418,2.4288810018517535,8.382213155132417,0.8766200141036515
1731474138.2590916,-0.33999305963516235,0.4344528317451477,-9.983550071716309,0.006351974651139586,0.011922133976953565,-0.003614909969520085,2.428746840588341,8.350445257370849,0.877792787848304
1731474138.3088815,-0.34422069787979126,0.4327370822429657,-9.9750337600708,0.006348236618452093,0.012150735835206001,-0.0037547227793114776,2.4286294551178624,8.352899289774047,0.8774729880659378
1731474138.3589008,-0.3437175154685974,0.44072937965393066,-9.988846778869629,0.006332468297107017,0.012365633441360529,-0.003891397850894097,2.428527119769165,8.35539991228227,0.877141564573757
1731474138.4087975,-0.3437175154685974,0.44072937965393066,-9.988846778869629,0.006305478650498625,0.012566753871093274,-0.004024338247504311,2.4284401350984566,8.356567285119826,0.8764517931579427
1731474138.4087975,-0.34332624077796936,0.4315757751464844,-9.98684024810791,0.0062681424140652725,0.012754043276655237,-0.004152996517648909,2.42843965425712,8.356582397750941,0.8764493231930981
1731474138.458818,-0.33988749980926514,0.436118483543396,-9.992659568786621,0.006221383587670656,0.012927471660119944,-0.00427691449984101,2.4283699160788683,8.359029116721068,0.8760467933870368
1731474138.5087607,-0.3460216820240021,0.428290456533432,-9.99396800994873,0.006166153523951804,0.013087068089941848,-0.004395740026247692,2.428314613796597,8.36154005369062,0.8756282551963216
1731474138.5588555,-0.32766076922416687,0.4385663866996765,-9.993430137634277,0.006103406583339919,0.013232944485842509,-0.004509244784912112,2.4282744697698333,8.368030567106297,0.8748961052728388
1731474138.6086557,-0.3306537866592407,0.4353063106536865,-9.987985610961914,0.006034050445917309,0.013365287715854025,-0.0046173291447494415,2.4282494223709934,8.37188952491023,0.8743599909423337
1731474138.6586676,-0.3333236277103424,0.4373985528945923,-9.995209693908691,0.005958880150066788,0.013484330461969658,-0.004719999439179312,2.4282397734579257,8.379103697708935,0.8733403269462676
1731474138.7086084,-0.3319365978240967,0.4339129328727722,-9.97912311553955,0.005878553984929604,0.013590330795143081,-0.0048173349246068975,2.4282446211413355,8.38915293439843,0.8735788014171011
1731474138.758562,-0.333381712436676,0.4398839473724365,-9.9823637008667,0.005793615341685482,0.013683569649925044,-0.004909441478801111,2.428264025882278,8.395603433724816,0.8732976901844063
1731474138.8085184,-0.3302189111709595,0.438150554895401,-9.991358757019043,0.005704514591864605,0.013764344355191046,-0.0049964020887455956,2.4282979038170125,8.402119735572175,0.87300281932423
1731474138.8586066,-0.3308621346950531,0.44120118021965027,-9.983616828918457,0.005611615834420035,0.013832950599892759,-0.005078272579885714,2.4283460156295065,8.408676384891779,0.8726950442270945
1731474138.8586066,-0.3308621346950531,0.44120118021965027,-9.983616828918457,0.0055151983032926295,0.013889665258618303,-0.005155104704855755,2.4283638195467754,8.398799907406067,0.8738369355383238
1731474139.2399957,-0.3376094102859497,0.43933042883872986,-9.987139701843262,0.005415468731799267,0.013934738102774388,-0.0052269446352746045,2.429159501240598,8.435518413981066,0.873525512442838
1731474139.2900891,-0.3423849642276764,0.43753117322921753,-9.985186576843262,0.00531260119986639,0.01396839795117887,-0.005293826290008763,2.4293251161591582,8.439207323677314,0.873410176758373
1731474139.3398674,-0.34360605478286743,0.4366273581981659,-9.992426872253418,0.005206798488442693,0.013990873862972802,-0.005355786231338861,2.4295020395695426,8.437453573651396,0.8738317739756872
1731474139.389985,-0.3389294445514679,0.4368346929550171,-9.979833602905273,0.005098338686316143,0.014002418007620969,-0.0054128816393816045,2.4296937116783033,8.442358500079386,0.8737760448028069
1731474139.4397805,-0.3331068754196167,0.42958614230155945,-9.990646362304688,0.004987571289522779,0.014003324103302326,-0.005465188145864329,2.4299012111099287,8.447372329987381,0.8737054865020863
1731474139.4898527,-0.335146963596344,0.4248596131801605,-9.98840618133545,0.004874869460271334,0.013993957797938224,-0.005512791388340366,2.43011275548633,8.452226747284586,0.8736242347169871
1731474139.539713,-0.3328384459018707,0.4296468496322632,-9.984148025512695,0.004760582822350085,0.01397479929499284,-0.005555794174446501,2.430339408026711,8.446437008236293,0.8739372939588584
1731474139.5897124,-0.3308675289154053,0.4361976087093353,-9.986226081848145,0.004645015153916104,0.013946454419871405,-0.0055943167320023825,2.4305819434950338,8.453851168351006,0.8739641832769119
1731474139.639718,-0.3300713300704956,0.44613346457481384,-9.986385345458984,0.004528411910173163,0.01390959923253576,-0.005628480991856229,2.4308308324960346,8.458573559982634,0.8739329483752775
1731474139.6895943,-0.3355879783630371,0.4400116503238678,-9.9830961227417,0.004410953364691844,0.013864888200852543,-0.005658402405033161,2.43109281828904,8.463368339994373,0.8738874479704771
1731474139.7396622,-0.3371192514896393,0.4425605237483978,-9.980547904968262,0.004292772233593513,0.01381289305880809,-0.005684181958331454,2.4313667981175384,8.46821754680524,0.8738275330362756
1731474139.789675,-0.33719924092292786,0.4419511556625366,-9.980554580688477,0.004173992070695013,0.013754096190170581,-0.005705884740364593,2.4316494931012786,8.473068820889813,0.8737538426609879
1731474139.8395355,-0.3354564905166626,0.445912629365921,-9.973817825317383,0.004054755300770153,0.013688901084291197,-0.005723515210117495,2.4319446089135583,8.477990575907764,0.8736652705695198
1731474139.8896139,-0.3405797779560089,0.44538143277168274,-9.989174842834473,0.003935229845124205,0.013617629922958365,-0.005737005955842265,2.432246879106201,8.464582015485016,0.8739679588529338
1731474139.9394777,-0.33414551615715027,0.4462050497531891,-9.99086856842041,0.0038156100096071012,0.013540516266763954,-0.005746249749345486,2.432560977400106,8.46703242565956,0.8739340482656268
1731474139.9894018,-0.3440423011779785,0.44702938199043274,-9.984944343566895,0.0036961191015246935,0.013457705632178948,-0.0057511685685050044,2.4328814771119855,8.47208551599997,0.8739737416927105
1731474140.0392613,-0.32870543003082275,0.43953606486320496,-9.982325553894043,0.003577007919709263,0.013369269253077213,-0.005751747198716266,2.4332131531759646,8.47525117729564,0.873941722638117
1731474140.089296,-0.34796392917633057,0.4402678906917572,-9.993621826171875,0.0034585460542235487,0.013275238365351837,-0.005748015114978333,2.433554823205931,8.478461467915835,0.8738951790348786
1731474140.1402464,-0.33399584889411926,0.432169646024704,-9.98773193359375,0.003341020865353964,0.013175655839716601,-0.005740043343383748,2.4339108883868277,8.481758855410025,0.8738330849117734
1731474140.1902158,-0.339699923992157,0.42898687720298767,-9.98838996887207,0.0032247449668398077,0.013070632778432508,-0.005727965480274319,2.4342675582881506,8.483379760115811,0.8739711527786883
1731474140.2401154,-0.34191736578941345,0.42445263266563416,-9.988052368164062,0.0031100521770792517,0.01296040478946208,-0.005711977719109602,2.434634080690295,8.486422886959591,0.8739377746031025
1731474140.2900033,-0.32970547676086426,0.4250764548778534,-9.985917091369629,0.002997285833362723,0.01284537623339688,-0.005692318897810094,2.435005668976919,8.495614343486746,0.8739742559388762
1731474140.3400288,-0.32910072803497314,0.4251329004764557,-9.99003791809082,0.002886769153894641,0.012726135080577024,-0.005669254848116023,2.4353854724710415,8.506157713797984,0.8739775802055325
1731474140.3900661,-0.3384392559528351,0.42610400915145874,-9.983735084533691,0.002778758117918726,0.012603436859327076,-0.00564307041393831,2.435772625830998,8.513473852250355,0.8739473728115967
1731474140.439955,-0.3377346694469452,0.435489296913147,-9.978569030761719,0.0026734364065341735,0.012478163499070974,-0.005614052256663312,2.436167562790368,8.520839574662354,0.8739030087333687
1731474140.4899478,-0.33423569798469543,0.4322376847267151,-9.991771697998047,0.0025709555901992733,0.012351259983182138,-0.005582459381347132,2.4365714765351942,8.52632913914891,0.8741873370834128
1731474140.5398195,-0.3368098735809326,0.4413033127784729,-9.979137420654297,0.002471456927036968,0.012223665514421458,-0.0055485154373027725,2.4369727350078887,8.532355087011622,0.8741991890027114
1731474140.5896668,-0.32903242111206055,0.43979355692863464,-9.979314804077148,0.0023750601607299645,0.012096256934112268,-0.00551241491583329,2.437383818079353,8.538468969093449,0.874197548958637
1731474140.6397073,-0.33598414063453674,0.4474576413631439,-9.982017517089844,0.0022818438656446263,0.011969802172473332,-0.005474304746776126,2.4378035138911516,8.544654518029057,0.8741821791924961
1731474140.6897366,-0.33598414063453674,0.4474576413631439,-9.982017517089844,0.002191839377387196,0.011844919621781207,-0.0054342685640154705,2.4382266416403393,8.544707527464316,0.8744187085496953
1731474140.6897366,-0.341476172208786,0.44930747151374817,-9.990230560302734,0.002105053758850151,0.01172204846053295,-0.005392348210756799,2.438230627102477,8.544756453838096,0.8744189691607829
1731474140.7397206,-0.3397352695465088,0.44789478182792664,-9.97748851776123,0.002021508930547843,0.011601439492253588,-0.005348579203933796,2.4386588617134377,8.549997011358318,0.874440115268234
1731474140.7895658,-0.3330007493495941,0.44037196040153503,-9.997563362121582,0.0019412620107450444,0.011483176023037401,-0.005303011915864894,2.4390922453355315,8.555269064664524,0.8744480618708108
1731474140.8395772,-0.03880907967686653,0.5903394818305969,-9.978856086730957,0.0018641203442562246,0.011367091809652362,-0.005255726582929397,2.43953287567486,8.560599943135054,0.8744428418276098
1731474140.8895676,-0.0758434385061264,0.5316457748413086,-10.008713722229004,0.0017886193031100468,0.011252368997419588,-0.0052068588919399784,2.439973540540021,8.566201261723684,0.8746347622796292
1731474140.9393978,0.48951706290245056,0.8079436421394348,-9.981762886047363,0.0017102462179537973,0.011136830116392977,-0.005156634503454209,2.440420577848916,8.572094527271451,0.8746613963429607
1731474140.9892786,0.7771492004394531,0.6103816628456116,-10.015816688537598,0.0016188055207167194,0.01101614124723496,-0.005105399702431176,2.440869729697553,8.584360551959751,0.8746107546581255
1731474141.0394018,0.1431780755519867,0.499295175075531,-10.044015884399414,0.0014957688641572173,0.01088359245985996,-0.005053693187717114,2.441330741224622,8.591369610557201,0.8745967835391184
1731474141.0892773,0.413790225982666,0.48516714572906494,-9.909783363342285,0.001314268185844728,0.010731084588524955,-0.005002305703042386,2.441787350957239,8.598285515851696,0.8745705682993472
1731474141.1401522,0.038903508335351944,0.3011943995952606,-9.996171951293945,0.0010419616523248904,0.010550728430600939,-0.00495207821181518,2.442257140813709,8.600665517909075,0.8745881995043371
1731474141.1902132,0.22217567265033722,0.33590275049209595,-10.001534461975098,0.0006440557378615798,0.010336210414953813,-0.004903607734652978,2.4427227182002813,8.60636223858886,0.8745625439426651
1731474141.2402446,0.017560504376888275,0.20069876313209534,-9.97430419921875,8.532084977694762e-05,0.010083792699622101,-0.004857280154056365,2.4431881146854932,8.614645102370362,0.8745818667437536
1731474141.2901216,-0.7728275656700134,-0.02461777999997139,-9.977519989013672,-0.0006677516503495383,0.009793169310550619,-0.0048134207280910064,2.4436517550504577,8.621586855593172,0.8745554034078806
1731474141.3400016,-1.2074174880981445,-0.021463442593812943,-10.009428024291992,-0.0016426670301553916,0.009468552953152326,-0.004772288837868866,2.444110626942705,8.628332106388541,0.8745796604702148
1731474141.3900766,-0.23980385065078735,0.27316224575042725,-9.937684059143066,-0.002855835099437535,0.00911935740826305,-0.00473405832241664,2.444566482133374,8.63554520275071,0.8745531995394321
1731474141.4400213,-0.7082184553146362,0.12128511071205139,-10.163931846618652,-0.004311584432783934,0.008759306842677107,-0.0046989317231594645,2.445015528200633,8.64281518981789,0.8745147884843286
1731474141.4898539,-0.29287877678871155,0.4290388226509094,-9.929959297180176,-0.006005411056932664,0.008404500152812142,-0.004667465874385608,2.4454448864636333,8.626700804953458,0.8745776286488816
1731474141.5398967,-0.5628702044487,0.09986446797847748,-10.001678466796875,-0.007927019528033614,0.008071804806954193,-0.00464072387119654,2.445864752815774,8.628556439399953,0.874550727366199
1731474141.5897396,-0.3513105511665344,0.46714502573013306,-10.08678913116455,-0.010061809178855134,0.007778002769637683,-0.0046200046900038046,2.4462567947025144,8.630407157771373,0.8745127088501756
1731474141.6397777,-0.5107159614562988,0.16161222755908966,-9.946783065795898,-0.012391781679419865,0.007539340868124912,-0.004606717607950707,2.4466205827893632,8.625412545724107,0.8748178818209033
1731474141.6896517,-0.4068586826324463,0.43703973293304443,-9.962201118469238,-0.014896190379526764,0.007371163127175575,-0.0046023612929265,2.4469528934709324,8.626233975490056,0.8748539637412831
1731474141.7396317,-0.49801453948020935,0.2526971399784088,-10.004266738891602,-0.017552020251450497,0.007287621263994365,-0.004608195703772625,2.447245665841406,8.627076385877569,0.8748786369206563
1731474141.789641,-0.37864023447036743,0.4197238087654114,-9.953781127929688,-0.02033444087629041,0.007301431099480954,-0.004625019161403458,2.447489722357996,8.627932197679433,0.8748916973789854
1731474141.8394883,-0.42949461936950684,0.29616859555244446,-9.941106796264648,-0.023217390748404697,0.007423667903109227,-0.004653185483619723,2.447675688256296,8.619771173869433,0.8750349946897662
1731474141.8893626,-0.41107162833213806,0.3372349739074707,-10.000696182250977,-0.02617422285791643,0.007663737243016502,-0.004692560848463959,2.4477982515678307,8.601185786562526,0.8750139779639724
1731474141.9393225,-0.3805420398712158,0.7001015543937683,-9.957939147949219,-0.02917819767369858,0.008029199352822489,-0.004742555934600665,2.447858430132091,8.593919519996234,0.8750086681924554
1731474141.9893405,-0.4000968039035797,0.667378306388855,-9.877378463745117,-0.032202866854033174,0.008524676346874992,-0.004802199421708383,2.4478354752957707,8.58043719603141,0.8749953016566234
1731474142.0393183,-0.4872780740261078,1.1421082019805908,-9.997286796569824,-0.03522233097832045,0.009149856446654624,-0.004869991620334164,2.447733829889175,8.57094157494903,0.8749739860127711
1731474142.0892508,-0.4453103244304657,0.9864438772201538,-9.849359512329102,-0.03821117551631525,0.009897429425790253,-0.004943760569044258,2.4475422976436283,8.561574163097985,0.8749407407068786
1731474142.139246,-0.5104879140853882,0.7967690229415894,-10.028023719787598,-0.04114426007012828,0.010752115251819115,-0.005020733004628294,2.4472439407283093,8.558635710279411,0.8749822723632906
1731474142.1901712,-0.3782177269458771,0.7711344957351685,-9.996058464050293,-0.043996752189673465,0.011691848823639146,-0.005097830584359811,2.44683682616898,8.551599960498228,0.8749543048435943
1731474142.2401364,-0.4499201774597168,0.7072227597236633,-10.010408401489258,-0.04674452010526782,0.012690317107270543,-0.005172189525241171,2.446314954004814,8.531292298759201,0.8749792388244894
1731474142.2900872,-0.3696022629737854,0.713841438293457,-10.044113159179688,-0.049364671974277984,0.013719056581240376,-0.005241582117103485,2.445682642958599,8.519373019038081,0.874950888744893
1731474142.3400176,-0.42195576429367065,0.5679761171340942,-9.984193801879883,-0.05183595450340099,0.014748806173318283,-0.005304539622423966,2.4449206933239203,8.507433138413164,0.8749092067081591
1731474142.3899982,-0.30900314450263977,0.6061761379241943,-10.027217864990234,-0.054139021437520765,0.01575067462668977,-0.005360285864653141,2.4440315471246383,8.49560236880846,0.874854514862674
1731474142.4399173,-0.36433690786361694,0.5541598200798035,-9.993165969848633,-0.05625674271651306,0.016697166317050156,-0.005408580203074361,2.4429953544815213,8.508054165414215,0.8749743265494684
1731474142.4898849,-0.3449501693248749,0.5600143671035767,-10.049895286560059,-0.0581744658294678,0.01756281622119706,-0.005449618466652663,2.4418251224012124,8.50140739388912,0.8749434026001672
1731474142.5398262,-0.3187732696533203,0.5636372566223145,-10.002037048339844,-0.059880061272747295,0.01832447595596891,-0.005484046220421293,2.4404969031035044,8.480157711743349,0.8749760423411367
1731474142.5898345,-0.30297085642814636,0.5662887096405029,-10.012564659118652,-0.0613639022447702,0.01896139915713343,-0.005512945742156964,2.380959592375131,8.45160188851248,0.8749787894551809
1731474142.6396751,-0.3056734502315521,0.5174658894538879,-10.006267547607422,-0.06261892588615106,0.01945523352396428,-0.005537707027870686,2.3782517474450837,8.433325943052722,0.8749493687379241
1731474142.689624,-0.32618317008018494,0.5069574117660522,-9.982719421386719,-0.06364061465224924,0.019790109615966084,-0.005559858318091401,2.375415993566362,8.415292985710444,0.874906487666908
1731474142.7396877,-0.273434042930603,0.514680802822113,-9.964303016662598,-0.0644268264952852,0.01995282652896564,-0.0055808875346753635,2.372379424806715,8.397059557128559,0.8748489696656633
1731474142.7895157,-0.2996521592140198,0.5227103233337402,-9.985552787780762,-0.06497764709083341,0.019932900769675445,-0.005602043472938864,2.3777983153572086,8.431369629022537,0.8749726785187627
1731474142.8395174,-0.3358599841594696,0.5379204750061035,-9.958097457885742,-0.06529526227773655,0.01972238621035205,-0.005624218618962008,2.3761767672995977,8.423244446062984,0.874940141313584
1731474142.8894358,-0.336078017950058,0.4931144118309021,-9.98670482635498,-0.06538364442971797,0.01931562441721875,-0.005647945609792281,2.3744214977970715,8.415305083703664,0.8749751139172387
1731474142.939421,-0.33337661623954773,0.5128029584884644,-10.005820274353027,-0.06524812575966066,0.018709112711821102,-0.005673475824238701,2.372476245521848,8.407296389538164,0.8749435512270939
1731474142.989331,-0.3498041331768036,0.4721747934818268,-9.94282341003418,-0.06489510032397082,0.0179014908373438,-0.0057009042466633995,2.37039009947982,8.399418922537883,0.8748981929062947
1731474143.0392566,-0.32534632086753845,0.5132566094398499,-9.986802101135254,-0.06433186176539077,0.016893512253071605,-0.00573018479987993,2.3681316589815533,8.391542187987387,0.8748383465343786
1731474143.0892653,-0.3674081265926361,0.5218324065208435,-10.014200210571289,-0.06356648036063038,0.01568787941279718,-0.005761088231962326,2.365722878612483,8.383730170404913,0.8749717286698943
1731474143.1392438,-0.40713658928871155,0.5078936219215393,-9.99518871307373,-0.06260760477706695,0.01428893699724848,-0.005793340486443715,2.3631381146338777,8.375903399029403,0.8749383577817251
1731474143.1901145,-0.3748840391635895,0.5032426118850708,-9.95654582977295,-0.06146412878219665,0.012702400265607072,-0.005826777672071863,2.360375935819329,8.368039102685946,0.8752222171689329
1731474143.2401328,-0.41319382190704346,0.513997495174408,-10.000679969787598,-0.060144908462626594,0.010935224842766844,-0.00586126646120451,2.3574951359128535,8.36029256408307,0.875462163795967
1731474143.2901106,-0.4174082279205322,0.5009680390357971,-9.988465309143066,-0.05865863378611071,0.008995505771741899,-0.005896595580492108,2.354457007913671,8.35256706291859,0.8755611262216214
1731474143.3401623,-0.4119400978088379,0.5024043917655945,-9.968817710876465,-0.05701373059596286,0.006892352067919642,-0.005932509590191976,2.3512607052314127,8.344830460810725,0.875645563794452
1731474143.3899338,-0.3861069083213806,0.4877097010612488,-9.973749160766602,-0.0552183259963598,0.0046357920159247855,-0.005968709680434312,2.347960056014318,8.337193426908609,0.8757142743602161
1731474143.4400024,-0.3813762664794922,0.4656544327735901,-10.00214672088623,-0.053280385593278266,0.0022367362523034815,-0.006004796252187897,2.3445070642536145,8.329502002654555,0.8768247644858754
1731474143.489819,-0.3586125075817108,0.4547431170940399,-9.964475631713867,-0.051207944893409754,-0.00029299579948421125,-0.006040301787123049,2.340951665596516,8.321894930413464,0.8771071596696232
1731474143.5397732,-0.3363964855670929,0.4302753210067749,-9.970362663269043,-0.04900933450373589,-0.0029406127527816925,-0.006074729695138133,2.3372355819370063,8.31420772414884,0.8773772509947945
1731474143.5897393,-0.3230259418487549,0.4246014356613159,-10.018203735351562,-0.04669339435539581,-0.005692302502246703,-0.00610753242637138,2.333440823047717,8.306559036941296,0.8780346080688956
1731474143.6397502,-0.3195480704307556,0.4174511432647705,-9.99730110168457,-0.044269648053736774,-0.008533236370032492,-0.006138201329400449,2.329475790659939,8.29881184007884,0.8783284419469644
1731474143.6896462,-0.29733991622924805,0.400546669960022,-9.969202995300293,-0.04174838634777856,-0.01144764086232125,-0.00616641258473435,2.3254393010127634,8.291109862037022,0.8786042614527403
1731474143.7396011,-0.2849956750869751,0.3818894624710083,-10.001726150512695,-0.0391406968905059,-0.014418888940539547,-0.006191996951739345,2.3213119748718367,8.283344081555487,0.8793778492932599
1731474143.789569,-0.2620607912540436,0.3989132344722748,-10.011852264404297,-0.03645850613580297,-0.017429581463021836,-0.00621486194810615,2.3170736829032235,8.275555134945874,0.8797755892364119
1731474143.8395295,-0.3114404082298279,0.37750130891799927,-9.98075008392334,-0.03371457716786271,-0.020461683112691396,-0.006235046618524777,2.312768958425305,8.267686202090877,0.880480207091087
1731474143.8895874,-0.29066282510757446,0.38888999819755554,-10.001361846923828,-0.03092233276422028,-0.023496724295293082,-0.00625275538483175,2.3083520698841484,8.259773494775377,0.8809717568036697
1731474143.939539,-0.31284046173095703,0.36997202038764954,-10.00731372833252,-0.02809554302047113,-0.02651599857195468,-0.0062683090803012115,2.3038664574466616,8.25180738349533,0.8814470719076624
1731474143.9893997,-0.27976566553115845,0.3753986358642578,-10.026233673095703,-0.02524807163061316,-0.02950072790485062,-0.006282171285699309,2.2993304361286464,8.243799921739125,0.8819050883206864
1731474144.0392823,-0.2954639196395874,0.3394887149333954,-9.958551406860352,-0.02239376201842475,-0.03243218551776111,-0.006295007278292184,2.2947599190091945,8.235679552568614,0.8813416158302536
1731474144.089266,-0.5322554707527161,-0.19363191723823547,-10.011695861816406,-0.019546165563830962,-0.035291267709363985,-0.006307592237733942,2.2901057716922257,8.227496666403134,0.8815755106468193
1731474144.139285,-0.4975226819515228,-0.47324222326278687,-10.109478950500488,-0.01671765294182361,-0.03805642551865082,-0.006320772492857886,2.2854355471565624,8.21914995805689,0.881156163233476
1731474144.1902807,-0.6517626047134399,-0.1517183631658554,-10.05496883392334,-0.013918155393173197,-0.04070059731807082,-0.006335806642275712,2.2805986089719,8.210596732293448,0.8811919508830351
1731474144.2401178,-0.7958483099937439,-0.4603233337402344,-10.047149658203125,-0.011154075321352392,-0.04318982720134336,-0.006354740946173816,2.2758562351531433,8.202066338767711,0.8810451948390613
1731474144.2899477,-0.3774668574333191,0.1904527246952057,-9.920002937316895,-0.008427700764546615,-0.045484500660861925,-0.006380225641498555,2.271102102592421,8.19354169362959,0.8810287145500524
1731474144.3399312,-0.7103548049926758,-0.2533815801143646,-10.023809432983398,-0.005737722598973743,-0.04754194340420109,-0.006414873239641807,2.266309400690136,8.184755742407056,0.8809976271152361
1731474144.389945,-0.5084047317504883,0.20593859255313873,-9.930323600769043,-0.003080396740809694,-0.049319016930429706,-0.006460753263275004,2.261473296388844,8.175895711542909,0.8809668046461988
1731474144.4399543,-0.6116470098495483,0.06604569405317307,-9.929553985595703,-0.00045019013241408994,-0.050774044196758045,-0.006519201112298369,2.2566893196336615,8.166891419897965,0.8809799758416409
1731474144.489831,-0.5259138345718384,0.24936124682426453,-9.96333122253418,0.002159884996264649,-0.05186838857508349,-0.006590687312417118,2.2519177408225874,8.157768350333122,0.8809780121513613
1731474144.5398407,-0.5633005499839783,0.1612505167722702,-9.892698287963867,0.004757795599619249,-0.05256773432592571,-0.0066747452210378505,2.2470954754139862,8.148532813005582,0.8809434373558175
1731474144.5897121,-0.5227437615394592,0.1753193736076355,-9.91405963897705,0.0073520379554658025,-0.052842663061852674,-0.006769970746546637,2.2423083955370187,8.139204750575725,0.8808922878399955
1731474144.6397834,-0.530639111995697,0.1455938071012497,-9.948212623596191,0.009951266789347057,-0.05266859460287659,-0.006874020855054648,2.2375188154219092,8.129697714848083,0.8808238200777104
1731474144.6897333,-0.4877649247646332,0.19532594084739685,-9.93302059173584,0.012563954549162079,-0.05202547862632873,-0.0069837783007616295,2.2328304043283467,8.120033409419044,0.8809674529905163
1731474144.7396362,-0.4850020408630371,0.15887004137039185,-9.961091995239258,0.015198044631524996,-0.050897591883862905,-0.007095669836739654,2.2281147499574514,8.110285773177269,0.8809275618424703
1731474144.7895703,-0.042006008327007294,0.42955347895622253,-9.968608856201172,0.017860237625881605,-0.04927365873718615,-0.00720594345232397,2.223453670875696,8.100441509371299,0.8808700086264125
1731474144.8395107,0.20982344448566437,0.5299987196922302,-9.996824264526367,0.02055406331324637,-0.04714764565615498,-0.0073109201101944875,2.2188853916315407,8.090361070052282,0.8809664972813264
1731474144.8894217,-0.2961362600326538,0.27400559186935425,-10.028383255004883,0.02327737379311589,-0.044519867848422066,-0.007407286432503764,2.2143242462121395,8.08027283048575,0.8809252577759475
1731474144.9395008,-0.07620701938867569,0.45252323150634766,-9.962984085083008,0.026021841656464977,-0.041397076343425085,-0.007492342166413831,2.20987958181443,8.069957506249702,0.8809674862893258
1731474144.989377,-0.3626199960708618,0.24273060262203217,-10.05359172821045,0.02877483649919123,-0.03779141230232966,-0.007564070125359053,2.2054492748689976,8.059660954389097,0.8809260713748456
1731474145.0394049,-0.1496284306049347,0.48473837971687317,-10.041500091552734,0.03152142976453526,-0.033719372959701815,-0.0076211649454483625,2.201172677255566,8.049182578321885,0.8809668414329234
1731474145.0892012,-0.3409866988658905,0.2217046469449997,-10.007319450378418,0.03424550282473759,-0.029201196374560374,-0.007663156441766762,2.1969095130949916,8.03873836946944,0.8809248498535571
1731474145.1393504,-0.19522902369499207,0.4383619427680969,-10.02239990234375,0.03693033704828229,-0.02426033493851272,-0.007690389436194565,2.192779937824261,8.028018941449165,0.8809660119150746
1731474145.1891997,-0.3174585700035095,0.26658883690834045,-9.997493743896484,0.03955900123319801,-0.01892288921674458,-0.007703789871590344,2.1887011893471064,8.017448890817619,0.8809234038531829
1731474145.2401588,-0.2567730247974396,0.41878947615623474,-9.975645065307617,0.04211467955186605,-0.013217157785573948,-0.0077046118940743225,2.184631550029698,8.006589542185587,0.8808600202910493
1731474145.290124,-0.31867489218711853,0.322895348072052,-10.004502296447754,0.04458100846864885,-0.007173335012273801,-0.007694216882892645,2.1807592857438776,7.995940638680879,0.8807786700500199
1731474145.3400424,-0.2900391221046448,0.4151308536529541,-9.99188232421875,0.046942401357917087,-0.0008232777578911115,-0.00767394601190689,2.177101504273053,7.985143325561245,0.880961399298853
1731474145.390102,-0.331870973110199,0.35072141885757446,-9.961592674255371,0.049184307316417264,0.005799713668782497,-0.007645095185300464,2.173447852311819,7.974437643851404,0.8809167016782588
1731474145.4399805,-0.31109046936035156,0.4003080129623413,-9.982954025268555,0.05129341356439994,0.012661161308732695,-0.007608837970849184,2.1700671481701312,7.9637141131822275,0.8809655912512143
1731474145.4899025,-0.3297779858112335,0.40445318818092346,-9.977746963500977,0.05325778692400082,0.019725688443289157,-0.007566124106198924,2.166677568094143,7.953086896613086,0.8809230481644083
1731474145.5398126,-0.3312694728374481,0.4171616733074188,-9.975252151489258,0.05506694694188575,0.026957219886989837,-0.007517680257506379,2.1634266391341157,7.942528652151271,0.8808617160103871
1731474145.589731,-0.3365127444267273,0.42672958970069885,-9.98169231414795,0.05671191128394716,0.034319127128142835,-0.007464057330566551,2.160469797468222,7.931964986270665,0.8809638370941744
1731474145.6397784,-0.6444383859634399,0.252627432346344,-9.986760139465332,0.058185502005575054,0.04177456873147117,-0.007405668925119063,2.157488478364039,7.9215206987360025,0.8809208834783422
1731474145.6896195,-0.5891392230987549,0.3251998722553253,-9.954066276550293,0.05948334555409267,0.049287267366647604,-0.007342820642209448,2.154680206823317,7.911283019426012,0.8808599626673527
1731474145.739691,-0.7718563675880432,0.09749940782785416,-9.974160194396973,0.06060523059271651,0.05682255965330159,-0.007275675015547251,2.151993990739982,7.901073095172162,0.8807800239434366
1731474145.7895942,-0.46285444498062134,0.407083123922348,-9.982929229736328,0.061555759038306714,0.06434821686746642,-0.007204202523407803,2.1496615649420043,7.890996161522627,0.8809629185632911
1731474145.839546,0.17480438947677612,0.5993920564651489,-9.956948280334473,0.06234302705174655,0.071834202392132,-0.00712821813379299,2.1472913756952217,7.881123166242569,0.8809206624466617
1731474145.8895202,-0.4296962022781372,0.3416212499141693,-10.036373138427734,0.0629752741506496,0.07925124434051092,-0.007047478927253507,2.145197142734737,7.871371409153355,0.8809675437319264
1731474145.9394314,-0.10667605698108673,0.5735830664634705,-9.944799423217773,0.06345834124572203,0.08656978171793364,-0.006961812424298421,2.1431440040959933,7.861894738294192,0.8809278140578725
1731474145.9893925,-0.10667605698108673,0.5735830664634705,-9.944799423217773,0.06379557165329515,0.09375990576973744,-0.006871125682692777,2.1413218717866056,7.852561990998681,0.8809686410535433
1731474145.9893925,-0.4261827766895294,0.25164923071861267,-9.998679161071777,0.0639883743081489,0.10079153945746586,-0.006775215460611884,2.141301483447538,7.8524592814879615,0.8809683015565941
1731474146.0393891,-0.1757666915655136,0.5858380794525146,-10.030649185180664,0.06403688660633697,0.10763507391931514,-0.006673756429096869,2.1395868563159794,7.843553284706175,0.8809300920730897
1731474146.0892906,-0.36952340602874756,0.26452311873435974,-9.984543800354004,0.06394095508414856,0.1142622828882447,-0.006566609960680155,2.1380287762357946,7.834913380372282,0.8808754923571888
1731474146.1392066,-0.2180897742509842,0.5275964140892029,-9.984308242797852,0.06370062556985744,0.12064676053019613,-0.006454002471013799,2.136624780688175,7.826541062027422,0.8808045828785492
1731474146.1892066,-0.35027265548706055,0.3020928204059601,-9.998504638671875,0.06331620626662211,0.12676409345115394,-0.006336398859566748,2.1353766412915816,7.818462724915169,0.8807176170591046
1731474146.2392662,-0.24522694945335388,0.4789474606513977,-9.97572135925293,0.06278834951780138,0.13259201090546913,-0.006214357662216639,2.134397812242259,7.810466263713785,0.8809717284094284
1731474146.2900531,-0.32880857586860657,0.3587845265865326,-9.992473602294922,0.062118123029363155,0.13811044680341378,-0.0060884818666608696,2.1334511010610924,7.802929969191045,0.8809356526941393
1731474146.3401139,-0.28920209407806396,0.4533703923225403,-9.996732711791992,0.06130706419752608,0.14330151802274105,-0.005959400930873421,2.1327052661595296,7.795615116810749,0.8809735315537754
1731474146.3900425,-0.32036682963371277,0.38436904549598694,-9.975886344909668,0.06035726160706767,0.14814946396577858,-0.005827780622680606,2.132081425302032,7.788924173416141,0.8809402467408687
1731474146.4399643,-0.3222068250179291,0.4288286566734314,-9.992498397827148,0.05927144694871242,0.1526406178827903,-0.005694315518299594,2.1316040109478385,7.782572548401777,0.8808923325318472
1731474146.4898868,-0.3282969295978546,0.4256960153579712,-9.982223510742188,0.05805307227212654,0.15676338217962862,-0.00555968765566851,2.13127584361081,7.7766495826878925,0.8808307480831837
1731474146.5398424,-0.3342430889606476,0.41899538040161133,-9.977553367614746,0.056706367414624266,0.1605081519867777,-0.005424540108727139,2.1311652998503705,7.770834951673312,0.8809709160303408
1731474146.5898244,-0.3342430889606476,0.41899538040161133,-9.977553367614746,0.05523635392105872,0.16386723973971817,-0.005289446129320503,2.1310999094937753,7.765453677124286,0.8809777168924587
1731474146.5898244,-0.3272224962711334,0.4375999867916107,-9.990431785583496,0.0536488065662995,0.16683484548546254,-0.005154879070084913,2.131100087190869,7.765413217394469,0.880977535203585
1731474146.6398294,-0.348007470369339,0.42216381430625916,-9.980985641479492,0.05195018088469367,0.16940700097784056,-0.005021235178664103,2.131187117581952,7.760682763678714,0.8809490233202584
1731474146.6897447,-0.3311549723148346,0.43346843123435974,-9.981561660766602,0.05014754801453362,0.1715814851577669,-0.004888873649008763,2.131399634506107,7.756404249601674,0.8809084626155492
1731474146.7396312,-0.3635404109954834,0.40990909934043884,-9.988479614257812,0.04824855760746183,0.17335778409418637,-0.004758122676517697,2.1317360457464942,7.752524161665146,0.8808556136514709
1731474146.789546,-0.32311975955963135,0.4552238881587982,-9.978585243225098,0.046261398525617704,0.17473706718749402,-0.004629277811082233,2.132187215727464,7.749098815354002,0.8807914881685446
1731474146.8395026,-0.32311975955963135,0.4552238881587982,-9.978585243225098,0.04419468524963095,0.1757220671924517,-0.004502599372858376,2.1327836938754117,7.745778432012515,0.8809788092015391
1731474146.8395026,-0.3543110489845276,0.4205108880996704,-9.987153053283691,0.04205727638890766,0.1763168875433815,-0.004378294925220207,2.132788640213889,7.745756211926546,0.8809786467257591
1731474146.8894835,-0.33690303564071655,0.44204410910606384,-9.983466148376465,0.039858182481410064,0.1765269277476459,-0.004256523283817135,2.1334574219360882,7.743195040445807,0.8809530059806635
1731474146.939377,-0.3456494212150574,0.4204249382019043,-9.974058151245117,0.037606578384304784,0.176358931472147,-0.004137415840323659,2.134129028034421,7.740735216241939,0.8807223607518218
1731474146.9893372,-0.32335811853408813,0.44455331563949585,-9.994388580322266,0.03531175973049963,0.17582098877635471,-0.004021074650938548,2.134986610327153,7.739033865120802,0.8806158166989589
1731474147.0392928,-0.3419918715953827,0.4153200089931488,-9.980100631713867,0.03298301929408465,0.17492246747585924,-0.003907579658475888,2.135926559850733,7.737774399969075,0.8804997321661627
1731474147.0892532,-0.33232659101486206,0.44813141226768494,-9.970808982849121,0.030629541847461247,0.17367393307932658,-0.0037970038194420513,2.136947582845169,7.736947050925232,0.8803738237680623
1731474147.1392598,-0.3414287269115448,0.42118310928344727,-9.989472389221191,0.028260358982495813,0.17208705792207427,-0.0036893841272414283,2.1379715660754455,7.736177064860278,0.8805139224050779
1731474147.1892078,-0.32821929454803467,0.43675288558006287,-9.983247756958008,0.02588432162998467,0.17017452145601614,-0.003584704741031835,2.1391303157649357,7.736203104234654,0.8804357620804608
1731474147.239118,-0.3308393657207489,0.41653814911842346,-9.989508628845215,0.023510044143621605,0.16794993716998957,-0.0034829426051021847,2.140364878985558,7.736657330091964,0.8803477597014384
1731474147.2890556,-0.3233639597892761,0.44228991866111755,-9.99915599822998,0.021145824235027283,0.16542779291283516,-0.0033841249221253393,2.1414806491840928,7.737104988401719,0.8850064170223971
1731474147.34003,-0.3317860960960388,0.42187803983688354,-9.981391906738281,0.018799573903605832,0.16262335554590468,-0.003288367775841251,2.1428343109492376,7.738403275649719,0.8859830278790659
1731474147.389953,-0.3199501931667328,0.43816444277763367,-9.984302520751953,0.016478781986153504,0.15955255127747683,-0.003195868542126103,2.1442057192170965,7.740082861235577,0.8869320741586577
1731474147.4399762,-0.3348630368709564,0.410004585981369,-9.995926856994629,0.014190497647426692,0.15623187451746243,-0.003106856050029142,2.1456163032835116,7.742158689925631,0.8878737753956577
1731474147.4898822,-0.31965500116348267,0.4335654675960541,-9.987404823303223,0.01194132505143071,0.15267833765146757,-0.003021576923874555,2.147014483247393,7.74415609536266,0.8893490457114241
1731474147.5398347,-0.33629316091537476,0.42236918210983276,-9.98745346069336,0.009737425862619692,0.14890941010019795,-0.0029403155259092196,2.148480635435271,7.746981511882964,0.8903536260893459
1731474147.5897639,-0.32917505502700806,0.4344494938850403,-9.999245643615723,0.007584531153661144,0.14494290591318984,-0.002863392836357979,2.149943540337043,7.749691842378216,0.893875537271207
1731474147.6397233,-0.3516184091567993,0.42074695229530334,-9.990751266479492,0.005487981300585544,0.14079685759040872,-0.002791170415664162,2.151447307335916,7.753232595374492,0.8957785476573215
1731474147.6896822,-0.3454195261001587,0.43337929248809814,-9.982441902160645,0.0034528004810353403,0.1364894203884321,-0.0027240562630711242,2.1529633848030603,7.757121894690363,0.8976761491208153
1731474147.739603,-0.3505779504776001,0.42843934893608093,-9.977140426635742,0.0014837697775200156,0.13203878906915506,-0.0026624528236962874,2.1544260102901607,7.760804229913041,0.8932895184829213
1731474147.7895708,-0.3442579209804535,0.44717955589294434,-10.014467239379883,-0.00041455058678977147,0.1274630898793505,-0.0026067003741811357,2.155957024207221,7.76536938835167,0.8936794977228394
1731474147.839557,-0.2940550446510315,0.5944892764091492,-9.976007461547852,-0.002237899209430872,0.12278010357245861,-0.0025571132174389962,2.1574169458646986,7.769670778801777,0.8926118230454562
1731474147.889536,-0.20518560707569122,0.54371577501297,-9.946371078491211,-0.003982618851581602,0.11800665347748865,-0.002513986775960645,2.1589294298324333,7.774822963319784,0.8927033443777852
1731474147.939503,-0.43645983934402466,0.24578015506267548,-9.995434761047363,-0.0056460304102429635,0.11315826089240355,-0.002477453343506718,2.1603699871570132,7.779694042330881,0.8869662842251552
1731474147.9893682,-0.2412494719028473,0.5809628963470459,-10.00178050994873,-0.007226350204536146,0.10824976442814752,-0.002447419446108984,2.1618431692176543,7.785364114172964,0.8851756907065069
1731474148.0393229,-0.4226839542388916,0.305077463388443,-9.972904205322266,-0.008722258037007265,0.10329604850485351,-0.0024237181003386047,2.163307662940061,7.7913410355066866,0.8833654068833124
1731474148.0892675,-0.17636924982070923,0.6643232107162476,-9.994385719299316,-0.010132741021466886,0.09831193159591184,-0.002406218053450843,2.164743665849404,7.797548508688863,0.8815553117942612
1731474148.1391916,-0.017241640016436577,0.4965020716190338,-10.021503448486328,-0.011457632779261647,0.09331149582347346,-0.00239482938680482,2.1660841104009787,7.803351832894312,0.8825540393998256
1731474148.1891968,0.08745230734348297,0.6030604839324951,-10.011589050292969,-0.012699035291125253,0.08830737011774661,-0.002389601224401363,2.1673901664921407,7.809361184259088,0.8788577571249158
1731474148.2391913,-0.9778934717178345,0.07814757525920868,-9.990920066833496,-0.013861979852985947,0.08331082130243402,-0.0023908398066496465,2.1687405410674145,7.816262154122068,0.8769433027161915
1731474148.289004,-0.13256236910820007,0.6477596163749695,-9.916261672973633,-0.014952239778917726,0.07833297172374294,-0.002398983996244137,2.170047813202698,7.823327228031861,0.8750331678672598
1731474148.3390393,-0.5607509613037109,0.18505153059959412,-10.030675888061523,-0.015973604103821926,0.07338571300327952,-0.0024142875133317167,2.171321539276625,7.8306090074153465,0.8731096334646559
1731474148.3899746,-0.24053697288036346,0.6703055500984192,-9.993346214294434,-0.016927728827126128,0.06848144552309288,-0.0024367314896694614,2.1724914784235265,7.837451067125205,0.8789627846164391
1731474148.4399455,-0.4149532914161682,0.18424800038337708,-9.922703742980957,-0.017815232027503836,0.06363250798516326,-0.002466193768250305,2.173682617220467,7.845093559445514,0.8786138301538443
1731474148.4898977,-0.32263457775115967,0.564312756061554,-10.011099815368652,-0.018636272636528322,0.05885101505837821,-0.002502429925687109,1.559115053402376,2.311465112448782,0.879614183536442
1731474148.539939,-0.4096713662147522,0.33358514308929443,-9.978320121765137,-0.01939072444322474,0.054148907149835675,-0.002544966331702691,1.5560998718060564,2.3250525442324586,0.8795131531037321
1731474148.5898108,-0.33266475796699524,0.4822407364845276,-9.983787536621094,-0.02007816373594116,0.049537810845899324,-0.0025932125356828563,1.5531789966639231,2.328033806580336,0.8798593507756949
1731474148.6398258,-0.36633315682411194,0.4079146981239319,-10.017582893371582,-0.020697901080563283,0.04502880571492813,-0.002646609619040696,1.5502764207152278,2.3418735482368795,0.8798219303054475
1731474148.6896837,-0.37975364923477173,0.41329842805862427,-9.984230041503906,-0.021249112726411626,0.04063232662998832,-0.0027047110091469534,1.5483258544902492,2.3504925420967617,0.8799459769701146
1731474148.7397082,-0.3236582279205322,0.45023560523986816,-9.957239151000977,-0.021730922210363525,0.03635815356066974,-0.0027671955702814055,1.5459181459977354,2.362368735541072,0.8799249394204997
1731474148.7895982,-0.4094269871711731,0.40006208419799805,-10.010847091674805,-0.02214245291002214,0.03221539906447695,-0.0028337467790575084,1.5420736178341812,2.379825279723161,0.8799745471655228
1731474148.8395123,-0.3341081142425537,0.49790847301483154,-9.974881172180176,-0.022482857129013645,0.028212422414086304,-0.0029039778771999276,1.5364249708198958,2.3979655754455522,0.8799837503191523
1731474148.8895173,-0.40162166953086853,0.3858509361743927,-9.979796409606934,-0.02275129580136648,0.024356700191021416,-0.002977481226389929,1.5326816653970519,2.4122959106033677,0.8799678275657334
1731474148.9394271,-0.33520281314849854,0.49349677562713623,-9.995915412902832,-0.022946950710523002,0.02065476444890937,-0.0030538401223579965,1.5288689586893898,2.4267293102672918,0.8799443044770391
1731474148.989394,-0.39363962411880493,0.3769837021827698,-9.9759521484375,-0.023069086772339268,0.017112245349247532,-0.003132617858471229,1.5250084642497916,2.441173249118541,0.8799131156996435
1731474149.0393794,-0.32641667127609253,0.49767252802848816,-9.984671592712402,-0.023117122963619365,0.013733942185549757,-0.0032133718438755307,1.5315858960236701,2.4261887802503295,0.879983983181346
1731474149.0893095,-0.39658495783805847,0.40310895442962646,-9.991823196411133,-0.023090700140203906,0.010523836898761279,-0.0032956500404202204,1.5296272367078179,2.4357319596075984,0.8799656859009668
1731474149.139286,-0.31508591771125793,0.49019932746887207,-9.974615097045898,-0.022989728700202817,0.00748505059213307,-0.0033789957888435028,1.5276024878000969,2.4453385990643,0.879938953526073
1731474149.1892076,-0.3865351676940918,0.38851404190063477,-9.984769821166992,-0.022814433313017114,0.004619838871698796,-0.003462951461397265,1.5265708192684815,2.454880640034181,0.8799843540600061
1731474149.2392628,-0.3284973204135895,0.4553205966949463,-9.989445686340332,-0.02256539140653994,0.001929702845239492,-0.0035470440641647352,1.5247340089215402,2.4645405201730077,0.8799648036567251
1731474149.2891707,-0.36882221698760986,0.4021817743778229,-9.976908683776855,-0.022243536369321713,-0.0005844504872839116,-0.0036307968785484254,1.5228567955001773,2.474120812244618,0.8799364706970074
1731474149.3390863,-0.339903861284256,0.46282950043678284,-9.997218132019043,-0.021850149792633645,-0.002922232232636866,-0.0037137542354027304,1.5209210568224671,2.483715283005958,0.8798989396682908
1731474149.3890233,-0.36403632164001465,0.4146801829338074,-9.983406066894531,-0.02138684981666598,-0.0050838041017535664,-0.003795502050993763,1.520060247447589,2.49328541564717,0.8799824567424764
1731474149.4399798,-0.3282560706138611,0.4430561661720276,-9.990992546081543,-0.02085557650532001,-0.007069913214852518,-0.003875691890471479,1.5181462297144324,2.503084118574512,0.8799602931951356
1731474149.489963,-0.34830936789512634,0.4099680185317993,-9.985173225402832,-0.020258615019196912,-0.008881851079991667,-0.003954044313026194,1.5162203843247868,2.512656769249657,0.8799286866540161
1731474149.5398574,-0.3367198407649994,0.4484230577945709,-9.979958534240723,-0.019598633008386393,-0.010521381078152094,-0.0040303256653410995,1.5131480537378663,2.522164548804024,0.8799818139825136
1731474149.5898209,-0.3511849343776703,0.42940324544906616,-9.9827299118042,-0.018878664027963492,-0.011990724063974945,-0.004104311326371688,1.5106560085382923,2.531681915150936,0.8799590798797295
1731474149.639785,-0.3449540138244629,0.44740235805511475,-9.993281364440918,-0.01810203682665552,-0.013292601989065551,-0.004175764570800454,1.5081233682397983,2.541146636642529,0.8799260693912179
1731474149.689714,-0.348348468542099,0.4309273660182953,-9.968509674072266,-0.017272299466283676,-0.014430263783716412,-0.0042444483589576965,1.5065328400099876,2.5505985326518865,0.8799806817120588
1731474149.7397473,-0.3465837836265564,0.4344233572483063,-9.99363899230957,-0.016393167370500766,-0.015407452721609849,-0.0043101245955470035,1.5041865344484013,2.560047601450592,0.8799565886857197
1731474149.7896135,-0.35121646523475647,0.43669408559799194,-9.989757537841797,-0.01546848762826735,-0.016228339082935566,-0.004372551683643255,1.4994505739736412,2.5693603017655673,0.8799812770441925
1731474149.839714,-0.3436480164527893,0.4485608637332916,-9.986307144165039,-0.014502205301920243,-0.016897478892198906,-0.004431527856494381,1.4923969276822744,2.5787085542337005,0.8799831212324855
1731474149.8895714,-0.3596985638141632,0.44395580887794495,-9.989258766174316,-0.01349832998045972,-0.01741982763148424,-0.004486926141803901,1.4882222936428695,2.587960964276881,0.8799597432629328
1731474149.9394937,-0.3440133035182953,0.440993994474411,-9.989282608032227,-0.012460895864604901,-0.01780075379928294,-0.004538686522904566,1.4839682613931549,2.5972723420595805,0.8799247170065685
1731474149.9894161,-0.3629949986934662,0.4327376186847687,-9.978323936462402,-0.011393919410537093,-0.018045990043603896,-0.0045867981682729585,1.4797552034129469,2.6063850594636633,0.8798789812795108
1731474150.0394707,-0.35161831974983215,0.4358040392398834,-9.977865219116211,-0.01030136153315787,-0.01816153531095566,-0.0046312613901876,1.4849908607391176,2.615597010724026,0.8799776120706277
1731474150.0892787,-0.3588835597038269,0.44195646047592163,-9.983288764953613,-0.009187092570166717,-0.018153572978226316,-0.004672034326992961,1.4826352021766702,2.6246570450450224,0.8799511397688764
1731474150.1392915,-0.3525645434856415,0.4376795291900635,-9.988021850585938,-0.00805487449538088,-0.018028442522681477,-0.004709023312595373,1.480242548607481,2.6337313632857597,0.8799127763633593
1731474150.1892414,-0.3610277473926544,0.4366692900657654,-9.989734649658203,-0.006908358205096157,-0.017792629600325557,-0.004742129826253886,1.478847673766099,2.642737737364121,0.8799778469605778
1731474150.239233,-0.35390523076057434,0.44004589319229126,-9.980785369873047,-0.005751075026279676,-0.01745273438366183,-0.004771296922193531,1.476721686723288,2.6517563239347672,0.8799507680476343
1731474150.2891834,-0.34808841347694397,0.4356316924095154,-9.990507125854492,-0.004586436279348831,-0.017015432618277464,-0.004796513191450157,1.4746028511356084,2.660647081598735,0.8799120383560539
1731474150.3391497,-0.3495331108570099,0.4318283796310425,-9.987534523010254,-0.003417764362209515,-0.01648743773450679,-0.00481780237815072,1.4710885232912823,2.6695694807222665,0.8799772843815494
1731474150.3889644,-0.34229859709739685,0.43807172775268555,-9.979005813598633,-0.002248335720039622,-0.015875453551497755,-0.004835223190934498,1.4683923654087248,2.6783680014700857,0.8799500562817864
1731474150.4399717,-0.35194361209869385,0.43843650817871094,-9.987793922424316,-0.001081402156106217,-0.015186141617994668,-0.0048488534193692635,1.4610434854399916,2.6874129245288136,0.8799780786455838
1731474150.4899325,-0.3497510850429535,0.43838438391685486,-9.9824857711792,7.98232284497561e-05,-0.01442611909240854,-0.004858767004180773,1.4537312415667798,2.696218576874125,0.8799808720148528
1731474150.5399475,-0.3440338671207428,0.4448617100715637,-9.980924606323242,0.001232200069751933,-0.013601963972653173,-0.004865029321976119,1.4487329971862974,2.704965772415833,0.8799548977909722
1731474150.5898569,-0.3435697555541992,0.4436219334602356,-9.993441581726074,0.0023726718014318183,-0.012720219278873329,-0.004867700669638798,1.4437559288894892,2.713650981725143,0.8799168910139825
1731474150.6397717,-0.3434273302555084,0.4445556402206421,-9.981748580932617,0.0034982487668630247,-0.011787396676008652,-0.004866853240279393,1.4481881326936186,2.7223521927808156,0.8799768715276747
1731474150.6896904,-0.34205594658851624,0.4357181191444397,-9.985618591308594,0.004606000102718355,-0.010809957385875249,-0.0048625890615087266,1.4457313977594328,2.730974506742506,0.8799492534166035
1731474150.7397027,-0.3368449807167053,0.4365089237689972,-9.985532760620117,0.005693057684281959,-0.009794256857068173,-0.004855030671730411,1.4403907887558307,2.7396871643091925,0.8799781067480932
1731474150.7896504,-0.3370206654071808,0.44003918766975403,-9.988101959228516,0.006756610973891571,-0.008746481207298599,-0.004844310642513873,1.4367586595189046,2.748269922630863,0.8799510232708402
1731474150.839731,-0.34878137707710266,0.4350849390029907,-9.995030403137207,0.007793908869817836,-0.00767261316167101,-0.0048305888475432095,1.4339186709140832,2.7569379588490963,0.8799782446844472
1731474150.8894904,-0.34958556294441223,0.43955448269844055,-9.992443084716797,0.00880230846338672,-0.006578421069301672,-0.00481408793115854,1.4304848581663996,2.7654407645827788,0.8799514739762958
1731474150.9395454,-0.33814793825149536,0.4347154200077057,-9.992836952209473,0.009779345043687906,-0.005469447373764397,-0.004795120521420265,1.4270361473916815,2.774023015982694,0.8799123728543531
1731474150.9894862,-0.3534073531627655,0.43426117300987244,-9.98823356628418,0.010722758627588301,-0.004350991806504894,-0.004774084061229223,1.423631122262833,2.7825480122845665,0.8798615220918272
1731474151.0393903,-0.35689619183540344,0.43784937262535095,-9.982269287109375,0.011630506198870225,-0.0032280925695503558,-0.004751421797445866,1.426572763505697,2.7911234192203396,0.8799758779219707
1731474151.089344,-0.34376397728919983,0.4424741268157959,-9.984296798706055,0.012500804010102494,-0.0021055247765058497,-0.004727566401265244,1.424265710158732,2.7996254124167663,0.8799483092675121
1731474151.1394033,-0.34501925110816956,0.4349685609340668,-9.980411529541016,0.013332136597533953,-0.0009878215455555142,-0.004702892811774866,1.4197008313107469,2.8082385725531873,0.8799785015008523
1731474151.1892505,-0.35001081228256226,0.4367660880088806,-9.98748779296875,0.01412320976608476,0.00012071906098123832,-0.004677701015302839,1.4163575108956425,2.8167166822182312,0.8799522710455298
1731474151.2393665,-0.35077399015426636,0.4410512447357178,-9.983784675598145,0.014872926223321136,0.001216050301209832,-0.004652227508598104,1.4129978140332318,2.8253312259960954,0.879913800401655
1731474151.2891529,-0.3346041738986969,0.4414082169532776,-9.978825569152832,0.015580390254561313,0.002294377157396898,-0.004626660816417907,1.411832497561194,2.8338314278672567,0.8799777006447689
1731474151.339152,-0.3532467186450958,0.44168803095817566,-9.982125282287598,0.016244884356439757,0.0033521343230742693,-0.004601134010798619,1.409395173346619,2.8423784530788,0.8799512337125599
1731474151.38902,-0.3444956839084625,0.44681721925735474,-9.989038467407227,0.016865845660236647,0.004385966909812418,-0.004575716223588404,1.4037164870627583,2.850965577910576,0.8799793491234065
1731474151.4390323,-0.3412024676799774,0.45108357071876526,-9.988518714904785,0.017442874471672257,0.0053927094691325,-0.0045504428099929235,1.40012934808524,2.859569481913415,0.8799536360566362
1731474151.4888942,-0.35135704278945923,0.44728460907936096,-9.988907814025879,0.01797573432322582,0.006369356140559466,-0.004525363467342071,1.393347229197956,2.8682061765893927,0.8799796496779768
1731474151.5399947,-0.3428148031234741,0.43845781683921814,-9.985496520996094,0.01846434459288386,0.007313056366460589,-0.004500563049236619,1.3882770896652583,2.8769946948020193,0.8799536847877626
1731474151.589838,-0.35130253434181213,0.43799132108688354,-9.989453315734863,0.018908788637192732,0.00822116428942361,-0.004476153141826867,1.3833875828062927,2.885570983785478,0.8799171262204142
1731474151.6397727,-0.34227749705314636,0.4340595602989197,-9.994230270385742,0.019309317200603887,0.009091310173325984,-0.004452267838544825,1.3875544271829938,2.894292844016916,0.879978307998906
1731474151.6898038,-0.345090389251709,0.4354267120361328,-9.992863655090332,0.019666334153464284,0.009921447525629106,-0.004429084102530406,1.3850460733307912,2.9029621602537348,0.8799527244934754
1731474151.7628806,-0.3515869379043579,0.4293767511844635,-9.992466926574707,0.01998037877263407,0.010709871702447658,-0.004406844690945939,1.3764716760711915,2.9157770689085565,0.8799699226935294
1731474151.7896523,-0.3438718020915985,0.40278133749961853,-9.977875709533691,0.020252126014362118,0.011455254635264056,-0.004385843834526935,1.3742653421437803,2.9204447950852206,0.8799553555206381
1731474151.839626,-0.3230764865875244,0.15276339650154114,-9.979936599731445,0.02048236915382273,0.012156969758801227,-0.004366362105244079,1.369103072096662,2.9293329098740912,0.8799792715384105
1731474151.8895721,-0.22208143770694733,0.187400683760643,-10.070066452026367,0.020671831945458623,0.012816040076496006,-0.004348671548080413,1.3646023563421432,2.938083833827051,0.8799549385039799
1731474151.939552,-0.3626958727836609,-0.3957504630088806,-10.0033597946167,0.02082082080699577,0.01343673964452089,-0.00433325518154204,1.3601334874709083,2.946906569080693,0.879919639108115
1731474151.989412,-0.49128592014312744,-0.6028002500534058,-10.101073265075684,0.02092930054347785,0.014029080385738111,-0.004321096315133999,1.362563604611496,2.955839716916571,0.8799789252866996
1731474152.039409,-0.33004650473594666,0.15001556277275085,-9.991525650024414,0.020997662239087493,0.014611141281651458,-0.004313808040806468,1.3554318083144425,2.9649000509037995,0.8799826295285355
1731474152.0893848,-0.42409035563468933,-0.23452405631542206,-9.928579330444336,0.021027289220736954,0.015208445750379409,-0.00431343328976744,1.3513691907172947,2.973845893062721,0.8799594406195996
1731474152.139399,-0.3635537326335907,0.16380023956298828,-9.96257495880127,0.021020415027894868,0.01585074091949163,-0.004321855920892655,1.3473714524527625,2.9828034970273154,0.8799255231345819
1731474152.1892323,-0.3265819549560547,0.03705446049571037,-9.926668167114258,0.020979781193614055,0.016569197376529544,-0.004340241366613787,1.3434404290207362,2.9917687410065734,0.8798809723184322
1731474152.2392316,-0.34383344650268555,0.2610261142253876,-9.951214790344238,0.02090829672064288,0.017394573223322968,-0.0043688768414894006,1.339531796371837,3.000845291398318,0.8798251599108855
1731474152.2891235,-0.34383344650268555,0.2610261142253876,-9.951214790344238,0.020808726068773528,0.01835562141358451,-0.004407254738459836,1.3486954926819428,3.0100570370823716,0.8799776976796313
1731474152.2891235,-0.35642221570014954,0.23940710723400116,-9.95168685913086,0.02068361236498235,0.01947786125349848,-0.0044542271745203355,1.348683791408615,3.010118444841682,0.8799775620670499
1731474152.3392637,-0.3735845685005188,0.305618554353714,-9.976515769958496,0.0205353862114949,0.02078297548632734,-0.004508191157653335,1.3469749443242385,3.0192477061784846,0.879951801990619
1731474152.389072,-0.3662432134151459,0.2762035131454468,-9.98367977142334,0.02036650729916229,0.02228870659101862,-0.004567292375299995,1.3400081571467968,3.028591288480667,0.8841424086335992
1731474152.4390504,-0.3853393793106079,0.2848801612854004,-9.992253303527832,0.020179573171265997,0.02400891825653614,-0.004629650904521264,1.3363351730499167,3.0378761694487446,0.8854625967043017
1731474152.4890246,-0.3745778203010559,0.2969180941581726,-9.987142562866211,0.019977372426384532,0.025953762798249205,-0.0046935396020506325,1.3340450311766956,3.0474217899540377,0.8878891627981493
1731474152.539969,-0.36941108107566833,0.32635197043418884,-10.017279624938965,0.019762882425511583,0.028129890800660896,-0.004757483095441528,1.3307323015320385,3.0569913189355455,0.8895545751533761
1731474152.5898287,-0.3613957464694977,0.32036691904067993,-9.987659454345703,0.019539193082443312,0.03054056449513857,-0.004820327998649167,1.3275455443888138,3.0664126972606787,0.8911694162412118
1731474152.6398501,-0.3558109700679779,0.3377763330936432,-10.017905235290527,0.019309377714038067,0.03318575599160267,-0.004881280404308233,1.3279408438414169,3.0762232000223917,0.8875641911264809
1731474152.6896672,0.11172740161418915,0.9410831928253174,-9.988750457763672,0.01907595354674829,0.036061782098042325,-0.0049398878484303715,1.3257819866676142,3.085807386874743,0.8879277967971829
1731474152.7397246,0.6022413969039917,1.6053311824798584,-9.950591087341309,0.01883875626990227,0.039158862731704866,-0.004995938226448954,1.3220853676786952,3.0958153901467558,0.8872194831943336
1731474152.7897217,0.45707929134368896,1.1785728931427002,-9.883322715759277,0.01859117355520669,0.04245667604898014,-0.005049153986427501,1.319276860715245,3.1056710252030957,0.887377760787634
1731474152.8396256,0.18722468614578247,0.8254978060722351,-10.014012336730957,0.018317645933480044,0.045922123174831145,-0.005098798641355168,1.3165202631940849,3.115617125051693,0.8875230187262465
1731474152.889567,-0.2138817459344864,0.33085402846336365,-10.020838737487793,0.01799515946205536,0.049512601836832155,-0.005143706425761267,1.313820441501227,3.125639613780374,0.8876549407343507
1731474152.939633,-0.84199458360672,-0.42900434136390686,-10.077438354492188,0.017598228730297462,0.05318313870525202,-0.00518286744888609,1.3156594985228571,3.1361748088455026,0.8871493192246056
1731474152.9894435,-1.1347620487213135,-0.6553553342819214,-10.159132957458496,0.017105412537614807,0.056894447876065596,-0.005216141999784207,1.3138498141043224,3.1463962120507647,0.8871923934873409
1731474153.0395005,-0.5375619530677795,0.026560742408037186,-10.053828239440918,0.016504610311528122,0.06061886114547988,-0.005244779485548459,1.3083438925404733,3.157284108135618,0.8832497158622914
1731474153.0893981,-0.6419805884361267,-0.14039817452430725,-10.018117904663086,0.015794009555903356,0.06434093788662183,-0.0052714346056376305,1.3051880813707546,3.1678733175562304,0.8820093464409142
1731474153.13939,-0.48468977212905884,0.17504572868347168,-9.904268264770508,0.01497925507136323,0.06805388513060581,-0.005299469230610492,1.3020433363419925,3.1787207777559803,0.8807449174470806
1731474153.1893013,-0.5061772465705872,0.20886747539043427,-9.975037574768066,0.014070457238751662,0.07175577088697106,-0.0053319601554330815,1.2989602090940107,3.1896541758035672,0.8794775147319153
1731474153.2392278,-0.504601240158081,0.35937514901161194,-9.961531639099121,0.013080527553207232,0.07544679468734267,-0.005371107372276056,1.2958964046567223,3.2008227589152414,0.8781907843344395
1731474153.2890863,-0.5235366225242615,0.4285810589790344,-9.942535400390625,0.012024315025991706,0.07912714652816465,-0.005418210369091801,1.3022797111963254,3.2124665727580415,0.8803125171709519
1731474153.3391986,-0.5182399153709412,0.41647854447364807,-9.95583724975586,0.010918177145242371,0.08279550512855871,-0.005473806340767963,1.3007353938252786,3.2240518790607524,0.8796251379047944
1731474153.3890479,-0.5484158992767334,0.4480695128440857,-9.937871932983398,0.009779721785520154,0.0864483078190186,-0.005537717665984187,1.2933724577760006,3.236229716474501,0.8809992436363526
1731474153.4390175,-0.5478430390357971,0.4370619058609009,-9.939542770385742,0.008627585447655097,0.0900796674196783,-0.005609084785430563,1.2896995067290014,3.2482166232499563,0.8808820129036192
1731474153.4889638,-0.5263280868530273,0.4694240391254425,-9.992203712463379,0.007481215173581411,0.09368157750027079,-0.005686461739858066,1.2864341362688543,3.26087604070311,0.8817336241091229
1731474153.5389593,-0.5467596054077148,0.46723413467407227,-9.985711097717285,0.0063605646021392855,0.09724413820463915,-0.0057680577219198954,1.2829373606644647,3.273335555050841,0.8818335464522805
1731474153.5898702,-0.551529049873352,0.4757702946662903,-9.996859550476074,0.005285763046323389,0.10075577176545959,-0.005852067831535074,1.279109030812771,3.2867114784015983,0.8822508228308928
1731474153.6398945,-0.5152885317802429,0.4587487578392029,-9.976001739501953,0.004276850257046058,0.10420348631106319,-0.005936871579771623,1.275879492097379,3.299753809036468,0.8823704224681621
1731474153.6898081,-0.5710768699645996,0.47691261768341064,-10.003650665283203,0.0033535226087868207,0.10757321300144536,-0.006021056901635918,1.272118662471114,3.313442425635479,0.8827437881706953
1731474153.7397523,-0.525538980960846,0.48766395449638367,-9.994609832763672,0.002534909195471264,0.11085012498196994,-0.006103417910606685,1.2660555236628699,3.327395520596743,0.8829164642222533
1731474153.789613,-0.5084438323974609,0.5185731053352356,-9.965476989746094,0.0018393721093275018,0.11401882827598381,-0.006182963625289724,1.262010118622827,3.341204764101275,0.8830438437511812
1731474153.8396065,-0.5292466878890991,0.4623800218105316,-9.98769760131836,0.0012842177230868925,0.11706348346686651,-0.006258845098290072,1.2579683558664287,3.3553031496497603,0.8831557102108373
1731474153.88953,-0.48913973569869995,0.46731847524642944,-9.979022026062012,0.0008854057275427151,0.11996806985124914,-0.0063302526145719495,1.2539338155046824,3.3696809754435026,0.8832517726424163
1731474153.9395475,-0.4685397744178772,0.5056860446929932,-9.99309253692627,0.0006573211224142719,0.12271677718180571,-0.006396409584392991,1.2594650481494907,3.384977898520434,0.8830962910145252
1731474153.9894257,-0.45702219009399414,0.4998912811279297,-9.956080436706543,0.0006125006644889023,0.1252942319035099,-0.00645660328914071,1.2542908503850518,3.4004485127693367,0.883036970350661
1731474154.0394197,-0.4022035002708435,0.5028836131095886,-9.970311164855957,0.0007613272616028271,0.12768552442393352,-0.006510130873762376,1.2511733906951699,3.415840765398664,0.8830306835719315
1731474154.089314,-0.42270535230636597,0.48164358735084534,-9.983999252319336,0.0011117643362229773,0.12987629119686572,-0.0065562161870515445,1.248077758697122,3.431457391453657,0.8830081695232225
1731474154.1392968,-0.38456615805625916,0.5007065534591675,-9.960416793823242,0.0016691869750886643,0.1318529211997868,-0.006594018322489541,1.2449744722311167,3.44745671473587,0.8829691665421179
1731474154.1892097,-0.3837924003601074,0.4896668791770935,-10.00211238861084,0.0024363453480926987,0.13360275396274018,-0.006622700305557316,1.2418894518016497,3.4637178415958103,0.8829139136882403
1731474154.2391903,-0.3806689977645874,0.47306615114212036,-10.001392364501953,0.00341340873697584,0.1351142218277112,-0.006641527614575952,1.2387910098363082,3.480424753057624,0.8828416834795496
1731474154.2891269,-0.5227342247962952,0.9770021438598633,-9.972333908081055,0.004598211454426651,0.1363765590766171,-0.006649990679892275,1.2482608228944216,3.498007407370009,0.8832049439959888
1731474154.3391964,-0.6536251306533813,1.1910713911056519,-9.957026481628418,0.005987068821028488,0.13737804685734253,-0.006647789516148656,1.246911340265878,3.5153784023575727,0.8832018819792621
1731474154.389024,-0.5680765509605408,0.5152410864830017,-9.884139060974121,0.0075760604127304825,0.1381036282451053,-0.006634569594875178,1.2455805481719977,3.5330713066250676,0.8831822230565538
1731474154.438984,-0.8518714904785156,1.0223649740219116,-10.114818572998047,0.009362134665588136,0.1385347699833614,-0.006609698729987224,1.243568329141258,3.5516977394474267,0.8834075098654688
1731474154.4890203,-0.5428992509841919,0.5303182005882263,-9.948053359985352,0.011343752889678179,0.13865142009779957,-0.006572529111585526,1.24208978987882,3.570174184089441,0.8834222211983213
1731474154.4890203,-0.5428992509841919,0.5303182005882263,-9.948053359985352,0.01352076590563742,0.1384339340351634,-0.006522783762362663,1.2416349052344646,3.576006486616639,0.8834234256717339
1731474154.4890203,-0.5428992509841919,0.5303182005882263,-9.948053359985352,0.015893337586077583,0.13786488656672793,-0.006460376331988553,1.241626190711166,3.576118970033535,0.8834234331700543
1731474154.8706543,-0.253031849861145,0.3442539572715759,-9.981415748596191,0.018460631394567408,0.13693064027039747,-0.006385029451527549,1.216758072740477,9.103347733683268,0.8841147118306439
1731474154.9205117,-0.23775433003902435,1.9156547784805298,-9.855184555053711,0.021219488450656947,0.13562086272249504,-0.006296172307489335,1.2212612223461285,9.116579223745761,0.8840406123993069
1731474154.9705315,-0.4001409411430359,0.5899046659469604,-9.77047061920166,0.024163194505015986,0.1339249359122342,-0.006192651237439575,1.2197646141279108,9.108183477972045,0.8840117818574055
1731474155.020408,-0.1947299689054489,1.112312912940979,-10.022409439086914,0.02728122462225374,0.13182887065025273,-0.006072203344888842,1.2195337918316589,9.096739628902895,0.8839924156736181
1731474155.0704117,-0.21322882175445557,0.8714746236801147,-10.088143348693848,0.030559639924678833,0.12931625591715362,-0.005931747683488754,1.2176640754290489,9.0841197708795,0.8839598399488136
1731474155.1203022,-0.2239534556865692,0.9041865468025208,-9.905142784118652,0.033981171695671865,0.1263704765417607,-0.005768572343618841,1.2158139906725005,9.071401451966745,0.8839111861428851
1731474155.1704328,-1.3943976163864136,-0.5810168385505676,-10.084527969360352,0.03752640007751287,0.1229770695924729,-0.005581014252367899,1.2141262768961567,9.059503629298867,0.883850610133491
1731474155.2202253,-0.5982986688613892,0.3721615672111511,-10.063822746276855,0.041177623315544865,0.1191285849517891,-0.0053684395938586,1.212457967193617,9.04733915277596,0.8837730029977021
1731474155.2702136,-0.46314603090286255,0.03619835898280144,-10.011496543884277,0.04492208038039404,0.11482891605308132,-0.0051313602625440175,1.2169864335817824,9.070961937988697,0.8839738325341939
1731474155.320184,-0.5183843374252319,0.10595713555812836,-10.015792846679688,0.04875073768220892,0.11009317431635943,-0.004871456302938874,1.2162699029927233,9.064378270971078,0.8839421009470385
1731474155.3702235,-0.11161405593156815,0.15249505639076233,-10.028287887573242,0.05265502496221793,0.10494555674238044,-0.004591227009490329,1.21422579659775,9.046431906829067,0.8839777744228182
1731474155.4200754,-0.11161405593156815,0.15249505639076233,-10.028287887573242,0.056624403722892826,0.09941779832623097,-0.004293713823746024,1.2132926988902586,9.037304154390236,0.8839516770934769
1731474155.4200754,0.01588253118097782,0.03391246125102043,-10.020575523376465,0.06064446780803814,0.0935478534552096,-0.00398242454362861,1.213268362563086,9.03704959274641,0.8839507838654241
1731474155.469965,-0.25383296608924866,0.3448643088340759,-9.974748611450195,0.06469598840763605,0.08737869437229256,-0.0036612125219075567,1.212510329081956,9.028409194425636,0.8839156542438221
1731474155.5198517,-0.10165785253047943,0.2227284014225006,-9.922452926635742,0.06875558094058999,0.08095688274770566,-0.0033339459513448836,1.2118953466617193,9.019744201871932,0.8838710391891172
1731474155.5699394,-0.1839110553264618,0.4192267656326294,-9.99095344543457,0.07279707786565977,0.07433071311352064,-0.003004065753790597,1.2105557320050429,9.01070466530938,0.8839817728744268
1731474155.6198208,-0.19280876219272614,0.3612631559371948,-9.950533866882324,0.07679255811780755,0.06754857224546856,-0.0026743711267948824,1.2097820402496942,9.000592395620734,0.8839629393614635
1731474155.6698928,-0.00384950777515769,0.6912849545478821,-9.922014236450195,0.08071292188002904,0.06065753865983832,-0.002347056665978631,1.2083430431758022,8.991300717085112,0.8842145816511799
1731474155.7207956,-0.00384950777515769,0.6912849545478821,-9.922014236450195,0.08452793736133316,0.05370170206003645,-0.002023659422425451,1.2058900837582172,8.981551293009602,0.8844873760304444
1731474155.7207956,0.744889497756958,1.6483407020568848,-9.939879417419434,0.08820520011531094,0.046719611584752685,-0.0017049207850158019,1.2058811090354637,8.98148666994524,0.8844882847079915
1731474155.770732,0.3141680657863617,1.1341841220855713,-10.00156307220459,0.09170790767612338,0.039740651228767424,-0.0013908806622943224,1.204706987503056,8.972278760819682,0.884616746386219
1731474155.8206358,-0.22723086178302765,1.8611536026000977,-9.893811225891113,0.09499385185438217,0.032781908591944596,-0.0010811805664719652,1.2037315422100243,8.962868287105582,0.8847461915285035
1731474155.8706558,-0.4820658564567566,1.1263463497161865,-9.909140586853027,0.09801863448560813,0.025847297714837805,-0.0007751534752161481,1.2030201425862648,8.95378085109871,0.8848698944155617
1731474155.9206085,-0.49431735277175903,1.4234706163406372,-9.892594337463379,0.10074136737961095,0.018929035072688824,-0.00047157799139376845,1.20417458750863,8.944642148452655,0.8846865188652805
1731474155.970523,-0.07631285488605499,0.5004467964172363,-10.070384979248047,0.10312814889806265,0.012011167492032428,-0.00016863113603036168,1.202918417922748,8.935557965703913,0.8848669639649273
1731474156.0204434,-0.24069371819496155,-0.35270124673843384,-10.206377029418945,0.10515169261231398,0.005075571921062895,0.00013536420294916495,1.2025734145565947,8.926465586738614,0.8849665041473219
1731474156.0704284,-0.6625279188156128,-0.9579870700836182,-10.202309608459473,0.10678982867530408,-0.0018892077085424937,0.00044053817674579126,1.2024932939640618,8.917359767238015,0.8850669570010555
1731474156.1203353,-0.7205891013145447,-0.26662561297416687,-10.021163940429688,0.10802616229063067,-0.008879510245391908,0.0007445217498996536,1.2026810077060353,8.908284578920137,0.8851683987766313
1731474156.170457,-0.539745032787323,-0.3440362215042114,-10.02015209197998,0.10885215009048138,-0.015874032397823624,0.0010428756278961753,1.2015431900271851,8.899078814991569,0.885075960649224
1731474156.220292,-0.7099660634994507,-0.18074804544448853,-9.97559928894043,0.10926772196436517,-0.02283730965477443,0.0013303692801687435,1.2016822231040085,8.889952692963234,0.8851388424604977
1731474156.270222,-0.4648881256580353,-0.01231425255537033,-9.95477294921875,0.10928023644038452,-0.029724471067078706,0.0016020054000815288,1.2000406148514011,8.880709881771214,0.8850422263286323
1731474156.320121,-0.6345815658569336,0.11943099647760391,-9.89240837097168,0.10890309285009908,-0.03648510055101387,0.0018535880168462444,1.1999110648806974,8.87130399140513,0.8850656836176042
1731474156.370157,-0.4727819561958313,0.4156271815299988,-9.890789985656738,0.10815447920338328,-0.043066829892330724,0.002082159018840225,1.1991443689549515,8.86193527842314,0.8850219388322037
1731474156.419992,-0.4727819561958313,0.4156271815299988,-9.890789985656738,0.10705625919190306,-0.04941880628666688,0.0022863136116989613,1.1991285088963175,8.852437634195391,0.8850366909921566
1731474156.419992,-0.4746846556663513,0.4383656084537506,-9.960733413696289,0.10563288910756108,-0.05549436454666683,0.002466182157510633,1.1991293483754957,8.852369321822735,0.8850368167759637
1731474156.4700122,-0.4082532823085785,0.4868992269039154,-9.922954559326172,0.10391045672843288,-0.06125234119733393,0.002623052104406629,1.1993769463126323,8.842716137223173,0.8850577279656772
1731474156.5199811,-0.4082532823085785,0.4868992269039154,-9.922954559326172,0.10191594306034714,-0.0666574063096784,0.00275894846255708,1.1985205275229234,8.832881975739287,0.8850129650564802
1731474156.5199811,-0.42095184326171875,0.46034306287765503,-9.94420051574707,0.09967660720893157,-0.0716800563492443,0.0028764410168599253,1.1985213796123315,8.832809519909018,0.8850130461573965
1731474156.5699735,-0.3570947051048279,0.568742036819458,-9.979055404663086,0.09721953975450359,-0.07629643743427736,0.002978504949903973,1.198758057727414,8.822854089703112,0.8850277801602572
1731474156.6198468,-0.35170891880989075,0.5658196806907654,-10.006991386413574,0.09457129634744102,-0.08048823715693663,0.003068199923985972,1.1984220024192838,8.812620586807434,0.8850103395442278
1731474156.6698449,-0.35522300004959106,0.5524300336837769,-9.985919952392578,0.09175749130118352,-0.08424272133581581,0.0031482803658178394,1.1987600458179877,8.802175573712997,0.8850257955736651
1731474156.7197773,-0.3219449818134308,0.549161434173584,-9.999293327331543,0.08880250200847858,-0.08755254374944961,0.0032209814882390936,1.199321565523157,8.791561873339807,0.885049118937564
1731474156.7707493,-0.28970977663993835,0.5290778875350952,-9.999696731567383,0.08572927898468487,-0.09041521600188086,0.003288007513678606,1.200119138454269,8.780491246377151,0.8850812994296194
1731474156.8206139,-0.3143123984336853,0.5126650929450989,-10.002466201782227,0.08255913129742018,-0.09283246640293222,0.0033505683558499744,1.1986260245148002,8.769188360202309,0.8852413355510188
1731474156.870688,-0.2599155902862549,0.5240530371665955,-9.9974946975708,0.07931156805208284,-0.0948096246698567,0.0034094047134363543,1.198699997051739,8.757832876549381,0.8854485014145553
1731474156.9205627,-0.2969132363796234,0.4891177713871002,-9.995007514953613,0.07600425075084091,-0.09635508607887709,0.003464843176270595,1.1991483187628043,8.746449802170059,0.8855527668791126
1731474156.9705002,-0.2292598932981491,0.49995648860931396,-10.004132270812988,0.07265297960883814,-0.09747984348318262,0.00351687338775062,1.19936361576078,8.734630931112694,0.8857034279052955
1731474157.0204966,-0.2579132318496704,0.4924958348274231,-10.007848739624023,0.06927166620954082,-0.09819705987922073,0.003565193093195614,1.1999858486246175,8.72257480529633,0.8858285355509731
1731474157.0704823,-0.24598565697669983,0.4703907370567322,-10.037233352661133,0.06587232851422492,-0.09852170389058779,0.0036091819393425243,1.2007793390176729,8.710238263813078,0.8859629920951737
1731474157.1203732,-0.2604096531867981,0.4892358183860779,-9.96359920501709,0.06246520587020486,-0.09847022386054796,0.0036478690271608515,1.2017261728809898,8.69775111066196,0.886105435815007
1731474157.1703653,-0.2412901222705841,0.49372807145118713,-10.008519172668457,0.05905897021331618,-0.09806027985109853,0.0036800446278128828,1.200273450488361,8.684865289319296,0.8859054436094125
1731474157.2202988,-0.25269076228141785,0.49582356214523315,-9.967084884643555,0.05566090884314225,-0.09731059432889205,0.0037044781629594612,1.2016070335532292,8.67181069869682,0.8861982138922337
1731474157.2702527,-0.29472479224205017,0.49913355708122253,-9.967273712158203,0.05227710657509861,-0.09624085565443359,0.003720085275799631,1.202775240434624,8.658490946010033,0.8864146597624724
1731474157.3201697,-0.2970694601535797,0.489962100982666,-10.00029182434082,0.048912753230877196,-0.09487158302459027,0.0037260215103217865,1.20406017150744,8.645036084194377,0.8866386919033408
1731474157.370167,-0.34497785568237305,0.48454904556274414,-9.985206604003906,0.04557255510170593,-0.0932239376823586,0.003721664204303872,1.2054757965479796,8.631217953748601,0.886874188307475
1731474157.4200604,-0.34497785568237305,0.48454904556274414,-9.985206604003906,0.042261131135170646,-0.09131949988232964,0.003706505288551348,1.2025310354915335,8.617265124180225,0.886135153565421
1731474157.4200604,-0.33604687452316284,0.4833928644657135,-9.957088470458984,0.038983297381832094,-0.08918006056355937,0.0036801343673083585,1.2025514772478616,8.616749170913524,0.8861370327976975
1731474157.4700716,-0.3997398614883423,0.48361581563949585,-10.031452178955078,0.035744205657763164,-0.08682746124200742,0.0036422946139394816,1.2031334881902105,8.603045473192664,0.8861909557076282
1731474157.5199513,-0.34380197525024414,0.5006750226020813,-9.992836952209473,0.032549427703600836,-0.08428348454263657,0.003592802436206689,1.2032484994030708,8.588216618716572,0.8860469032184414
1731474157.570007,-0.40116724371910095,0.47793707251548767,-9.987176895141602,0.029405005838176988,-0.08156978496404414,0.0035313901541538188,1.2038649056498005,8.573922315548852,0.88607224339583
1731474157.6199002,-0.3695700168609619,0.49243950843811035,-9.979872703552246,0.02631742131887034,-0.07870780660339691,0.0034577228991184666,1.2051697914519568,8.558779951500103,0.8860258005038213
1731474157.6698487,-0.41193339228630066,0.5345649719238281,-9.984530448913574,0.02329355040950903,-0.07571871138069645,0.0033715456044113067,1.2061309547977537,8.543994853565124,0.8860463341508126
1731474157.7197323,-0.39578092098236084,0.5249258279800415,-9.9964017868042,0.020340650745899653,-0.07262343666424124,0.0032727495580378895,1.2067652419540311,8.528736809653164,0.8860183617834121
1731474157.7697887,-0.4148857295513153,0.5152393579483032,-10.009360313415527,0.01746634205139757,-0.0694427971215284,0.003161312256818827,1.2076072163835243,8.51332490205639,0.8860371806112651
1731474157.8206913,-0.38384121656417847,0.5252273082733154,-9.947656631469727,0.01467853188434528,-0.06619743290405758,0.003037228292624148,1.2088842344405548,8.497009724114958,0.8862643009936712
1731474157.8705866,-0.37471675872802734,0.512197732925415,-9.963825225830078,0.011985228962294009,-0.06290764524006828,0.002900606513870865,1.2098825671379034,8.481701521196182,0.8863574024828997
1731474157.9205194,-0.39332878589630127,0.548274040222168,-9.980907440185547,0.00939428498619303,-0.05959327061521351,0.0027518626226249536,1.2109519817845125,8.465561721742521,0.8864617567365101
1731474157.970504,-0.3940364420413971,0.5331264734268188,-9.951216697692871,0.006913224627433144,-0.056273645469746496,0.0025917651062259037,1.2120074138506223,8.44979375856909,0.8865693580764232
1731474158.0204077,-0.3720216453075409,0.5273372530937195,-10.012054443359375,0.004549197744223983,-0.05296759509728803,0.0024213386974191826,1.2131058610544792,8.433460691611792,0.8866861868058403
1731474158.070431,-0.36154696345329285,0.5203379988670349,-9.981355667114258,0.0023088890917246133,-0.04969333145583666,0.0022417146850468054,1.2105931011817728,8.41726630904988,0.8862555482308935
1731474158.1203873,-0.33269548416137695,0.5211107134819031,-9.980409622192383,0.00019830471314272207,-0.046468275925547274,0.0020539835655568393,1.2111280661516572,8.400420548815578,0.8862818286248262
1731474158.170318,-0.3207956552505493,0.5135068893432617,-9.99845027923584,-0.0017774928055918336,-0.043308909123378536,0.0018591561322458946,1.213065717429671,8.384192010032963,0.8862247284769953
1731474158.2202368,-0.30687013268470764,0.5224953889846802,-9.994780540466309,-0.003614621336828037,-0.04023067507968249,0.0016581694501663449,1.2151776525327136,8.367098143331907,0.8862141011659371
1731474158.2701979,-0.3119085729122162,0.5182780623435974,-9.960308074951172,-0.0053105247885065305,-0.03724793178267404,0.001451871023327695,1.2163529912720472,8.350756112643408,0.8862241699645149
1731474158.3202002,-0.3232634663581848,0.5220323204994202,-9.994431495666504,-0.0068639767450411285,-0.03437393866889851,0.0012410771685192718,1.2175669010150205,8.333569965366832,0.8862381316230198
1731474158.3702445,-0.28144803643226624,0.5371149778366089,-9.997028350830078,-0.008274985075442333,-0.031620869781039306,0.0010266313335981097,1.2173832706949175,8.316876603367788,0.8862090452460664
1731474158.4200966,-0.28144803643226624,0.5371149778366089,-9.997028350830078,-0.009544751189578128,-0.02899986684554033,0.0008093288681898625,1.2182047971112766,8.299964113065597,0.8862158128813118
1731474158.4200966,-0.31811031699180603,0.5085797905921936,-9.998974800109863,-0.010675685987605838,-0.026521086449170228,0.0005898120353157216,1.218226215464009,8.299515570863942,0.8862160190352819
1731474158.4701083,-0.2963423728942871,0.5248386859893799,-9.973089218139648,-0.011671290037985744,-0.024193648314144178,0.00036856612041284015,1.2200677469136043,8.282709895680153,0.8859454742124077
1731474158.5199509,-0.2880183458328247,0.5108221173286438,-10.006240844726562,-0.012535936347669405,-0.022025532418196426,0.0001459919246358973,1.2213002303577596,8.265640416165562,0.8858595823251976
1731474158.5699735,-0.2980497181415558,0.49068212509155273,-9.973512649536133,-0.013274755628091958,-0.020023509643914,-7.753951655621125e-05,1.2225068272899238,8.248428595336543,0.8857733244790753
1731474158.6198955,-0.2980497181415558,0.49068212509155273,-9.973512649536133,-0.013893576184135363,-0.018193059488021166,-0.0003016529673052421,1.2236788701217103,8.231174829085294,0.885686620721807
1731474158.6198955,-0.31672346591949463,0.5230117440223694,-9.992152214050293,-0.01439878727191424,-0.01653831009587826,-0.0005259068185210142,1.2236867871506765,8.231056349811585,0.8856860235019517
1731474158.6698563,-0.3087119460105896,0.5085582733154297,-10.039146423339844,-0.014797147145412515,-0.015062132359836514,-0.0007498265680998038,1.2220027689921682,8.213828711194001,0.8859580034556982
1731474158.719787,-0.37044280767440796,0.5171928405761719,-9.983965873718262,-0.015095565424597092,-0.013766324554166345,-0.000973102929402675,1.2225431771648714,8.196511378062224,0.8859422163992169
1731474158.769825,-0.35450124740600586,0.50801682472229,-9.950888633728027,-0.015300818888445674,-0.012651727437253473,-0.0011956600245491154,1.2253411113979897,8.179015182406868,0.8859824597752028
1731474158.8206687,-0.35450124740600586,0.50801682472229,-9.950888633728027,-0.015419277286533658,-0.011718260055974063,-0.0014173874672407188,1.226672526466708,8.161389997210689,0.885973151766386
1731474158.8206687,-0.3457523584365845,0.5308553576469421,-10.02107048034668,-0.015456815764782191,-0.010964957179968813,-0.0016378728731560113,1.2266802221226352,8.161286481253175,0.8859730863571866
1731474158.8708599,-0.3598632216453552,0.5240755081176758,-9.973990440368652,-0.015418885743047313,-0.010390071438366382,-0.0018564916261201798,1.2279570770590869,8.14383539428043,0.8859597182486242
1731474158.9206185,-0.37419551610946655,0.5006221532821655,-9.971975326538086,-0.015310555408187126,-0.009991186600838569,-0.0020726221551409297,1.2291801617827096,8.12657501866368,0.885941661964729
1731474158.970634,-0.3892771303653717,0.5268489718437195,-10.022506713867188,-0.01513643919580307,-0.00976523606529124,-0.0022856879435941306,1.2272945995938154,8.108894865060323,0.8862175372721525
1731474159.0204418,-0.42074161767959595,0.5047159194946289,-9.953629493713379,-0.014900548808471152,-0.00970848502413465,-0.002495159138277657,1.2278968723881036,8.091514041334001,0.8862494196310318
1731474159.0705018,-0.4061630666255951,0.5313308238983154,-9.978107452392578,-0.014606129772593304,-0.009816574467702389,-0.0027005483162708286,1.2307860633421224,8.073694952948767,0.8864857088997381
1731474159.1203768,-0.4061630666255951,0.5313308238983154,-9.978107452392578,-0.014255592158672134,-0.010084620417006312,-0.0029013058588589482,1.232728593777466,8.055989266529027,0.8864514782343269
1731474159.1203768,-0.40526318550109863,0.5140536427497864,-10.022367477416992,-0.013850598406756336,-0.010507327501604848,-0.003096805441222016,1.232735940612531,8.055895783017197,0.88645163429825
1731474159.170345,-0.3965300917625427,0.502784788608551,-9.966509819030762,-0.013392229171967389,-0.011079022766755818,-0.003286498472651646,1.234091116119867,8.03842609998886,0.8864766851128686
1731474159.2203305,-0.38581791520118713,0.508468508720398,-9.955740928649902,-0.012881155005369243,-0.011793581941336586,-0.003469959810312976,1.2354213315037748,8.020826537797582,0.8864934404307008
1731474159.2702694,-0.3934820294380188,0.535594642162323,-9.982986450195312,-0.01231781034260697,-0.012644400442662736,-0.003646718940556414,1.2367165814986765,8.003243059080539,0.8865012712741255
1731474159.3201983,-0.35386738181114197,0.5342658758163452,-9.970437049865723,-0.011702560571442243,-0.013624525450332745,-0.0038161415340006396,1.2360095683854884,7.9853216191096115,0.8864099890051493
1731474159.3701587,-0.3599652647972107,0.5136325359344482,-9.988588333129883,-0.011035889099565037,-0.014726836709156131,-0.00397749298951512,1.236923138318767,7.967594492181409,0.8863958753511555
1731474159.4200087,-0.32312655448913574,0.5253065824508667,-10.006949424743652,-0.010318620017766362,-0.015944102923436867,-0.004130067243220432,1.2387964122043207,7.949580362337893,0.8863926343716961
1731474159.4701254,-0.32851725816726685,0.5242536067962646,-9.958294868469238,-0.009552126498509107,-0.017268951130321442,-0.004273293442851652,1.2400377458493614,7.931866456312765,0.8863721033985463
1731474159.5200732,-0.2989529073238373,0.5134327411651611,-9.978981018066406,-0.008738490173635927,-0.018693869888301008,-0.004406722457370751,1.2412612179924043,7.914036281050439,0.8863406404139363
1731474159.5699933,-0.2976040542125702,0.528435468673706,-10.035711288452148,-0.007880613102884116,-0.020211234858461713,-0.004529963009811696,1.2424561948297121,7.8962726779465875,0.8862982961498669
1731474159.6201284,-0.2584826648235321,0.5214108228683472,-9.999695777893066,-0.006982309555300629,-0.02181333864660906,-0.00464280651293316,1.2420128656013671,7.877862131880234,0.8861569643393583
1731474159.6698892,-0.29298895597457886,0.5123870372772217,-9.98195743560791,-0.006048376355094659,-0.02349243212242139,-0.004745397457329716,1.2429122897984146,7.860028097262725,0.886087548780299
1731474159.7198591,-0.2805013358592987,0.5189118385314941,-9.997715950012207,-0.005084549606978394,-0.02524073547065917,-0.004838161415609301,1.2438087738742216,7.841914845250893,0.8860052756315326
1731474159.7697053,-0.2805013358592987,0.5189118385314941,-9.997715950012207,-0.004097324816982422,-0.027050434762184973,-0.00492164425231317,1.2456507558620322,7.823395295114714,0.8859364974934058
1731474159.7697053,-0.25231388211250305,0.526025652885437,-9.983038902282715,-0.0030937946995419235,-0.028913722920405168,-0.004996467152820765,1.2456636426312788,7.823176467138413,0.8859355597201939
1731474159.8196115,-0.2625800669193268,0.5331252813339233,-9.989421844482422,-0.0020816025735441133,-0.030822882647778375,-0.00506330533956012,1.2467238633740578,7.805089971879122,0.8858518783647916
1731474159.870672,-0.25197145342826843,0.5226522088050842,-10.016423225402832,-0.0010689216572984384,-0.03277037257701311,-0.005122857629135335,1.2477875260952729,7.78679816332449,0.8857548828611864
1731474159.9206076,-0.2829984724521637,0.5082409381866455,-9.991646766662598,-6.434670721206236e-05,-0.03474885502255373,-0.005175894215905773,1.2488478532559186,7.7684548650330525,0.8856451800114892
1731474159.9705005,-0.28480449318885803,0.5353925824165344,-9.947487831115723,0.000923331898580942,-0.03675115569035599,-0.005223266149457456,1.24902432371966,7.749686808616954,0.885955789616913
1731474160.0204332,-0.2747306227684021,0.5366898775100708,-10.02096939086914,0.0018853958955727488,-0.03877027309585521,-0.005265761913195838,1.2528537472151255,7.729061727996258,0.8859693738038845
1731474160.0705328,-0.2890772521495819,0.5572153329849243,-9.990310668945312,0.002813383498292523,-0.04079950677808711,-0.005304043266719135,1.254421038033323,7.712057301751108,0.8859412064701783
1731474160.120394,-0.2890772521495819,0.5572153329849243,-9.990310668945312,0.003699191381110703,-0.04283262332813106,-0.00533876329751719,1.256143313718008,7.69335631286686,0.8858977188209529
1731474160.120394,-0.30816128849983215,0.5108066201210022,-9.969518661499023,0.0045351904829243365,-0.044863927804143194,-0.005370601841262486,1.2561536272061666,7.693244306288328,0.8858974191949852
1731474160.1703773,-0.3075338900089264,0.5318730473518372,-9.989680290222168,0.0053143743129138105,-0.046888150205125094,-0.005400153631780669,1.2578820660079835,7.674486533718967,0.8858406776431758
1731474160.220353,-0.3376113772392273,0.514896035194397,-9.994827270507812,0.0060305121535099765,-0.04890024880145549,-0.005427872332330571,1.256123451905514,7.6549597557615074,0.8859735684229002
1731474160.2703774,-0.34983736276626587,0.5286862254142761,-9.962014198303223,0.006678317936492324,-0.05089531303400378,-0.005454110046684345,1.2571138760949772,7.6358260814797605,0.8859435464895955
1731474160.3201654,-0.3544542193412781,0.5517596006393433,-9.99022388458252,0.0072536269867275694,-0.0528685972681041,-0.005479117857421537,1.2600390126286347,7.616427318831177,0.8859763351116864
1731474160.370143,-0.3516252934932709,0.5374683141708374,-9.990341186523438,0.007753498233511013,-0.054815640070472856,-0.0055030196463596295,1.2622437589595492,7.596849136215571,0.8859789601888154
1731474160.4202018,-0.35329899191856384,0.519231379032135,-9.9598970413208,0.008176188593150035,-0.05673235356117699,-0.0055258419969915545,1.2639092175750852,7.577274786151935,0.8859497750732654
1731474160.4702244,-0.3345542550086975,0.5284436941146851,-9.966591835021973,0.008521033133316602,-0.058614967581729654,-0.005547498043685833,1.2655896367711787,7.557625783293703,0.88590684336064
1731474160.5200076,-0.3611922562122345,0.5078816413879395,-10.020652770996094,0.008788289881653585,-0.0604599058359584,-0.005567740355237503,1.2672936019513574,7.5378056687010115,0.8858499615609885
1731474160.570008,-0.3498118817806244,0.5143244862556458,-10.008946418762207,0.008979026266218286,-0.062263698544846716,-0.005586299343140543,1.2649846617034075,7.5176224967939485,0.8861969565995585
1731474160.6198819,-0.33152875304222107,0.5191381573677063,-9.96742057800293,0.009095045890392818,-0.06402293983751071,-0.005603099365839361,1.265925828261772,7.497528833849568,0.8862097324104435
1731474160.6699362,-0.3189314603805542,0.520063042640686,-9.994635581970215,0.0091387375914948,-0.06573430733411559,-0.005618243468816998,1.2672589413874735,7.477075152824048,0.8864486741929728
1731474160.7198498,-0.31146132946014404,0.49782794713974,-9.991044998168945,0.009112831873308025,-0.06739460711078622,-0.00563186304327561,1.2684987664712977,7.456537620967214,0.886512082958921
1731474160.7696915,-0.27925825119018555,0.5191643238067627,-9.976333618164062,0.00902015737717757,-0.06900076625041404,-0.00564407346460742,1.2695598767076157,7.436033589909848,0.886669845655352
1731474160.8196826,-0.26903486251831055,0.5131709575653076,-9.989280700683594,0.008863405085567018,-0.07054981936887053,-0.005654975667674507,1.2708111154768875,7.415227326521153,0.8867407572717014
1731474160.8696597,-0.2614664137363434,0.5186227560043335,-10.001703262329102,0.008644900838592973,-0.07203895864995366,-0.005664647648196833,1.2713954162403642,5.567411753197181,0.8868559976375763
1731474160.9207711,-0.2614664137363434,0.5186227560043335,-10.001703262329102,0.008366466813190665,-0.07346560157730983,-0.005673205913664532,1.2724080815821817,5.803332326558497,0.8869117778145913
1731474160.9207711,-0.2740640342235565,0.5009732246398926,-9.956851959228516,0.008029419493425017,-0.07482741525546935,-0.005680858747853859,1.2724146527420193,5.804845994949774,0.8869120875520307
1731474160.9705622,-0.274027019739151,0.5083372592926025,-10.000702857971191,0.007634678172483208,-0.07612228254237681,-0.0056878246880245785,1.2730341115184507,6.21021722452479,0.8870849215420391
1731474161.02048,-0.274027019739151,0.5083372592926025,-10.000702857971191,0.007182914258704819,-0.07734825171419377,-0.005694255590707589,1.2750812954514652,6.810145120956671,0.8870449213235785
1731474161.02048,-0.2422710508108139,0.5382094979286194,-10.02502155303955,0.006674636969509236,-0.07850356076510831,-0.005700342160763037,1.2750888236544353,6.8124074832094275,0.8870450181909039
1731474161.070523,-0.2422710508108139,0.5382094979286194,-10.02502155303955,0.00611014904397039,-0.07958677262884739,-0.005706510567073801,1.276451404481122,7.219525557706771,0.8870554208719187
1731474161.070523,-0.2966766655445099,0.5066756010055542,-9.966814994812012,0.005489492898173283,-0.08059690920920895,-0.0057134996776107075,1.2764584155628125,7.221608355935371,0.8870554381302106
1731474161.1204453,-0.24885393679141998,0.5543649792671204,-9.974495887756348,0.004812569654047652,-0.08153345871880296,-0.005722189269389529,1.2778475349781484,7.6323789667872015,0.8870516596332061
1731474161.1704516,-0.2737577557563782,0.5325854420661926,-10.017370223999023,0.004079319556684114,-0.08239634939636975,-0.005733341087678138,1.2792422455594705,8.041334126538548,0.8870336724476803
1731474161.2202854,-0.2906055152416229,0.5151991844177246,-9.989680290222168,0.003289802533940024,-0.08318596416156374,-0.00574756730744359,1.2763404405383902,7.34562371150356,0.8869997112459839
1731474161.2703397,-0.3137006163597107,0.5183002948760986,-9.986680030822754,0.002444316080198225,-0.0839030644508173,-0.005765447986789721,1.2769207687891406,7.550332909101134,0.8869748678373224
1731474161.3202085,-0.3137006163597107,0.5183002948760986,-9.986680030822754,0.0015436208329262942,-0.08454863763519704,-0.005787527436702702,1.2777545635356768,7.966217020820632,0.8869843311277877
1731474161.3202085,-0.3133438229560852,0.5345419645309448,-10.003192901611328,0.0005891134643690749,-0.08512383252275481,-0.00581424793250814,1.2777634226421417,7.969731456274791,0.8869840562354919
1731474161.370244,-0.3098906874656677,0.528404951095581,-10.000290870666504,-0.0004171477218762714,-0.08563000213628144,-0.0058459777863803805,1.278866944176067,7.817767010686317,0.8869842196834972
1731474161.4202275,-0.3098906874656677,0.528404951095581,-10.000290870666504,-0.0014725168930705959,-0.08606875764416481,-0.005883090595929548,1.2795914089029425,7.895972535047772,0.8869561616670958
1731474161.4202275,-0.33454248309135437,0.49304723739624023,-9.936529159545898,-0.0025738356983018825,-0.08644193625245397,-0.005925942650270036,1.279595664802884,7.896432507576568,0.8869559523761481
1731474161.470167,-0.3619610667228699,0.5299280881881714,-10.047443389892578,-0.003717406069462353,-0.08675147616906433,-0.005974742170442729,1.2803019530413777,7.973153844413812,0.8869136467959331
1731474161.5199888,-0.36124423146247864,0.5293492674827576,-9.995766639709473,-0.004898848050787226,-0.0869993463658168,-0.006029570883656218,1.281003478005291,8.050302039077566,0.8868561254378176
1731474161.570011,-0.3769206404685974,0.5511707663536072,-9.91990852355957,-0.006112969215590307,-0.08718763971323079,-0.006090512775876841,1.2801287284566674,7.703329209855653,0.8869771792064507
1731474161.6198852,-0.3783719837665558,0.543317973613739,-9.976374626159668,-0.007353739722896306,-0.08731872989763259,-0.006157489138502119,1.280514062390334,7.7085329946320345,0.8869446382369192
1731474161.6698837,-0.24439649283885956,0.7247949242591858,-9.980547904968262,-0.008614467505717609,-0.08739551510281003,-0.006229991352061146,1.2808791243406126,7.713514005541824,0.8868966933991232
1731474161.7198694,0.5133981704711914,1.6614665985107422,-9.919093132019043,-0.009889048837811713,-0.08742286336355846,-0.006307093024700538,1.2814002179722814,7.641579881322201,0.8869731006580996
1731474161.769799,0.2999531030654907,1.1952157020568848,-10.016883850097656,-0.011175161528468855,-0.08741120076150591,-0.0063875449846640606,1.281839540530427,7.634588730473377,0.8869379204517818
1731474161.8197489,0.4892212450504303,1.505788803100586,-9.938413619995117,-0.012477663540681163,-0.08737986416515876,-0.006469851593477318,1.2822496179109961,7.627375194049857,0.886886675307256
1731474161.8706505,-0.516516387462616,-0.022402653470635414,-9.965340614318848,-0.01380888813532435,-0.08735628806561863,-0.006552376195147186,1.2821593780975715,7.595955771410694,0.8869698192705777
1731474161.9206002,-0.9550522565841675,-0.21024510264396667,-10.16689682006836,-0.015184251757379426,-0.08736962036697393,-0.00663353209734757,1.2828711955667815,7.558785282610103,0.8869745046191272
1731474161.9705899,-0.7593311667442322,-0.04050649330019951,-10.03207015991211,-0.016615220916346072,-0.08744202385648725,-0.006712348136480404,1.2832296207816791,7.541102349410613,0.8869392844830701
1731474162.0203743,-0.5015047788619995,0.2697582244873047,-10.028075218200684,-0.018104844696655742,-0.08758409263199586,-0.006789012167783218,1.2832935041220037,7.514788926628094,0.8869710932413816
1731474162.0706327,-0.6376875638961792,0.10086476802825928,-9.939265251159668,-0.01964831656091779,-0.08779626311455623,-0.006864620996768163,1.2834980859175498,7.494013042459546,0.8869331589491418
1731474162.1203902,-0.4812456965446472,0.29825708270072937,-9.977543830871582,-0.021235519195371595,-0.08807198736105498,-0.006940419159614306,1.2836487694556242,7.4732755014409245,0.8868783569172869
1731474162.1703827,-0.5795964598655701,0.24074093997478485,-9.958183288574219,-0.022852745413571712,-0.08839984404504601,-0.007017266161745447,1.2837439221424882,7.45247269169237,0.8868067269413419
1731474162.2203078,-0.508014976978302,0.46040502190589905,-9.957934379577637,-0.024483663798482193,-0.08876510650725372,-0.007095496428495189,1.2834298986447366,7.475970191070913,0.886965592742225
1731474162.2702415,-0.508804440498352,0.4490143060684204,-9.982624053955078,-0.02611004907432242,-0.08915142176380454,-0.007174967530602859,1.283415378059174,7.462971320213085,0.8869250463871408
1731474162.320172,-0.48865872621536255,0.4541880786418915,-9.978496551513672,-0.02771245755381059,-0.08954235592288567,-0.007255180757827362,1.2833336820754162,7.4496602399309095,0.886866238916457
1731474162.370213,-0.5410983562469482,0.4174778163433075,-9.919493675231934,-0.029270828438580025,-0.08992225949959204,-0.007335386503248706,1.2831667367368276,7.441215438628856,0.8869658783101623
1731474162.4201007,-0.47556886076927185,0.47924375534057617,-9.938119888305664,-0.030764864448476703,-0.09027644734681928,-0.007414501147207931,1.2830089982900446,7.4293153213731,0.8869242348477844
1731474162.47022,-0.47460830211639404,0.529241681098938,-10.030539512634277,-0.03217435531459617,-0.09059131805578309,-0.007491009537002974,1.2827723662955004,7.417180056395075,0.8868639044685556
1731474162.5199964,-0.4850676357746124,0.5224998593330383,-9.974165916442871,-0.03347961581591161,-0.09085475258188133,-0.0075632152942713814,1.282719774939995,7.3892751171730495,0.8869649027485321
1731474162.5699408,-0.48955443501472473,0.4771479666233063,-9.996931076049805,-0.03466183908404523,-0.09105645655967488,-0.007629620319466071,1.2824427666027063,7.371704758883113,0.8869222135426698
1731474162.6199024,-0.4665283262729645,0.4885329604148865,-9.979948997497559,-0.03570325704185887,-0.09118788805156866,-0.007689026908388681,1.2823359252026674,7.33621119764674,0.8869662921480854
1731474162.669962,-0.46965348720550537,0.5105751752853394,-9.998185157775879,-0.03658728485353854,-0.09124197181747826,-0.007740468530341741,1.2814934344007283,7.284262236135698,0.8869701343565044
1731474162.7198188,-0.4509274959564209,0.5246589779853821,-10.004263877868652,-0.03729872625007695,-0.09121299157292441,-0.007783201069727593,1.2808712930399988,7.249731922076477,0.8869290240466412
1731474162.7698064,-0.4414564073085785,0.5083518624305725,-9.974061965942383,-0.03782397574059983,-0.09109665736742345,-0.007816735078278242,1.2801552344715443,7.214971566342922,0.8868684166057623
1731474162.8197534,-0.41812509298324585,0.5166147947311401,-9.975350379943848,-0.03815120923535056,-0.09089010843976082,-0.007840783694136644,1.2807346472416161,7.234777056349006,0.8869632336660994
1731474162.8696876,-0.38708367943763733,0.5227304100990295,-9.974908828735352,-0.038270595813467694,-0.09059180477883066,-0.007855120278230836,1.2802687231330339,7.215066561168922,0.8869188262020475
1731474162.9196005,-0.36882284283638,0.5231413841247559,-9.979649543762207,-0.0381745392766812,-0.09020142453831559,-0.007859484038565304,1.2790092368436397,7.181289755843515,0.8869649947510228
1731474162.970591,-0.3273898661136627,0.5379171371459961,-10.020581245422363,-0.03785792148496272,-0.08971980554493583,-0.007853623049625598,1.2781166558418486,7.154445351461283,0.8869202623105022
1731474163.0204976,-0.3707225024700165,0.505232036113739,-9.976547241210938,-0.0373182633134145,-0.08914887500634924,-0.007837434684394993,1.2771424086470138,7.127776236135614,0.8868563685249301
1731474163.070438,-0.3476724922657013,0.5362069010734558,-9.949875831604004,-0.036555674781866825,-0.08849151844067299,-0.007811005586746744,1.2760825354813328,7.101054972206472,0.8867734369631742
1731474163.1203568,-0.3835640251636505,0.5246970653533936,-9.991329193115234,-0.035572584913387134,-0.08775143764981468,-0.007774443681457272,1.277516853676971,7.138404716339714,0.8869606622800057
1731474163.1703653,-0.3614824414253235,0.5287243723869324,-9.99287223815918,-0.03437340041682635,-0.08693306612075558,-0.007727765182964253,1.2769013454856082,7.1239497253871855,0.8869153440817742
1731474163.2202575,-0.377625972032547,0.5039097666740417,-9.963214874267578,-0.032964211274395486,-0.08604147394239785,-0.0076709818107182975,1.2756992109088352,7.088525649906223,0.8869651869487667
1731474163.2702463,-0.3766827881336212,0.5053097605705261,-10.006082534790039,-0.031352558272856344,-0.08508218566023411,-0.007604173302952248,1.2747520790740086,7.065633397425678,0.8869222198081751
1731474163.3201778,-0.37935033440589905,0.516689121723175,-9.970401763916016,-0.029547224140537988,-0.08406098331620773,-0.007527487872153337,1.2735129536150471,7.026736061171179,0.8869657481341521
1731474163.3702471,-0.40080633759498596,0.4964871406555176,-10.002296447753906,-0.027558015872733977,-0.08298379282452238,-0.00744116321818048,1.2722239385643295,6.993948097916682,0.8869236267554971
1731474163.4201424,-0.38300633430480957,0.5083088278770447,-10.015450477600098,-0.025395539863405737,-0.08185662052677121,-0.007345578467201167,1.2708678697818867,6.960930154382465,0.886863015715249
1731474163.470025,-0.443865567445755,0.4779611825942993,-10.014248847961426,-0.023070969195095124,-0.08068546196368948,-0.007241363347315218,1.2722283440013566,6.980884273298297,0.8869642963018928
1731474163.5200374,-0.3783123791217804,0.5307408571243286,-9.943964958190918,-0.020595806848680672,-0.07947621296519748,-0.007129445141988508,1.27147283282487,6.960708279018017,0.8869226641868344
1731474163.569949,-0.4149475693702698,0.529784619808197,-9.995633125305176,-0.017981738887877855,-0.07823470238214095,-0.007010861759336579,1.2701447170277786,6.9242664504393385,0.8869674757968871
1731474163.6199312,-0.4006003737449646,0.5575022101402283,-9.984058380126953,-0.015240615437600418,-0.0769668757276353,-0.006886541876829262,1.2686294552539623,6.884931255391521,0.8869721735837727
1731474163.6698508,-0.4396592080593109,0.5405032634735107,-9.956144332885742,-0.012384395466047214,-0.0756789805574064,-0.006757273532864051,1.2675414584633278,6.857577601069419,0.8869353387958198
1731474163.719805,-0.4295702874660492,0.5543187260627747,-9.9859037399292,-0.009424966670030111,-0.07437761987568905,-0.006623707171222638,1.26642375321046,6.829975419500272,0.8868816740514808
1731474163.7697442,-0.42668965458869934,0.5741111636161804,-9.961564064025879,-0.006373961715188479,-0.07306971930610927,-0.006486312441062651,1.2652897537217185,6.802273723833324,0.8868118209772051
1731474163.8196783,-0.4360142648220062,0.5671287775039673,-9.956544876098633,-0.003242681878538007,-0.07176251997064712,-0.006345361811375838,1.2664204395767276,6.822683120570405,0.8869663047284118
1731474163.8696399,-0.4315682351589203,0.557338535785675,-9.982433319091797,-4.208913570175651e-05,-0.07046356842471992,-0.006200917109212138,1.265736621938375,6.804145457476808,0.8869289627845957
1731474163.9195507,-0.42473089694976807,0.5397765636444092,-10.009066581726074,0.0032171977401781165,-0.0691805876425907,-0.006052893960808057,1.2650547390971485,6.785377196899212,0.8868761518856256
1731474163.9695463,-0.42673540115356445,0.5290296673774719,-9.97465991973877,0.006524883130118454,-0.06792123286453726,-0.005901253631243027,1.2646922576651862,6.762077631965765,0.8869694588789027
1731474164.0205133,-0.41879597306251526,0.5388911366462708,-9.974834442138672,0.009870950372713919,-0.06669284740082332,-0.005746109483371644,1.2639909470388682,6.738499913084461,0.8869340660432848
1731474164.070491,-0.38974595069885254,0.5596628785133362,-10.005626678466797,0.013245598160486944,-0.0655023446272495,-0.005587668631276771,1.2633391434921255,6.715448097483585,0.886885492867454
1731474164.1204576,-0.38453778624534607,0.5208667516708374,-9.979079246520996,0.016639110834961324,-0.06435622278908201,-0.005426207457940097,1.2628228480979429,6.724622461428316,0.8869714006769396
1731474164.1704335,-0.3518224358558655,0.524154782295227,-9.996140480041504,0.020041672053961318,-0.0632605409045966,-0.005262117485470439,1.2618264570146092,6.687453498881736,0.8869776603900182
1731474164.2203336,-0.34355854988098145,0.5191760063171387,-10.006608963012695,0.02344318032997309,-0.062220779809899575,-0.005095925510346969,1.2612293030813246,6.6655308034400855,0.8869492044822763
1731474164.270315,-0.3270731568336487,0.5440074801445007,-9.949302673339844,0.02683310079118456,-0.06124174692668805,-0.004928280706999596,1.2602877928231715,6.646767086101066,0.8869767207775167
1731474164.3202639,-0.3096349239349365,0.5479848384857178,-10.00139331817627,0.03020037493653913,-0.06032764150635291,-0.004759866222021635,1.2596889014151698,6.626522472760554,0.8869488576141573
1731474164.3701947,-0.3083556592464447,0.5252760648727417,-10.021833419799805,0.03353338712203149,-0.0594821838697355,-0.004591338205895869,1.2591720250632248,6.606218759022063,0.8869094741356311
1731474164.4201214,-0.32990550994873047,0.5256478190422058,-9.975671768188477,0.03682001602120548,-0.058708639843138094,-0.004423440680891781,1.2587415304543321,6.58571337527389,0.8868587409015427
1731474164.4701505,-0.3092363774776459,0.5399481058120728,-9.969268798828125,0.040047812578516404,-0.05800974750671653,-0.004257059509717947,1.2593731667643655,6.6025529808558225,0.8869759037065833
1731474164.520042,-0.2887982428073883,0.5596032738685608,-9.972800254821777,0.04320419185938813,-0.057387723418360244,-0.004093043244761128,1.2592112334993566,6.588331630127922,0.8869504463987747
1731474164.5699935,-0.3595009446144104,0.7189980745315552,-9.982955932617188,0.046276557546976155,-0.056844550684398004,-0.003932039223061307,1.2579648365794684,6.554091226351478,0.8869802756595047
1731474164.6199439,-0.6427477598190308,1.415651559829712,-9.925313949584961,0.049252804825295524,-0.05638330854544495,-0.003774456001359278,1.2575642161779883,6.532043964860977,0.8869577436646663
1731474164.6699345,-0.6165494918823242,0.5551245808601379,-9.866538047790527,0.05212268965235631,-0.05601060118869468,-0.003620296546891889,1.2572901180800966,6.50984712930684,0.8869259612950888
1731474164.719879,-1.4786083698272705,0.4926488995552063,-10.089213371276855,0.05488013512174924,-0.05573709480118711,-0.003468937606679206,1.2567604367560345,6.515516171443188,0.8869812129002493
1731474164.7698503,-0.5003513693809509,0.51936936378479,-9.853687286376953,0.057525859558224576,-0.05557452645376962,-0.003319306421450484,1.256637360717596,6.50167483507774,0.8869607285621095
1731474164.8198128,0.04512631148099899,0.05102386325597763,-10.057523727416992,0.060067167558840215,-0.05553220882122557,-0.0031702370323064993,1.2555037201435677,6.469032683098634,0.8869840775405144
1731474164.869673,0.020476045086979866,0.24266284704208374,-10.213884353637695,0.06251275097201948,-0.05561485013875206,-0.0030208511934787566,1.2552535148294692,6.448396291989826,0.8869659726077211
1731474164.9197352,-0.06659018248319626,0.2546806335449219,-9.995284080505371,0.06486687897096542,-0.055821334939959055,-0.002871345798002513,1.254095243078607,6.416587489911502,0.8869855926103017
1731474164.9696233,-0.22866807878017426,0.2495405673980713,-9.991610527038574,0.06712778760484926,-0.05614495683140557,-0.0027234048337130964,1.2537056916196776,6.389552001401542,0.886969203163551
1731474165.0195842,-0.17199070751667023,0.28089892864227295,-9.977840423583984,0.06928923618332199,-0.056574616020008725,-0.002579496019383123,1.2534843289783395,6.362198630887675,0.8869460704700406
1731474165.0705101,-0.17834487557411194,0.4154818058013916,-9.964560508728027,0.07134229873315001,-0.057095972597297776,-0.002441995515877777,1.25348760009853,6.3790487517182495,0.8869862192039719
1731474165.1204085,-0.16542883217334747,0.4964807629585266,-9.969206809997559,0.07327627908816127,-0.05769276807083998,-0.0023128438033092305,1.2535324618555357,6.363165304620189,0.8869716330466164
1731474165.1703877,-0.23587629199028015,0.5165247917175293,-9.943984985351562,0.07507914346799385,-0.05834840332179288,-0.0021934547621733583,1.2525246215247272,6.333240727562105,0.8869886472674994
1731474165.220306,-0.22092512249946594,0.4952094256877899,-9.973434448242188,0.0767380616521171,-0.059047149240054476,-0.002084675053496886,1.2524506725705407,6.31109754274585,0.8869759199154156
1731474165.2703137,-0.2323492467403412,0.5198451280593872,-9.967941284179688,0.0782400389750936,-0.059774636223702445,-0.001986824825969572,1.2525708715472832,6.288855314635588,0.8869581247378585
1731474165.3203123,-0.25136658549308777,0.5174309611320496,-9.953958511352539,0.07957238796774084,-0.06051791168430335,-0.0018998085831923037,1.25288828542741,6.266467808893333,0.8869354758801932
1731474165.37022,-0.22930991649627686,0.5732638835906982,-9.989588737487793,0.08072303523831435,-0.0612654784057389,-0.0018232095457236903,1.2534058755824538,6.2439334748360205,0.8869081813416961
1731474165.4201612,-0.27895158529281616,0.5520592331886292,-10.02342414855957,0.08168075988098121,-0.06200743836156893,-0.0017564281804774897,1.2519107063087447,6.289489128842622,0.8869889427593868
1731474165.4701998,-0.257144570350647,0.5125899314880371,-9.987648010253906,0.0824354177994227,-0.06273556600024909,-0.0016989387339821803,1.2511644034461689,6.248268054866903,0.8869921914048945
1731474165.520094,-0.27159884572029114,0.5109673142433167,-10.002777099609375,0.08297814935174784,-0.06344309322913018,-0.0016504627536266428,1.2512338326193713,6.226795280004069,0.8869827923495862
1731474165.5700138,-0.2805241048336029,0.5076335072517395,-10.030702590942383,0.08330150913413946,-0.06412432500594561,-0.001610970666561863,1.2515096888548658,6.205293479430463,0.8869693927637551
1731474165.6199641,-0.29612553119659424,0.549163281917572,-9.971040725708008,0.08339955569390706,-0.06477440715591957,-0.0015806699147006516,1.2519946453601678,6.183544450683528,0.8869519572264076
1731474165.6699429,-0.11691132932901382,0.7504041194915771,-9.982314109802246,0.08326780138723984,-0.06538953754765738,-0.0015599300979454054,1.2526861962195666,6.161681581481933,0.8869306471427083
1731474165.7198658,0.6160908341407776,1.6543776988983154,-9.985828399658203,0.08290200908575843,-0.06596861034274697,-0.0015490846505219786,1.250552652020171,6.18279102009175,0.8869912466754121
1731474165.7698388,0.2742922902107239,1.1484307050704956,-9.935419082641602,0.08229511811267841,-0.06651685916073503,-0.0015482654382485963,1.2508535018180043,6.168159966208248,0.8869819895335348
1731474165.8198068,0.5598775744438171,1.5156831741333008,-9.900559425354004,0.08143429706499958,-0.0670489890407358,-0.0015572192149836224,1.2497563157137792,6.126644218594731,0.8869927207502799
1731474165.8697546,-0.5117053389549255,-0.020943261682987213,-10.053956031799316,0.08030111757108999,-0.06758820676357233,-0.0015751267365085024,1.2498755433184312,6.101709868762953,0.8869839933367079
1731474165.9196506,-0.9748305082321167,-0.22038394212722778,-10.095508575439453,0.07887609823096782,-0.06815991181009144,-0.00160091563407716,1.249110866669853,6.071165619850474,0.8869929176920193
