Timestamp,IMU_Linear_Acc_X,IMU_Linear_Acc_Y,IMU_Linear_Acc_Z,Filtered_X,Filtered_Y,Filtered_Z,Pose_X,Pose_Y,Pose_Z
1731474136.3090398,-0.3349152207374573,0.42120271921157837,-9.987563133239746,-1.5773521924990185e-05,-4.1103477379461315e-05,-3.980397350358697e-05,2.4431331728554304,8.167201765219977,0.8809999817047551
1731474136.3588867,-0.27416113018989563,0.43637028336524963,-9.988398551940918,-2.1735231927937594e-05,-5.6420254417913886e-05,-5.570566357674735e-05,2.447546313610636,8.173713784651387,0.8809999814300143
1731474136.408835,-0.27416113018989563,0.43637028336524963,-9.988398551940918,-2.967519209301338e-05,-7.450527112764531e-05,-7.553737198404378e-05,2.4484035669843927,8.179532012979855,0.8809999810845468
1731474136.4588637,-0.7430660724639893,0.23497319221496582,-10.004386901855469,-5.5525096002851456e-05,-0.00011830482298347332,-0.00012903713845383916,2.4486683153325446,8.181328875413774,0.8809999809495727
1731474136.5088224,-0.1835746020078659,0.5284029841423035,-9.957141876220703,-7.319991519111064e-05,-0.00014233128647016922,-0.00016386796526347798,2.450715910632045,8.195226025353758,0.8809999791723949
1731474136.5587819,-0.32869449257850647,0.37620213627815247,-10.047292709350586,-9.092208743853987e-05,-0.00016533219228160337,-0.000204929234242697,2.4519753905217154,8.203774191151947,0.8809999773549998
1731474136.6086814,-0.3212164640426636,0.5026140809059143,-9.98022747039795,-0.00010574488195909227,-0.00018526161643159854,-0.00025292769169556325,2.444964164162902,8.42065435736239,0.8809996730779949
1731474136.6586556,-0.3097893297672272,0.373074471950531,-9.942727088928223,-0.00011563729227412473,-0.0002005263722864702,-0.00030866581233503633,2.444018424029861,8.66437760746597,0.8809986644341867
1731474136.7085814,-0.36415764689445496,0.45885133743286133,-10.01577377319336,-0.00011938640594346023,-0.00020994890609353918,-0.00037286311179254584,2.443310249662404,8.907576136532885,0.8809968094697942
1731474136.7586725,-0.3174515664577484,0.43460458517074585,-9.97563648223877,-0.00011629641283240024,-0.00021262763304823732,-0.00044601839540463564,2.44241525192537,9.152352949194489,0.8809939137292383
1731474136.808501,-0.37348827719688416,0.42250683903694153,-9.971975326538086,-0.00010599497205333012,-0.00020792240338059315,-0.0005284820710966807,2.4407754120665177,9.396042544294152,0.8809898113931877
1731474136.858473,-0.3333224654197693,0.4560640752315521,-10.020543098449707,-8.829445117192592e-05,-0.00019547489873323232,-0.0006205106915947275,2.439547352030478,9.640142817796699,0.8809842635311916
1731474136.9084017,-0.3716474175453186,0.4254069924354553,-9.993083000183105,-6.30976399969108e-05,-0.00017519276070899405,-0.000722322673887883,2.440047203415467,9.89332033860515,0.8809767292427954
1731474136.9583972,-0.30855798721313477,0.4505065679550171,-9.975634574890137,-3.0366020657848242e-05,-0.00014724330697787644,-0.0008341924911373546,2.439541799282607,10.12621297626851,0.8809679514520624
1731474137.0092394,-0.33945232629776,0.44332513213157654,-10.006049156188965,9.79740739283124e-06,-0.00011204526650914718,-0.0009564192218696544,2.437469420911188,10.373887445406874,0.8809563707943583
1731474137.0592687,-0.30693483352661133,0.45724576711654663,-9.974886894226074,5.700925209069383e-05,-7.027233702081218e-05,-0.0010892435904969406,2.43635451141157,10.617459091502285,0.880942409646794
1731474137.1091747,-0.30693483352661133,0.45724576711654663,-9.974886894226074,0.00011050543133791246,-2.288481033442074e-05,-0.0012328103787835557,2.436723047600227,10.860760671687085,0.880925571699925
1731474137.1091747,-0.3404017686843872,0.42924872040748596,-9.97957992553711,0.0001691127799743424,2.8874893371974737e-05,-0.001387102723804312,2.436718000038521,10.86258630521743,0.8809254337424086
1731474137.159192,-0.33027854561805725,0.4503231644630432,-9.993732452392578,0.00023134348761488278,8.357483899116361e-05,-0.001551903242300072,2.4360473354128644,11.105260760744462,0.8809051606989793
1731474137.2090607,-0.3312438130378723,0.4298307001590729,-9.984983444213867,0.0002955734788437931,0.00013971824339159073,-0.001726858840557266,2.435374236692404,11.349054078551212,0.880880704984144
1731474137.2591295,-0.32849225401878357,0.44427555799484253,-9.991825103759766,0.0003601473664721471,0.00019581748685315906,-0.001911564977599259,2.435777285929176,11.592286863145434,0.8808517733309085
1731474137.308942,-0.3466336131095886,0.43178790807724,-9.988767623901367,0.0004234074508281243,0.00025042918728087623,-0.002105599778231022,2.435356271076975,11.835878490957382,0.8808177900773275
1731474137.3589773,-0.3226473927497864,0.4400995373725891,-9.986501693725586,0.00048373722727431355,0.0003021793502170139,-0.0023085286767645786,2.4349551044625386,12.07912068438528,0.8807783587405701
1731474137.4088914,-0.3401765823364258,0.42628738284111023,-10.006254196166992,0.0005395939236085412,0.00034978681262252834,-0.002519913354964137,2.4345109073048206,12.322870755105914,0.8807328188441059
1731474137.4588525,-0.32638588547706604,0.4399968981742859,-9.992179870605469,0.0005895018852937014,0.00039209087666723305,-0.002739350944345867,2.4341827274981003,12.565962476564478,0.8806808562398999
1731474137.50879,-0.3352645933628082,0.4304140508174896,-9.980989456176758,0.0006320460745501194,0.0004280647812679441,-0.0029665006501436732,2.4337666618159606,12.809497278170907,0.8806216899492081
1731474137.5588923,-0.33292460441589355,0.43939563632011414,-9.997173309326172,0.0006658806526521301,0.0004568056866627726,-0.0032010381246499455,2.4333507184345997,13.053914332523428,0.8805545749238284
1731474137.6086698,-0.3363683819770813,0.4308415949344635,-9.980420112609863,0.0006897481583721652,0.00047752087258503656,-0.0034425991804344237,2.434340859768291,13.29990366677889,0.8804785969257816
1731474137.6586838,-0.3302421271800995,0.4421899914741516,-9.979595184326172,0.0007025006275002529,0.0004895193126725626,-0.0036907561041657107,2.434286992262112,13.540443006209207,0.8803955310141394
1731474137.7086177,-0.3302421271800995,0.4421899914741516,-9.979595184326172,0.0007030993536008931,0.0004921912289885999,-0.003944979881332103,2.4331893962218847,13.783470607365961,0.880302163660672
1731474137.7086177,-0.3371421694755554,0.43059173226356506,-9.996553421020508,0.0006906014724595119,0.000484980503061561,-0.00420461988315396,2.433171209409752,13.794195116740026,0.880297817288441
1731474137.758543,-0.3301190137863159,0.4375700056552887,-9.977168083190918,0.0006641642708200975,0.00046739147879092406,-0.004468948798678169,2.432777031824459,14.027104857960058,0.8801981063256313
1731474137.8085432,-0.34019094705581665,0.43010377883911133,-9.982741355895996,0.0006230642563598345,0.00043902608368130014,-0.004737202554073646,2.4323650334646123,14.271477582596175,0.8800821907543506
1731474137.8584952,-0.33192288875579834,0.43809831142425537,-9.991263389587402,0.0005667127304507561,0.0003996042882342465,-0.005008573133934295,2.4319564762009604,14.51469030315754,0.8799546752637054
1731474137.9083514,-0.34595686197280884,0.4304082989692688,-9.981121063232422,0.0004946703734879189,0.00034896041116556415,-0.005282216447155515,2.43183245871233,14.763769752113628,0.8798107985545477
1731474137.9583144,-0.3420066237449646,0.443705290555954,-9.989968299865723,0.0004066723441319447,0.00028702824194318195,-0.005557282824333053,2.4314839251498674,15.000959413472907,0.8796606641358156
1731474138.0092392,-0.34163692593574524,0.42966023087501526,-9.989768028259277,0.0003026561023660346,0.00021381851794383556,-0.005832935962364441,2.430280315075727,15.249746141445774,0.8794885988818548
1731474138.0592258,-0.33824580907821655,0.44014066457748413,-9.97556209564209,0.00018275970740369552,0.00012940460374214166,-0.006108362158983183,2.429575471443053,15.493157045688973,0.8793053063065941
1731474138.1091983,-0.341629296541214,0.4363786280155182,-9.98953914642334,4.728802157941795e-05,3.392041595921106e-05,-0.006382756042319744,2.428868692810112,15.737335745361543,0.8791057986625365
1731474138.1591976,-0.3402191698551178,0.43175989389419556,-9.978646278381348,-0.00010331748321189466,-7.244284048616073e-05,-0.006655296830246132,2.428164046321874,15.980753726329624,0.8788906424952011
1731474138.209059,-0.3476492762565613,0.432100772857666,-9.985774040222168,-0.0002684864494220676,-0.00018942826610958473,-0.006925149155141897,2.427460129598282,16.22375972060847,0.8786589723838688
1731474138.2590916,-0.33999305963516235,0.4344528317451477,-9.983550071716309,-0.0004475138677599543,-0.0003166927902519983,-0.007191475461907346,2.429094787990055,16.467554478536155,0.878408822949558
1731474138.3088815,-0.34422069787979126,0.4327370822429657,-9.9750337600708,-0.0006395640561139459,-0.00045380532784639114,-0.007453440919595205,2.4287924768859477,16.709816036894352,0.878142214980747
1731474138.3589008,-0.3437175154685974,0.44072937965393066,-9.988846778869629,-0.0008436913270220364,-0.0006002683930866816,-0.007710207559533064,2.4284860985211956,16.95385170132887,0.8778547305151679
1731474138.4087975,-0.34332624077796936,0.4315757751464844,-9.98684024810791,-0.0010588583513223148,-0.0007555466410493956,-0.007960944599706225,2.4268160521572137,17.199299785427485,0.8775455959560278
1731474138.458818,-0.33988749980926514,0.436118483543396,-9.992659568786621,-0.0012839519832943068,-0.0009190819390776012,-0.008204877225325933,2.426235303507602,17.441181092124268,0.8772210847342451
1731474138.5087607,-0.3460216820240021,0.428290456533432,-9.99396800994873,-0.0015178061884724683,-0.0010902835510687848,-0.008441341240237002,2.425647280257258,17.684639452039466,0.8768737703391561
1731474138.5588555,-0.32766076922416687,0.4385663866996765,-9.993430137634277,-0.0017592305760525432,-0.0012685131814595034,-0.008669816120168053,2.4254648279399875,8.401807917092679,0.8765034927179776
1731474138.6086557,-0.3306537866592407,0.4353063106536865,-9.987985610961914,-0.002007063584127108,-0.001453093164057449,-0.008889930285744852,2.424921757091835,8.408478656850795,0.8761081272766553
1731474138.6586676,-0.3333236277103424,0.4373985528945923,-9.995209693908691,-0.002260241776076531,-0.001643335796859393,-0.009101438721329659,2.424451586450818,8.414075054351455,0.8756995007017733
1731474138.7086084,-0.3319365978240967,0.4339129328727722,-9.97912311553955,-0.002517827117503736,-0.0018385638782873685,-0.009304190160513946,2.4232859683579657,8.428754949423013,0.8752634166525608
1731474138.758562,-0.333381712436676,0.4398839473724365,-9.9823637008667,-0.0027789881259723086,-0.0020381132518094854,-0.009498080908110069,2.422561936159722,8.437747533857758,0.8748045549776622
1731474138.8085184,-0.3302189111709595,0.438150554895401,-9.991358757019043,-0.003042980823436527,-0.0022413392007510453,-0.009683005353169467,2.4218275473996758,8.446772896996757,0.8743197441252968
1731474138.8586066,-0.3308621346950531,0.44120118021965027,-9.983616828918457,-0.0033091446485152822,-0.0024476343135514957,-0.009858851630030785,2.4210864341430662,8.455777387967355,0.8738112946479552
1731474138.8586066,-0.3308621346950531,0.44120118021965027,-9.983616828918457,-0.0035769035364971273,-0.0026564453947261384,-0.010025524550664905,2.4233381215329945,8.428615456271624,0.8736476908451324
1731474138.8586066,-0.3308621346950531,0.44120118021965027,-9.983616828918457,-0.0038457619333947023,-0.0028672830773922354,-0.01018294069191343,2.4233370002822685,8.428630156153556,0.8736445426176758
1731474139.2399957,-0.3376094102859497,0.43933042883872986,-9.987139701843262,-0.00411528857681781,-0.0030797216066135507,-0.010331014185591098,2.4210997250270094,8.455315374006942,0.8690913431676827
1731474139.2900891,-0.3423849642276764,0.43753117322921753,-9.985186576843262,-0.00438507860933016,-0.003293384784554286,-0.010469665401665964,2.4208495726658406,8.457450088248203,0.8683563367967966
1731474139.3398674,-0.34360605478286743,0.4366273581981659,-9.992426872253418,-0.004654695825334252,-0.003507921880205444,-0.010598842949897061,2.421277279879025,8.454994180410402,0.8676069368807979
1731474139.389985,-0.3389294445514679,0.4368346929550171,-9.979833602905273,-0.004923628755184245,-0.003722984949042449,-0.010718540533817184,2.4209413616908733,8.459004417741006,0.8668186814384949
1731474139.4397805,-0.3331068754196167,0.42958614230155945,-9.990646362304688,-0.005191297032817566,-0.003938210446827475,-0.01082879364016754,2.420588218576767,8.463054755105588,0.8659928306862841
1731474139.4898527,-0.335146963596344,0.4248596131801605,-9.98840618133545,-0.005457101385810206,-0.004153188769361247,-0.01092966992934382,2.420236460723357,8.466930570535064,0.8651740377433411
1731474139.539713,-0.3328384459018707,0.4296468496322632,-9.984148025512695,-0.005720472877101001,-0.004367421422454729,-0.01102127522084497,2.4203390175630215,8.466541583155273,0.864313277128364
1731474139.5897124,-0.3308675289154053,0.4361976087093353,-9.986226081848145,-0.0059808970440399685,-0.004580309632996722,-0.011103752553818173,2.418963810135608,8.478065847483009,0.863410140135952
1731474139.639718,-0.3300713300704956,0.44613346457481384,-9.986385345458984,-0.006237928009115226,-0.0047912093024438,-0.011177265273787245,2.418317549897389,8.483667281364516,0.8624960320675045
1731474139.6895943,-0.3355879783630371,0.4400116503238678,-9.9830961227417,-0.006491196780733868,-0.004999522295357387,-0.011241987651180138,2.4176525199897303,8.489282354466459,0.8615498986901883
1731474139.7396622,-0.3371192514896393,0.4425605237483978,-9.980547904968262,-0.006740394887196101,-0.005204756946140745,-0.011298095699724803,2.4169668599701772,8.494918602665349,0.8605697533745401
1731474139.789675,-0.33719924092292786,0.4419511556625366,-9.980554580688477,-0.006985237063323433,-0.00540653395078381,-0.011345744550489001,2.4162661722337835,8.500523749253459,0.8595643382194171
1731474139.8395355,-0.3354564905166626,0.445912629365921,-9.973817825317383,-0.0072254341303050855,-0.005604575104372067,-0.011385042537254449,2.415550342025232,8.506094921650579,0.8585342836520247
1731474139.8896139,-0.3405797779560089,0.44538143277168274,-9.989174842834473,-0.007460687122416211,-0.005798704832912663,-0.011416038784508472,2.4181627846814266,8.488562245189112,0.8574744224364773
1731474139.9394777,-0.33414551615715027,0.4462050497531891,-9.99086856842041,-0.007690686998429697,-0.005988856558468384,-0.011438754106391277,2.4179090592231063,8.491091331563021,0.8563840221121133
1731474139.9894018,-0.3440423011779785,0.44702938199043274,-9.984944343566895,-0.00791511247927666,-0.006175071113798652,-0.011453248892544891,2.4172769708256077,8.499067477405521,0.855271464479144
1731474140.0392613,-0.32870543003082275,0.43953606486320496,-9.982325553894043,-0.008133631875746533,-0.006357481920080609,-0.011459655594488747,2.416932567337448,8.502739142806645,0.8541288416593038
1731474140.089296,-0.34796392917633057,0.4402678906917572,-9.993621826171875,-0.008345911977813935,-0.006536279596262208,-0.011458159516969168,2.416565190108626,8.506419603591693,0.8529497629246424
1731474140.1402464,-0.33399584889411926,0.432169646024704,-9.98773193359375,-0.00855161914398074,-0.0067116591820087146,-0.011448994615593368,2.4161704934441026,8.510139149371506,0.8517232681132944
1731474140.1902158,-0.339699923992157,0.42898687720298767,-9.98838996887207,-0.008750411773687601,-0.006883762365388584,-0.011432463481362995,2.4165704383183786,8.513194554528967,0.8504908993941632
1731474140.2401154,-0.34191736578941345,0.42445263266563416,-9.988052368164062,-0.008941944206988107,-0.007052620008491146,-0.011408936364312401,2.4163198991474464,8.516966499064702,0.8492292039192916
1731474140.2900033,-0.32970547676086426,0.4250764548778534,-9.985917091369629,-0.009125878164278827,-0.007218106682114247,-0.011378830250976588,2.4158571777276956,8.52367243878559,0.847942965955259
1731474140.3400288,-0.32910072803497314,0.4251329004764557,-9.99003791809082,-0.009301912049056789,-0.00737992457835658,-0.011342592278997688,2.4150355988029633,8.536258970163956,0.8466234727980484
1731474140.3900661,-0.32910072803497314,0.4251329004764557,-9.99003791809082,-0.009469836041527962,-0.007537617453669695,-0.011300696520429105,2.414447806578719,8.54470324388839,0.845279279426566
1731474140.3900661,-0.3384392559528351,0.42610400915145874,-9.983735084533691,-0.009629559827894825,-0.007690599642521346,-0.011253646627995585,2.4144437628593054,8.544760123668354,0.8452701195131569
1731474140.439955,-0.3384392559528351,0.42610400915145874,-9.983735084533691,-0.009781077668205513,-0.00783818756532392,-0.011201959166851171,2.413834040642634,8.553155776524562,0.843902583982568
1731474140.439955,-0.3377346694469452,0.435489296913147,-9.978569030761719,-0.009924409099364042,-0.007979637593891496,-0.011146123922687129,2.4138304363316676,8.553204380241366,0.8438945772564985
1731474140.4899478,-0.33423569798469543,0.4322376847267151,-9.991771697998047,-0.010059569698604045,-0.008114200013309264,-0.011086575880823393,2.4153279099906015,8.562613724183525,0.8424920996991923
1731474140.5398195,-0.3368098735809326,0.4413033127784729,-9.979137420654297,-0.010186579987283985,-0.008241179050051988,-0.011023703854712814,2.4152342347644957,8.570106255370085,0.8410794067448134
1731474140.5896668,-0.32903242111206055,0.43979355692863464,-9.979314804077148,-0.01030548649278713,-0.008359983168452163,-0.010957862964189834,2.4151145899881032,8.577635876683294,0.8396287791611775
1731474140.6397073,-0.33598414063453674,0.4474576413631439,-9.982017517089844,-0.01041638129987195,-0.008470166600617092,-0.010889355871386775,2.4149683061979843,8.585192476792967,0.8381416240410168
1731474140.6897366,-0.341476172208786,0.44930747151374817,-9.990230560302734,-0.010519403014421301,-0.008571466850899007,-0.010818424097542701,2.4148770413296057,8.589659092153637,0.8366317562573459
1731474140.7397206,-0.3397352695465088,0.44789478182792664,-9.97748851776123,-0.010614701136665532,-0.008663833265254073,-0.010745278710685799,2.41472706221076,8.597113061064015,0.8350865114158794
1731474140.7895658,-0.3330007493495941,0.44037196040153503,-9.997563362121582,-0.01070240043700091,-0.008747423770785637,-0.01067013111086555,2.4145518333389435,8.604483062096342,0.8335275591438842
1731474140.8395772,-0.03880907967686653,0.5903394818305969,-9.978856086730957,-0.010782878290657119,-0.008822688914339998,-0.010593211257135839,2.414348322561221,8.611888593904377,0.8319298005108097
1731474140.8895676,-0.0758434385061264,0.5316457748413086,-10.008713722229004,-0.010857786560103267,-0.008890768124335308,-0.010514793607098102,2.4124324806733988,8.618756829549202,0.8303236529253433
1731474140.9393978,0.48951706290245056,0.8079436421394348,-9.981762886047363,-0.010931827311470847,-0.008954192236676282,-0.01043523199061344,2.4118347436305583,8.62670284332109,0.8286836834009855
1731474140.9892786,0.7771492004394531,0.6103816628456116,-10.015816688537598,-0.011015387290100855,-0.009017675167373104,-0.010354990608599339,2.4105031683291394,8.650225936318897,0.8270258491823612
1731474141.0394018,0.1431780755519867,0.499295175075531,-10.044015884399414,-0.011127187394920711,-0.009088328622502851,-0.010274716168799013,2.409765474385389,8.66123937875598,0.8253131465912378
1731474141.0892773,0.413790225982666,0.48516714572906494,-9.909783363342285,-0.011294289189135234,-0.009174670775250792,-0.010195297861511588,2.4090118193529753,8.672052488515694,0.8236026315942516
1731474141.1401522,0.038903508335351944,0.3011943995952606,-9.996171951293945,-0.011549228516223581,-0.00928502281593397,-0.01011766587778325,2.4079521472239,8.668796275502947,0.8218328631608688
1731474141.1902132,0.22217567265033722,0.33590275049209595,-10.001534461975098,-0.011926992971296567,-0.009426139321947986,-0.010042497589131045,2.4070851427059248,8.676245624942977,0.8200546787990617
1731474141.2402446,0.017560504376888275,0.20069876313209534,-9.97430419921875,-0.012463005819951111,-0.009602204480567332,-0.009970250693257422,2.405044089217885,8.660037390767265,0.8182562647003369
1731474141.2901216,-0.7728275656700134,-0.02461777999997139,-9.977519989013672,-0.013190968519232411,-0.009813972545222163,-0.00990131406760448,2.4036646449075825,8.659595215750453,0.8164404532866599
1731474141.3400016,-1.2074174880981445,-0.021463442593812943,-10.009428024291992,-0.014138577844825287,-0.010057677885642387,-0.009836002855458435,2.4032748886500284,8.659146222913565,0.814598589802313
1731474141.3900766,-0.23980385065078735,0.27316224575042725,-9.937684059143066,-0.015322433352581252,-0.010324349712266659,-0.009774539138054508,2.402120416183883,8.658668785266446,0.8127320163591494
1731474141.4400213,-0.7082184553146362,0.12128511071205139,-10.163931846618652,-0.016747051157642204,-0.010600700136507789,-0.009717166514721627,2.4009186570050463,8.658162185921542,0.8108295691222668
1731474141.4898539,-0.29287877678871155,0.4290388226509094,-9.929959297180176,-0.01840811218897282,-0.010871057439942449,-0.009664476027199144,2.4038556912233164,8.62642189564743,0.8089285938874492
1731474141.5398967,-0.5628702044487,0.09986446797847748,-10.001678466796875,-0.020295502846991477,-0.011118970078446542,-0.009617558459357483,2.403668217522792,8.619095821048443,0.8069782862012812
1731474141.5897396,-0.5628702044487,0.09986446797847748,-10.001678466796875,-0.022394610763186808,-0.011327728832576954,-0.009577657816325559,2.40342977565257,8.611815375266701,0.8050237561166356
1731474141.5897396,-0.3513105511665344,0.46714502573013306,-10.08678913116455,-0.02468683615419943,-0.011480153432969356,-0.009545955006371194,2.4034280477021435,8.611768030648836,0.8050109932367144
1731474141.6397777,-0.5107159614562988,0.16161222755908966,-9.946783065795898,-0.027150295712945915,-0.011559041958208621,-0.009523786365891785,2.3983958293155676,8.597330126074198,0.8030302382524883
1731474141.6896517,-0.4068586826324463,0.43703973293304443,-9.962201118469238,-0.02976086842515548,-0.011548258201054087,-0.009512632606714274,2.3967230005879947,8.587077475570466,0.8010252362321816
1731474141.7396317,-0.49801453948020935,0.2526971399784088,-10.004266738891602,-0.032492896118222606,-0.011433315636697201,-0.00951371705042282,2.394957078452046,8.576703577273369,0.7989783168466269
1731474141.789641,-0.37864023447036743,0.4197238087654114,-9.953781127929688,-0.035319574161498626,-0.011201570048157552,-0.009527784847128075,2.3931206961392677,8.566382959529161,0.7969237839718972
1731474141.8394883,-0.42949461936950684,0.29616859555244446,-9.941106796264648,-0.0382134764122356,-0.010842376243104045,-0.009555122135623572,2.395621974617505,8.569924471003402,0.7948545346018723
1731474141.8893626,-0.41107162833213806,0.3372349739074707,-10.000696182250977,-0.04114714430804013,-0.010347072198737067,-0.009595514813163642,2.389746053256632,8.527631834825343,0.79276846432931
1731474141.9393225,-0.3805420398712158,0.7001015543937683,-9.957939147949219,-0.04409352616826774,-0.009709112531485292,-0.009648282466729847,2.386737499084976,8.506492169709214,0.7906313282399364
1731474141.9893405,-0.4000968039035797,0.667378306388855,-9.877378463745117,-0.047026309970718556,-0.008925121868202867,-0.009712353552157608,2.385469443097523,8.498548912103217,0.7884861098158161
1731474142.0393183,-0.4872780740261078,1.1421082019805908,-9.997286796569824,-0.04992013283531524,-0.007996853864684733,-0.009786120593958078,2.3824131376505906,8.478255091206808,0.786293125203032
1731474142.0892508,-0.4453103244304657,0.9864438772201538,-9.849359512329102,-0.05275047136869092,-0.006933221572827291,-0.009867297747053715,2.3792574964661557,8.458130620840091,0.7840960123149091
1731474142.139246,-0.5104879140853882,0.7967690229415894,-10.028023719787598,-0.055493387841534375,-0.005751237087374534,-0.00995299312956886,2.3829917705953836,8.49205010391508,0.7818788450432885
1731474142.1901712,-0.3782177269458771,0.7711344957351685,-9.996058464050293,-0.058125523435165076,-0.004474797482741171,-0.01004000630906043,2.381625525144387,8.48626862670714,0.7795792381899868
1731474142.2401364,-0.4499201774597168,0.7072227597236633,-10.010408401489258,-0.06062445283604774,-0.0031321206471732,-0.010125349110495976,2.3822083966912992,8.46448533626826,0.7773112236490408
1731474142.2900872,-0.3696022629737854,0.713841438293457,-10.044113159179688,-0.06296918770939394,-0.0017536230133245799,-0.010206668206223988,2.3812716384861807,8.45219216271034,0.7750100353871388
1731474142.3400176,-0.42195576429367065,0.5679761171340942,-9.984193801879883,-0.06514054184698809,-0.00037054391450870854,-0.010282369004166177,2.3801664664329674,8.439799297439063,0.7726649328936512
1731474142.3899982,-0.30900314450263977,0.6061761379241943,-10.027217864990234,-0.06712136841307839,0.0009862424597992898,-0.010351550139382068,2.378910234595258,8.427551809001715,0.7703216171360939
1731474142.4399173,-0.36433690786361694,0.5541598200798035,-9.993165969848633,-0.06889684002201443,0.002287271618270812,-0.010413847270374229,2.3814409562857306,8.450586855717077,0.7679528643417183
1731474142.4898849,-0.36433690786361694,0.5541598200798035,-9.993165969848633,-0.07045466569016896,0.003505145879384326,-0.010469283785417064,2.3809143556025885,8.445854561799328,0.7655524922299084
1731474142.4898849,-0.3449501693248749,0.5600143671035767,-10.049895286560059,-0.07178503842130693,0.004614853696840865,-0.010518183193284493,2.3809103187780964,8.445823499358408,0.7655366360277164
1731474142.5398262,-0.3187732696533203,0.5636372566223145,-10.002037048339844,-0.07288048737121819,0.0055938872198477135,-0.010561200014854645,2.3792264292197958,8.422206251975743,0.7631355084923336
1731474142.5898345,-0.30297085642814636,0.5662887096405029,-10.012564659118652,-0.07373589905002632,0.00642219812656109,-0.010599377212025819,2.3771558526060628,8.394553734153703,0.7607032413163973
1731474142.6396751,-0.3056734502315521,0.5174658894538879,-10.006267547607422,-0.07434861523057765,0.007082138160432667,-0.010634055040795334,2.375515500400771,8.376368761512934,0.7582109442193382
1731474142.689624,-0.32618317008018494,0.5069574117660522,-9.982719421386719,-0.0747183946682854,0.007558550835216303,-0.010666703244488098,2.373699453665555,8.35830557788298,0.7557064067403556
1731474142.7396877,-0.273434042930603,0.514680802822113,-9.964303016662598,-0.07484722580750026,0.007838959408125538,-0.010698744037089553,2.371670334638437,8.340020933607045,0.7531414891459443
1731474142.7895157,-0.2996521592140198,0.5227103233337402,-9.985552787780762,-0.07473916361723039,0.007913617487995489,-0.010731354726104717,2.374656323020571,8.385078624401853,0.7506245105858164
1731474142.8395174,-0.3358599841594696,0.5379204750061035,-9.958097457885742,-0.07440018863319783,0.0077753302062273395,-0.010765351849368235,2.373513137159619,8.37895221538733,0.7480058239108845
1731474142.8894358,-0.336078017950058,0.4931144118309021,-9.98670482635498,-0.07383788183253781,0.007419205288714071,-0.010801188848062202,2.3722105490680443,8.372966890954348,0.7454454454050651
1731474142.939421,-0.336078017950058,0.4931144118309021,-9.98670482635498,-0.07306098582321247,0.006842539120676026,-0.010839018593143181,2.3707042089562207,8.366907936709174,0.7427862275612972
1731474142.939421,-0.33337661623954773,0.5128029584884644,-10.005820274353027,-0.07207910675544271,0.0060448169994454255,-0.01087882715854173,2.370692355685444,8.366863084814565,0.7427664124331258
1731474142.989331,-0.3498041331768036,0.4721747934818268,-9.94282341003418,-0.07090256230990073,0.005027641401137208,-0.010920547767113764,2.369034992226661,8.360926136637852,0.7401274472048915
1731474143.0392566,-0.32534632086753845,0.5132566094398499,-9.986802101135254,-0.06954225652404493,0.0037945777572687307,-0.010964009749862183,2.3671758826213907,8.354903261493474,0.7374181901719771
1731474143.0892653,-0.3674081265926361,0.5218324065208435,-10.014200210571289,-0.06800955669728692,0.002350950485579045,-0.011008866472674841,2.3651573212178003,8.348915094260542,0.7347328858395131
1731474143.1392438,-0.40713658928871155,0.5078936219215393,-9.99518871307373,-0.06631609628214491,0.0007035441378138448,-0.0110547339713258,2.362955983481855,8.34289732972833,0.7319660782877078
1731474143.1901145,-0.3748840391635895,0.5032426118850708,-9.95654582977295,-0.0644734441330419,-0.0011396605955194044,-0.011101346124214566,2.3605694615625943,8.33680491116827,0.72918114709025
1731474143.2401328,-0.41319382190704346,0.513997495174408,-10.000679969787598,-0.06249282556815809,-0.0031696096907510777,-0.011148475195816859,2.3580579307744216,8.330778427112278,0.726405839714865
1731474143.2901106,-0.4174082279205322,0.5009680390357971,-9.988465309143066,-0.06038499897815378,-0.0053762695629297795,-0.011195823418301823,2.355386304502616,8.32475933887277,0.7235638926773227
1731474143.3401623,-0.4119400978088379,0.5024043917655945,-9.968817710876465,-0.05816016397328149,-0.007748745553922929,-0.011243056811380197,2.352556312597048,8.318702439975139,0.7206836936605042
1731474143.3899338,-0.3861069083213806,0.4877097010612488,-9.973749160766602,-0.05582793393162659,-0.010275369883846003,-0.011289805972334444,2.349617481660462,8.312692131303583,0.7178083706954609
1731474143.4400024,-0.3813762664794922,0.4656544327735901,-10.00214672088623,-0.05339748131964936,-0.012943732011660337,-0.011335608607516257,2.3465099198294683,8.306544277327507,0.7149101681885032
1731474143.489819,-0.3586125075817108,0.4547431170940399,-9.964475631713867,-0.05087777799615384,-0.015740645828611025,-0.0113799423129507,2.3433076593978384,8.300469891890925,0.7119795975124954
1731474143.5397732,-0.3363964855670929,0.4302753210067749,-9.970362663269043,-0.048277830053641925,-0.018652080286728108,-0.01142226329615626,2.3399482792788504,8.294289344950897,0.7089900640667514
1731474143.5897393,-0.3230259418487549,0.4246014356613159,-10.018203735351562,-0.04560690233458413,-0.02166310461665967,-0.011461984329244435,2.336510812569458,8.288090670395947,0.7060506541828578
1731474143.6397502,-0.3195480704307556,0.4174511432647705,-9.99730110168457,-0.0428747036411421,-0.02475788660881325,-0.011498564418139576,2.33291168165048,8.281780772481198,0.7029943223902388
1731474143.6896462,-0.29733991622924805,0.400546669960022,-9.969202995300293,-0.040091481551070306,-0.027919758660437017,-0.011531654520056129,2.3292416178899242,8.275462198360504,0.6999368772955629
1731474143.7396011,-0.2849956750869751,0.3818894624710083,-10.001726150512695,-0.0372680639336585,-0.031131303487705875,-0.011561067050299955,2.3254766586031113,8.269025827427726,0.6969009110940836
1731474143.789569,-0.2620607912540436,0.3989132344722748,-10.011852264404297,-0.0344159129370128,-0.034374430154037,-0.011586697800316712,2.3216196695608136,8.26254889283811,0.6937850290424205
1731474143.8395295,-0.3114404082298279,0.37750130891799927,-9.98075008392334,-0.03154713517110459,-0.037630504726323954,-0.011608580426358628,2.31768845706497,8.25594222895902,0.6906988178975922
1731474143.8895874,-0.3114404082298279,0.37750130891799927,-9.98075008392334,-0.028674298651137582,-0.04088053680776532,-0.011626901484244005,2.313662672276061,8.249257471217522,0.6875162030868506
1731474143.8895874,-0.29066282510757446,0.38888999819755554,-10.001361846923828,-0.025810100087092662,-0.04410535995321846,-0.011641893288704505,2.3136381738468996,8.249216842609561,0.6874969192767368
1731474143.939539,-0.29066282510757446,0.38888999819755554,-10.001361846923828,-0.022967145296383926,-0.04728583849070578,-0.011653797287492712,2.309565522348996,8.242451288401842,0.6842991752965792
1731474143.939539,-0.31284046173095703,0.36997202038764954,-10.00731372833252,-0.02015788622052596,-0.05040310033404281,-0.01166294989791629,2.309539197158706,8.242407483106291,0.6842785563450349
1731474143.9893997,-0.27976566553115845,0.3753986358642578,-10.026233673095703,-0.01739453856802439,-0.05343869591259982,-0.011669877983487599,2.305441638560748,8.235559018397241,0.6810716064752947
1731474144.0392823,-0.2954639196395874,0.3394887149333954,-9.958551406860352,-0.014688986199793554,-0.05637465751138014,-0.011675322608784976,2.3012962659616907,8.228487054031907,0.6778857353997993
1731474144.089266,-0.5322554707527161,-0.19363191723823547,-10.011695861816406,-0.012052521809100991,-0.05919301340989533,-0.011680126285676207,2.2970869998153574,8.221292394539448,0.6745907964697682
1731474144.139285,-0.4975226819515228,-0.47324222326278687,-10.109478950500488,-0.009494991546434878,-0.061873676305568635,-0.011685195022958197,2.2928611349200514,8.213878642048064,0.6713330264642199
1731474144.1902807,-0.6517626047134399,-0.1517183631658554,-10.05496883392334,-0.007023568372729862,-0.06439133499032036,-0.01169184019099688,2.2885214375864744,8.206225734527841,0.6679144859192174
1731474144.2401178,-0.7958483099937439,-0.4603233337402344,-10.047149658203125,-0.004641693504376746,-0.06671403409793238,-0.011702154601906262,2.284293929035544,8.198533914846818,0.6646269824968034
1731474144.2899477,-0.3774668574333191,0.1904527246952057,-9.920002937316895,-0.0023485204724912607,-0.06880437336657126,-0.011718829460494346,2.2800393788151405,8.190738876316669,0.6612358488080835
1731474144.3399312,-0.7103548049926758,-0.2533815801143646,-10.023809432983398,-0.0001394606307925009,-0.07062207221425985,-0.011744513248011294,2.275740684528443,8.18257835883174,0.6578445900635992
1731474144.389945,-0.5084047317504883,0.20593859255313873,-9.930323600769043,0.0019926276380342026,-0.07212653319512909,-0.011781306998162194,2.271495324239701,8.174449056097263,0.6544032388256129
1731474144.4399543,-0.6116470098495483,0.06604569405317307,-9.929553985595703,0.004056767244860497,-0.07327873761299848,-0.01183057365805754,2.2672618792387964,8.166015719020523,0.65099986042348
1731474144.489831,-0.6116470098495483,0.06604569405317307,-9.929553985595703,0.006063580793527435,-0.07404263173032605,-0.01189277744183451,2.263058442801567,8.157422276669699,0.6475822143004464
1731474144.489831,-0.5259138345718384,0.24936124682426453,-9.96333122253418,0.008024976862591864,-0.07438599324436099,-0.011967389350902156,2.263033215614626,8.157370906076032,0.6475611936771279
1731474144.5398407,-0.5633005499839783,0.1612505167722702,-9.892698287963867,0.009953724132500065,-0.07428097193301476,-0.01205300686707873,2.258810287565354,8.148653885452218,0.6440170847572304
1731474144.5897121,-0.5227437615394592,0.1753193736076355,-9.91405963897705,0.011862886033101268,-0.07370458700619807,-0.01214744234871015,2.254613380927487,8.139751388959498,0.6404421358067451
1731474144.6397834,-0.530639111995697,0.1455938071012497,-9.948212623596191,0.013765356351872836,-0.0726387593978904,-0.012247710048672492,2.250422504613882,8.130610609223545,0.6368144934531141
1731474144.6897333,-0.4877649247646332,0.19532594084739685,-9.93302059173584,0.015673533592539136,-0.07106995133199492,-0.012350179113578316,2.2463431294605276,8.121261757029423,0.633285863498
1731474144.7396362,-0.4850020408630371,0.15887004137039185,-9.961091995239258,0.017598988620028608,-0.06898891589343956,-0.01245088062359715,2.2422458998486454,8.111796626222258,0.629609829122289
1731474144.7895703,-0.042006008327007294,0.42955347895622253,-9.968608856201172,0.019551764705649354,-0.06639077419009512,-0.01254577420667002,2.2381979553300755,8.102169968556899,0.6259053993201604
1731474144.8395107,0.20982344448566437,0.5299987196922302,-9.996824264526367,0.021538462753486823,-0.06327577058287656,-0.012630989687681301,2.234266860079588,8.09229897109298,0.622293148519966
1731474144.8894217,-0.2961362600326538,0.27400559186935425,-10.028383255004883,0.023559747122180754,-0.059650343986919596,-0.012703110209311985,2.2303199236535756,8.082336261707285,0.6185192981984351
1731474144.9395008,-0.2961362600326538,0.27400559186935425,-10.028383255004883,0.025610053600596563,-0.0555270230049165,-0.01275946940244441,8.87005273187497,1.702538556804761,0.614845905547543
1731474144.9395008,-0.07620701938867569,0.45252323150634766,-9.962984085083008,0.027679780689650713,-0.050923085931597,-0.01279829799319436,8.870058076805794,1.7025555531203322,0.6148230239029172
1731474144.989377,-0.3626199960708618,0.24273060262203217,-10.05359172821045,0.029757035486596438,-0.045859601648629,-0.012818604218051744,8.870980871578476,1.7053159321816593,0.6110143977738023
1731474145.0394049,-0.1496284306049347,0.48473837971687317,-10.041500091552734,0.031828197705139755,-0.04036113661141154,-0.01282006918821463,8.872066085729694,1.7116372277571483,0.6072925733356407
1731474145.0892012,-0.3409866988658905,0.2217046469449997,-10.007319450378418,0.03387848037640472,-0.03445540391236172,-0.012803139074662554,8.872811092746666,1.7159550709689728,0.6034198900621651
1731474145.1393504,-0.19522902369499207,0.4383619427680969,-10.02239990234375,0.03589250894667755,-0.028172733356647175,-0.012769007204306605,8.873322131346955,1.7206015263863772,0.5996022469313258
1731474145.1891997,-0.3174585700035095,0.26658883690834045,-9.997493743896484,0.0378546984248825,-0.02154550497210339,-0.012719382462384458,8.87412182917246,1.7252514831922596,0.595672346769398
1731474145.2401588,-0.2567730247974396,0.41878947615623474,-9.975645065307617,0.039749571725899394,-0.014607701409900423,-0.012656238679051458,8.875044087601925,1.7299887578767474,0.5915970073816803
1731474145.290124,-0.31867489218711853,0.322895348072052,-10.004502296447754,0.041562087669001324,-0.0073946109778381865,-0.012581595975805795,8.876047163438965,1.7345888450550557,0.5875841097154
1731474145.3400424,-0.2900391221046448,0.4151308536529541,-9.99188232421875,0.04327795735442424,5.7397913181516345e-05,-0.012497395651907843,8.87520278469674,1.7465934416986004,0.5836948756867052
1731474145.390102,-0.2900391221046448,0.4151308536529541,-9.99188232421875,0.04488385781973526,0.007711027886586903,-0.012405504664305053,8.875913508717478,1.7531936467682216,0.5796076190911078
1731474145.390102,-0.331870973110199,0.35072141885757446,-9.961592674255371,0.04636753961748289,0.015528186698900364,-0.012307698874460118,8.875918480302943,1.7532364806768017,0.5795810317362766
1731474145.4399805,-0.31109046936035156,0.4003080129623413,-9.982954025268555,0.04771794719220187,0.023470303618779817,-0.012205551060143295,8.876716904023452,1.7755653601279417,0.5756834660580202
1731474145.4899025,-0.31109046936035156,0.4003080129623413,-9.982954025268555,0.04892535563274278,0.03149876894064323,-0.01210034873390837,8.877560123984479,1.7871201987390541,0.5715408319598821
1731474145.4899025,-0.3297779858112335,0.40445318818092346,-9.977746963500977,0.04998140830482829,0.03957520298958305,-0.011993126637241128,8.877566380795512,1.7872003871463868,0.5715120760240721
1731474145.5398126,-0.3312694728374481,0.4171616733074188,-9.975252151489258,0.050879115531181886,0.047661596194874145,-0.011884723787709849,8.878527154669897,1.7987661683713836,0.5673709486455986
1731474145.589731,-0.3365127444267273,0.42672958970069885,-9.98169231414795,0.05161290397984923,0.05572047097480043,-0.011775793129899615,8.879180704670356,1.8112740387059498,0.5633842972477815
1731474145.6397784,-0.6444383859634399,0.252627432346344,-9.986760139465332,0.05217892556631039,0.06371519471022458,-0.011666819202596275,8.880099357706637,1.8224026338693324,0.5591317798698342
1731474145.6896195,-0.5891392230987549,0.3251998722553253,-9.954066276550293,0.05257603998422622,0.07161067825509748,-0.011558149268050105,8.881141683489691,1.8336161828097421,0.5548822950956435
1731474145.739691,-0.7718563675880432,0.09749940782785416,-9.974160194396973,0.052807156891587305,0.0793743488287635,-0.01144996005175614,8.882322999093276,1.8450925765365633,0.5505761166203496
1731474145.7895942,-0.46285444498062134,0.407083123922348,-9.982929229736328,0.05287987307714186,0.08697689547518331,-0.011342210545217361,8.880772335942861,1.8468385081860637,0.5465015558217089
1731474145.839546,0.17480438947677612,0.5993920564651489,-9.956948280334473,0.05280514127722933,0.09439195310197794,-0.011234680320480979,8.881479470771286,1.8573734704329052,0.5421410121470214
1731474145.8895202,-0.4296962022781372,0.3416212499141693,-10.036373138427734,0.052593908742902575,0.10159460364812756,-0.011127068897091946,8.882311043278786,1.8939467388582554,0.5380252946244451
1731474145.9394314,-0.10667605698108673,0.5735830664634705,-9.944799423217773,0.05225456628796274,0.10856025285640153,-0.011019125784807876,8.883282700629776,1.9102019308360931,0.5336051189811216
1731474145.9893925,-0.10667605698108673,0.5735830664634705,-9.944799423217773,0.05179284179904464,0.11526450439795763,-0.010910661263980156,8.884370286333887,1.9125071300308767,0.5294559442722591
1731474145.9893925,-0.4261827766895294,0.25164923071861267,-9.998679161071777,0.05121235736003004,0.12168327438142959,-0.01080135819636709,8.88437768908454,1.9125867652273947,0.5294276496426895
1731474146.0393891,-0.4261827766895294,0.25164923071861267,-9.998679161071777,0.050515512343780246,0.12779366544647539,-0.010690733122197022,8.885600415341772,1.9252193228702323,0.5249827466139545
1731474146.0393891,-0.1757666915655136,0.5858380794525146,-10.030649185180664,0.04970492457432318,0.13357538375657343,-0.010578406583827896,8.885608794536056,1.9253026748104534,0.5249536983208586
1731474146.0892906,-0.36952340602874756,0.26452311873435974,-9.984543800354004,0.04878386587738226,0.13901094418438004,-0.010464361700614901,8.886942111669349,1.938140225225231,0.5205264450448248
1731474146.1392066,-0.2180897742509842,0.5275964140892029,-9.984308242797852,0.047755698408468286,0.14408498695702723,-0.010348946951508049,8.888408670305202,1.9514595351490396,0.5160282742326737
1731474146.1892066,-0.35027265548706055,0.3020928204059601,-9.998504638671875,0.046623616503639775,0.14878406833927096,-0.010232697330623387,8.889991549716905,1.9651331003698376,0.511507928038232
1731474146.2392662,-0.24522694945335388,0.4789474606513977,-9.97572135925293,0.04539074589212679,0.1530967725984827,-0.010116194072991837,8.891691577660772,1.9348005082201083,0.5072205053431349
1731474146.2900531,-0.32880857586860657,0.3587845265865326,-9.992473602294922,0.044060232675680024,0.15701373801368873,-0.01000001985220109,8.893534865098298,1.941654359050554,0.5025670924445763
1731474146.3401139,-0.28920209407806396,0.4533703923225403,-9.996732711791992,0.04263531566097289,0.16052760146421602,-0.009884744991284892,8.89545409576402,1.946704335175637,0.4982352883844132
1731474146.3900425,-0.32036682963371277,0.38436904549598694,-9.975886344909668,0.041119426049949684,0.16363290656030918,-0.009770941306305316,8.897471272182806,1.9537344064257811,0.4936308700743228
1731474146.4399643,-0.3222068250179291,0.4288286566734314,-9.992498397827148,0.039516297677435586,0.16632604584770408,-0.009659178422087604,8.899603082099553,1.961225199275572,0.4889705863016075
1731474146.4898868,-0.3282969295978546,0.4256960153579712,-9.982223510742188,0.03783006265504041,0.16860520930623507,-0.009549986057792944,8.90182224158103,1.9691016138870736,0.48430617070695436
1731474146.5398424,-0.3282969295978546,0.4256960153579712,-9.982223510742188,0.036065321863176805,0.17047027739241238,-0.009443835246641236,8.904117667209752,1.9677494645351465,0.4799390955925471
1731474146.5398424,-0.3342430889606476,0.41899538040161133,-9.977553367614746,0.034227162087380525,0.1719227063287682,-0.009341122645956745,8.904133240616373,1.9677887559073846,0.4799080380160187
1731474146.5898244,-0.3272224962711334,0.4375999867916107,-9.990431785583496,0.032321128567625534,0.17296547028792342,-0.009242149244614965,8.906494262762328,1.9878061896248547,0.47557543758763
1731474146.6398294,-0.3272224962711334,0.4375999867916107,-9.990431785583496,0.030353167576262635,0.17360299146533564,-0.009147142317475213,8.908983829817712,1.9976338204922304,0.4708151674680338
1731474146.6398294,-0.348007470369339,0.42216381430625916,-9.980985641479492,0.028329560150558576,0.17384103200149853,-0.009056307038602492,8.909005981766372,1.9977218656707074,0.4707733551394043
1731474146.6897447,-0.348007470369339,0.42216381430625916,-9.980985641479492,0.02625691154883845,0.17368664537462244,-0.008969834350798523,8.911517443125103,2.0077885995512177,0.4660825824191212
1731474146.6897447,-0.3311549723148346,0.43346843123435974,-9.981561660766602,0.02414217101131851,0.1731481827230568,-0.008887860667815481,8.911532913694161,2.0078511183989076,0.466053984309478
1731474146.7396312,-0.3311549723148346,0.43346843123435974,-9.981561660766602,0.021992564439079185,0.17223524162261294,-0.008810441152784251,8.914127234113414,2.0184386083939203,0.46129782802674874
1731474146.7396312,-0.3635404109954834,0.40990909934043884,-9.988479614257812,0.019815472987426686,0.17095856652970376,-0.008737560644078502,8.914142710410504,2.018502372491063,0.4612696861845889
1731474146.789546,-0.32311975955963135,0.4552238881587982,-9.978585243225098,0.017618386836221307,0.16932997858197968,-0.008669160932588725,8.916767909025287,2.029436912709752,0.456524715640023
1731474146.8395026,-0.3543110489845276,0.4205108880996704,-9.987153053283691,0.01540888325072472,0.1673622829824126,-0.008605156306768443,8.91944248886403,2.0165110206514694,0.4520808298685934
1731474146.8894835,-0.33690303564071655,0.44204410910606384,-9.983466148376465,0.01319455541224454,0.16506913648796517,-0.008545436116686823,8.92218244639322,2.0234371556873088,0.4472263648114684
1731474146.939377,-0.3456494212150574,0.4204249382019043,-9.974058151245117,0.010982949801059887,0.1624649630342951,-0.008489863393411012,8.924912444479341,2.048738051196453,0.442770265822151
1731474146.9893372,-0.32335811853408813,0.44455331563949585,-9.994388580322266,0.008781505257720014,0.1595649053863502,-0.008438265357609786,8.927704520388344,2.062758977888255,0.4378800335850802
1731474147.0392928,-0.3419918715953827,0.4153200089931488,-9.980100631713867,0.006597453992120473,0.1563847567301131,-0.008390443321133497,8.93050997177432,2.077144817896315,0.43297898600572454
1731474147.0892532,-0.33232659101486206,0.44813141226768494,-9.970808982849121,0.004437740288697685,0.1529408835094889,-0.008346190282996657,8.933331838288188,2.09193019406144,0.4280524306959591
1731474147.1392598,-0.3414287269115448,0.42118310928344727,-9.989472389221191,0.0023089983483782182,0.14925013997259234,-0.008305264217641224,8.936129330114346,2.0786067050579287,0.423536709309014
1731474147.1892078,-0.32821929454803467,0.43675288558006287,-9.983247756958008,0.0002175469735352728,0.14532977622755172,-0.008267373271855352,8.93895703180203,2.08791368527944,0.4185802956689233
1731474147.239118,-0.3308393657207489,0.41653814911842346,-9.989508628845215,-0.0018306450622606247,0.14119737512209302,-0.008232223262176519,8.94178580276085,2.097587820468387,0.4135979235198901
1731474147.2890556,-0.3233639597892761,0.44228991866111755,-9.99915599822998,-0.003830018693957278,0.1368708045599409,-0.008199576843174839,8.94455977435945,2.1012394533063428,0.4090783819120621
1731474147.34003,-0.3317860960960388,0.42187803983688354,-9.981391906738281,-0.005775474167731449,0.13236813602230588,-0.008169293649284915,8.947429187777079,2.1093886109424993,0.4039493854342753
1731474147.389953,-0.3199501931667328,0.43816444277763367,-9.984302520751953,-0.0076623899556062,0.12770754048994612,-0.00814132405630923,8.950221858577919,2.1176958477921537,0.3989067576354672
1731474147.4399762,-0.3348630368709564,0.410004585981369,-9.995926856994629,-0.009486621671225387,0.12290721444907343,-0.008115660531380103,8.953000635538979,2.126339595509308,0.3938300578904053
1731474147.4898822,-0.31965500116348267,0.4335654675960541,-9.987404823303223,-0.011244490754191459,0.11798534822737754,-0.008092325009704807,8.95568712265329,2.140285798891449,0.3892775270233111
1731474147.5398347,-0.33629316091537476,0.42236918210983276,-9.98745346069336,-0.012932766277749991,0.11296008487608894,-0.008071389724807872,8.958396063544868,2.1506453541899595,0.38418705497101424
1731474147.5897639,-0.32917505502700806,0.4344494938850403,-9.999245643615723,-0.014548638304052678,0.10784942870011938,-0.008052976836355938,8.961008355084369,2.164962860562411,0.37963125644545453
1731474147.6397233,-0.3516184091567993,0.42074695229530334,-9.990751266479492,-0.01608966420408742,0.10267114098635398,-0.008037263007541425,8.963646190604809,2.1781841441455576,0.37449921439153244
1731474147.6896822,-0.3454195261001587,0.43337929248809814,-9.982441902160645,-0.01755368132161278,0.09744266704715339,-0.00802448575333945,8.966243766689402,2.1916633334222855,0.3693438748276826
1731474147.739603,-0.3505779504776001,0.42843934893608093,-9.977140426635742,-0.018938721971509268,0.092181076401465,-0.008014891818893312,8.968713929168967,2.198784756687047,0.3647702784765312
1731474147.7895708,-0.3442579209804535,0.44717955589294434,-10.014467239379883,-0.020242980234731277,0.08690297875072964,-0.008008680825147108,8.971224170672476,2.2090482076692495,0.3595606640782082
1731474147.839557,-0.2940550446510315,0.5944892764091492,-9.976007461547852,-0.02146487986681058,0.08162427143446062,-0.008006041619199638,8.973590565631486,2.231847837976717,0.3549601771168262
1731474147.889536,-0.20518560707569122,0.54371577501297,-9.946371078491211,-0.02260337048923336,0.07635955224875238,-0.00800715942569635,8.975984477767561,2.2475027861057053,0.3497295392614216
1731474147.939503,-0.43645983934402466,0.24578015506267548,-9.995434761047363,-0.023658293294104703,0.07112179978853159,-0.008012071565836398,8.978227866700426,2.2604071450487355,0.3451047875692152
1731474147.9893682,-0.2412494719028473,0.5809628963470459,-10.00178050994873,-0.024630290927657558,0.06592301782839605,-0.008020604701544651,8.98048899494401,2.2768505934075183,0.33986779551634644
1731474148.0393229,-0.4226839542388916,0.305077463388443,-9.972904205322266,-0.025520368992287212,0.06077498883764859,-0.008032526899262586,8.982703021643868,2.293564356971216,0.3345750080674522
1731474148.0892675,-0.17636924982070923,0.6643232107162476,-9.994385719299316,-0.026329734135678077,0.05568918712478546,-0.008047656604320726,8.984845556525567,2.310370998689982,0.3292787195202708
1731474148.1391916,-0.017241640016436577,0.4965020716190338,-10.021503448486328,-0.02706032830435599,0.05067613312019264,-0.008065867913491754,8.98680562707441,2.2815730951647564,0.32464920342507336
1731474148.1891968,0.08745230734348297,0.6030604839324951,-10.011589050292969,-0.027716246422793488,0.045744700920263226,-0.008087187893605755,1.5580492447139236,2.319261946866652,0.3199987557101598
1731474148.2391913,-0.9778934717178345,0.07814757525920868,-9.990920066833496,-0.028304393919116752,0.040902233371859074,-0.008111914212205954,1.5554994223437344,2.33606529520303,0.3146302087463554
1731474148.289004,-0.13256236910820007,0.6477596163749695,-9.916261672973633,-0.028832296712110038,0.0361557832368726,-0.008140490152815504,1.5528909345832007,2.352882751284353,0.30926756716448933
1731474148.3390393,-0.5607509613037109,0.18505153059959412,-10.030675888061523,-0.02930537288259456,0.03151304994527623,-0.00817318631749825,1.5501991518276108,2.369853709408682,0.30386254645807237
1731474148.3899746,-0.24053697288036346,0.6703055500984192,-9.993346214294434,-0.029726782540082288,0.026982141478734525,-0.008210012611724767,1.551408163626309,2.3347519956077574,0.29912124876469387
1731474148.4399455,-0.4149532914161682,0.18424800038337708,-9.922703742980957,-0.03009852218358513,0.022571025666582416,-0.008250886943133548,1.5495639162215133,2.3416251900554244,0.29366232137943404
1731474148.4898977,-0.32263457775115967,0.564312756061554,-10.011099815368652,-0.030422003312769376,0.018287388852364993,-0.008295615616387534,1.5462129310535575,2.3672630644171977,0.28899767158544126
1731474148.539939,-0.4096713662147522,0.33358514308929443,-9.978320121765137,-0.030698226829229017,0.014138705918499327,-0.008343785743175881,1.5435436605058734,2.38182329246536,0.2835162740456165
1731474148.5898108,-0.33266475796699524,0.4822407364845276,-9.983787536621094,-0.030927771601770227,0.010132120170685223,-0.008394876961809551,1.5384488046385374,2.3907860029852537,0.27885533036997384
1731474148.6398258,-0.36633315682411194,0.4079146981239319,-10.017582893371582,-0.031110827661991157,0.0062742287355628795,-0.0084484091094369,1.5348068959484817,2.403804597543893,0.2733415685023493
1731474148.6896837,-0.37975364923477173,0.41329842805862427,-9.984230041503906,-0.03124732948866356,0.0025710025967559482,-0.008504022346696397,1.5355185857118823,2.4135698148426155,0.26867979526189945
1731474148.7397082,-0.3236582279205322,0.45023560523986816,-9.957239151000977,-0.03133703991865119,-0.0009722068096271416,-0.00856148955410655,1.5335612707637878,2.423779066321088,0.26312666003703333
1731474148.7895982,-0.4094269871711731,0.40006208419799805,-10.010847091674805,-0.031379605402515595,-0.004350664232637727,-0.008620594811272735,1.5262384666331434,2.4429821853381632,0.25846365329180276
1731474148.8395123,-0.3341081142425537,0.49790847301483154,-9.974881172180176,-0.03137458815546136,-0.007560321559243909,-0.00868105785520009,1.5216207153628203,2.454650839134237,0.2537952027014915
1731474148.8895173,-0.40162166953086853,0.3858509361743927,-9.979796409606934,-0.03132144925848831,-0.0105979332652559,-0.008742582745619839,1.5179389172764657,2.465330393801651,0.2481816487171939
1731474148.9394271,-0.33520281314849854,0.49349677562713623,-9.995915412902832,-0.031219564573653144,-0.01346110527039359,-0.008804868997484581,1.514179128259316,2.475978583844563,0.24254672831800672
1731474148.989394,-0.33520281314849854,0.49349677562713623,-9.995915412902832,-0.031068343496341917,-0.016148344984797895,-0.008867617910358751,1.510363280420244,2.486529482688609,0.23692185747026767
1731474148.989394,-0.39363962411880493,0.3769837021827698,-9.9759521484375,-0.030867392581440153,-0.01865916769334929,-0.008930589059980216,1.5103390239245533,2.4865957513541384,0.23688639123975858
1731474149.0393794,-0.32641667127609253,0.49767252802848816,-9.984671592712402,-0.03061655078068257,-0.020993992496575554,-0.008993591789317723,1.5186147112047872,2.4831720889416835,0.2322330105643534
1731474149.0893095,-0.39658495783805847,0.40310895442962646,-9.991823196411133,-0.030315812107897674,-0.02315388683468017,-0.009056423685906171,1.5169615746984555,2.4923038075508988,0.2265593362870345
1731474149.139286,-0.31508591771125793,0.49019932746887207,-9.974615097045898,-0.02996530907635116,-0.025140496612087768,-0.009118859514513805,1.5152275247390095,2.5014058907275065,0.22084384667234497
1731474149.1892076,-0.3865351676940918,0.38851404190063477,-9.984769821166992,-0.02956536370898614,-0.026956052056076735,-0.009180655972814505,1.5132983254573005,2.510402103392876,0.21617058256295432
1731474149.2392628,-0.3284973204135895,0.4553205966949463,-9.989445686340332,-0.029116532454815464,-0.028603258493915016,-0.00924153833009925,1.51171073912311,2.519387867938783,0.21040348951044358
1731474149.2891707,-0.36882221698760986,0.4021817743778229,-9.976908683776855,-0.0286196159371629,-0.030085138309091583,-0.009301213042543083,1.5100597363366923,2.528251889217144,0.2046444439694001
1731474149.3390863,-0.339903861284256,0.46282950043678284,-9.997218132019043,-0.028075657828677936,-0.031404957847687785,-0.00935939344233783,1.5083365987976838,2.5370475556743153,0.1988568187409154
1731474149.3890233,-0.36403632164001465,0.4146801829338074,-9.983406066894531,-0.027485939888484356,-0.032566263371242875,-0.009415821133511278,1.504322377112405,2.545771337733375,0.19416327643575104
1731474149.4399798,-0.36403632164001465,0.4146801829338074,-9.983406066894531,-0.02685194191016775,-0.033572894354152547,-0.009470284047217375,1.5019220638279287,2.554599034066179,0.18820318139592276
1731474149.4399798,-0.3282560706138611,0.4430561661720276,-9.990992546081543,-0.026175298471175862,-0.034428904392631896,-0.009522606445231847,1.5019064588498838,2.5546553133589973,0.18816491393811677
1731474149.489963,-0.3282560706138611,0.4430561661720276,-9.990992546081543,-0.025457858106587003,-0.035138538574804964,-0.009572641919834667,1.4995041363567823,2.563161530733093,0.18233948286246895
1731474149.489963,-0.34830936789512634,0.4099680185317993,-9.985173225402832,-0.024701815777506297,-0.035706308137673295,-0.009620294602437924,1.4994865789970748,2.563222574975075,0.1822973753959862
1731474149.5398574,-0.3367198407649994,0.4484230577945709,-9.979958534240723,-0.023909734096172256,-0.03613698763083088,-0.009665515043480667,1.4987665160518056,2.5716147191538945,0.17765684345109806
1731474149.5898209,-0.3511849343776703,0.42940324544906616,-9.9827299118042,-0.023084441662332294,-0.036435559120918656,-0.009708253744770402,1.4964540265516446,2.579996095298796,0.17175311177652455
1731474149.639785,-0.3449540138244629,0.44740235805511475,-9.993281364440918,-0.022228933717848308,-0.03660722929185097,-0.00974843301483529,1.4940906061872155,2.588266529865461,0.16583921045675118
1731474149.689714,-0.348348468542099,0.4309273660182953,-9.968509674072266,-0.021346305490682463,-0.03665745963762575,-0.0097859597312515,1.4898263710472306,2.5964707520568258,0.16114407966323238
1731474149.7397473,-0.3465837836265564,0.4344233572483063,-9.99363899230957,-0.020439709409460438,-0.03659193888184628,-0.00982072552228835,1.4869869179833772,2.604598634633466,0.15515933978318228
1731474149.7896135,-0.35121646523475647,0.43669408559799194,-9.989757537841797,-0.019512328484091214,-0.03641652139326845,-0.009852605197050284,1.4800188146750464,2.6126119641449095,0.15047977682282102
1731474149.839714,-0.3436480164527893,0.4485608637332916,-9.986307144165039,-0.01856735157410607,-0.03613719232645054,-0.009881500909195545,1.4698159374164392,2.620565969090883,0.14577422673445664
1731474149.8895714,-0.3596985638141632,0.44395580887794495,-9.989258766174316,-0.017607948758937102,-0.035760088340258366,-0.009907377911302017,1.463970157729571,2.6283798574319657,0.13976291078898778
1731474149.9394937,-0.3440133035182953,0.440993994474411,-9.989282608032227,-0.016637240072070725,-0.035291518715764206,-0.009930257466536327,1.4580644607460944,2.636128060075546,0.13370916714969863
1731474149.9894161,-0.3629949986934662,0.4327376186847687,-9.978323936462402,-0.015658261603174805,-0.03473792455336933,-0.009950199791181655,1.4521384017336187,2.643763216664067,0.12765099644223526
1731474150.0394707,-0.35161831974983215,0.4358040392398834,-9.977865219116211,-0.014673935947992874,-0.0341057894417648,-0.009967266690799456,1.4681533520646814,2.6513721968540613,0.12294949548744719
1731474150.0892787,-0.3588835597038269,0.44195646047592163,-9.983288764953613,-0.013687045188054265,-0.033401566516914546,-0.00998146888633439,1.4665100767191772,2.6588260587477333,0.11685909607592047
1731474150.1392915,-0.3525645434856415,0.4376795291900635,-9.988021850585938,-0.01270022087112809,-0.03263165941777832,-0.009992756995516588,1.4648229373365589,2.6662468196971183,0.11070336147413748
1731474150.1892414,-0.3610277473926544,0.4366692900657654,-9.989734649658203,-0.011715948800465004,-0.031802421961050445,-0.010001069064240618,1.4585443743394035,2.6735851047870622,0.10603361764213404
1731474150.239233,-0.35390523076057434,0.44004589319229126,-9.980785369873047,-0.010736567767577181,-0.030920136338696128,-0.010006377548959593,1.4560327979041623,2.680872808501166,0.0998137073542719
1731474150.2891834,-0.34808841347694397,0.4356316924095154,-9.990507125854492,-0.009764276048953167,-0.0299909842513433,-0.01000869380391592,1.4535219373984343,2.6880087585545502,0.09363381397325007
1731474150.3391497,-0.3495331108570099,0.4318283796310425,-9.987534523010254,-0.00880116912267133,-0.029021019268456877,-0.01000805819673225,1.4526101550178527,2.695138597791509,0.08896368342012963
1731474150.3889644,-0.34229859709739685,0.43807172775268555,-9.979005813598633,-0.00784928896029745,-0.028016129908481232,-0.010004540394301393,1.4502162724586567,2.7021323153469483,0.08274141242964311
1731474150.4399717,-0.35194361209869385,0.43843650817871094,-9.987793922424316,-0.006910651341820141,-0.02698201744044364,-0.009998223929981807,1.4405796993952238,2.709272731901557,0.07794921780708135
1731474150.4899325,-0.3497510850429535,0.43838438391685486,-9.9824857711792,-0.005987237475542648,-0.025924204268208833,-0.00998918370199445,1.4350987827470236,2.7161903218109673,0.07330720759869759
1731474150.5399475,-0.3440338671207428,0.4448617100715637,-9.980924606323242,-0.005080965314494488,-0.024848049668028435,-0.009977481664709267,1.4305581178726665,2.72303379808994,0.06698363282108759
1731474150.5898569,-0.3435697555541992,0.4436219334602356,-9.993441581726074,-0.0041936835160523035,-0.023758764444320086,-0.009963170698942115,1.4260212429579897,2.729793477417241,0.06065657540156183
1731474150.6397717,-0.3435697555541992,0.4436219334602356,-9.993441581726074,-0.003327192888149235,-0.022661424115232684,-0.009946322460028505,1.4315256130170362,2.7365264387784074,0.05604284714236693
1731474150.6397717,-0.3434273302555084,0.4445556402206421,-9.981748580932617,-0.002483257263149994,-0.021560965682212392,-0.009927071979300742,1.4315144840176695,2.7365662395857777,0.056004948995947594
1731474150.6896904,-0.34205594658851624,0.4357181191444397,-9.985618591308594,-0.001663595222058669,-0.020462163126132117,-0.009905613141632106,1.4296607829268497,2.7431630539510383,0.04968723697357849
1731474150.7397027,-0.3368449807167053,0.4365089237689972,-9.985532760620117,-0.0008698745162507363,-0.01936958187296854,-0.009882151058509814,1.4232834385307538,2.7498519368841126,0.04503766615618714
1731474150.7896504,-0.3368449807167053,0.4365089237689972,-9.985532760620117,-0.00010372244231939725,-0.018287525620137305,-0.009856877915483921,1.4197813225854328,2.7564058516641676,0.03862927347214783
1731474150.7896504,-0.3370206654071808,0.44003918766975403,-9.988101959228516,0.0006332598511162874,-0.017220009686444146,-0.00982997926598563,1.4197595985686244,2.7564463627596774,0.03858944627437614
1731474150.839731,-0.34878137707710266,0.4350849390029907,-9.995030403137207,0.0013395104881548658,-0.01617076597122786,-0.009801652746645802,1.4165933426747748,2.7629992054266332,0.03400839597878103
1731474150.8894904,-0.34958556294441223,0.43955448269844055,-9.992443084716797,0.002013566895916921,-0.015143250976072702,-0.009772141438576264,1.4130026586109263,2.769441353143558,0.02759115759356805
1731474150.9395454,-0.33814793825149536,0.4347154200077057,-9.992836952209473,0.002654134245796312,-0.014140645367137794,-0.009741762790595276,1.409383007971131,2.775909308776888,0.02108727303749147
1731474150.9894862,-0.3534073531627655,0.43426117300987244,-9.98823356628418,0.0032601054498078864,-0.013165848704017552,-0.009710904988062135,1.4057891171813501,2.7823103332204333,0.014592129731548234
1731474151.0393903,-0.35689619183540344,0.43784937262535095,-9.982269287109375,0.0038305674031466246,-0.012221471740701007,-0.009679989400186042,1.4115767180535193,2.788747538273571,0.010037281341917932
1731474151.089344,-0.34376397728919983,0.4424741268157959,-9.984296798706055,0.0043648378151461735,-0.011309845546714933,-0.009649415581093522,1.4097773400120142,2.7950843008806556,0.003508664674646897
1731474151.1394033,-0.34501925110816956,0.4349685609340668,-9.980411529541016,0.004862469266458065,-0.010433052823752585,-0.009619515418598451,1.4026358296047114,2.801502226747354,-0.0010539665386832377
1731474151.1892505,-0.35001081228256226,0.4367660880088806,-9.98748779296875,0.005323197736092638,-0.009592944596378043,-0.009590537145290802,1.3987029729340816,2.8077762953395813,-0.007607751313479988
1731474151.2393665,-0.35077399015426636,0.4410512447357178,-9.983784675598145,0.005746914262888753,-0.008791133212587725,-0.009562657961988519,1.3947495725712227,2.8140822368518954,-0.014242954167141905
1731474151.2891529,-0.3346041738986969,0.4414082169532776,-9.978825569152832,0.006133666118438888,-0.008029000707984364,-0.009536000646125723,1.3922726909745553,9.420720511956976,-0.01871733505748881
1731474151.339152,-0.3532467186450958,0.44168803095817566,-9.982125282287598,0.0064836303929539044,-0.0073077290804915256,-0.009510627094348124,1.3893428766792115,9.41898724322302,-0.025365404942357853
1731474151.38902,-0.3444956839084625,0.44681721925735474,-9.989038467407227,0.006797087808890159,-0.0066283273326658235,-0.0094865307928867,1.3827826768559608,9.412834477311305,-0.029821897620949115
1731474151.4390323,-0.3412024676799774,0.45108357071876526,-9.988518714904785,0.007074429071992249,-0.005991659681665113,-0.009463667875451564,1.3783411350284223,9.40901665419279,-0.036530596901057526
1731474151.4888942,-0.35135704278945923,0.44728460907936096,-9.988907814025879,0.007316153138280157,-0.00539848212348991,-0.009442006074843438,1.3692842948768518,9.405499334539334,-0.04097208685084077
1731474151.5399947,-0.3428148031234741,0.43845781683921814,-9.985496520996094,0.007522858432946974,-0.00484945291048404,-0.009421546310429518,1.362222981464292,9.401090977130078,-0.04783373408501388
1731474151.589838,-0.35130253434181213,0.43799132108688354,-9.989453315734863,0.007695249950770038,-0.004345088827895748,-0.009402314980222046,1.3553657897545206,9.396786619812701,-0.05453914585510173
1731474151.6397727,-0.34227749705314636,0.4340595602989197,-9.994230270385742,0.007834141981491488,-0.003885698931738563,-0.009384360395864946,1.3664957307084697,9.402137495496566,-0.05894152384540682
1731474151.6898038,-0.345090389251709,0.4354267120361328,-9.992863655090332,0.007940443493798587,-0.0034713420755514597,-0.009367773751749828,1.3644334957198787,9.400475643833964,-0.06573162098007118
1731474151.7628806,-0.3515869379043579,0.4293767511844635,-9.992466926574707,0.008015140373042556,-0.0031018124512884634,-0.009352712604432219,1.3494842234137445,9.39295233192725,-0.07323909648143648
1731474151.7896523,-0.3438718020915985,0.40278133749961853,-9.977875709533691,0.008059295943428135,-0.0027766085137971934,-0.009339387057667186,1.346361166136913,9.391165663968291,-0.07689334613988831
1731474151.839626,-0.3230764865875244,0.15276339650154114,-9.979936599731445,0.008074034130187275,-0.0024946112191521186,-0.009327995087903718,1.3486869201011504,9.393746250285693,-0.08123416926531629
1731474151.8895721,-0.22208143770694733,0.187400683760643,-10.070066452026367,0.008060352397061713,-0.0022531386515280446,-0.009318728088197743,1.3454249591672496,9.392306663679824,-0.08806806577727554
1731474151.939552,-0.3626958727836609,-0.3957504630088806,-10.0033597946167,0.008018774943267202,-0.0020463467700410844,-0.009311990737108018,1.3421786307336618,9.3908597589144,-0.09493448322522693
1731474151.989412,-0.49128592014312744,-0.6028002500534058,-10.101073265075684,0.007949429657777483,-0.0018627443776934264,-0.009308690642740352,1.3436353654564968,9.388231884106712,-0.09917950458150619
1731474152.039409,-0.33004650473594666,0.15001556277275085,-9.991525650024414,0.007852817440420944,-0.0016828652789202345,-0.009310368120865256,1.336987303013273,9.382421383256087,-0.10344857507722371
1731474152.0893848,-0.42409035563468933,-0.23452405631542206,-9.928579330444336,0.007730379775783118,-0.0014798918332210157,-0.00931899650040909,1.333755952828443,9.379604896429331,-0.11037567522552472
1731474152.139399,-0.3635537326335907,0.16380023956298828,-9.96257495880127,0.007584358476723548,-0.0012228762123810077,-0.009336393424435395,1.3305455651714795,9.376786566120465,-0.11732235687510882
1731474152.1892323,-0.3265819549560547,0.03705446049571037,-9.926668167114258,0.0074174553851883256,-0.0008795407955520156,-0.009363661674363076,1.3273701007049616,9.373979904807792,-0.12425708054561341
1731474152.2392316,-0.34383344650268555,0.2610261142253876,-9.951214790344238,0.007232493897331807,-0.0004181138938156134,-0.009401029524469265,1.3241961394437365,9.37115676655805,-0.1312519674502085
1731474152.2891235,-0.35642221570014954,0.23940710723400116,-9.95168685913086,0.007032120423518353,0.0001910975813471258,-0.009447934677644045,1.3331639969774685,9.37936922380161,-0.1353802815595325
1731474152.3392637,-0.3735845685005188,0.305618554353714,-9.976515769958496,0.006818777352848341,0.0009744761119800327,-0.009503202408868944,1.3319449342056575,9.378339954131093,-0.1424390286000265
1731474152.389072,-0.3662432134151459,0.2762035131454468,-9.98367977142334,0.006594866681908023,0.0019543759508497834,-0.009565301066799762,1.3258941638148862,9.373105171180537,-0.1465006215696886
1731474152.4390504,-0.3853393793106079,0.2848801612854004,-9.992253303527832,0.006362880409699924,0.003148950676679805,-0.009632600886285234,1.3229692509805548,9.37058602545655,-0.15357051725733956
1731474152.4890246,-0.3745778203010559,0.2969180941581726,-9.987142562866211,0.006125457094158095,0.004572324752756493,-0.009703559118628476,1.32010813867949,9.36814905368213,-0.15760041924630164
1731474152.539969,-0.36941108107566833,0.32635197043418884,-10.017279624938965,0.005885382891101031,0.006234808162783904,-0.009776825401916102,1.3169618452613046,9.365451960191583,-0.16483216439771703
1731474152.5898287,-0.3613957464694977,0.32036691904067993,-9.987659454345703,0.005645518644279261,0.008143015573025346,-0.00985131800487485,1.3139005961545158,9.362833389436945,-0.1719264555168636
1731474152.6398501,-0.3558109700679779,0.3377763330936432,-10.017905235290527,0.0054086739933393016,0.01029997108053161,-0.009926267006612668,1.3126975426725274,9.363630785969454,-0.1759282135555938
1731474152.6896672,0.11172740161418915,0.9410831928253174,-9.988750457763672,0.005177071086909775,0.012704750222761895,-0.010001201618037674,1.3104322055805409,9.362109701730922,-0.18301771076304907
1731474152.7397246,0.6022413969039917,1.6053311824798584,-9.950591087341309,0.004950222282687434,0.015350046194600696,-0.010075854133923371,1.3065777052696916,9.356489130714285,-0.1869897272391107
1731474152.7897217,0.45707929134368896,1.1785728931427002,-9.883322715759277,0.0047211667459920075,0.01821773334278791,-0.010149858851446135,1.3035724701952869,9.353419171605378,-0.1941860120560398
1731474152.8396256,0.18722468614578247,0.8254978060722351,-10.014012336730957,0.004473974330397757,0.021276640762568185,-0.010222363007093324,1.3005833556035342,9.350403341554554,-0.20139673759701704
1731474152.889567,-0.2138817459344864,0.33085402846336365,-10.020838737487793,0.004185241167077302,0.024485835246647762,-0.010292060567110144,1.2976197585316323,9.347459197340195,-0.20859729205337918
1731474152.939633,-0.84199458360672,-0.42900434136390686,-10.077438354492188,0.003829075504097046,0.02780176333410572,-0.010357781233615602,1.2995856964472845,9.350864721040042,-0.21245243235632877
1731474152.9894435,-1.1347620487213135,-0.6553553342819214,-10.159132957458496,0.0033836161244309316,0.03118631984363779,-0.010419208331608549,1.297605482816874,9.349226736416906,-0.2196678002634122
1731474153.0395005,-1.1347620487213135,-0.6553553342819214,-10.159132957458496,0.0028368679812400934,0.03461340118074765,-0.010477495682673315,1.2894559564345462,9.341743955259346,-0.2235325861488173
1731474153.0395005,-0.5375619530677795,0.026560742408037186,-10.053828239440918,0.0021890800013154464,0.038071113273362156,-0.010535587244832011,1.2894274916301134,9.341718949308586,-0.22358062477400334
1731474153.0893981,-0.6419805884361267,-0.14039817452430725,-10.018117904663086,0.001450520093377165,0.04155889181551295,-0.010597843483109083,1.2851558963088137,9.338015910753347,-0.23080563327557369
1731474153.13939,-0.6419805884361267,-0.14039817452430725,-10.018117904663086,0.0006373156863808775,0.045082852872842125,-0.010669147990754942,1.280829090751146,9.334370779055586,-0.23815492218294726
1731474153.13939,-0.48468977212905884,0.17504572868347168,-9.904268264770508,-0.00023129881475686658,0.04865280108149797,-0.010754089447014215,1.2807990521338497,9.334345863994475,-0.23820604724582653
1731474153.1893013,-0.5061772465705872,0.20886747539043427,-9.975037574768066,-0.0011343484103354313,0.05228029720615557,-0.010856372891214553,1.2765234085924353,9.330865110385336,-0.24549412055604203
1731474153.2392278,-0.504601240158081,0.35937514901161194,-9.961531639099121,-0.002050280839589953,0.05597635890052158,-0.010978493373142197,1.2722022500920405,9.327485097166207,-0.2528801585083423
1731474153.2890863,-0.5235366225242615,0.4285810589790344,-9.942535400390625,-0.002957732918552361,0.05974939704018946,-0.011121782334931742,1.2844403695489597,9.330098454981641,-0.2564983591010571
1731474153.3391986,-0.5182399153709412,0.41647854447364807,-9.95583724975586,-0.00383576230282667,0.06360395511710715,-0.01128657619018773,1.28286435249871,9.327726204346344,-0.26395201070745705
1731474153.3890479,-0.5484158992767334,0.4480695128440857,-9.937871932983398,-0.004663918584995162,0.06754020756703032,-0.011472292323550863,1.273869917207618,9.317445704839246,-0.2675658539640821
1731474153.4390175,-0.5478430390357971,0.4370619058609009,-9.939542770385742,-0.005422288081094349,0.07155409272746999,-0.0116774887047013,1.2694999438251295,9.31223514255501,-0.27504186308674045
1731474153.4889638,-0.5263280868530273,0.4694240391254425,-9.992203712463379,-0.006091544696562786,0.0756377221571074,-0.01189998443340554,1.2662794459984277,9.307929230401498,-0.27860358547239905
1731474153.5389593,-0.5467596054077148,0.46723413467407227,-9.985711097717285,-0.0066530961399880765,0.07977979883843336,-0.01213712462747789,1.2621450275019648,9.303054005417396,-0.2861057116900042
1731474153.5898702,-0.551529049873352,0.4757702946662903,-9.996859550476074,-0.007089266337763683,0.08396601372813656,-0.012386132901046176,1.2594282877752614,9.29849910513617,-0.28976500534851385
1731474153.6398945,-0.5152885317802429,0.4587487578392029,-9.976001739501953,-0.007383421117560058,0.08817947959586961,-0.012644330035491258,1.2562824184510615,9.294670324067932,-0.2973490195771342
1731474153.6898081,-0.5710768699645996,0.47691261768341064,-10.003650665283203,-0.007520091157708775,0.09240122752698293,-0.012909176660497778,1.2545153971900551,9.28659343959871,-0.3007917974980526
1731474153.7397523,-0.525538980960846,0.48766395449638367,-9.994609832763672,-0.007485073446260398,0.0966106749158532,-0.01317828823474667,1.2487214093924817,9.284924023808184,-0.30422904469268014
1731474153.789613,-0.5084438323974609,0.5185731053352356,-9.965476989746094,-0.0072655167088597206,0.10078595540859848,-0.01344945961291861,1.2452019064798678,9.282305208356924,-0.3118295287457276
1731474153.8396065,-0.5292466878890991,0.4623800218105316,-9.98769760131836,-0.0068501037169247875,0.10490416998255064,-0.013720606684957436,1.2416559775111196,9.279936674435374,-0.31948294585292675
1731474153.88953,-0.48913973569869995,0.46731847524642944,-9.979022026062012,-0.006229243456120638,0.10894177118012968,-0.013989676810231706,1.2380990670142522,9.27783843771261,-0.3271594153139322
1731474153.9395475,-0.4685397744178772,0.5056860446929932,-9.99309253692627,-0.005395207689543141,0.11287506595027226,-0.014254654726518967,1.2458772015402448,9.2688009944138,-0.3305245765952278
1731474153.9894257,-0.45702219009399414,0.4998912811279297,-9.956080436706543,-0.004342320144582792,0.11668054433465189,-0.014513604146402686,1.2399523540546964,9.25071347014363,-0.333826416722637
1731474154.0394197,-0.4022035002708435,0.5028836131095886,-9.970311164855957,-0.0030671845686643592,0.12033500087094695,-0.014764623488411715,1.237249448105116,9.242981427639304,-0.3415907644676878
1731474154.089314,-0.42270535230636597,0.48164358735084534,-9.983999252319336,-0.0015688793649181625,0.12381570282217697,-0.01500577139713298,1.2345533739354106,9.235588959231826,-0.34935592912367636
1731474154.1392968,-0.38456615805625916,0.5007065534591675,-9.960416793823242,0.00015093827253981774,0.12710067514015796,-0.01523508295724394,1.2318409925397416,9.228470379212578,-0.35720078543098355
1731474154.1892097,-0.3837924003601074,0.4896668791770935,-10.00211238861084,0.002088054469178725,0.13016896964561467,-0.015450645098860964,1.2291446656317717,9.221706817119557,-0.36504544061530897
1731474154.2391903,-0.3806689977645874,0.47306615114212036,-10.001392364501953,0.004235795627472137,0.13300087142622546,-0.015650700931927483,1.2264461825963078,9.215246596528969,-0.3729581830369791
1731474154.2891269,-0.5227342247962952,0.9770021438598633,-9.972333908081055,0.00658532177004747,0.13557766540973104,-0.01583377720426142,1.2376136441305543,9.217258235281513,-0.37612263089406617
1731474154.3391964,-0.6536251306533813,1.1910713911056519,-9.957026481628418,0.009126484691881038,0.13787993235711257,-0.015998673086895256,1.2368566723497068,9.211255814264074,-0.38410459725895363
1731474154.389024,-0.5680765509605408,0.5152410864830017,-9.884139060974121,0.011849148387390557,0.13988520892491915,-0.01614419944188697,1.2361286575858106,9.205622011704978,-0.3920970364139535
1731474154.438984,-0.8518714904785156,1.0223649740219116,-10.114818572998047,0.0147443260893632,0.14156788864865322,-0.016268958392127105,1.23099360850723,9.178957401166597,-0.39515794040731556
1731474154.4890203,-0.5428992509841919,0.5303182005882263,-9.948053359985352,0.017804852218551794,0.14290121334405126,-0.016371607374440683,1.2294063077421213,9.169550947106924,-0.4032559875474055
1731474154.4890203,-0.5428992509841919,0.5303182005882263,-9.948053359985352,0.021025282700773303,0.14385922787655614,-0.016451246995109033,1.2289165924171586,9.166666064384259,-0.4058122666281947
1731474154.4890203,-0.5428992509841919,0.5303182005882263,-9.948053359985352,0.024400838173327513,0.14441861583232718,-0.016507241646885676,1.2289078381963685,9.166614538622232,-0.40585825141377196
1731474154.8706543,-0.253031849861145,0.3442539572715759,-9.981415748596191,0.02792610640890626,0.1445602871929339,-0.016538838152105037,1.203415535932493,8.97349259450335,-0.45074388040056557
1731474154.9205117,-0.23775433003902435,1.9156547784805298,-9.855184555053711,0.0315937327165985,0.14426891042734474,-0.01654506313284288,1.2134751130677153,9.049972359409706,-0.4536390656659088
1731474154.9705315,-0.23775433003902435,1.9156547784805298,-9.855184555053711,0.035393050028471804,0.14352814162271338,-0.016524509064487873,1.2127539105904506,9.044415220338347,-0.4619330957220244
1731474154.9705315,-0.4001409411430359,0.5899046659469604,-9.77047061920166,0.03930960030117581,0.142314637463611,-0.016474796304063892,1.2127491434661268,9.044377366329824,-0.4619915924087898
1731474155.020408,-0.1947299689054489,1.112312912940979,-10.022409439086914,0.0433258430678537,0.14059850660709447,-0.016392265120538922,1.2110402034780774,9.025638009901675,-0.4648192980162033
1731474155.0704117,-0.1947299689054489,1.112312912940979,-10.022409439086914,0.04742184263002092,0.13834883948286053,-0.016272569640163298,1.2100096264933584,9.015179383086963,-0.47315444498435066
1731474155.0704117,-0.21322882175445557,0.8714746236801147,-10.088143348693848,0.05157526014672389,0.13553674587432907,-0.016111970670060746,1.2100034909897253,9.015114463934163,-0.4732071616386792
1731474155.1203022,-0.2239534556865692,0.9041865468025208,-9.905142784118652,0.055761379193750335,0.1321359179402412,-0.015908216515189425,1.2090849508216364,9.00481512477106,-0.48172688098870126
1731474155.1704328,-1.3943976163864136,-0.5810168385505676,-10.084527969360352,0.05995469179804559,0.12812499645000144,-0.015660457337571605,1.2083223271753383,8.994985156101531,-0.49016284350484524
1731474155.2202253,-0.5982986688613892,0.3721615672111511,-10.063822746276855,0.06413287884449276,0.12349266455680852,-0.01536894819466158,1.2076938681007052,8.985148870094068,-0.49892193540904606
1731474155.2702136,-0.46314603090286255,0.03619835898280144,-10.011496543884277,0.06827992905710964,0.11824167492947729,-0.015035155315177576,1.2096765328128154,9.013058081087902,-0.5012880722124838
1731474155.320184,-0.5183843374252319,0.10595713555812836,-10.015792846679688,0.0723848248649952,0.1123884365618494,-0.014661768807381721,1.2095188230345313,9.009643116733509,-0.5101354786847334
1731474155.3702235,-0.11161405593156815,0.15249505639076233,-10.028287887573242,0.07643818032885523,0.10596061034804224,-0.014252344477008762,1.2076043076775396,8.989089922963487,-0.5124333263438949
1731474155.4200754,-0.11161405593156815,0.15249505639076233,-10.028287887573242,0.08042971457158152,0.09899530470792821,-0.01381101789426019,1.2071804769696843,8.981577094534346,-0.5210750507746271
1731474155.4200754,0.01588253118097782,0.03391246125102043,-10.020575523376465,0.08434626039794951,0.09153751504553159,-0.0133424202257187,1.2071707819306932,8.981353701419046,-0.5213369528394691
1731474155.469965,-0.25383296608924866,0.3448643088340759,-9.974748611450195,0.08817072044349984,0.08363869473435717,-0.012851549508133338,1.2069663552442975,8.974302570731144,-0.5297373946438296
1731474155.5198517,-0.10165785253047943,0.2227284014225006,-9.922452926635742,0.09188264836243831,0.07535511328008221,-0.012343432460256742,1.2069756528667166,8.967226614523328,-0.5384294500192366
1731474155.5699394,-0.1839110553264618,0.4192267656326294,-9.99095344543457,0.09545953915298785,0.06674580001896877,-0.011822675347594923,1.2054142078091645,8.95597614350399,-0.5408429140617482
1731474155.6198208,-0.19280876219272614,0.3612631559371948,-9.950533866882324,0.09887777935702556,0.05787071703553857,-0.01129324295013921,1.2050693233257106,8.946043950812212,-0.5499123779985369
1731474155.6698928,-0.00384950777515769,0.6912849545478821,-9.922014236450195,0.10211314587522247,0.04878918506306147,-0.010758489546783573,1.2030057315774147,8.936939634956515,-0.551843270098483
1731474155.7207956,0.744889497756958,1.6483407020568848,-9.939879417419434,0.1051401073594809,0.039557181892567135,-0.010221116321772368,1.2000470071635314,8.927339017115331,-0.5543080967166543
1731474155.770732,0.3141680657863617,1.1341841220855713,-10.00156307220459,0.10792919344255604,0.030222664967121678,-0.00968312891487372,1.198612454540923,8.918179300664956,-0.5629984442279647
1731474155.8206358,-0.22723086178302765,1.8611536026000977,-9.893811225891113,0.1104453744188465,0.020821299415776488,-0.009146008885076563,1.197421051561309,8.908872351130366,-0.5719134306020137
1731474155.8706558,-0.4820658564567566,1.1263463497161865,-9.909140586853027,0.11265108719833473,0.01137514425488537,-0.008610779952114365,1.1965328165392723,8.899820687873367,-0.5806440613264143
1731474155.9206085,-0.49431735277175903,1.4234706163406372,-9.892594337463379,0.11451194487036313,0.0018940500482982861,-0.00807776858846201,1.199389095271032,8.890692359544488,-0.5826162478172212
1731474155.970523,-0.07631285488605499,0.5004467964172363,-10.070384979248047,0.11600022231255569,-0.007620882996921447,-0.0075465631043475975,1.197726574842269,8.88156455057289,-0.5845394369344138
1731474156.0204434,-0.24069371819496155,-0.35270124673843384,-10.206377029418945,0.11709449337630276,-0.017171366916636052,-0.007016767252616714,1.1973324673023693,8.872394573366243,-0.5933680139069725
1731474156.0704284,-0.6625279188156128,-0.9579870700836182,-10.202309608459473,0.11777814035568923,-0.026753142969541913,-0.00648940734646006,1.1972312687559024,8.863162729758221,-0.6022202171290459
1731474156.1203353,-0.7205891013145447,-0.26662561297416687,-10.021163940429688,0.11804002018983631,-0.036347577777959904,-0.005967890379482544,1.197424229819369,8.853861538162874,-0.6110790077292184
1731474156.170457,-0.539745032787323,-0.3440362215042114,-10.02015209197998,0.1178765482713488,-0.04591917766948043,-0.00545758086520633,1.1972985746856137,8.844400215062132,-0.612783322024486
1731474156.220292,-0.539745032787323,-0.3440362215042114,-10.02015209197998,0.11729217451687401,-0.05541895538212772,-0.004964567485829503,1.197493025137777,8.83488377220496,-0.6216285972024268
1731474156.220292,-0.7099660634994507,-0.18074804544448853,-9.97559928894043,0.11629813221830318,-0.06478864353848715,-0.004494776380249379,1.197495221886888,8.834822041280601,-0.6216855991049464
1731474156.270222,-0.4648881256580353,-0.01231425255537033,-9.95477294921875,0.11491132149131139,-0.07396382934729284,-0.004053571841813083,1.1965938159743783,8.825176409220942,-0.6231650311347635
1731474156.320121,-0.6345815658569336,0.11943099647760391,-9.89240837097168,0.11315352189582664,-0.08287718278288791,-0.0036453940186484683,1.1966702804264502,8.815192929703777,-0.6321019906057473
1731474156.370157,-0.4727819561958313,0.4156271815299988,-9.890789985656738,0.11105038596038636,-0.09146197434928445,-0.0032733336195157996,1.197260246389799,8.805165572403478,-0.6334194157962132
1731474156.419992,-0.4727819561958313,0.4156271815299988,-9.890789985656738,0.10863037852740248,-0.09965538878053302,-0.0029388261631899245,1.1977959406138574,8.794844065947629,-0.6422415387232027
1731474156.419992,-0.4746846556663513,0.4383656084537506,-9.960733413696289,0.1059237442405272,-0.10740104690282867,-0.002641679405831273,1.197800244345028,8.794777102390816,-0.6422981157466013
1731474156.4700122,-0.4082532823085785,0.4868992269039154,-9.922954559326172,0.10296159527248652,-0.11465017300278042,-0.002380460246302747,1.1985990859556321,8.784201298598086,-0.6511158549239148
1731474156.5199811,-0.4082532823085785,0.4868992269039154,-9.922954559326172,0.09977522022388526,-0.1213617836676744,-0.0021529226625615666,1.1973826862861894,8.773273537404167,-0.6522849977170365
1731474156.5199811,-0.42095184326171875,0.46034306287765503,-9.94420051574707,0.09639551450697742,-0.12750254148249718,-0.0019562084978944345,1.1973848970915408,8.77319381121849,-0.6523486407034506
1731474156.5699735,-0.3570947051048279,0.568742036819458,-9.979055404663086,0.0928525776230894,-0.13304644307867802,-0.001786994432419801,1.197805447658931,8.762025713659684,-0.6611340440690948
1731474156.6198468,-0.35170891880989075,0.5658196806907654,-10.006991386413574,0.0891753890850755,-0.13797457977980104,-0.0016418201000543667,1.1988611326708736,8.750452427075674,-0.6621471075625016
1731474156.6698449,-0.35522300004959106,0.5524300336837769,-9.985919952392578,0.08539144279342512,-0.14227504729573504,-0.0015174846162800304,1.1997443467212374,8.738509188835804,-0.6709797411202945
1731474156.7197773,-0.35522300004959106,0.5524300336837769,-9.985919952392578,0.0815265206209468,-0.14594263552589193,-0.0014112549755911164,1.2008296754001724,8.726278658235069,-0.6797637357851775
1731474156.7197773,-0.3219449818134308,0.549161434173584,-9.999293327331543,0.07760465399151198,-0.14897820618720412,-0.001320849457336786,1.2008367649094267,8.726204515390725,-0.6798162157468791
1731474156.7707493,-0.28970977663993835,0.5290778875350952,-9.999696731567383,0.07364804623107,-0.15138800729947066,-0.0012443868304637786,1.2021411925480223,8.71336311239041,-0.6887687241825577
1731474156.8206139,-0.3143123984336853,0.5126650929450989,-10.002466201782227,0.06967688718995028,-0.15318299545071004,-0.0011803985930915167,1.1995712480394916,8.70010142626382,-0.6895734544023202
1731474156.870688,-0.2599155902862549,0.5240530371665955,-9.9974946975708,0.06570922495803239,-0.15437815382705508,-0.0011278336520578907,1.2005229131417623,8.686657148006391,-0.6901884347464605
1731474156.9205627,-0.2969132363796234,0.4891177713871002,-9.995007514953613,0.06176095086863938,-0.15499187926585822,-0.001086010247533611,1.201197441364831,8.673068008258404,-0.6988187470346479
1731474156.9705002,-0.2292598932981491,0.49995648860931396,-10.004132270812988,0.05784581716147827,-0.15504544094664074,-0.0010545454014827974,1.2013236483221543,8.658861433245924,-0.6992793519542496
1731474157.0204966,-0.2292598932981491,0.49995648860931396,-10.004132270812988,0.053975413949688765,-0.15456249011552214,-0.0010333127323704358,1.2019875541599931,8.644258018604123,-0.7080385703445837
1731474157.0204966,-0.2579132318496704,0.4924958348274231,-10.007848739624023,0.05015913071301625,-0.15356866867698715,-0.0010224385896540616,1.2019919531536034,8.644169071876412,-0.7080912271280456
1731474157.0704823,-0.24598565697669983,0.4703907370567322,-10.037233352661133,0.04640428130493399,-0.15209126978375537,-0.0010223266779888199,1.2027780572665512,8.629255181411873,-0.7168092909559078
1731474157.1203732,-0.2604096531867981,0.4892358183860779,-9.96359920501709,0.042716411475573215,-0.1501588669412574,-0.0010336725603891247,1.2036803346909242,8.613873703964792,-0.7255822788976317
1731474157.1703653,-0.2412901222705841,0.49372807145118713,-10.008519172668457,0.03909958663987478,-0.14780099240002295,-0.0010573516621421692,1.202646018586963,8.598183274710628,-0.7256563088900821
1731474157.2202988,-0.25269076228141785,0.49582356214523315,-9.967084884643555,0.03555657945943359,-0.14504794919923208,-0.0010942100780149317,1.2041061546966154,8.58205718176062,-0.7257208150209192
1731474157.2702527,-0.29472479224205017,0.49913355708122253,-9.967273712158203,0.03208905664820622,-0.1419306794456179,-0.0011449057128406128,1.2052993092688729,8.565631323724459,-0.734410433782959
1731474157.3201697,-0.2970694601535797,0.489962100982666,-10.00029182434082,0.028697890937496466,-0.13848059741404664,-0.001209822256202554,1.20656827162234,8.548855298990965,-0.7431033561316666
1731474157.370167,-0.34497785568237305,0.48454904556274414,-9.985206604003906,0.025383576810647845,-0.13472937221252013,-0.0012890944039132095,1.2079070855518463,8.531707820391471,-0.7518149679008216
1731474157.4200604,-0.34497785568237305,0.48454904556274414,-9.985206604003906,0.022146630736261406,-0.13070867942183725,-0.001382721652059181,1.2044913298743298,8.51423360856034,-0.7514942599923993
1731474157.4200604,-0.33604687452316284,0.4833928644657135,-9.957088470458984,0.018987879416362482,-0.12644997057690927,-0.0014905913069451872,1.204503447725037,8.513556449949444,-0.7518274672536923
1731474157.4700716,-0.3997398614883423,0.48361581563949585,-10.031452178955078,0.015908601987958983,-0.12198429391117498,-0.0016124281950993377,1.20482695211479,8.496411681867675,-0.7601932669287421
1731474157.5199513,-0.34380197525024414,0.5006750226020813,-9.992836952209473,0.012910617443025098,-0.11734216868799915,-0.0017478801372481413,1.2057567791951165,8.477863473916898,-0.759938216132852
1731474157.570007,-0.40116724371910095,0.47793707251548767,-9.987176895141602,0.009996338251517847,-0.11255350261073273,-0.0018966799614363338,1.2063184099565767,8.45989678419384,-0.7684026092620216
1731474157.6199002,-0.3695700168609619,0.49243950843811035,-9.979872703552246,0.007168741388188942,-0.10764749893354844,-0.002058632864893648,1.2092810186801148,1.4976876135383905,-0.7679057845929148
1731474157.6698487,-0.41193339228630066,0.5345649719238281,-9.984530448913574,0.0044313267546793435,-0.10265257670246557,-0.0022334732721447925,1.2107447728331422,1.5012338778931027,-0.7764188277059352
1731474157.7197323,-0.39578092098236084,0.5249258279800415,-9.9964017868042,0.0017881055796220213,-0.09759642291537138,-0.002420801736917376,1.210609427089767,1.4972710195185472,-0.7756655657779767
1731474157.7697887,-0.4148857295513153,0.5152393579483032,-10.009360313415527,-0.0007564171562468699,-0.09250609130928095,-0.0026201481662939674,1.2114202646551802,1.4982882821555,-0.7842956390170126
1731474157.8206913,-0.38384121656417847,0.5252273082733154,-9.947656631469727,-0.00319731559168243,-0.08740794976485142,-0.0028310436540455713,1.214449376694427,1.50115830168586,-0.7837564728554781
1731474157.8705866,-0.37471675872802734,0.512197732925415,-9.963825225830078,-0.00552942861005223,-0.0823275172817748,-0.0030529256974800092,1.2159920802146074,1.5026034610218233,-0.7921490842456972
1731474157.9205194,-0.39332878589630127,0.548274040222168,-9.980907440185547,-0.007747617294806124,-0.07728934158316376,-0.003284947654754574,1.2175801333341072,1.5039052204444443,-0.8008880365170316
1731474157.970504,-0.3940364420413971,0.5331264734268188,-9.951216697692871,-0.009846934550764236,-0.07231696915459726,-0.0035259345608121373,1.2190956157553599,1.5049813933466543,-0.8093546300864544
1731474158.0204077,-0.3720216453075409,0.5273372530937195,-10.012054443359375,-0.011822672821532956,-0.06743294127941546,-0.0037744811247983857,1.2206292584701999,1.5059135529253933,-0.8180849698607185
1731474158.070431,-0.36154696345329285,0.5203379988670349,-9.981355667114258,-0.013670454633939592,-0.06265870065731322,-0.004029102603498089,1.2159536273450495,1.5236254739355661,-0.8166186871287904
1731474158.1203873,-0.33269548416137695,0.5211107134819031,-9.980409622192383,-0.015386446776191606,-0.0580144245174283,-0.004288383076842515,1.216483498076809,1.5278660420438672,-0.8254243474676007
1731474158.170318,-0.3207956552505493,0.5135068893432617,-9.99845027923584,-0.016967625919779,-0.05351888621338253,-0.004551015044592177,1.220936405059079,1.550221097668072,-0.8237205679175919
1731474158.2202368,-0.30687013268470764,0.5224953889846802,-9.994780540466309,-0.018412016795790492,-0.04918937248377477,-0.004815793911967676,1.2221362203246107,1.5707691052138737,-0.8224276921175379
1731474158.2701979,-0.3119085729122162,0.5182780623435974,-9.960308074951172,-0.019718839236594836,-0.0450416482639243,-0.005081634072971938,1.2231667678366975,1.5815069678697389,-0.8307505091894273
1731474158.3202002,-0.3232634663581848,0.5220323204994202,-9.994431495666504,-0.020888513559446098,-0.04108995950862217,-0.005347510592100064,1.224200100392512,1.5927034040350918,-0.839526943520452
1731474158.3702445,-0.28144803643226624,0.5371149778366089,-9.997028350830078,-0.021922567184072015,-0.037347062630975855,-0.005612400761250778,1.2237349854826283,1.5674419469142493,-0.8376525434126733
1731474158.4200966,-0.28144803643226624,0.5371149778366089,-9.997028350830078,-0.022823596152704965,-0.0338242946959742,-0.0058753590381682265,1.224416505620473,1.5695484811260516,-0.8461588445898752
1731474158.4200966,-0.31811031699180603,0.5085797905921936,-9.998974800109863,-0.023595283584427175,-0.030531638436743384,-0.006135621591782242,1.2244322432009833,1.5695982433084719,-0.8463641005197312
1731474158.4701083,-0.2963423728942871,0.5248386859893799,-9.973089218139648,-0.024242282585444707,-0.027477688984908107,-0.006392609611451619,1.2260645315280605,1.5741393376931843,-0.8442934609341126
1731474158.5199509,-0.2963423728942871,0.5248386859893799,-9.973089218139648,-0.024769994485521855,-0.024669582550137185,-0.006645826319996432,1.227090498653493,1.577277783920189,-0.852830033170389
1731474158.5199509,-0.2880183458328247,0.5108221173286438,-10.006240844726562,-0.025184445051304842,-0.02211300025322688,-0.006894746371832687,1.2270965882603833,1.5772968021264853,-0.852882324969324
1731474158.5699735,-0.2980497181415558,0.49068212509155273,-9.973512649536133,-0.025492243112884765,-0.019812173925323286,-0.007138823938016412,1.2280616816394956,1.580385654779613,-0.8614524737223505
1731474158.6198955,-0.2980497181415558,0.49068212509155273,-9.973512649536133,-0.02570049824505365,-0.01776980480705611,-0.007377539583092549,1.2289669403676264,1.5834410931162992,-0.8700786227332641
1731474158.6198955,-0.31672346591949463,0.5230117440223694,-9.992152214050293,-0.025816672803332073,-0.015987011275046953,-0.007610361723583696,1.2289724823618657,1.5834603516518666,-0.8701334548039857
1731474158.6698563,-0.3087119460105896,0.5085582733154297,-10.039146423339844,-0.025848401511904425,-0.014463447434494502,-0.007836776384193275,1.2274014334182248,1.560807994367175,-0.8678277335079404
1731474158.719787,-0.3087119460105896,0.5085582733154297,-10.039146423339844,-0.02580334064180973,-0.013197504009342869,-0.008056531222822431,1.2277409152628054,1.5589370399028157,-0.8764401714658847
1731474158.719787,-0.37044280767440796,0.5171928405761719,-9.983965873718262,-0.0256890379081518,-0.012186433157995046,-0.008269870447438533,1.2277429624498462,1.5589244533324904,-0.8764976684186371
1731474158.769825,-0.35450124740600586,0.50801682472229,-9.950888633728027,-0.02551270384860162,-0.011426419998171726,-0.008477414935659667,1.2306837722488155,1.549577270943833,-0.874115676489412
1731474158.8206687,-0.35450124740600586,0.50801682472229,-9.950888633728027,-0.025280945826512483,-0.010912655555539339,-0.008679723926029684,1.2319357906744572,1.5448103424057122,-0.8828658216513826
1731474158.8206687,-0.3457523584365845,0.5308553576469421,-10.02107048034668,-0.024999686816211595,-0.010639411492108229,-0.008876984138237193,1.2319438064044406,1.54477890930162,-0.8829234232784277
1731474158.8708599,-0.3457523584365845,0.5308553576469421,-10.02107048034668,-0.02467426337672656,-0.010600169330841744,-0.00906914780557944,1.2331140825148348,1.5400544918467631,-0.8915679391901967
1731474158.8708599,-0.3598632216453552,0.5240755081176758,-9.973990440368652,-0.024309528962491583,-0.010787792058993297,-0.009256275300693523,1.2331214824043484,1.540023716733466,-0.8916241655384917
1731474158.9206185,-0.3598632216453552,0.5240755081176758,-9.973990440368652,-0.023909877103724456,-0.011194627078906125,-0.009438601300145778,1.2342154078849585,1.5353387408163746,-0.900170166035804
1731474158.9206185,-0.37419551610946655,0.5006221532821655,-9.971975326538086,-0.023479202779167815,-0.01181250631942437,-0.009616313161807402,1.234223748870257,1.5353019275790722,-0.9002372125631325
1731474158.970634,-0.3892771303653717,0.5268489718437195,-10.022506713867188,-0.023020839174874016,-0.012632706325091326,-0.009789424911005744,1.232387841653222,1.5659479073677556,-0.8975139106470712
1731474159.0204418,-0.3892771303653717,0.5268489718437195,-10.022506713867188,-0.022537480919036283,-0.013645970130939437,-0.009957931958113226,1.2329187161106376,1.5682982550483693,-0.9061448905879544
1731474159.0204418,-0.42074161767959595,0.5047159194946289,-9.953629493713379,-0.022031108538956082,-0.014842610400869219,-0.010122017519952333,1.2329217611223853,1.5683123857733634,-0.9061972349049174
1731474159.0705018,-0.4061630666255951,0.5313308238983154,-9.978107452392578,-0.021502926218928235,-0.016212585525501474,-0.010281976423569324,1.238097191738434,1.5991867437839054,-0.9033983707529909
1731474159.1203768,-0.4061630666255951,0.5313308238983154,-9.978107452392578,-0.020953354298946222,-0.017745554205379876,-0.010437956796838673,1.2399326092190173,1.6181972311594413,-0.9006312591717889
1731474159.1203768,-0.40526318550109863,0.5140536427497864,-10.022367477416992,-0.020382129579165135,-0.019430977603902132,-0.01058990475107276,1.2399417391259544,1.618268883836513,-0.9006835875531333
1731474159.170345,-0.3965300917625427,0.502784788608551,-9.966509819030762,-0.019788468078015733,-0.021258167519816476,-0.010737730764739838,1.241419513147032,1.6300333391571316,-0.9093078793887132
1731474159.2203305,-0.3965300917625427,0.502784788608551,-9.966509819030762,-0.01917122437123413,-0.023216219998491095,-0.01088137629111569,1.2428558058485129,1.641798187741922,-0.9179999446385174
1731474159.2203305,-0.38581791520118713,0.508468508720398,-9.955740928649902,-0.01852904279458127,-0.025293958084539114,-0.011020658419535204,1.2428641979073454,1.641867925658725,-0.918051677287527
1731474159.2702694,-0.3934820294380188,0.535594642162323,-9.982986450195312,-0.017860493317285574,-0.027479997867896264,-0.011155116266299128,1.2442491705440824,1.6535277832046587,-0.9267404236268001
1731474159.3201983,-0.35386738181114197,0.5342658758163452,-9.970437049865723,-0.0171641987899162,-0.029762940156926966,-0.011284037946818409,1.244009977456777,1.6496241150627466,-0.9236387967432861
1731474159.3701587,-0.3599652647972107,0.5136325359344482,-9.988588333129883,-0.016439003914409635,-0.032131565101274684,-0.011406587983626109,1.2451785936179953,1.6589745292523543,-0.9323724002922271
1731474159.4200087,-0.32312655448913574,0.5253065824508667,-10.006949424743652,-0.0156841897691606,-0.0345748888969367,-0.01152194043761096,1.2473559678385426,1.691660899579501,-0.9292258103144544
1731474159.4701254,-0.32851725816726685,0.5242536067962646,-9.958294868469238,-0.014899674739414632,-0.037082131979775904,-0.011629389527762551,1.248863959939878,1.7091494563041534,-0.9379452632643149
1731474159.5200732,-0.32851725816726685,0.5242536067962646,-9.958294868469238,-0.014086140492149919,-0.03964272935322173,-0.011728321143019284,1.2503471349831798,1.7266748406415828,-0.9467601945902341
1731474159.5200732,-0.2989529073238373,0.5134327411651611,-9.978981018066406,-0.013245061153096278,-0.04224636636188677,-0.01181804854731298,1.2503561427262726,1.7267822619242394,-0.9468144715556345
1731474159.5699933,-0.2976040542125702,0.528435468673706,-10.035711288452148,-0.012378714756461967,-0.044882984684586597,-0.011897802740808105,1.2517876973910986,1.7439808821709943,-0.9555470498061713
1731474159.6201284,-0.2584826648235321,0.5214108228683472,-9.999695777893066,-0.011490255584940772,-0.04754279673480742,-0.011966998247129566,1.2511109586037428,1.7036758523533109,-0.9521060414994641
1731474159.6698892,-0.29298895597457886,0.5123870372772217,-9.98195743560791,-0.010583791988570963,-0.050216320279239224,-0.012025452385124747,1.2521798551133148,1.70970139507394,-0.9608931181883917
1731474159.7198591,-0.29298895597457886,0.5123870372772217,-9.98195743560791,-0.009664333881764287,-0.0528943747040481,-0.01207329647396223,1.2532327932562597,1.7156507339576608,-0.9697873259537958
1731474159.7198591,-0.2805013358592987,0.5189118385314941,-9.997715950012207,-0.008737583231729401,-0.05556805103028955,-0.012110772253984905,1.2532394658251143,1.7156884489467437,-0.9698444486521515
1731474159.7697053,-0.25231388211250305,0.526025652885437,-9.983038902282715,-0.007809758989238148,-0.058228734083592665,-0.012138165078288275,1.2549020094659071,1.7275693650432187,-0.9660285279086952
1731474159.8196115,-0.2625800669193268,0.5331252813339233,-9.989421844482422,-0.006887585702261624,-0.06086819086735316,-0.012155821335020568,1.2560223550155145,1.7344176824962352,-0.9750766030569659
1731474159.870672,-0.25197145342826843,0.5226522088050842,-10.016423225402832,-0.00597831479121641,-0.06347866491597581,-0.01216416513969128,1.2571079912983818,1.7409962129670984,-0.9840063455001478
1731474159.9206076,-0.25197145342826843,0.5226522088050842,-10.016423225402832,-0.00508965762960059,-0.06605290967571606,-0.012163779591863957,1.2581787388984722,1.747406425927412,-0.992957877094053
1731474159.9206076,-0.2829984724521637,0.5082409381866455,-9.991646766662598,-0.004229640820263263,-0.06858414582789932,-0.012155513774482134,1.2581864161021605,1.7474520632382473,-0.9930225554131893
1731474159.9705005,-0.28480449318885803,0.5353925824165344,-9.947487831115723,-0.003406372498854401,-0.07106600282091181,-0.012140410941011629,1.2586451805098766,1.7610208089138522,-0.9889150019706485
1731474160.0204332,-0.2747306227684021,0.5366898775100708,-10.02096939086914,-0.0026277668396293714,-0.07349253902906588,-0.012119468667027254,1.262712558966013,1.777305846622375,-0.9856866137000438
1731474160.0705328,-0.2890772521495819,0.5572153329849243,-9.990310668945312,-0.0019013646191365198,-0.07585836395147877,-0.012093546811571692,1.264338146544515,1.7850416326528724,-0.9938874470378555
1731474160.120394,-0.30816128849983215,0.5108066201210022,-9.969518661499023,-0.0012342294981654066,-0.07815874524842295,-0.01206346751810824,1.2661099056862695,1.7933063247053882,-1.002873336991497
1731474160.1703773,-0.3075338900089264,0.5318730473518372,-9.989680290222168,-0.00063279881355674,-0.08038956343334464,-0.012030016332362222,1.2678792521761968,1.801372621726296,-1.0118889084859022
1731474160.220353,-0.3376113772392273,0.514896035194397,-9.994827270507812,-0.00010270048918467704,-0.08254716275287273,-0.011993861494402264,1.2648668640718508,1.7145394968253622,-1.007601926188085
1731474160.2703774,-0.34983736276626587,0.5286862254142761,-9.962014198303223,0.0003514238302339044,-0.08462825359808737,-0.011955561126852293,1.2657245098678722,1.7029960699541882,-1.0166357665255943
1731474160.3201654,-0.3544542193412781,0.5517596006393433,-9.99022388458252,0.0007260886415498004,-0.08662992446128474,-0.01191556388507225,1.268201018252689,1.69133962556756,-1.0121438103497162
1731474160.370143,-0.3516252934932709,0.5374683141708374,-9.990341186523438,0.0010190602376661357,-0.08854973988908083,-0.011874182866473033,1.2691020634541792,1.6793684791726664,-1.0077546418290784
1731474160.4202018,-0.35329899191856384,0.519231379032135,-9.9598970413208,0.0012293248615370803,-0.09038580902995175,-0.011831625583395892,1.2700102656228285,1.667128294702397,-1.0168226088412258
1731474160.4702244,-0.3345542550086975,0.5284436941146851,-9.966591835021973,0.0013569629727669483,-0.09213670955968778,-0.011787977868483067,1.2709184994316785,1.6547029137420417,-1.0258881378190154
1731474160.5200076,-0.3611922562122345,0.5078816413879395,-10.020652770996094,0.0014029884906616471,-0.09380134418020857,-0.01174315680392584,1.2718311574197587,1.6420316236646386,-1.0349928004774274
1731474160.570008,-0.3498118817806244,0.5143244862556458,-10.008946418762207,0.0013692300015409678,-0.09537883426815172,-0.011697049168401722,1.2702406341180799,1.6291936995165623,-1.0302276862492965
1731474160.6198819,-0.33152875304222107,0.5191381573677063,-9.96742057800293,0.001258252632075939,-0.09686845892703524,-0.011649727576058009,1.2706830242047888,1.6160612143801896,-1.0393365535108359
1731474160.6699362,-0.3189314603805542,0.520063042640686,-9.994635581970215,0.0010732025359815032,-0.09826965692689589,-0.011601435250173781,1.2719817671166032,1.602686733045306,-1.0345172858449099
1731474160.7198498,-0.31146132946014404,0.49782794713974,-9.991044998168945,0.0008175590813968505,-0.0995820547460581,-0.011552435716720634,1.2727702193802999,1.5890120162549843,-1.043674462641065
1731474160.7696915,-0.27925825119018555,0.5191643238067627,-9.976333618164062,0.0004948873997809395,-0.10080544294009243,-0.011502968481191318,1.2733276139322156,1.5753101626545623,-1.0386519463442516
1731474160.8196826,-0.26903486251831055,0.5131709575653076,-9.989280700683594,0.00010859898552944408,-0.10193974724525195,-0.0114532506476073,1.2740637456560797,1.5611853960306046,-1.0477882715427447
1731474160.8696597,-0.2614664137363434,0.5186227560043335,-10.001703262329102,-0.00033827907868214145,-0.10298506396418872,-0.011403468470634472,1.2748404091387355,1.5468089927788478,-1.0427818260732742
1731474160.9207711,-0.2614664137363434,0.5186227560043335,-10.001703262329102,-0.0008432456274490372,-0.10394171383344797,-0.011353838865605271,1.2754984975871368,1.5317425306063555,-1.052195602861782
1731474160.9207711,-0.2740640342235565,0.5009732246398926,-9.956851959228516,-0.0014043301275480742,-0.10481025327300789,-0.011304662741676066,1.2755029677264016,1.5316390725591478,-1.0522597596238779
1731474160.9705622,-0.274027019739151,0.5083372592926025,-10.000702857971191,-0.0020199865693054726,-0.10559142824534774,-0.011256243558129373,1.276725116371079,1.5169704133993114,-1.0470115600450924
1731474161.02048,-0.274027019739151,0.5083372592926025,-10.000702857971191,-0.002688946270294348,-0.10628611244700618,-0.0112088104804578,1.2800493439082687,1.5017609311245967,-1.0419732381762492
1731474161.02048,-0.2422710508108139,0.5382094979286194,-10.02502155303955,-0.0034101340162722158,-0.10689532093474136,-0.011162624011448945,1.2800611465191294,1.501663501743903,-1.042031361662831
1731474161.070523,-0.2422710508108139,0.5382094979286194,-10.02502155303955,-0.00418271391786524,-0.10742033546968129,-0.011118172720999587,1.281891350109701,1.4863805321284695,-1.05108348036562
1731474161.070523,-0.2966766655445099,0.5066756010055542,-9.966814994812012,-0.005006144568554614,-0.10786282946091173,-0.011076250607596944,1.281902789524488,1.4862839088252482,-1.051140305041467
1731474161.1204453,-0.24885393679141998,0.5543649792671204,-9.974495887756348,-0.005880061083339987,-0.10822486699938835,-0.011037785447039579,1.283734720834295,1.4706129943388493,-1.0602906400948837
1731474161.1704516,-0.2737577557563782,0.5325854420661926,-10.017370223999023,-0.00680409551347341,-0.10850886904193888,-0.011003580002672705,1.2855489004269784,1.4546902478869013,-1.069458300830337
1731474161.2202854,-0.2737577557563782,0.5325854420661926,-10.017370223999023,-0.00777781203161199,-0.10871763691278731,-0.010974305528942017,1.2802744307276377,1.438452969645935,-1.0640403702499102
1731474161.2202854,-0.2906055152416229,0.5151991844177246,-9.989680290222168,-0.008800653119351319,-0.10885431162180542,-0.010950692647910536,1.2802773321380667,1.4383493839445889,-1.0640985006676271
1731474161.2703397,-0.3137006163597107,0.5183002948760986,-9.986680030822754,-0.00987179356670597,-0.10892222927429755,-0.01093356930832005,1.2807196839441894,1.4219880644573653,-1.073218292583563
1731474161.3202085,-0.3137006163597107,0.5183002948760986,-9.986680030822754,-0.010989951249650751,-0.10892478802741011,-0.010923710926613286,1.2822215782761606,1.4051902394245297,-1.0677206838013684
1731474161.3202085,-0.3133438229560852,0.5345419645309448,-10.003192901611328,-0.012153243649874669,-0.10886540437651873,-0.010921733985067914,1.2822272551107252,1.4050712555000402,-1.0677853741280776
1731474161.370244,-0.3098906874656677,0.528404951095581,-10.000290870666504,-0.013359164815451418,-0.1087475542929485,-0.010928129130040105,1.2829318630638653,1.3881923074223133,-1.0622266720037705
1731474161.4202275,-0.33454248309135437,0.49304723739624023,-9.936529159545898,-0.014604639412569204,-0.1085747943607225,-0.010943287905815306,1.2834384785728665,1.3707281553055808,-1.0714946574711834
1731474161.470167,-0.3619610667228699,0.5299280881881714,-10.047443389892578,-0.015886011956440526,-0.10835067228052857,-0.010967421883295667,1.2838998311991179,1.3532524631359855,-1.0806531922383305
1731474161.5199888,-0.36124423146247864,0.5293492674827576,-9.995766639709473,-0.017198921601078675,-0.10807865230728765,-0.011000594628242152,1.2843231804099307,1.3353888440832806,-1.0899013197541163
1731474161.570011,-0.3769206404685974,0.5511707663536072,-9.91990852355957,-0.01853817978669803,-0.10776220146601391,-0.011042849880360549,1.2836558296657898,1.3173024200529326,-1.0840590391859057
1731474161.6198852,-0.3783719837665558,0.543317973613739,-9.976374626159668,-0.019897749451622704,-0.1074049465621832,-0.011094048969498794,1.2838620585974334,1.298906533591103,-1.093313533121293
1731474161.6698837,-0.24439649283885956,0.7247949242591858,-9.980547904968262,-0.021270923976394934,-0.10701091844431934,-0.01115360584237373,1.2840169044100473,1.2802504928192537,-1.1025922049732417
1731474161.7198694,0.5133981704711914,1.6614665985107422,-9.919093132019043,-0.02265158112633018,-0.10658599839921867,-0.011220501320833888,1.2836517218135581,1.2613250299122671,-1.096548357867422
1731474161.769799,0.2999531030654907,1.1952157020568848,-10.016883850097656,-0.024037379261238043,-0.1061415078228723,-0.011293380094102058,1.283643931574932,1.2421694768399782,-1.1058208765004698
1731474161.8197489,0.4892212450504303,1.505788803100586,-9.938413619995117,-0.025433158626560193,-0.10569756284141502,-0.011370628914936318,1.2835742581978251,1.2226645840997608,-1.1151626382350908
1731474161.8706505,-0.516516387462616,-0.022402653470635414,-9.965340614318848,-0.026851238847158572,-0.10528226340576746,-0.011450483818241094,1.2838282850892284,1.202620529577543,-1.1090518788618808
1731474161.9206002,-0.9550522565841675,-0.21024510264396667,-10.16689682006836,-0.028307028858060766,-0.10492531169113142,-0.01153122276131914,1.2837648862961093,1.1826597748264827,-1.102831456593525
1731474161.9705899,-0.7593311667442322,-0.04050649330019951,-10.03207015991211,-0.02981199554224593,-0.1046493164986601,-0.011611732740871659,1.2836569899886634,1.1624105445476531,-1.1121429732449857
1731474162.0203743,-0.5015047788619995,0.2697582244873047,-10.028075218200684,-0.03136919772884099,-0.10446521290906612,-0.011692054731136622,1.2834398200583157,1.1421354504146877,-1.1057503343847375
1731474162.0706327,-0.6376875638961792,0.10086476802825928,-9.939265251159668,-0.03297384923173091,-0.10437367678878445,-0.011773134962669997,1.2831941365078683,1.1210873950982292,-1.115198014430206
1731474162.1203902,-0.4812456965446472,0.29825708270072937,-9.977543830871582,-0.03461586469471546,-0.10436830183632892,-0.011856064952612702,1.282867223370065,1.100076474295875,-1.1245411872856395
1731474162.1703827,-0.5795964598655701,0.24074093997478485,-9.958183288574219,-0.036281581275570074,-0.10443771451043339,-0.011941549898897359,1.282454702721234,1.078928276955577,-1.1338601918108613
1731474162.2203078,-0.5795964598655701,0.24074093997478485,-9.958183288574219,-0.037954660550101584,-0.10456694885010943,-0.012029769919159678,1.283040836894133,7.340655684517497,-1.1272380176140453
1731474162.2203078,-0.508014976978302,0.46040502190589905,-9.957934379577637,-0.03961663759619287,-0.10473858032065708,-0.012120407703913278,1.2830394090320223,7.340594578058982,-1.12730309481742
1731474162.2702415,-0.508804440498352,0.4490143060684204,-9.982624053955078,-0.0412474932979473,-0.10493403223071542,-0.012212711086289834,1.2827847848296166,7.3317427445372525,-1.1366074871145766
1731474162.320172,-0.48865872621536255,0.4541880786418915,-9.978496551513672,-0.04282644010129156,-0.1051350551263232,-0.012305632013762094,1.2824234171192954,7.3225465781508365,-1.14603023740085
1731474162.370213,-0.5410983562469482,0.4174778163433075,-9.919493675231934,-0.04433257647046845,-0.10532460617464148,-0.012397946736148536,1.2826336331910835,7.310227651848832,-1.139157108848089
1731474162.4201007,-0.47556886076927185,0.47924375534057617,-9.938119888305664,-0.04574521905612413,-0.1054869850520757,-0.012488167228949253,1.282354125113943,7.301165333087885,-1.1486203079074797
1731474162.47022,-0.47460830211639404,0.529241681098938,-10.030539512634277,-0.04704418019428386,-0.10560791199686231,-0.01257443844360464,1.2819593218937289,7.291860461936128,-1.1580926491427723
1731474162.5199964,-0.4850676357746124,0.5224998593330383,-9.974165916442871,-0.048210162361762315,-0.10567488768866476,-0.01265478361230439,1.2816250075911346,7.282631829776243,-1.1509819185175936
1731474162.5699408,-0.48955443501472473,0.4771479666233063,-9.996931076049805,-0.04922507025737759,-0.10567749932664548,-0.012727478972411532,1.281128726837387,7.272011118042602,-1.1604479146099227
1731474162.6199024,-0.4665283262729645,0.4885329604148865,-9.979948997497559,-0.05007213231860366,-0.10560731455919228,-0.012791151321083615,1.2810015745725392,7.252438689500804,-1.1533036185243157
1731474162.669962,-0.46965348720550537,0.5105751752853394,-9.998185157775879,-0.05073600849446409,-0.1054575642621366,-0.012844704445226864,1.279134595958461,7.219052564694277,-1.146213305736302
1731474162.7198188,-0.4509274959564209,0.5246589779853821,-10.004263877868652,-0.05120296108090181,-0.10522300554346022,-0.012887306224140666,1.2779311506097593,7.19667504095815,-1.1557156086498888
1731474162.7698064,-0.4414564073085785,0.5083518624305725,-9.974061965942383,-0.05146102457064508,-0.1048999620179642,-0.012918416947519452,1.2766056750887917,7.174142423496485,-1.16520485151554
1731474162.8197534,-0.41812509298324585,0.5166147947311401,-9.975350379943848,-0.051500165984248274,-0.10448630162119246,-0.01293773350046795,1.2788367080118443,7.146685185709456,-1.1579033768556657
1731474162.8696876,-0.38708367943763733,0.5227304100990295,-9.974908828735352,-0.05131246835565048,-0.10398130510514803,-0.012945043461358417,1.2783507127779472,7.1251059247819235,-1.16741900941822
1731474162.9196005,-0.36882284283638,0.5231413841247559,-9.979649543762207,-0.05089234595298829,-0.10338554227913074,-0.012940127378493692,1.2751386672266716,7.055517356885027,-1.160063915326637
1731474162.970591,-0.3273898661136627,0.5379171371459961,-10.020581245422363,-0.05023676316977639,-0.10270079415172981,-0.012922798628063926,1.273513363316343,7.014923010429603,-1.1697932088940655
1731474163.0204976,-0.3707225024700165,0.505232036113739,-9.976547241210938,-0.04934537286435588,-0.10192996499765641,-0.012893040866141512,1.2717927982920745,6.974827708226778,-1.1793736059072688
1731474163.070438,-0.3476724922657013,0.5362069010734558,-9.949875831604004,-0.04822044563730666,-0.10107693529034191,-0.012851045197678842,1.26995736785998,6.934627691412164,-1.1889507489509918
1731474163.1203568,-0.3835640251636505,0.5246970653533936,-9.991329193115234,-0.04686658054094381,-0.1001464052428425,-0.012797039554913077,1.273818201291065,7.006354214155463,-1.1812250424217867
1731474163.1703653,-0.3614824414253235,0.5287243723869324,-9.99287223815918,-0.04529034625371153,-0.09914379726299659,-0.012731173241421161,1.2731271578042516,6.9891881538850065,-1.1908455211140925
1731474163.2202575,-0.377625972032547,0.5039097666740417,-9.963214874267578,-0.04349997073801316,-0.09807514933374697,-0.012653601844756798,1.2701040053185237,6.914801534012382,-1.1830400143295625
1731474163.2702463,-0.3766827881336212,0.5053097605705261,-10.006082534790039,-0.041505094357551044,-0.09694692266573134,-0.012564557604543933,1.268488394390072,6.87724021105302,-1.1926998942925877
1731474163.3201778,-0.37935033440589905,0.516689121723175,-9.970401763916016,-0.039316548053912395,-0.0957657957959461,-0.012464347874334222,1.2677212201233692,6.827218520010836,-1.184874132419798
1731474163.3702471,-0.40080633759498596,0.4964871406555176,-10.002296447753906,-0.03694612410260642,-0.09453854321131404,-0.01235337428816943,1.2659566854342885,6.774210666538589,-1.1945099566857593
1731474163.4201424,-0.38300633430480957,0.5083088278770447,-10.015450477600098,-0.034406341004346475,-0.09327196527027648,-0.012232182995003107,1.2641016270200034,6.720922746771568,-1.2041847736887321
1731474163.470025,-0.443865567445755,0.4779611825942993,-10.014248847961426,-0.03171020180165959,-0.09197279139118451,-0.012101572266815703,1.2664902536303912,6.8333946548333895,-1.1960981440446001
1731474163.5200374,-0.3783123791217804,0.5307408571243286,-9.943964958190918,-0.028870949521041037,-0.09064758654238408,-0.011962638016505323,1.2657085734447808,6.822190627291371,-1.2057897586648927
1731474163.569949,-0.4149475693702698,0.529784619808197,-9.995633125305176,-0.025901913734633523,-0.089302780292425,-0.011816585558551727,1.2649781754592175,6.788910764354588,-1.1976592694217574
1731474163.6199312,-0.4006003737449646,0.5575022101402283,-9.984058380126953,-0.02281648600021505,-0.08794484762515188,-0.011664508566986918,1.263592326766281,6.772964150817093,-1.1896343473068463
1731474163.6698508,-0.4396592080593109,0.5405032634735107,-9.956144332885742,-0.019628060129704375,-0.08658049228778031,-0.011507356597093302,1.2627267630041576,6.759693018164265,-1.1992964437078053
1731474163.719805,-0.4295702874660492,0.5543187260627747,-9.9859037399292,-0.016349848526810415,-0.08521669889911734,-0.01134593717183459,1.2618142509409578,6.746176963399598,-1.2090090264925455
1731474163.7697442,-0.42668965458869934,0.5741111636161804,-9.961564064025879,-0.012994695787433529,-0.08386069949986369,-0.011180871730686456,1.2608686911938063,6.732502093772977,-1.2187125365164717
1731474163.8196783,-0.4360142648220062,0.5671287775039673,-9.956544876098633,-0.0095750005531648,-0.08251996643253888,-0.011012578494844053,1.2625995300703092,6.726246739254197,-1.210308694608051
1731474163.8696399,-0.4315682351589203,0.557338535785675,-9.982433319091797,-0.006102706604145345,-0.08120220284546736,-0.010841258353189364,1.2621824691575818,6.713097231381264,-1.2200410046702908
1731474163.9195507,-0.42473089694976807,0.5397765636444092,-10.009066581726074,-0.0025892987032920464,-0.07991521476339639,-0.010666958743284747,1.26175508250914,6.699763047588079,-1.22978814056308
1731474163.9695463,-0.42673540115356445,0.5290296673774719,-9.97465991973877,0.0009541769242058114,-0.07866666848652645,-0.010489765018195379,1.2610398195836807,6.673544299204087,-1.2211561006847964
1731474164.0205133,-0.41879597306251526,0.5388911366462708,-9.974834442138672,0.004517067329857514,-0.07746384836532949,-0.010309906515125315,1.2604736837256874,6.6540422177908995,-1.231133634530587
1731474164.070491,-0.38974595069885254,0.5596628785133362,-10.005626678466797,0.008089047591784282,-0.07631354114025782,-0.010127697896413131,1.2599372426620075,6.634825236178644,-1.240892040646245
1731474164.1204576,-0.38453778624534607,0.5208667516708374,-9.979079246520996,0.011659988931286985,-0.07522205341946113,-0.009943514427955453,1.259218001703669,6.627821151897364,-1.2320652732238142
1731474164.1704335,-0.3518224358558655,0.524154782295227,-9.996140480041504,0.015219769718067275,-0.07419519054405871,-0.009757837678847091,1.2582331668856477,6.567386604905073,-1.2232846704787406
1731474164.2203336,-0.34355854988098145,0.5191760063171387,-10.006608963012695,0.018758087909961273,-0.07323812084292311,-0.009571275550226247,1.257703198815325,6.538604141354738,-1.2330303061727432
