Timestamp,IMU_Linear_Acc_X,IMU_Linear_Acc_Y,IMU_Linear_Acc_Z,Filtered_X,Filtered_Y,Filtered_Z,Pose_X,Pose_Y,Pose_Z
1731474136.2091148,-0.3425276577472687,0.41691985726356506,-9.980188369750977,-1.3318100983594215e-05,-5.762517323554206e-05,2.765723011147101e-05,2.434978830175504,8.092033775139715,0.8726529391579859
1731474136.25901,-0.3425276577472687,0.41691985726356506,-9.980188369750977,-1.7463168586383787e-05,-8.107426919540708e-05,3.883022457504253e-05,2.4288139074183404,8.092545743043033,0.8738185793520115
1731474136.3090398,-0.3349152207374573,0.42120271921157837,-9.987563133239746,-2.7721930039844442e-05,-0.00014455620375407964,6.990953619719125e-05,2.428918913314461,8.092896596628776,0.8738563488976567
1731474136.3588867,-0.27416113018989563,0.43637028336524963,-9.988398551940918,-3.401798641751625e-05,-0.00018474083792203912,9.053347388968198e-05,2.430699857293641,8.09324917546151,0.8746266747226904
1731474136.408835,-0.46316227316856384,0.3740302622318268,-9.99268913269043,-4.14436180813798e-05,-0.00023042188897591905,0.00011494993724995493,2.4307979835696276,8.093576964749563,0.8746619750880753
1731474136.4588637,-0.7430660724639893,0.23497319221496582,-10.004386901855469,-4.986179021441036e-05,-0.0002810848833857583,0.00014333801350762543,2.4333460977175414,8.10208887929505,0.8755786739216104
1731474136.5088224,-0.1835746020078659,0.5284029841423035,-9.957141876220703,-5.746290076848139e-05,-0.0003353729031068303,0.00017575139543271322,2.4401164658360073,8.124704899920399,0.8780146737619833
1731474136.5587819,-0.32869449257850647,0.37620213627815247,-10.047292709350586,-6.078718564963921e-05,-0.00039118549322479006,0.00021214347049188355,2.446903887491313,8.147377471751348,0.8804573484510348
1731474136.6086814,-0.3212164640426636,0.5026140809059143,-9.98022747039795,-5.634461373240101e-05,-0.0004464077174061553,0.0002523252910044725,2.4523741415538107,8.16995782873623,0.8825765684832313
1731474136.6586556,-0.3097893297672272,0.373074471950531,-9.942727088928223,-4.1680513831595295e-05,-0.0004993846169979587,0.00029593464658469895,2.4591426879069895,8.192589588521628,0.8850142720028952
1731474136.7085814,-0.3097893297672272,0.373074471950531,-9.942727088928223,-1.5317255111208087e-05,-0.0005488047368374179,0.00034267884146612314,2.4629092880272356,8.215172487932891,0.8865909799790744
1731474136.7085814,-0.36415764689445496,0.45885133743286133,-10.01577377319336,2.3459347922956487e-05,-0.0005933616787685201,0.0003926217770756888,2.462963253148898,8.215353241236965,0.8866104318411032
1731474136.7586725,-0.3174515664577484,0.43460458517074585,-9.97563648223877,7.480483594272998e-05,-0.0006317058953358186,0.00044609515696332263,2.469692038746252,8.23788985077813,0.8890363624532021
1731474136.808501,-0.37348827719688416,0.42250683903694153,-9.971975326538086,0.00013855606854539234,-0.0006627186861963635,0.0005034385229131772,2.4722600378054853,8.26046380148259,0.8902414794577499
1731474136.858473,-0.37348827719688416,0.42250683903694153,-9.971975326538086,0.0002144183140913925,-0.0006856287277193817,0.0005649578756236151,2.4789802557554763,8.283018977685424,0.8926675781765376
1731474136.858473,-0.3333224654197693,0.4560640752315521,-10.020543098449707,0.00030212759027327244,-0.0006999280807956848,0.0006309784406858115,2.479013414675595,8.283130260845674,0.8926795520425053
1731474136.9084017,-0.3716474175453186,0.4254069924354553,-9.993083000183105,0.0004014905476408842,-0.0007053710765165653,0.0007017335799521757,2.481101140206743,8.306284105629475,0.8936827483895775
1731474136.9583972,-0.30855798721313477,0.4505065679550171,-9.975634574890137,0.0005122827629110294,-0.0007020250716554629,0.0007772279254784065,2.4876458570816147,8.328297500200096,0.8960489465684603
1731474137.0092394,-0.33945232629776,0.44332513213157654,-10.006049156188965,0.0006341111794776925,-0.0006902664874717611,0.0008572769802089473,2.4890478468853945,8.35142554993555,0.8968540237403593
1731474137.0592687,-0.30693483352661133,0.45724576711654663,-9.974886894226074,0.0007662795814213667,-0.0006707764912427663,0.0009416019975108231,2.495763193454461,8.37406514392414,0.8992861275994014
1731474137.1091747,-0.3404017686843872,0.42924872040748596,-9.97957992553711,0.0009077224676646122,-0.0006445401918351875,0.0010298751277826805,2.4965855819683362,8.396476519285411,0.8998586842286975
1731474137.159192,-0.33027854561805725,0.4503231644630432,-9.993732452392578,0.0010570566934797693,-0.0006127830719697708,0.0011217720402530939,2.503329605527172,8.419264300637444,0.902305611041014
1731474137.2090607,-0.33027854561805725,0.4503231644630432,-9.993732452392578,0.0012126945344843655,-0.0005768917815883164,0.0012169803954738575,2.5099607245112874,8.441659638488149,0.9047134450293276
1731474137.2090607,-0.3312438130378723,0.4298307001590729,-9.984983444213867,0.0013729253737872122,-0.000538382919618208,0.0013151412167105702,2.510011179055241,8.441829995158534,0.9047317729386963
1731474137.2591295,-0.32849225401878357,0.44427555799484253,-9.991825103759766,0.0015359447694523497,-0.000498856949004718,0.001415827391233424,2.509992112957743,8.464341974554161,0.904991658474678
1731474137.308942,-0.3466336131095886,0.43178790807724,-9.988767623901367,0.001699889105434966,-0.0004599163954096026,0.001518568858561501,2.5166500578585436,8.486878613668456,0.9074142913624934
1731474137.3589773,-0.3226473927497864,0.4400995373725891,-9.986501693725586,0.0018628965510805115,-0.0004231131202695657,0.0016228697268842378,2.516556741144001,8.509642281978826,0.9076371005663324
1731474137.4088914,-0.3401765823364258,0.42628738284111023,-10.006254196166992,0.002023145904525028,-0.00038992009103616866,0.0017282059438097801,2.5232020430627933,8.532183136624157,0.9100606745485191
1731474137.4588525,-0.3401765823364258,0.42628738284111023,-10.006254196166992,0.0021788682590629365,-0.0003616870950794252,0.0018339798684328668,2.5229102853745706,8.554705018354996,0.9102024373001754
1731474137.4588525,-0.32638588547706604,0.4399968981742859,-9.992179870605469,0.0023283731493677494,-0.0003395970397500008,0.0019394539432374867,2.5229610448557334,8.554877609903157,0.9102209848911679
1731474137.50879,-0.3352645933628082,0.4304140508174896,-9.980989456176758,0.0024700585215276503,-0.0003246720967096999,0.0020437711741680157,2.529537012541606,8.577226379206577,0.9126252568499029
1731474137.5588923,-0.33292460441589355,0.43939563632011414,-9.997173309326172,0.002602390517724811,-0.0003178168041563336,0.0021460665943772933,2.5362494055072373,8.60001631003604,0.915082344611913
1731474137.6086698,-0.3363683819770813,0.4308415949344635,-9.980420112609863,0.0027239082975655856,-0.00031984250316911497,0.002245546472448035,2.5354511743164077,8.622615828445053,0.9150122724329254
1731474137.6586838,-0.3302421271800995,0.4421899914741516,-9.979595184326172,0.0028332490416895953,-0.00033147214878276397,0.0023415139353554623,2.54205093531544,8.64506413432819,0.9174349722909105
1731474137.7086177,-0.3302421271800995,0.4421899914741516,-9.979595184326172,0.002929151288222741,-0.0003533574955072006,0.002433408594449811,2.541164624455384,8.667609916651294,0.9173418745908474
1731474137.7086177,-0.3371421694755554,0.43059173226356506,-9.996553421020508,0.0030104447956581046,-0.000386103760277978,0.002520828608887217,2.541424015006163,8.668494269263725,0.9174373226374959
1731474137.758543,-0.3301190137863159,0.4375700056552887,-9.977168083190918,0.0030760578439730066,-0.0004302602075560375,0.0026034873910674326,2.5478030049552904,8.690229353301952,0.9197863684226022
1731474137.8085432,-0.34019094705581665,0.43010377883911133,-9.982741355895996,0.0031250390221860963,-0.00048628071084846057,0.002681175201353068,2.5544414171574292,8.712821366829816,0.9222346217694849
1731474137.8584952,-0.33192288875579834,0.43809831142425537,-9.991263389587402,0.003156575255190843,-0.0005545012522161006,0.0027537677082182022,2.5610945990534026,8.735435620303289,0.924692220271901
1731474137.9083514,-0.34595686197280884,0.4304082989692688,-9.981121063232422,0.003170008590936734,-0.0006351418341513702,0.0028212193637909685,2.559374629088116,8.758473478170082,0.9243135442058492
1731474137.9583144,-0.3420066237449646,0.443705290555954,-9.989968299865723,0.0031648632605809487,-0.0007283198150311553,0.0028835340018639804,2.565853663758356,8.780541276181184,0.9267157315532464
1731474138.0092392,-0.34163692593574524,0.42966023087501526,-9.989768028259277,0.003140875232746763,-0.0008340711141890417,0.00294074683812321,2.5641792560750543,8.80371476833931,0.9262283433409602
1731474138.0592258,-0.33824580907821655,0.44014066457748413,-9.97556209564209,0.0030979920241009573,-0.0009523634230709337,0.0029929160266204155,2.570800660421541,8.826315393292528,0.9286922451770434
1731474138.1091983,-0.341629296541214,0.4363786280155182,-9.98953914642334,0.0030363402084775965,-0.0010830973636525745,0.003040137565392031,2.5774420552849993,8.848955453673579,0.931168286965861
1731474138.1591976,-0.3402191698551178,0.43175989389419556,-9.978646278381348,0.0029561963321080987,-0.0012261090135019294,0.0030825695156243057,2.5840630633873745,8.871497667899522,0.9336415762216654
1731474138.209059,-0.3476492762565613,0.432100772857666,-9.985774040222168,0.0028579801129359284,-0.0013811609247107095,0.0031204314989622776,2.590644529345053,8.893877675833712,0.9361050565617446
1731474138.2590916,-0.33999305963516235,0.4344528317451477,-9.983550071716309,0.0027422609550938016,-0.001547921222813155,0.0031539924663713395,2.5875404479434616,8.916488929682963,0.9350777732160186
1731474138.3088815,-0.34422069787979126,0.4327370822429657,-9.9750337600708,0.002609754554111706,-0.0017259614764471882,0.003183565800335719,2.594124186725728,8.938944019675844,0.9375529400010049
1731474138.3589008,-0.3437175154685974,0.44072937965393066,-9.988846778869629,0.0024613026597235144,-0.0019147781489090533,0.003209515040521554,2.6007602526583846,8.96155143815763,0.9400533822797201
1731474138.4087975,-0.34332624077796936,0.4315757751464844,-9.98684024810791,0.0022978549988519397,-0.00211382109085422,0.003232243276904573,2.5972790277551097,8.984085200741179,0.9388481086447747
1731474138.458818,-0.33988749980926514,0.436118483543396,-9.992659568786621,0.002120453603468088,-0.002322508664723876,0.0032521439449037888,2.6038819031476654,9.00665888262892,0.9413480530329633
1731474138.5087607,-0.33988749980926514,0.436118483543396,-9.992659568786621,0.0019302044004529248,-0.0025402251067401524,0.0032695467885756574,2.610473055998932,9.029169177551717,0.943849772943178
1731474138.5087607,-0.3460216820240021,0.428290456533432,-9.99396800994873,0.00172824946148426,-0.0027663165090306184,0.0032846869658540653,2.610528580288894,9.029358709258126,0.943870874402506
1731474138.5588555,-0.32766076922416687,0.4385663866996765,-9.993430137634277,0.0015157502425753415,-0.0030000855957909084,0.0032976942914335608,2.606748206925975,9.051810751206938,0.9425028078771496
1731474138.6086557,-0.3306537866592407,0.4353063106536865,-9.987985610961914,0.001293846442399714,-0.0032407947952581523,0.003308603215108157,2.6133743155933717,9.074534444902277,0.9450313791791857
1731474138.6586676,-0.3333236277103424,0.4373985528945923,-9.995209693908691,0.0010635903646831176,-0.0034876912090138538,0.003317379187173313,2.609715176079463,9.096834311879725,0.9436468880405783
1731474138.7086084,-0.3319365978240967,0.4339129328727722,-9.97912311553955,0.0008259195758240833,-0.003740027620077626,0.0033239492442405857,2.606641700552999,9.119366914884306,0.9425658858359192
1731474138.758562,-0.333381712436676,0.4398839473724365,-9.9823637008667,0.0005816756137366115,-0.003997065530699075,0.0033282459130961886,2.6131176057503627,9.141788507937957,0.9450592149427816
1731474138.8085184,-0.333381712436676,0.4398839473724365,-9.9823637008667,0.00033162566669819795,-0.004258083623463272,0.0033302624659948994,2.6196153072597865,9.1642713540789,0.9475687877895694
1731474138.8085184,-0.3302189111709595,0.438150554895401,-9.991358757019043,7.647386901699583e-05,-0.004522397821559086,0.003330070875635217,2.6196729635263996,9.164470791575932,0.9475910918156202
1731474138.8586066,-0.3308621346950531,0.44120118021965027,-9.983616828918457,-0.00018313789056049532,-0.004789373065252072,0.003327787749360178,2.6261470015966455,9.186859794458835,0.9500997828039714
1731474138.8586066,-0.3308621346950531,0.44120118021965027,-9.983616828918457,-0.0004466354366630141,-0.005058425187481872,0.0033235438284007373,2.617989509967043,9.193865070849206,0.9470633543878495
1731474139.2399957,-0.3376094102859497,0.43933042883872986,-9.987139701843262,-0.0007135048013077813,-0.005329023749862057,0.003317487708983889,2.646741693632616,9.163306711319313,0.9587456876236378
1731474139.2900891,-0.3423849642276764,0.43753117322921753,-9.985186576843262,-0.0009832555283803297,-0.005600686615741905,0.0033097913155134277,2.6531336152267295,9.185209561826916,0.9613014358920529
1731474139.3398674,-0.34360605478286743,0.4366273581981659,-9.992426872253418,-0.0012553622927716083,-0.005872959336066406,0.003300633827775662,2.648675344684812,9.206905411102486,0.959771947881211
1731474139.389985,-0.3389294445514679,0.4368346929550171,-9.979833602905273,-0.0015292210880862062,-0.00614539271513456,0.0032901825538975246,2.6550276892853164,9.228821222321216,0.9623319435730248
1731474139.4397805,-0.3331068754196167,0.42958614230155945,-9.990646362304688,-0.0018041557425941437,-0.0064175246676138826,0.0032785939699796597,2.6614748618131783,9.251062828746887,0.9649403655458195
1731474139.4898527,-0.335146963596344,0.4248596131801605,-9.98840618133545,-0.0020794680970424306,-0.006688849995938292,0.003266021067261978,2.6676552439600054,9.272384394469618,0.9674507648119357
1731474139.539713,-0.3328384459018707,0.4296468496322632,-9.984148025512695,-0.0023544874685401096,-0.006958777789974216,0.003252605119079155,2.662606678909835,9.294061594877986,0.9657209818981972
1731474139.5897124,-0.3308675289154053,0.4361976087093353,-9.986226081848145,-0.0026285950413964653,-0.007226620257723535,0.003238474393566525,2.6581558171197828,9.316102763203425,0.9642485575646272
1731474139.639718,-0.3300713300704956,0.44613346457481384,-9.986385345458984,-0.0029012382547457766,-0.007491647886546526,0.0032237588668640313,2.664291540300257,9.337609176857281,0.966774980997999
1731474139.6895943,-0.3355879783630371,0.4400116503238678,-9.9830961227417,-0.003171939401064966,-0.007753180925937042,0.0032085974367969065,2.6704749366493936,9.359290187777605,0.9693321131346025
1731474139.7396622,-0.3371192514896393,0.4425605237483978,-9.980547904968262,-0.003440279574703612,-0.008010650073646992,0.003193144974298589,2.67668373621796,9.381069592965854,0.9719112254523381
1731474139.789675,-0.33719924092292786,0.4419511556625366,-9.980554580688477,-0.003705861686113236,-0.008263602530836144,0.0031775928618585827,2.6828434079846626,9.402687629736956,0.9744815770970541
1731474139.8395355,-0.3354564905166626,0.445912629365921,-9.973817825317383,-0.003968283678808297,-0.008511690886081898,0.003162192868072424,2.6890085453224186,9.424337522957131,0.9770661146581138
1731474139.8896139,-0.3405797779560089,0.44538143277168274,-9.989174842834473,-0.004227132999418701,-0.008754674776078324,0.003147267571475301,2.6831438182655365,9.445939542012177,0.9750693766421249
1731474139.9394777,-0.33414551615715027,0.4462050497531891,-9.99086856842041,-0.0044819866555950785,-0.008992427361475949,0.003133177529472885,2.689237535952056,9.467558357228134,0.9776504484125438
1731474139.9894018,-0.3440423011779785,0.44702938199043274,-9.984944343566895,-0.004732409400489754,-0.009224933833694776,0.0031202515202542885,2.68353675795395,9.489060133264442,0.9757322516771066
1731474140.0392613,-0.32870543003082275,0.43953606486320496,-9.982325553894043,-0.0049779559049949445,-0.009452276666077055,0.003108752247566395,2.689529004154193,9.510545957323886,0.9782978780657383
1731474140.089296,-0.34796392917633057,0.4402678906917572,-9.993621826171875,-0.005218179986933274,-0.009674600277873655,0.0030988938070757393,2.695542845339039,9.532131026928559,0.9808859804767273
1731474140.1402464,-0.33399584889411926,0.432169646024704,-9.98773193359375,-0.005452636033407975,-0.009892058293103956,0.003090844215847947,2.701642291042994,9.554047450145536,0.9835247909248348
1731474140.1902158,-0.339699923992157,0.42898687720298767,-9.98838996887207,-0.0056808717973909064,-0.010104755785639406,0.0030847038268368068,2.6953987936536237,9.57551422884134,0.981410151188699
1731474140.2401154,-0.34191736578941345,0.42445263266563416,-9.988052368164062,-0.005902432610963662,-0.010312691804021796,0.0030805047783527438,2.701305591391077,9.596994657528365,0.9839959510211715
1731474140.2900033,-0.32970547676086426,0.4250764548778534,-9.985917091369629,-0.006116873126418717,-0.010515713887577056,0.003078230465630999,2.6952235005063683,9.618338658583177,0.9819552080837738
1731474140.3400288,-0.32910072803497314,0.4251329004764557,-9.99003791809082,-0.006323786906790269,-0.010713501943175682,0.003077830752710515,2.6896807089688535,9.639818370036483,0.9801408761972262
1731474140.3900661,-0.3384392559528351,0.42610400915145874,-9.983735084533691,-0.00652285340187603,-0.010905583008322709,0.0030792295572727533,2.695419035524864,9.66117949932941,0.9827017579126863
1731474140.439955,-0.3377346694469452,0.435489296913147,-9.978569030761719,-0.0067138427735589385,-0.011091371103235423,0.0030823416899835136,2.7011555508155713,9.68256802722699,0.985276936847504
1731474140.4899478,-0.33423569798469543,0.4322376847267151,-9.991771697998047,-0.00689657539082357,-0.011270229263265546,0.0030871020137906947,2.695481068678314,9.704108973266036,0.9834150117600992
1731474140.5398195,-0.3368098735809326,0.4413033127784729,-9.979137420654297,-0.007070899636715759,-0.011441537054798868,0.003093472868953253,2.701031345293269,9.72507796220283,0.9859400217134244
1731474140.5896668,-0.32903242111206055,0.43979355692863464,-9.979314804077148,-0.0072367026447702175,-0.011604745839224882,0.0031014376402224595,2.7066153651057125,9.746212506305413,0.9884959805060821
1731474140.6397073,-0.33598414063453674,0.4474576413631439,-9.982017517089844,-0.007393929423507988,-0.011759424013037985,0.0031110189635865934,2.712230182889389,9.767503621741511,0.9910821698817212
1731474140.6897366,-0.341476172208786,0.44930747151374817,-9.990230560302734,-0.007542583402435965,-0.011905297999656653,0.0031222869221014587,2.705953531616288,9.788729190458636,0.9889940279864765
1731474140.7397206,-0.3397352695465088,0.44789478182792664,-9.97748851776123,-0.007682690395315477,-0.012042284089617241,0.0031353279396492072,2.711478352533656,9.809987081710705,0.9915755787080353
1731474140.7895658,-0.3330007493495941,0.44037196040153503,-9.997563362121582,-0.007814262572690625,-0.012170488240836243,0.0031502136445629454,2.7169656314779207,9.831144866191828,0.994156524601818
1731474140.8395772,-0.03880907967686653,0.5903394818305969,-9.978856086730957,-0.007937575398965746,-0.012290292974274626,0.0031669823573345387,2.7224283915924814,9.852253397598307,0.9967430739750702
1731474140.8895676,-0.0758434385061264,0.5316457748413086,-10.008713722229004,-0.008054189122112145,-0.012402756295706198,0.003185612929834252,2.7154855984523887,9.873204679182738,0.9944340385444924
1731474140.9393978,0.48951706290245056,0.8079436421394348,-9.981762886047363,-0.008168724101617515,-0.012510316691009129,0.0032059897125048097,2.720831739869683,9.89419834471809,0.9970048484333813
1731474140.9892786,0.7771492004394531,0.6103816628456116,-10.015816688537598,-0.008291494899253904,-0.012617587084199761,0.00322787145653413,2.7140241836211976,9.915159265869304,0.9947729928588505
1731474141.0394018,0.1431780755519867,0.499295175075531,-10.044015884399414,-0.008441159371961594,-0.012731571655471329,0.0032508191369015806,2.7193280760592633,9.936336479804456,0.997365046898891
1731474141.0892773,0.413790225982666,0.48516714572906494,-9.909783363342285,-0.008644724804038042,-0.012860676455611758,0.0032741359909698505,2.72453344815141,9.957173319245701,0.9999274467495993
1731474141.1401522,0.038903508335351944,0.3011943995952606,-9.996171951293945,-0.008934681147431896,-0.013013107729341887,0.0032970690676745033,2.717560429942565,9.978424423441718,0.9976703624792899
1731474141.1902132,0.22217567265033722,0.33590275049209595,-10.001534461975098,-0.009345978120098155,-0.013195503901145158,0.0033191031656976304,2.7227044584784084,9.9993908569969,1.0002474491419704
1731474141.2402446,0.017560504376888275,0.20069876313209534,-9.97430419921875,-0.009914008754537547,-0.013411933263130104,0.003339927853545634,2.7157128807178297,10.020329765507453,0.9980214610033007
1731474141.2901216,-0.7728275656700134,-0.02461777999997139,-9.977519989013672,-0.010672451551192473,-0.013663035752129866,0.0033592868269937274,2.7207081465717495,10.04108976675929,1.0005722956301095
1731474141.3400016,-1.2074174880981445,-0.021463442593812943,-10.009428024291992,-0.011648987240949895,-0.013944934182971212,0.0033769830764450513,2.7137988231113344,10.061883909622301,0.9983936977731475
1731474141.3900766,-0.23980385065078735,0.27316224575042725,-9.937684059143066,-0.0128602058850456,-0.014248550024802282,0.0033928985079723106,2.718680278397554,10.082611281502516,1.000940095488748
1731474141.4400213,-0.7082184553146362,0.12128511071205139,-10.163931846618652,-0.014310620295869598,-0.014560492388502657,0.0034068796931928835,2.7235505931826394,10.103399914981948,1.0035069845466773
1731474141.4898539,-0.29287877678871155,0.4290388226509094,-9.929959297180176,-0.015995913936767494,-0.014864992104606508,0.003418412309019769,2.716477053779608,10.123977853116603,1.001232460535261
1731474141.5398967,-0.5628702044487,0.09986446797847748,-10.001678466796875,-0.01790598122884699,-0.015145506424044525,0.003426469233226835,2.7212013378402675,10.144687698589825,1.0037891135691748
1731474141.5897396,-0.3513105511665344,0.46714502573013306,-10.08678913116455,-0.020026413047443584,-0.015385571755695302,0.003429781018249984,2.7258448757936695,10.165212282309115,1.006336103305604
1731474141.6397777,-0.5107159614562988,0.16161222755908966,-9.946783065795898,-0.02233940355412052,-0.015569252078127377,0.003426961594374599,2.7183302085028456,10.185827463129096,1.0040116162866484
1731474141.6896517,-0.4068586826324463,0.43703973293304443,-9.962201118469238,-0.024824398834832003,-0.015681505496499656,0.00341652932822014,2.722792491305283,10.206264814951643,1.0065470443838056
1731474141.7396317,-0.49801453948020935,0.2526971399784088,-10.004266738891602,-0.027458576164496554,-0.015708472749715527,0.0033972352945555975,2.727235947099304,10.226877552015468,1.0091176899993055
1731474141.789641,-0.37864023447036743,0.4197238087654114,-9.953781127929688,-0.030217296343195976,-0.015637719908527924,0.003368286398415605,2.7315602089141247,10.247230962329574,1.0116692673273517
1731474141.8394883,-0.42949461936950684,0.29616859555244446,-9.941106796264648,-0.03307468737996989,-0.015458442243941491,0.0033293284524941206,2.7233457354196076,10.267610075285347,1.009118638645602
1731474141.8893626,-0.41107162833213806,0.3372349739074707,-10.000696182250977,-0.03600428948552327,-0.015161492690869098,0.003280489542787881,2.7152785568435434,10.28786941263788,1.0067496394837008
1731474141.9393225,-0.3805420398712158,0.7001015543937683,-9.957939147949219,-0.03897954749738593,-0.014739556891939738,0.0032223481318983302,2.7192266741627202,10.308219913824773,1.0092821937519223
1731474141.9893405,-0.4000968039035797,0.667378306388855,-9.877378463745117,-0.04197419406565809,-0.014188245486070067,0.0031558598149687687,2.7110920582413693,10.328536865914279,1.0069758595591558
1731474142.0393183,-0.4872780740261078,1.1421082019805908,-9.997286796569824,-0.04496250689347009,-0.013508089475282956,0.003082503956845657,2.7147734399924177,10.348893192772191,1.0095054193064898
1731474142.0892508,-0.4453103244304657,0.9864438772201538,-9.849359512329102,-0.04791924424920539,-0.01270660445845713,0.003004427870747209,2.7183082237037133,10.369045008186596,1.0120211891706297
1731474142.139246,-0.5104879140853882,0.7967690229415894,-10.028023719787598,-0.050819433786123275,-0.011799261749943567,0.00292437613087865,2.709822096378214,10.389276780283062,1.009622098144564
1731474142.1901712,-0.3782177269458771,0.7711344957351685,-9.996058464050293,-0.05363840597029512,-0.010808303480118181,0.0028453946382691834,2.7131069128536907,10.409825651220345,1.0121801165934827
1731474142.2401364,-0.4499201774597168,0.7072227597236633,-10.010408401489258,-0.056352186460635306,-0.00976020537123152,0.002770311273263227,2.7046149510172977,10.430008413671626,1.0098196972429903
1731474142.2900872,-0.3696022629737854,0.713841438293457,-10.044113159179688,-0.058938035037844075,-0.008683579273193203,0.0027013146762395915,2.7074838454132673,10.450091925424234,1.01231059871664
1731474142.3400176,-0.42195576429367065,0.5679761171340942,-9.984193801879883,-0.0613748439436313,-0.007607820273501299,0.0026398316422249378,2.710217026430293,10.470260527727795,1.0148212788189659
1731474142.3899982,-0.30900314450263977,0.6061761379241943,-10.027217864990234,-0.0636434061208089,-0.006561939439167295,0.0025865938262228196,2.712776252723139,10.49027521316017,1.0173214938501658
1731474142.4399173,-0.36433690786361694,0.5541598200798035,-9.993165969848633,-0.06572672415514479,-0.005573538165101916,0.0025417950599347,2.703527156991062,10.510355746639696,1.0147206485455404
1731474142.4898849,-0.3449501693248749,0.5600143671035767,-10.049895286560059,-0.06761027144784931,-0.004668173424354929,0.0025051907061997636,2.7056957297291118,10.530377975836712,1.0172068895755968
1731474142.5398262,-0.3187732696533203,0.5636372566223145,-10.002037048339844,-0.06928203752440534,-0.003869071997366292,0.0024760846764738066,2.6963424852587607,10.55043088970799,1.0146494026614332
1731474142.5898345,-0.30297085642814636,0.5662887096405029,-10.012564659118652,-0.07073250761182295,-0.0031970454066742745,0.002453342732548783,2.687232319813378,10.570406977496521,1.0122573395328596
1731474142.6396751,-0.3056734502315521,0.5174658894538879,-10.006267547607422,-0.07195472379204665,-0.002670498227446512,0.002435521753022098,2.688750818752944,10.590462415948602,1.0147084199310927
1731474142.689624,-0.32618317008018494,0.5069574117660522,-9.982719421386719,-0.07294426631758313,-0.0023053396835425294,0.002421039471656527,2.690081433102943,10.610406214846448,1.0171526412794074
1731474142.7396877,-0.273434042930603,0.514680802822113,-9.964303016662598,-0.07369908376544426,-0.002114798398132075,0.002408353297096816,2.691242277475092,10.630567502341869,1.0196302798308836
1731474142.7895157,-0.2996521592140198,0.5227103233337402,-9.985552787780762,-0.07421934526308384,-0.0021093739760874187,0.00239615936842381,2.681364914405666,10.650394349371755,1.0169811633208032
1731474142.8395174,-0.3358599841594696,0.5379204750061035,-9.958097457885742,-0.07450731295418127,-0.0022970175329413943,0.00238350997605455,2.6820884958946376,10.670568756722412,1.0194416190824538
1731474142.8894358,-0.336078017950058,0.4931144118309021,-9.98670482635498,-0.07456702842130536,-0.0026833818732532873,0.0023698173296916513,2.682616001214153,10.69036395569093,1.0168287862081504
1731474142.939421,-0.336078017950058,0.4931144118309021,-9.98670482635498,-0.07440388363796542,-0.003271936265943542,0.002354792360102313,2.6829638108202785,10.710456954682103,1.0192608775380922
1731474142.939421,-0.33337661623954773,0.5128029584884644,-10.005820274353027,-0.0740243309473457,-0.00406396665947945,0.0023383121653624125,2.682965276663436,10.710573130120492,1.019274959788465
1731474142.989331,-0.3498041331768036,0.4721747934818268,-9.94282341003418,-0.07343573751186366,-0.0050586475473152065,0.0023203071795968658,2.6831244855230487,10.730324194413909,1.0216726900308928
1731474143.0392566,-0.32534632086753845,0.5132566094398499,-9.986802101135254,-0.07264626508358525,-0.006253196022276606,0.0023008132277147087,2.6831041245131586,10.750322418252795,1.0241078810247797
1731474143.0892653,-0.3674081265926361,0.5218324065208435,-10.014200210571289,-0.07166475042394514,-0.0076430753088012615,0.0022800445159105814,2.6829050626453843,10.770222939482581,1.0212711170813882
1731474143.1392438,-0.40713658928871155,0.5078936219215393,-9.99518871307373,-0.07050051036664268,-0.009222292941839995,0.002258255821198637,2.6825258638513687,10.790214569899165,1.0236877569688634
1731474143.1901145,-0.3748840391635895,0.5032426118850708,-9.95654582977295,-0.06916301198090744,-0.010983663882401979,0.0022355880545066537,2.681966058474649,10.810374964338125,1.0209467815786752
1731474143.2401328,-0.41319382190704346,0.513997495174408,-10.000679969787598,-0.067661593374756,-0.012918932265480191,0.002212148368342895,2.6812417077948894,10.830245566745536,1.0183591581065636
1731474143.2901106,-0.4174082279205322,0.5009680390357971,-9.988465309143066,-0.0660053389548153,-0.015018863963132335,0.0021881191455448016,2.680347919496325,10.85010234737055,1.0207215864360069
1731474143.3401623,-0.4119400978088379,0.5024043917655945,-9.968817710876465,-0.06420298521540597,-0.017273363737959596,0.0021637246729809354,2.6792870169646053,10.869993770204696,1.023098440136951
1731474143.3899338,-0.3861069083213806,0.4877097010612488,-9.973749160766602,-0.06226288999909388,-0.019671561757868314,0.002139230772157356,2.6780818526373382,10.889608575908555,1.0254530307653542
1731474143.4400024,-0.3813762664794922,0.4656544327735901,-10.00214672088623,-0.060193173677530146,-0.022201842440227423,0.0021150026193056046,2.6767093187870863,8.099257681967329,1.022689322787888
1731474143.489819,-0.3586125075817108,0.4547431170940399,-9.964475631713867,-0.05800195453941995,-0.02485181006988866,0.002091472251130523,2.6752045737019468,8.110625940889214,1.0250231415283815
1731474143.5397732,-0.3363964855670929,0.4302753210067749,-9.970362663269043,-0.055697578013259294,-0.027608217812638655,0.002069100067875258,2.6735443107161974,8.12203031611605,1.0273830335547907
1731474143.5897393,-0.3230259418487549,0.4246014356613159,-10.018203735351562,-0.05328883493392255,-0.030456911296279723,0.0020483970473504404,2.6717633040517286,6.650604568891009,1.024528037358973
1731474143.6397502,-0.3195480704307556,0.4174511432647705,-9.99730110168457,-0.05078513994096949,-0.03338282524985896,0.002029835188736029,2.6698288770949468,6.657794017678664,1.026872954676596
1731474143.6896462,-0.29733991622924805,0.400546669960022,-9.969202995300293,-0.04819661898843623,-0.036370047918871384,0.0020137018576014396,2.6677922945967105,6.664818541252412,1.0291974139966777
1731474143.7396011,-0.2849956750869751,0.3818894624710083,-10.001726150512695,-0.04553414312463932,-0.03940190516938512,0.0020001302945888877,2.665629837271315,6.671776655130343,1.0263062386802808
1731474143.789569,-0.2620607912540436,0.3989132344722748,-10.011852264404297,-0.042809374375525934,-0.042461034944923565,0.00198917766927262,2.6633611268592152,6.678623611369732,1.028612324469994
1731474143.8395295,-0.3114404082298279,0.37750130891799927,-9.98075008392334,-0.04003476751574598,-0.04552951639917317,0.001980770523178172,2.660984910098822,6.685369034715182,1.0258025780684616
1731474143.8895874,-0.29066282510757446,0.38888999819755554,-10.001361846923828,-0.037223397017577986,-0.04858906519596287,0.001974671110374916,2.658511607287893,6.6920024221940535,1.0280892295757937
1731474143.939539,-0.31284046173095703,0.36997202038764954,-10.00731372833252,-0.03438864849540562,-0.051621224546601154,0.0019705265336730496,2.6559441662908227,6.6985221953783265,1.0303849287557663
1731474143.9893997,-0.27976566553115845,0.3753986358642578,-10.026233673095703,-0.0315439687299844,-0.05460752426903988,0.001967842559529978,2.653310939834572,6.704869142191926,1.0326711145687795
1731474144.0392823,-0.2954639196395874,0.3394887149333954,-9.958551406860352,-0.028702755458881964,-0.05752959767572984,0.001965924801219052,2.650597276918895,6.711084658393627,1.029615897069898
1731474144.089266,-0.5322554707527161,-0.19363191723823547,-10.011695861816406,-0.025878089168691956,-0.06036874763244867,0.0019639706270935817,2.647812298776108,6.717166338113389,1.0318833939410457
1731474144.139285,-0.4975226819515228,-0.47324222326278687,-10.109478950500488,-0.023081847898913353,-0.06310387269130312,0.001961108010695433,2.644959966628728,6.723100801199275,1.0288621717748319
1731474144.1902807,-0.6517626047134399,-0.1517183631658554,-10.05496883392334,-0.020323451869736754,-0.06570839437668759,0.0019560544905866733,2.641984829880241,6.729012918761334,1.0311607454857248
1731474144.2401178,-0.7958483099937439,-0.4603233337402344,-10.047149658203125,-0.017608777321835807,-0.06814887049368692,0.0019467418433062084,2.6390533080678646,6.734569769509241,1.0281604116638112
1731474144.2899477,-0.3774668574333191,0.1904527246952057,-9.920002937316895,-0.01493957411138656,-0.07038622595576813,0.0019304998180559561,2.6360840136288632,6.739958320182471,1.0303608693792934
1731474144.3399312,-0.7103548049926758,-0.2533815801143646,-10.023809432983398,-0.012313985911545679,-0.07237834698257532,0.00190469787480449,2.6330478793876444,6.745220628109473,1.0274242492917667
1731474144.389945,-0.5084047317504883,0.20593859255313873,-9.930323600769043,-0.009727715283344603,-0.07408267228922547,0.0018672504699595808,2.6299947768876333,6.750288343810376,1.0296151401658566
1731474144.4399543,-0.6116470098495483,0.06604569405317307,-9.929553985595703,-0.007174672397993725,-0.0754581145977286,0.0018168082004406487,2.626919177894279,6.755163859948665,1.0267075798269947
1731474144.489831,-0.5259138345718384,0.24936124682426453,-9.96333122253418,-0.004647311898401747,-0.07646663566961089,0.001752888553432856,2.623838668075313,6.759834440968967,1.023958819954274
1731474144.5398407,-0.5633005499839783,0.1612505167722702,-9.892698287963867,-0.0021371108889317383,-0.07707452308617596,0.0016759481879168264,2.6207380229115067,6.764338691455622,1.0260959021292402
1731474144.5897121,-0.5227437615394592,0.1753193736076355,-9.91405963897705,0.000364978882294204,-0.07725296324690173,0.0015873831926912832,2.617648042503959,6.768632370060795,1.028228168153371
1731474144.6397834,-0.530639111995697,0.1455938071012497,-9.948212623596191,0.002868157967906914,-0.07697797898631531,0.0014895305475712153,2.6145455346871076,6.772756193771049,1.0303757228429766
1731474144.6897333,-0.4877649247646332,0.19532594084739685,-9.93302059173584,0.0053814364584660575,-0.07623011820920933,0.0013855033523676012,2.6114654305373066,6.776664121132644,1.0273883402660795
1731474144.7396362,-0.4850020408630371,0.15887004137039185,-9.961091995239258,0.007913285313911415,-0.07499424831371504,0.001278872567588634,2.6083990588596633,6.780395802770806,1.0295005825636139
1731474144.7895703,-0.042006008327007294,0.42955347895622253,-9.968608856201172,0.0104709208550163,-0.07325967415023231,0.0011733897214025112,2.605361714289348,6.783935708762934,1.0316116139194402
1731474144.8395107,0.20982344448566437,0.5299987196922302,-9.996824264526367,0.013058375150915841,-0.07102093015581541,0.0010727351104880905,2.602346041038124,6.787295373366636,1.0285256089123003
1731474144.8894217,-0.2961362600326538,0.27400559186935425,-10.028383255004883,0.01567398767501291,-0.06827888482874563,0.0009802250461089703,2.599366431600329,6.790490170790749,1.0306106829677903
1731474144.9395008,-0.2961362600326538,0.27400559186935425,-10.028383255004883,0.01831009974885174,-0.06504066546561339,0.0008985055554721886,2.5964311647209475,6.7935069585551595,1.0275605210377634
1731474144.9395008,-0.07620701938867569,0.45252323150634766,-9.962984085083008,0.020955232890076274,-0.06131834436032731,0.0008293971391011233,2.5964137880486198,6.7935245293714015,1.0275727590159078
1731474144.989377,-0.3626199960708618,0.24273060262203217,-10.05359172821045,0.023595822327273995,-0.057128002643735916,0.0007740062004247994,2.5935487333032183,6.796380354495764,1.0296120685159629
1731474145.0394049,-0.1496284306049347,0.48473837971687317,-10.041500091552734,0.026216769184062287,-0.05248945712351161,0.0007328219940653632,2.590723923366499,6.799111506609574,1.0265978985385336
1731474145.0892012,-0.3409866988658905,0.2217046469449997,-10.007319450378418,0.028801989848773565,-0.04742592626562761,0.000705617208733295,2.5879863176932494,6.801710302686511,1.028606858828397
1731474145.1393504,-0.3409866988658905,0.2217046469449997,-10.007319450378418,0.03133511518046905,-0.04196331974486776,0.0006914726313222163,2.585288335043383,6.804220826918977,1.0256381806761594
1731474145.1393504,-0.19522902369499207,0.4383619427680969,-10.02239990234375,0.033800118819061115,-0.03612928577026739,0.0006890184315364517,2.585265707783545,6.804241829226994,1.0256552267723507
1731474145.1891997,-0.3174585700035095,0.26658883690834045,-9.997493743896484,0.03618154635441663,-0.029952809299560082,0.0006966141282673574,2.58270309071554,6.806624784105056,1.0276200641856437
1731474145.2401588,-0.2567730247974396,0.41878947615623474,-9.975645065307617,0.038464401654679486,-0.02346439752489671,0.0007124620657428008,2.580155319185738,6.809014502336268,1.0296483389236344
1731474145.290124,-0.31867489218711853,0.322895348072052,-10.004502296447754,0.04063425668912594,-0.016696067912709892,0.0007347806496893623,2.577755341421786,6.811308313850959,1.0316399965544616
1731474145.3400424,-0.2900391221046448,0.4151308536529541,-9.99188232421875,0.04267755318223672,-0.009681127653944799,0.000761920809165775,2.5754586832236135,6.813559871822226,1.0284172747268618
1731474145.390102,-0.331870973110199,0.35072141885757446,-9.961592674255371,0.04458183994108741,-0.0024539682545264272,0.0007923806360596215,2.573266777060881,6.8158106055797,1.0303799406446386
1731474145.4399805,-0.31109046936035156,0.4003080129623413,-9.982954025268555,0.04633595521535758,0.004950185842879188,0.0008248725653295505,2.571200976582773,6.818041329349866,1.0271926516316925
1731474145.4899025,-0.3297779858112335,0.40445318818092346,-9.977746963500977,0.04793014954208442,0.01249554105051455,0.0008584155069477965,2.569241885356051,6.820315230593686,1.0291211816880022
1731474145.5398126,-0.3312694728374481,0.4171616733074188,-9.975252151489258,0.049356141604635244,0.0201459192496894,0.0008923252365511587,2.5674078262610363,6.822625431928672,1.0310481818688784
1731474145.589731,-0.3365127444267273,0.42672958970069885,-9.98169231414795,0.050607147695061284,0.027864886769239785,0.0009261587310071869,2.9732049191973857,6.824973418884889,1.0277667551549154
1731474145.6397784,-0.6444383859634399,0.252627432346344,-9.986760139465332,0.051678173343728345,0.035616078235477945,0.000959667844500886,2.9741581793308196,6.827438972821903,1.0296738451082426
1731474145.6896195,-0.5891392230987549,0.3251998722553253,-9.954066276550293,0.052566999932274365,0.043363956746541775,0.0009927626015325119,2.9752336995499578,6.8299830218170525,1.0315679469512633
1731474145.739691,-0.7718563675880432,0.09749940782785416,-9.974160194396973,0.05327553033789279,0.051074846647022575,0.0010255393221241926,2.9764497714487326,6.83266385968827,1.0334781492984482
1731474145.7895942,-0.46285444498062134,0.407083123922348,-9.982929229736328,0.05381042895912312,0.0587177370292427,0.0010583231089056184,3.3525389611777716,6.835438670449002,1.0299725758513834
1731474145.839546,0.17480438947677612,0.5993920564651489,-9.956948280334473,0.054181792819275036,0.06626402192128829,0.0010916252295642408,3.3563450946094893,6.838410443085773,1.0318471022002642
1731474145.8895202,-0.4296962022781372,0.3416212499141693,-10.036373138427734,0.05439979187394475,0.07368605566382148,0.0011260398364490065,3.360258660520231,6.841518862787251,1.028405253787449
1731474145.9394314,-0.10667605698108673,0.5735830664634705,-9.944799423217773,0.054472119280282755,0.08095608191094,0.0011621103825924263,3.3643409988542023,6.844862717922997,1.0302488062718762
1731474145.9893925,-0.4261827766895294,0.25164923071861267,-9.998679161071777,0.05440417270889483,0.08804644722079816,0.001200267244851238,3.3685178219562606,6.84836824041141,1.026862217661282
1731474146.0393891,-0.4261827766895294,0.25164923071861267,-9.998679161071777,0.05420042582068683,0.0949305840045756,0.0012408757819348775,3.372875665900433,6.852155748807415,1.0286752086134356
1731474146.0393891,-0.1757666915655136,0.5858380794525146,-10.030649185180664,0.053865475724300435,0.10158402294850269,0.001284178297256619,3.3729114498184227,6.852187341492138,1.0286898768259511
1731474146.0892906,-0.36952340602874756,0.26452311873435974,-9.984543800354004,0.05340418201809498,0.10798444728090248,0.001330122704666181,3.3773273276140796,6.85616063409546,1.0304747442026079
1731474146.1392066,-0.2180897742509842,0.5275964140892029,-9.984308242797852,0.05282114579541357,0.11411109920976771,0.00137835069632131,3.381922529470894,6.860451914452281,1.0322823051917924
1731474146.1892066,-0.35027265548706055,0.3020928204059601,-9.998504638671875,0.052120491429344606,0.11994465555866875,0.001428368183173637,3.3866452752864147,6.865031444435114,1.0340922068290739
1731474146.2392662,-0.24522694945335388,0.4789474606513977,-9.97572135925293,0.05130600307391343,0.12546741991252605,0.001479677784876195,3.391530842860761,6.869935991745181,1.0303812848283533
1731474146.2900531,-0.32880857586860657,0.3587845265865326,-9.992473602294922,0.05038124838375435,0.13066342410965848,0.0015318164417501008,3.3965922533643162,6.87522922306593,1.0321878345909212
1731474146.3401139,-0.28920209407806396,0.4533703923225403,-9.996732711791992,0.04934968313511882,0.13551844369628646,0.0015843625821669457,3.401740662057357,6.880805674404914,1.0285549544631882
1731474146.3900425,-0.32036682963371277,0.38436904549598694,-9.975886344909668,0.048214780848875406,0.14001997239261155,0.00163691620098617,3.4069634764638903,6.886687534481794,1.0302996485427023
1731474146.4399643,-0.3222068250179291,0.4288286566734314,-9.992498397827148,0.04698017069971237,0.14415722619505933,0.0016890969850626531,3.412343537488518,6.892968502602649,1.0320611549685033
1731474146.4898868,-0.3282969295978546,0.4256960153579712,-9.982223510742188,0.04564975866450341,0.14792114943289802,0.0017405769640193637,3.4177849384454695,6.899549170228454,1.0338093819254996
1731474146.5398424,-0.3282969295978546,0.4256960153579712,-9.982223510742188,0.04422782144452386,0.15130436113251572,0.0017910946982739062,3.423383965027554,6.906545827381563,1.0299773100941307
1731474146.5398424,-0.3342430889606476,0.41899538040161133,-9.977553367614746,0.042719045049416406,0.1543010895003706,0.0018404668248825505,3.423428549325646,6.9066025996040965,1.0299909398204106
1731474146.5898244,-0.3342430889606476,0.41899538040161133,-9.977553367614746,0.041128523209971075,0.15690717600128595,0.001888617202390017,3.4290549848173053,6.9138816469745485,1.026351504086987
1731474146.5898244,-0.3272224962711334,0.4375999867916107,-9.990431785583496,0.039461735596792454,0.15912009411459288,0.0019355844541552765,3.429096606617986,6.913936531064375,1.0263637542394708
1731474146.6398294,-0.3272224962711334,0.4375999867916107,-9.990431785583496,0.037724487474486125,0.16093888757129687,0.0019814746341471367,3.4348733267930247,6.921693055365872,1.0280525411996762
1731474146.6398294,-0.348007470369339,0.42216381430625916,-9.980985641479492,0.03592284220275963,0.16236406749292595,0.002026392953615103,3.4349188206988224,6.921755220030737,1.0280657526009824
1731474146.6897447,-0.3311549723148346,0.43346843123435974,-9.981561660766602,0.03406310637395675,0.1633975715269747,0.0020704297004167874,3.4407236564661834,6.929830429371635,1.0297418767115574
1731474146.7396312,-0.3635404109954834,0.40990909934043884,-9.988479614257812,0.03215185135316695,0.16404278494665014,0.002113692351227099,3.4466896714145596,6.938422060274055,1.0314460026618555
1731474146.789546,-0.32311975955963135,0.4552238881587982,-9.978585243225098,0.03019591490192633,0.16430453605081374,0.0021563163648638754,3.4526936779363075,6.947363649087706,1.0331442213107698
1731474146.8395026,-0.3543110489845276,0.4205108880996704,-9.987153053283691,0.028202347504652673,0.16418900753587323,0.0021984560455335024,3.458804776866498,6.956751235260282,1.0292066314369417
1731474146.8894835,-0.33690303564071655,0.44204410910606384,-9.983466148376465,0.026178325024730723,0.1637036137317578,0.0022402799732374086,3.4649914703582354,6.966574485757224,1.0308865603757804
1731474146.939377,-0.33690303564071655,0.44204410910606384,-9.983466148376465,0.024131078929445375,0.1628569148985799,0.0022819627856892734,3.471226935844119,6.976768888459831,1.0270278261278816
1731474146.939377,-0.3456494212150574,0.4204249382019043,-9.974058151245117,0.022067832904234228,0.16165855012806038,0.0023236880516341813,3.4712781752951054,6.976854040607477,1.0270412726530247
1731474146.9893372,-0.32335811853408813,0.44455331563949585,-9.994388580322266,0.019995732248530747,0.1601191891867781,0.0023656651641868723,3.4775190978378183,6.987382284513901,1.0286754812630219
1731474147.0392928,-0.32335811853408813,0.44455331563949585,-9.994388580322266,0.01792175540399797,0.15825047849064822,0.0024081031029367208,3.4838678059098926,6.998408735987805,1.0303315067942949
1731474147.0392928,-0.3419918715953827,0.4153200089931488,-9.980100631713867,0.015852613471305975,0.15606494475896915,0.0024511441318812175,3.4839059321927137,6.998475910144148,1.0303414348003719
1731474147.0892532,-0.3419918715953827,0.4153200089931488,-9.980100631713867,0.013794730911800128,0.1535759637082581,0.0024948579431261723,3.4902487012487082,7.009811328041827,1.0319917148726854
1731474147.0892532,-0.33232659101486206,0.44813141226768494,-9.970808982849121,0.011754305767228735,0.1507977884100622,0.0025393178879996713,3.490286988746993,7.0098807149882525,1.0320016684873006
1731474147.1392598,-0.33232659101486206,0.44813141226768494,-9.970808982849121,0.009737320132069955,0.14774543925870331,0.002584683202326658,3.496670538044006,7.021597414328092,1.0279626186482957
1731474147.1392598,-0.3414287269115448,0.42118310928344727,-9.989472389221191,0.007749488416978819,0.1444344829273211,0.0026312290467148895,3.4967130305472156,7.0216765728731465,1.0279733915677096
1731474147.1892078,-0.3414287269115448,0.42118310928344727,-9.989472389221191,0.005796238103322962,0.1408809381428784,0.002679290572660984,3.503101129047861,7.033737991002957,1.0295944295651338
1731474147.1892078,-0.32821929454803467,0.43675288558006287,-9.983247756958008,0.0038827237707251576,0.13710130726780934,0.002729161524236884,3.503138149336349,7.033808820234232,1.02960383247955
1731474147.239118,-0.32821929454803467,0.43675288558006287,-9.983247756958008,0.002013795455708658,0.13311252994278872,0.002781050468419468,3.509538213094905,7.046213870739711,1.0312322146372528
1731474147.239118,-0.3308393657207489,0.41653814911842346,-9.989508628845215,0.00019392610986759893,0.1289318491164728,0.002835100403461968,3.509576576885602,7.0462891892066155,1.0312419924832525
1731474147.2890556,-0.3308393657207489,0.41653814911842346,-9.989508628845215,-0.0015728260740696075,0.12457674463889844,0.0028913947861489014,3.5159687788148566,7.058982857821976,1.0274535832808542
1731474147.2890556,-0.3233639597892761,0.44228991866111755,-9.99915599822998,-0.003282814132147884,0.12006492150428992,0.0029499265908378355,3.5160049209107886,7.0590555988100805,1.027462624780124
1731474147.34003,-0.3317860960960388,0.42187803983688354,-9.981391906738281,-0.004932802709852389,0.11541421565922022,0.003010568738634619,3.5225476493740304,7.072386347268032,1.029104891136878
1731474147.389953,-0.3199501931667328,0.43816444277763367,-9.984302520751953,-0.006519974569162403,0.11064244370256973,0.0030730953123484263,3.528965970239161,7.085777289213727,1.0307271923195929
1731474147.4399762,-0.3348630368709564,0.410004585981369,-9.995926856994629,-0.00804192587443875,0.10576731312423839,0.0031372374556388766,3.5353771030993575,7.099461779650364,1.0323600432334794
1731474147.4898822,-0.31965500116348267,0.4335654675960541,-9.987404823303223,-0.009496649237028393,0.10080639682009038,0.0032026966373681575,3.5417526835092428,7.113361165992944,1.0285456776223618
1731474147.5398347,-0.33629316091537476,0.42236918210983276,-9.98745346069336,-0.010882510616716683,0.09577709862160898,0.0032691244768130556,3.5481037058253895,7.127521006693908,1.0301522553794975
1731474147.5897639,-0.32917505502700806,0.4344494938850403,-9.999245643615723,-0.012198218473075393,0.09069656887233629,0.0033361237792329107,3.5544159273441087,7.141876702475231,1.0267170967512251
1731474147.6397233,-0.3516184091567993,0.42074695229530334,-9.990751266479492,-0.013442766552393412,0.08558160753450379,0.003403244623871259,3.5607493349068022,7.1565893771698565,1.0283161504381408
1731474147.6896822,-0.3454195261001587,0.43337929248809814,-9.982441902160645,-0.014615343657981254,0.08044859887955289,0.0034699786775935293,3.5669616985330688,7.171307068873476,1.0299019159166174
1731474147.739603,-0.3505779504776001,0.42843934893608093,-9.977140426635742,-0.015715246362644396,0.07531345952489282,0.0035358114698737448,3.573175473762081,7.1862971898991725,1.0262039564249696
1731474147.7895708,-0.3442579209804535,0.44717955589294434,-10.014467239379883,-0.016741844093893312,0.07019156241733285,0.0036002793874199074,3.579377804198005,7.201553738205907,1.0277858538485622
1731474147.839557,-0.2940550446510315,0.5944892764091492,-9.976007461547852,-0.01769464587729857,0.06509749239460169,0.0036629339467994042,3.585518283678082,7.216920130900028,1.0241976311834105
1731474147.889536,-0.20518560707569122,0.54371577501297,-9.946371078491211,-0.018573595875914485,0.06004446715801209,0.0037233352449976245,3.591602419921518,7.232427689003544,1.02575221058676
1731474147.939503,-0.43645983934402466,0.24578015506267548,-9.995434761047363,-0.01937943892499998,0.0550440257701154,0.0037811968179831835,3.5976654843063622,7.24813377243119,1.0218546971602243
1731474147.9893682,-0.2412494719028473,0.5809628963470459,-10.00178050994873,-0.020113630696688884,0.050106681148419985,0.003836448946767084,3.6036334519749564,7.263864027662284,1.023380959497082
1731474148.0393229,-0.4226839542388916,0.305077463388443,-9.972904205322266,-0.020777899903731953,0.04524268161015887,0.003889087113910952,3.609580591567202,7.279792401012755,1.0249245455541651
1731474148.0892675,-0.17636924982070923,0.6643232107162476,-9.994385719299316,-0.021374087480727395,0.04046193192584372,0.003939063517287834,3.615459053836152,7.295783830619476,1.0264736477850798
1731474148.1391916,-0.017241640016436577,0.4965020716190338,-10.021503448486328,-0.021904682290492358,0.03577335535587862,0.003986282251604497,3.621284767449869,7.311859760739102,1.0224292795113274
1731474148.1891968,0.08745230734348297,0.6030604839324951,-10.011589050292969,-0.022374240587549415,0.031184208761944325,0.0040305024082381204,3.627068684865706,7.3280564393821175,1.018365911491822
1731474148.2391913,-0.9778934717178345,0.07814757525920868,-9.990920066833496,-0.022790045631204812,0.02670020504348479,0.004071220826154117,3.6328103687596394,7.3443786982282955,1.0198676759255247
1731474148.289004,-0.13256236910820007,0.6477596163749695,-9.916261672973633,-0.023159920034976498,0.022326761413295183,0.004107797420374538,3.638464914650332,7.360676838440086,1.021371785037555
1731474148.3390393,-0.5607509613037109,0.18505153059959412,-10.030675888061523,-0.023489500048192988,0.018069942997600084,0.0041397737846330905,3.6440844411522084,7.377092417648823,1.0228923779302788
1731474148.3899746,-0.24053697288036346,0.6703055500984192,-9.993346214294434,-0.023782088254135535,0.013936231282372386,0.004166961472787637,3.6497258166594655,7.393776690298669,1.0189652353094003
1731474148.4399455,-0.4149532914161682,0.18424800038337708,-9.922703742980957,-0.02403975095784527,0.009931981669958685,0.0041892735272295615,3.655235233830701,7.410292266654133,1.0204693003717675
1731474148.4898977,-0.32263457775115967,0.564312756061554,-10.011099815368652,-0.024263899994834547,0.006063288088966482,0.004206744272150571,3.660691460266919,7.426838277706168,1.016644590046611
1731474148.539939,-0.4096713662147522,0.33358514308929443,-9.978320121765137,-0.02445547047636809,0.002336058632136508,0.004219637052893404,3.666048576777467,7.44329081879539,1.0181220632925378
1731474148.5898108,-0.33266475796699524,0.4822407364845276,-9.983787536621094,-0.024614912821972555,-0.0012440992867031278,0.0042283326274144065,3.671342291013082,7.459724679508876,1.0144016081274072
1731474148.6398258,-0.36633315682411194,0.4079146981239319,-10.017582893371582,-0.02474222952312681,-0.004672088611424597,0.0042331815674930716,3.6765993240385604,7.476241189035074,1.0158682076708498
1731474148.6896837,-0.37975364923477173,0.41329842805862427,-9.984230041503906,-0.024837112075233952,-0.007943398039205716,0.004234424170702457,3.6817800377482373,7.492684265793331,1.0122601388797279
1731474148.7397082,-0.3236582279205322,0.45023560523986816,-9.957239151000977,-0.024899028595151126,-0.01105409121608894,0.004232178064826182,3.6869017348430515,7.509125430158258,1.0137074047060037
1731474148.7895982,-0.4094269871711731,0.40006208419799805,-10.010847091674805,-0.02492728282293298,-0.014000799527405182,0.004226559694768435,3.440942340144154,7.525593701161435,1.0102100251295811
1731474148.8395123,-0.3341081142425537,0.49790847301483154,-9.974881172180176,-0.024921050039923495,-0.016780789565538592,0.004217759796920075,3.2429021647067677,7.541808813469315,1.0069005531001873
1731474148.8895173,-0.40162166953086853,0.3858509361743927,-9.979796409606934,-0.024879363940534305,-0.019392075456905085,0.004205994634438018,3.2453199210749895,7.558162500939073,1.0083105801204217
1731474148.9394271,-0.33520281314849854,0.49349677562713623,-9.995915412902832,-0.02480113630507712,-0.021833464951347754,0.0041914947347457335,3.247673958264624,7.5744536822128365,1.0097301565900878
1731474148.989394,-0.33520281314849854,0.49349677562713623,-9.995915412902832,-0.024685279481014906,-0.02410460705699714,0.004174498401077966,3.2499627288578368,7.5906628588793,1.0111580068232628
1731474148.989394,-0.39363962411880493,0.3769837021827698,-9.9759521484375,-0.024530873694980797,-0.026206096361327775,0.004155195034416257,3.2499752026794133,7.590752241897314,1.0111659240719841
1731474149.0393794,-0.32641667127609253,0.49767252802848816,-9.984671592712402,-0.024337205919304453,-0.028139367250286054,0.004133733430174336,3.0812680461543986,7.606828258981545,1.0077323735361958
1731474149.0893095,-0.39658495783805847,0.40310895442962646,-9.991823196411133,-0.024103696097209474,-0.02990643704394138,0.0041102830645847735,3.0824930659764704,7.62288197762471,1.0091435589668833
1731474149.139286,-0.31508591771125793,0.49019932746887207,-9.974615097045898,-0.023829884059315767,-0.031509835056906174,0.004085044903504597,3.0836610786936918,7.638895435187571,1.0105681592465232
1731474149.1892076,-0.3865351676940918,0.38851404190063477,-9.984769821166992,-0.02351548392164552,-0.03295260770697199,0.004058246367766291,2.9395472944570864,7.654783942232732,1.0071235995042338
1731474149.2392628,-0.3284973204135895,0.4553205966949463,-9.989445686340332,-0.023160432288745553,-0.034238208845380515,0.00403015439685748,2.939802744183361,7.67067044462283,1.0085359420545843
1731474149.2891707,-0.36882221698760986,0.4021817743778229,-9.976908683776855,-0.02276490117892087,-0.03537034155754579,0.0040010625192384,2.9399999512256594,7.686410906158642,1.0099530393361913
1731474149.3390863,-0.339903861284256,0.46282950043678284,-9.997218132019043,-0.02232929995872423,-0.03635288519280979,0.0039712648338114664,2.9401410700905117,7.702070288319382,1.0113808178579042
1731474149.3890233,-0.36403632164001465,0.4146801829338074,-9.983406066894531,-0.02185427331518352,-0.03718993170652861,0.003941034271537303,2.940225711104147,7.717624167456682,1.007811239870647
1731474149.4399798,-0.3282560706138611,0.4430561661720276,-9.990992546081543,-0.02134069615653201,-0.0378858250943911,0.003910597369863875,2.9402580427134852,7.733451213207368,1.0092543119682664
1731474149.489963,-0.34830936789512634,0.4099680185317993,-9.985173225402832,-0.020789706179429608,-0.038445125752502494,0.0038801298043096557,2.9402362200935723,7.748927808627204,1.0106842075959315
1731474149.5398574,-0.3367198407649994,0.4484230577945709,-9.979958534240723,-0.020202750494752356,-0.03887254406141742,0.0038497785092508354,2.940162488280312,7.76410442502739,1.0070961637764075
1731474149.5898209,-0.3511849343776703,0.42940324544906616,-9.9827299118042,-0.01958157808742567,-0.03917293276599441,0.0038196973836792246,2.9400400655101255,7.779310023706293,1.0085013330939216
1731474149.639785,-0.3449540138244629,0.44740235805511475,-9.993281364440918,-0.018928177935418455,-0.03935133801869811,0.0037900674135039492,2.9398698597094146,7.794389617815546,1.0099133914090044
1731474149.689714,-0.348348468542099,0.4309273660182953,-9.968509674072266,-0.01824471172223587,-0.03941303328118265,0.003761083901639859,2.939651696249842,7.809385106017735,1.0063311507621249
1731474149.7397473,-0.3465837836265564,0.4344233572483063,-9.99363899230957,-0.017533470220225132,-0.0393634952662624,0.0037329562626788612,2.939389738429032,7.8243130924621695,1.0077295227575744
1731474149.7896135,-0.35121646523475647,0.43669408559799194,-9.989757537841797,-0.016796845650966282,-0.03920834569209934,0.003705909554901595,2.939084254315872,8.628731363627736,1.0042560900038744
1731474149.839714,-0.3436480164527893,0.4485608637332916,-9.986307144165039,-0.016037305755438033,-0.03895331958039746,0.003680140266403653,2.9387367451299435,8.844804219684978,1.0009986616870996
1731474149.8895714,-0.3596985638141632,0.44395580887794495,-9.989258766174316,-0.015257367799392716,-0.038604288954266534,0.0036557805000353503,2.9383535576087985,8.863339266013856,1.0023481184542253
1731474149.9394937,-0.3440133035182953,0.440993994474411,-9.989282608032227,-0.01445956578722833,-0.03816728676039487,0.0036329049921822064,2.9379316740272445,8.88185596266178,1.003712315099486
1731474149.9894161,-0.3629949986934662,0.4327376186847687,-9.978323936462402,-0.013646414899901458,-0.037648468698649226,0.003611548093426539,2.937476202770919,8.900216934932338,1.0050810088396849
1731474150.0394707,-0.35161831974983215,0.4358040392398834,-9.977865219116211,-0.012820380148167344,-0.037054026355185926,0.003591741049822627,2.936983499370912,9.026690426870017,1.0017029152417498
1731474150.0892787,-0.35161831974983215,0.4358040392398834,-9.977865219116211,-0.011983853962410107,-0.036390111033035896,0.003573569462876037,2.936465556191652,9.04511475248454,1.0030511261754427
1731474150.0892787,-0.3588835597038269,0.44195646047592163,-9.983288764953613,-0.011139156979934306,-0.03566280501312435,0.0035572002897770573,2.936462266494383,9.045228222741553,1.0030594773109542
1731474150.1392915,-0.3525645434856415,0.4376795291900635,-9.988021850585938,-0.010288541070099494,-0.03487812751496184,0.00354285443116347,2.935916187045866,9.063578210622467,1.0044176029312717
1731474150.1892414,-0.3610277473926544,0.4366692900657654,-9.989734649658203,-0.009434174269790315,-0.03404203560604055,0.0035307475324876754,2.9353426912040073,9.145418323610281,1.0010235792234972
1731474150.239233,-0.35390523076057434,0.44004589319229126,-9.980785369873047,-0.008578125582748054,-0.03316040180630214,0.003521043909059724,2.934745518186001,9.163894015227374,1.00237414312069
1731474150.2891834,-0.34808841347694397,0.4356316924095154,-9.990507125854492,-0.007722369544508298,-0.03223898776125882,0.0035138533751109193,2.9341318561530962,9.182171118293423,1.0037248871352549
1731474150.3391497,-0.3495331108570099,0.4318283796310425,-9.987534523010254,-0.006868821969333941,-0.03128341902639599,0.0035092423706734248,2.93349531020071,9.237891944713084,1.0003295353802824
1731474150.3889644,-0.34229859709739685,0.43807172775268555,-9.979005813598633,-0.006019387241039309,-0.03029915045491701,0.0035072348472840625,2.9328481375582705,9.25608090958617,1.0016617401303587
1731474150.4399717,-0.35194361209869385,0.43843650817871094,-9.987793922424316,-0.005175983601926799,-0.029291446189518115,0.0035078288043722903,2.932167850882318,9.297787795048535,0.9983974966751912
1731474150.4899325,-0.3497510850429535,0.43838438391685486,-9.9824857711792,-0.0043405327281511325,-0.028265390118897976,0.003511019829224346,2.9314906110134378,9.331438969341638,0.9953022100106511
1731474150.5399475,-0.3440338671207428,0.4448617100715637,-9.980924606323242,-0.0035149289893735875,-0.027225903569475275,0.003516806381545263,2.9308032047762334,9.349589515970894,0.9966033813939771
1731474150.5898569,-0.3435697555541992,0.4436219334602356,-9.993441581726074,-0.002701031345571838,-0.026177761797389204,0.0035251868391315273,2.9301107235270036,9.367602890927852,0.9979082676189802
1731474150.6397717,-0.3434273302555084,0.4445556402206421,-9.981748580932617,-0.001900682858382334,-0.0251256097317064,0.003536143014445854,2.929410269140454,9.391837760133017,0.9947987672868197
1731474150.6896904,-0.34205594658851624,0.4357181191444397,-9.985618591308594,-0.0011157211030430908,-0.024073954784592427,0.0035496226729842223,2.928709557286941,9.409683991198012,0.9960867112088576
1731474150.7397027,-0.3368449807167053,0.4365089237689972,-9.985532760620117,-0.0003479761969618293,-0.02302712316497658,0.003565549279373875,2.9279997629724326,9.428698713409984,0.9930730344429589
1731474150.7896504,-0.3368449807167053,0.4365089237689972,-9.985532760620117,0.0004007222311799517,-0.021989204508846324,0.003583835173142128,2.927294974833425,9.446460528832338,0.994351524000074
1731474150.7896504,-0.3370206654071808,0.44003918766975403,-9.988101959228516,0.001128534521987605,-0.02096402432248673,0.00360437742976732,2.9272910968401846,9.446558179210735,0.9943585885293397
1731474150.839731,-0.34878137707710266,0.4350849390029907,-9.995030403137207,0.0018336277828798757,-0.019955148014642637,0.0036270411822820507,2.92658866707543,9.461669145215758,0.9914188883154733
1731474150.8894904,-0.34878137707710266,0.4350849390029907,-9.995030403137207,0.0025142387496900134,-0.018965883958264224,0.003651625858126858,2.925896148599124,9.47918757084121,0.9926772262038707
1731474150.8894904,-0.34958556294441223,0.43955448269844055,-9.992443084716797,0.0031687538864433643,-0.01799927505425977,0.0036778318299103938,2.925892618115806,9.479277164256876,0.992683693466614
1731474150.9395454,-0.33814793825149536,0.4347154200077057,-9.992836952209473,0.0037957471380943423,-0.017058099779764073,0.0037052594655034247,2.925204315957922,9.496843450921157,0.9939578918600582
1731474150.9894862,-0.3534073531627655,0.43426117300987244,-9.98823356628418,0.004393963386117013,-0.016144879061618843,0.003733438458357072,2.924526458193031,9.5143621512523,0.9952409031940559
1731474151.0393903,-0.35689619183540344,0.43784937262535095,-9.982269287109375,0.004962315182281454,-0.015261873084929607,0.003761872471987998,2.9238586833421567,9.523108247223254,0.9921877119571907
1731474151.089344,-0.34376397728919983,0.4424741268157959,-9.984296798706055,0.005499922417509432,-0.014411089654776228,0.003790093885680966,2.923205701622726,9.540485010206643,0.993457383220082
1731474151.1394033,-0.34501925110816956,0.4349685609340668,-9.980411529541016,0.006006119109068883,-0.01359431473329702,0.0038177093849611366,2.922561612021924,9.54690087798075,0.9905010828404075
1731474151.1892505,-0.35001081228256226,0.4367660880088806,-9.98748779296875,0.006480404548206229,-0.012813128332034242,0.003844415683533651,2.921940103363319,9.564094625661447,0.9917557410560982
1731474151.2393665,-0.35077399015426636,0.4410512447357178,-9.983784675598145,0.0069224174715347845,-0.01206889669674768,0.003869986627900335,2.9213298756058856,9.581410399682422,0.993031261907402
1731474151.2891529,-0.3346041738986969,0.4414082169532776,-9.978825569152832,0.007331939632249305,-0.011362779839989757,0.00389425631327575,2.9207406779029026,9.598539995476665,0.9900536475006625
1731474151.339152,-0.3532467186450958,0.44168803095817566,-9.982125282287598,0.007708871671984674,-0.010695760970006612,0.003917125262668741,2.9201694111601264,9.615730871156057,0.9913125834951506
1731474151.38902,-0.3444956839084625,0.44681721925735474,-9.989038467407227,0.008053209107762265,-0.010068672674742726,0.003938567676637846,2.9196179525078736,9.632820270879002,0.9884233071105026
1731474151.4390323,-0.3412024676799774,0.45108357071876526,-9.988518714904785,0.00836505074358071,-0.009482224262797807,0.003958600095000835,2.919085304278252,9.650010912480514,0.989675269700303
1731474151.4888942,-0.35135704278945923,0.44728460907936096,-9.988907814025879,0.0086445988853605,-0.00893703744980008,0.003977232165266603,2.9185754307455785,9.667050282603117,0.9868683413613307
1731474151.5399947,-0.3428148031234741,0.43845781683921814,-9.985496520996094,0.008892152395659929,-0.008433655951072132,0.003994444776552376,2.9180759910096676,9.68455707535727,0.9881368150975254
1731474151.589838,-0.35130253434181213,0.43799132108688354,-9.989453315734863,0.009108115518479835,-0.007972500868311291,0.004010197491102306,2.917613174126053,9.701552300829658,0.9893797763070603
1731474151.6397727,-0.34227749705314636,0.4340595602989197,-9.994230270385742,0.00929300221858256,-0.007553803534462957,0.004024431835901903,2.917169457053447,9.718578621316494,0.9865613316480788
1731474151.6898038,-0.345090389251709,0.4354267120361328,-9.992863655090332,0.009447423070170782,-0.007177562146332232,0.004037050063913021,2.916748511128193,9.735712003229068,0.9878075233835681
1731474151.7628806,-0.3515869379043579,0.4293767511844635,-9.992466926574707,0.009572068891516102,-0.006843526412105464,0.004047891409451387,2.916179042136033,9.760494981541726,0.9856315090862123
1731474151.7896523,-0.3438718020915985,0.40278133749961853,-9.977875709533691,0.009667712557946063,-0.006551165585167749,0.0040567456430282475,2.9159834710508727,9.769593784700708,0.9862913071374907
1731474151.839626,-0.3230764865875244,0.15276339650154114,-9.979936599731445,0.009735193350593748,-0.0062993458163839566,0.004063417491406161,2.9156339890543435,9.786590366651367,0.983632496449335
1731474151.8895721,-0.22208143770694733,0.187400683760643,-10.070066452026367,0.009775230978328017,-0.006085383901396548,0.004067720845448075,2.9153125133113433,9.80351464253837,0.9848513088834859
1731474151.939552,-0.3626958727836609,-0.3957504630088806,-10.0033597946167,0.009788079759320882,-0.005903447156192456,0.004069258649685258,2.9150146958394787,9.820463785371834,0.9860831444623502
1731474151.989412,-0.49128592014312744,-0.6028002500534058,-10.101073265075684,0.00977360646255195,-0.0057420675248497375,0.004067133023880149,2.689536929250478,9.837292161678132,0.9833993066814322
1731474152.039409,-0.33004650473594666,0.15001556277275085,-9.991525650024414,0.009732060421369865,-0.005581812887678636,0.004059815258053454,2.5173343811398547,9.854238949218427,0.9808863845849822
1731474152.0893848,-0.42409035563468933,-0.23452405631542206,-9.928579330444336,0.00966464180788313,-0.005395909778891013,0.0040453452880240826,2.515135469646455,9.871169112716997,0.9820944912514914
1731474152.139399,-0.3635537326335907,0.16380023956298828,-9.96257495880127,0.009573361987907134,-0.005153463822884474,0.00402192018364919,2.5129603023055362,9.888088868907008,0.9833129087854784
1731474152.1892323,-0.3265819549560547,0.03705446049571037,-9.926668167114258,0.009460703747192644,-0.004822259324915229,0.003988453122278397,2.510819932205319,9.904909690941698,0.9845350583221829
1731474152.2392316,-0.34383344650268555,0.2610261142253876,-9.951214790344238,0.009329283259105599,-0.0043705942092061726,0.0039447328405931795,2.508692560265155,9.921801408735103,0.9857731072691988
1731474152.2891235,-0.35642221570014954,0.23940710723400116,-9.95168685913086,0.009181551907584481,-0.003768851920252757,0.003891339514042535,2.3692870916881166,9.938582926872416,0.9830539756724972
1731474152.3392637,-0.3735845685005188,0.305618554353714,-9.976515769958496,0.009019769538360582,-0.0029907326822756646,0.003829466437542352,2.3665187729196,9.955521117076362,0.9842873493791512
1731474152.389072,-0.3662432134151459,0.2762035131454468,-9.98367977142334,0.00884616830155447,-0.0020139703970988325,0.0037606643571596304,2.253071940004365,9.972271069505858,0.9819323690831114
1731474152.4390504,-0.3853393793106079,0.2848801612854004,-9.992253303527832,0.008663083191078638,-0.0008205043867542559,0.003686582500015917,2.249812532375733,9.989140493117192,0.98315534186198
1731474152.4890246,-0.3745778203010559,0.2969180941581726,-9.987142562866211,0.008473008679770785,0.0006036928435548722,0.0036087832956343217,2.1557279903559112,10.00596064107363,0.9809907300617381
1731474152.539969,-0.36941108107566833,0.32635197043418884,-10.017279624938965,0.00827859977466495,0.0022688308951381844,0.0035286368664038613,2.1519971652832823,10.023146794108102,0.9822309866515242
1731474152.5898287,-0.3613957464694977,0.32036691904067993,-9.987659454345703,0.00808259906463399,0.004181421266415143,0.00344724465366872,2.1483717447268327,10.039950197153777,0.9834518058451992
1731474152.6398501,-0.3558109700679779,0.3377763330936432,-10.017905235290527,0.007887710730811855,0.0063443827035504306,0.003365396117023329,2.0685186083198936,10.056867703217087,0.9810937341336206
1731474152.6896672,0.11172740161418915,0.9410831928253174,-9.988750457763672,0.00769606411058683,0.008756683785857677,0.003283581300929916,2.064585268110101,10.073602051352136,0.9822979610184853
1731474152.7397246,0.6022413969039917,1.6053311824798584,-9.950591087341309,0.0075070912006166115,0.011410909691496161,0.003202086779573962,1.9961876538822259,10.090587058266227,0.9800150377010424
1731474152.7897217,0.45707929134368896,1.1785728931427002,-9.883322715759277,0.007313763013884047,0.014288826213095601,0.0031212966439908875,1.9919465333759971,10.107510904871026,0.9812192878576046
1731474152.8396256,0.18722468614578247,0.8254978060722351,-10.014012336730957,0.0071000931779183025,0.017359153847828022,0.003042081479402108,1.9877100274037467,10.124528040395004,0.9824350754451636
1731474152.889567,-0.2138817459344864,0.33085402846336365,-10.020838737487793,0.006842633204290769,0.020580851211821034,0.0029657644974076074,1.9835122192635397,10.141506711401485,0.983652221713622
1731474152.939633,-0.84199458360672,-0.42900434136390686,-10.077438354492188,0.006515457974046775,0.023910257526456855,0.002893532460700526,1.9239103757678206,10.158735731919688,0.9812585139343198
1731474152.9894435,-1.1347620487213135,-0.6553553342819214,-10.159132957458496,0.006096683771200628,0.027309161560920982,0.002825717734860711,1.9195311405149091,10.175622240951428,0.982448882989134
1731474153.0395005,-0.5375619530677795,0.026560742408037186,-10.053828239440918,0.005573766930120853,0.03075074262853941,0.002761275976009711,1.9150621665821486,10.192981211299477,0.9798329806745432
1731474153.0893981,-0.6419805884361267,-0.14039817452430725,-10.018117904663086,0.004944453385679405,0.034220191398063454,0.0026977668413600206,1.9106606156873858,10.210213140513162,0.9810216471375187
1731474153.13939,-0.6419805884361267,-0.14039817452430725,-10.018117904663086,0.004214091191049266,0.03771142449625279,0.0026319469521006223,1.9062441157530172,10.227638386475576,0.9822241075196353
1731474153.13939,-0.48468977212905884,0.17504572868347168,-9.904268264770508,0.0033930221094347003,0.04122414317031928,0.0025605330152898677,1.9062163066573152,10.227748539298007,0.9822317090328121
1731474153.1893013,-0.5061772465705872,0.20886747539043427,-9.975037574768066,0.0024950572960650455,0.044761721108534845,0.002480820533587492,1.9018597355663003,10.24507244673473,0.9834264636958886
1731474153.2392278,-0.504601240158081,0.35937514901161194,-9.961531639099121,0.0015361637602245293,0.04832873467876464,0.0023910385828114326,1.8974650132201423,10.262683740122581,0.984639111071123
1731474153.2890863,-0.5235366225242615,0.4285810589790344,-9.942535400390625,0.0005335553665540783,0.05192873770234452,0.0022903303436372312,1.8931035313424605,10.280292812552052,0.9818078748046866
1731474153.3391986,-0.5182399153709412,0.41647854447364807,-9.95583724975586,-0.0004946742346163457,0.05556284800106734,0.0021786099632369604,1.8887046349619403,10.298190521659047,0.9830041140741793
1731474153.3890479,-0.5484158992767334,0.4480695128440857,-9.937871932983398,-0.001529750847392168,0.059229101338125506,0.002056510565123254,1.8843145522394134,10.316182002554346,0.9803391697994704
1731474153.4390175,-0.5478430390357971,0.4370619058609009,-9.939542770385742,-0.002552385685395765,0.06292244820099863,0.0019253472546400584,1.8799110859928605,10.334363538225237,0.9815169742434223
1731474153.4889638,-0.5263280868530273,0.4694240391254425,-9.992203712463379,-0.0035429406225357058,0.06663503490878708,0.0017870178448729126,1.875504781763363,10.352683682499679,0.9789506689732358
1731474153.5389593,-0.5467596054077148,0.46723413467407227,-9.985711097717285,-0.004481682198349401,0.07035650131837917,0.0016437579324194971,1.8710910783885433,10.371167417395407,0.980108507339553
1731474153.5898702,-0.551529049873352,0.4757702946662903,-9.996859550476074,-0.0053490654217675775,0.0740742643477752,0.001497807116859357,1.8665810968861118,10.39018314327822,0.9776391389854079
1731474153.6398945,-0.5152885317802429,0.4587487578392029,-9.976001739501953,-0.006125954632057993,0.07777384601224258,0.0013512078026808095,1.8621197394244344,10.409128667102502,0.9787836115144933
1731474153.6898081,-0.5710768699645996,0.47691261768341064,-10.003650665283203,-0.006793835604937059,0.08143927110527378,0.0012057788072335636,1.8576753553338263,10.42812818638578,0.9763700763080175
1731474153.7397523,-0.525538980960846,0.48766395449638367,-9.994609832763672,-0.007335000338445865,0.08505344310879484,0.00106311552603844,1.8532052677445536,10.447369448911251,0.9740987737546255
1731474153.789613,-0.5084438323974609,0.5185731053352356,-9.965476989746094,-0.007732710168411188,0.08859838855078886,0.0009245794094776391,1.8487215546546452,10.466808486318502,0.9751942785498483
1731474153.8396065,-0.5292466878890991,0.4623800218105316,-9.98769760131836,-0.00797145031537936,0.09205542875875483,0.0007913693054130499,1.84420079795463,10.486548786278636,0.9762961834878414
1731474153.88953,-0.48913973569869995,0.46731847524642944,-9.979022026062012,-0.008037189033011285,0.09540549078950661,0.0006646229853659123,1.839672673231726,10.506467813280402,0.9773968351419536
1731474153.9395475,-0.4685397744178772,0.5056860446929932,-9.99309253692627,-0.007917576081807851,0.09862954275328063,0.0005454222143490591,1.8351073522430075,10.52670132154977,0.9750085005068593
1731474153.9894257,-0.45702219009399414,0.4998912811279297,-9.956080436706543,-0.007602188945896722,0.10170886053631317,0.0004347611914898757,1.8305488920118331,10.547067825804753,0.9727457941033648
1731474154.0394197,-0.4022035002708435,0.5028836131095886,-9.970311164855957,-0.00708281322598648,0.10462509256333488,0.000333599953521096,1.8259530098128418,10.567781476907456,0.9738033299164325
1731474154.089314,-0.42270535230636597,0.48164358735084534,-9.983999252319336,-0.006353685106436802,0.10736037648062813,0.0002429471259601505,1.8213574236005985,10.588682093524836,0.9748576694901223
1731474154.1392968,-0.38456615805625916,0.5007065534591675,-9.960416793823242,-0.0054116390018249085,0.10989757744192971,0.000163851155691184,1.8167190808946223,10.609982314459364,0.9759189472980437
1731474154.1892097,-0.3837924003601074,0.4896668791770935,-10.00211238861084,-0.004256124821883067,0.11222051525672803,9.733156578746498e-05,1.8121022367215118,10.631404662531194,0.9769728805524431
1731474154.2391903,-0.3806689977645874,0.47306615114212036,-10.001392364501953,-0.0028891464365928027,0.11431413318220376,4.428053262130427e-05,1.8074436713204554,10.653262670350916,0.9780344748095683
1731474154.2891269,-0.5227342247962952,0.9770021438598633,-9.972333908081055,-0.0013149999836000402,0.1161642310990571,5.340627913500668e-06,1.8028003762773686,10.675307092337807,0.975491007513793
1731474154.3391964,-0.6536251306533813,1.1910713911056519,-9.957026481628418,0.0004605562262443401,0.11775573210266096,-1.90794411752664e-05,1.7981378460691002,10.697735552871073,0.9765261987656736
1731474154.389024,-0.5680765509605408,0.5152410864830017,-9.884139060974121,0.002431597494065199,0.11907031694855552,-2.8540212925458997e-05,1.7934945619214084,10.720384441782894,0.9775578582469522
1731474154.438984,-0.8518714904785156,1.0223649740219116,-10.114818572998047,0.004593148371102065,0.12008630299780847,-2.2347756880866346e-05,1.7888721274688446,10.743265784507019,0.9749994311315324
1731474154.4890203,-0.5428992509841919,0.5303182005882263,-9.948053359985352,0.006941836276429628,0.12078061695654997,1.8498900331355206e-07,1.7842302167349204,10.76662233606198,0.9760100739056163
1731474154.4890203,-0.5428992509841919,0.5303182005882263,-9.948053359985352,0.009475776381561694,0.1211307341614795,3.9352544999184344e-05,1.782772003547119,10.774042358222973,0.976328419416536
1731474154.8706543,-0.253031849861145,0.3442539572715759,-9.981415748596191,0.012193241675239608,0.12111666892653089,9.520797884175565e-05,1.749837926450405,10.954363757070343,0.9734913492833255
1731474154.9205117,-0.23775433003902435,1.9156547784805298,-9.855184555053711,0.015090602962354495,0.12072161471111875,0.00016797388831972087,1.7454447827945438,10.980398469996684,0.9710650990888615
1731474154.9705315,-0.4001409411430359,0.5899046659469604,-9.77047061920166,0.018160765121751302,0.11992888327417535,0.0002585028807951212,1.7411604681058888,11.006335220784774,0.9719719716949371
1731474155.020408,-0.1947299689054489,1.112312912940979,-10.022409439086914,0.021392908074322495,0.11871882530541022,0.0003687988477734819,1.7368509382065198,11.033018907490204,0.9696121827696939
1731474155.0704117,-0.1947299689054489,1.112312912940979,-10.022409439086914,0.024772863063134677,0.11706956723721614,0.000501780105199636,1.7326721460658874,11.059544734123506,0.9704978376226946
1731474155.0704117,-0.21322882175445557,0.8714746236801147,-10.088143348693848,0.028283136037400222,0.1149586463000085,0.0006600909898667622,1.7326452828364214,11.059717446889639,0.970503577021515
1731474155.1203022,-0.2239534556865692,0.9041865468025208,-9.905142784118652,0.03190298080800448,0.11236382175537164,0.0008451930576188957,1.728465622777565,11.086995040383343,0.9714063455329549
1731474155.1704328,-1.3943976163864136,-0.5810168385505676,-10.084527969360352,0.03561003265991913,0.10926567651094908,0.0010574239764949258,1.7244569284644584,11.113970338511258,0.9722924300802263
1731474155.2202253,-0.5982986688613892,0.3721615672111511,-10.063822746276855,0.039384336181373464,0.10565293374022573,0.001296268960321674,1.720389969656644,11.142264377611724,0.973215784467636
1731474155.2702136,-0.46314603090286255,0.03619835898280144,-10.011496543884277,0.04321151138077439,0.10152669463132569,0.001560230165940802,1.716636862275367,11.169311614050306,0.9706567868622191
1731474155.320184,-0.5183843374252319,0.10595713555812836,-10.015792846679688,0.04708148627700693,0.09690022389086723,0.0018467908397341707,1.7127786717292712,11.198215132999255,0.971566047213754
1731474155.3702235,-0.11161405593156815,0.15249505639076233,-10.028287887573242,0.0509851810207236,0.09179673240196687,0.0021527515160426605,1.7092523147424716,11.225742400629576,0.9690898522079984
1731474155.4200754,-0.11161405593156815,0.15249505639076233,-10.028287887573242,0.05491202687845166,0.0862477486350781,0.0024744951070169814,1.7057422656463186,11.254393833821405,0.9699638375796203
1731474155.4200754,0.01588253118097782,0.03391246125102043,-10.020575523376465,0.058848019659594006,0.08029172291182538,0.0028080513461775903,1.7056633213655876,11.25505400916401,0.9699839713442412
1731474155.469965,-0.25383296608924866,0.3448643088340759,-9.974748611450195,0.0627747198281105,0.0739727525361989,0.0031492068860630483,1.7024097055858052,11.282983222648895,0.9708368063902283
1731474155.5198517,-0.10165785253047943,0.2227284014225006,-9.922452926635742,0.06666987671718505,0.06733908376645475,0.0034938259303379524,1.6992288081683598,11.311821105793554,0.9717202453226012
1731474155.5699394,-0.1839110553264618,0.4192267656326294,-9.99095344543457,0.07050876086054642,0.06044118931120509,0.003838282861304286,1.696192503297082,11.341059492909947,0.9692153516119696
1731474155.6198208,-0.19280876219272614,0.3612631559371948,-9.950533866882324,0.07426515509927062,0.05333006536022017,0.00417966778783532,1.6932622674588107,11.371269144334402,0.9701263710439422
1731474155.6698928,-0.00384950777515769,0.6912849545478821,-9.922014236450195,0.07791189313401281,0.046055772241942884,0.004515741074438386,1.6906982083168944,11.399704778154966,0.9676968840769066
1731474155.7207956,0.744889497756958,1.6483407020568848,-9.939879417419434,0.08142019941988446,0.03866483856294339,0.004844962419871234,1.6881836923659972,11.429955704159111,0.9654917870590813
1731474155.770732,0.3141680657863617,1.1341841220855713,-10.00156307220459,0.0847570956059129,0.03119568083622908,0.005166520736789586,1.6859667359242663,11.459227048962184,0.966355261125283
1731474155.8206358,-0.22723086178302765,1.8611536026000977,-9.893811225891113,0.08788381608166354,0.023674420183217425,0.005480151035249117,1.683885764131656,11.489733271638691,0.9672668929912087
1731474155.8706558,-0.4820658564567566,1.1263463497161865,-9.909140586853027,0.09075886840804964,0.016113649167258277,0.005786057417876808,1.682138724407754,11.518568812343121,0.9681408075838446
1731474155.9206085,-0.49431735277175903,1.4234706163406372,-9.892594337463379,0.09334377593038906,0.0085139023797472,0.006085142585730102,1.618758846179837,11.548225487994937,0.9658615416190122
1731474155.970523,-0.07631285488605499,0.5004467964172363,-10.070384979248047,0.09560659497659094,0.0008671800839018784,0.0063790396835665016,1.5690056221594162,11.577854111842708,0.9637454716088816
1731474156.0204434,-0.24069371819496155,-0.35270124673843384,-10.206377029418945,0.09752158214551218,-0.006837055174317025,0.006669350428603988,1.5673880336553434,11.607557798062262,0.9646473973117639
1731474156.0704284,-0.6625279188156128,-0.9579870700836182,-10.202309608459473,0.09906773237187617,-0.014603043775214293,0.0069562305003885265,1.5660146161276258,11.637259343076927,0.9655670876878272
1731474156.1203353,-0.7205891013145447,-0.26662561297416687,-10.021163940429688,0.10022947220294806,-0.022420279799047007,0.007237424672683327,1.5648918515365187,11.666865538098602,0.9665029429392492
1731474156.170457,-0.539745032787323,-0.3440362215042114,-10.02015209197998,0.10099876915040912,-0.03026098608492967,0.007508683940503634,1.5249572026472806,9.928112802265975,0.9643623861731117
1731474156.220292,-0.539745032787323,-0.3440362215042114,-10.02015209197998,0.10137563176951345,-0.03808344742156679,0.007764993522572875,1.5241584220843551,9.948823626158399,0.9653089048834439
1731474156.220292,-0.7099660634994507,-0.18074804544448853,-9.97559928894043,0.10136688098525236,-0.04583619596301865,0.008001454879228294,1.5241544831997413,9.94894453780221,0.9653144996988561
1731474156.270222,-0.4648881256580353,-0.01231425255537033,-9.95477294921875,0.10098505448831743,-0.05346112302000836,0.008213680945348474,1.4915648312290923,8.765468588839328,0.9632425909599381
1731474156.320121,-0.6345815658569336,0.11943099647760391,-9.89240837097168,0.100247638786221,-0.060896689173861956,0.00839815495554061,1.4911087893887454,8.780647322988495,0.9642235108804798
1731474156.370157,-0.4727819561958313,0.4156271815299988,-9.890789985656738,0.0991760806567411,-0.06808142852156289,0.008552652828851159,1.4642659900076114,7.871919381964974,0.9622339993382166
1731474156.419992,-0.4746846556663513,0.4383656084537506,-9.960733413696289,0.09779474464967178,-0.07495727354101468,0.008676483702163083,1.4641814932028672,7.882395956104711,0.9632298973431384
1731474156.4700122,-0.4082532823085785,0.4868992269039154,-9.922954559326172,0.09612984072265543,-0.08147217319783898,0.008770316366245326,1.4643402157762724,7.892677332297883,0.9642477730581543
1731474156.5199811,-0.4082532823085785,0.4868992269039154,-9.922954559326172,0.09420835858135784,-0.08758141008443135,0.008835801955210614,1.4418591824628935,7.164267682330034,0.9622903681617447
1731474156.5199811,-0.42095184326171875,0.46034306287765503,-9.94420051574707,0.09205731416417921,-0.09324776676163535,0.008875355391993939,1.4418617532669369,7.164309203277732,0.9622968955353013
1731474156.5699735,-0.3570947051048279,0.568742036819458,-9.979055404663086,0.08970333394076385,-0.09844121517107972,0.008891990233605764,1.4423783783074993,7.170713551813045,0.9633342393528329
1731474156.6198468,-0.35170891880989075,0.5658196806907654,-10.006991386413574,0.0871723174864682,-0.10313868075894497,0.008888973620114784,1.423527500208674,6.57947997806346,0.9614562067149125
1731474156.6698449,-0.35522300004959106,0.5524300336837769,-9.985919952392578,0.08448905817423172,-0.10732395754242957,0.008869414013099463,1.4243883575559773,6.582636462365171,0.9625217120625099
1731474156.7197773,-0.35522300004959106,0.5524300336837769,-9.985919952392578,0.08167700277323658,-0.11098740496862969,0.008836038216339203,1.4254487575521928,6.585497003813767,0.9636007973703657
1731474156.7197773,-0.3219449818134308,0.549161434173584,-9.999293327331543,0.07875819877564874,-0.11412533407969175,0.008791194492293318,1.425456589453595,6.58551535128125,0.9636081441392553
1731474156.7707493,-0.28970977663993835,0.5290778875350952,-9.999696731567383,0.07575320226652876,-0.11673933182448247,0.008736890936774216,1.4267380773493692,6.588137431153417,0.9647297363257946
1731474156.8206139,-0.3143123984336853,0.5126650929450989,-10.002466201782227,0.07268087787360789,-0.11883559425635962,0.008674771829477936,1.4105543860968954,6.088637465116622,0.9628471939863085
1731474156.870688,-0.2599155902862549,0.5240530371665955,-9.9974946975708,0.0695582556567345,-0.12042425642788201,0.008606102509546349,1.3967836436032612,5.6728411940893295,0.961090288828117
1731474156.9205627,-0.2969132363796234,0.4891177713871002,-9.995007514953613,0.06640050117137282,-0.12151879207676027,0.008531807926126315,1.398389082745162,5.670339616606597,0.9621962846445268
1731474156.9705002,-0.2292598932981491,0.49995648860931396,-10.004132270812988,0.0632209181150737,-0.12213548556259768,0.008452534540993494,1.3864981331724233,5.315362038829371,0.9605156394675547
1731474157.0204966,-0.2579132318496704,0.4924958348274231,-10.007848739624023,0.06003093598505456,-0.12229294860089111,0.008368681358302762,1.3883869804932119,5.310563903468555,0.9616686238098009
1731474157.0704823,-0.24598565697669983,0.4703907370567322,-10.037233352661133,0.05684011880825477,-0.12201170402748363,0.008280360892775753,1.390420984016648,5.30546278542281,0.9628418220074848
1731474157.1203732,-0.2604096531867981,0.4892358183860779,-9.96359920501709,0.05365629263495645,-0.12131381214775129,0.008187355025400671,1.39258698563835,5.300072709731934,0.9640323051358393
1731474157.1703653,-0.2412901222705841,0.49372807145118713,-10.008519172668457,0.05048576803804894,-0.12022255883118198,0.00808921610418653,1.382014566086373,5.294334644185888,0.9622985810215946
1731474157.2202988,-0.25269076228141785,0.49582356214523315,-9.967084884643555,0.04733353304302727,-0.1187622659940184,0.00798547533973697,1.3729593703845986,5.288358173334952,0.9607068394319899
1731474157.2702527,-0.29472479224205017,0.49913355708122253,-9.967273712158203,0.04420344433941991,-0.11695815844851368,0.007875801271478855,1.375385834732048,5.282035650026959,0.9619244551394389
1731474157.3201697,-0.2970694601535797,0.489962100982666,-10.00029182434082,0.04109854278165919,-0.1148361956308913,0.007760085772384164,1.37789470100643,5.275486630668073,0.9631497000867263
1731474157.370167,-0.34497785568237305,0.48454904556274414,-9.985206604003906,0.038021471860233,-0.11242285288409742,0.007638419149028885,1.3805177345586706,5.268613739544919,0.9644017403909569
1731474157.4200604,-0.34497785568237305,0.48454904556274414,-9.985206604003906,0.034974879940060155,-0.10974487164619012,0.007510976981760319,1.3721074842348302,5.26148351641839,0.9627089621863486
1731474157.4200604,-0.33604687452316284,0.4833928644657135,-9.957088470458984,0.03196170984826935,-0.10682902735891431,0.007377998033197656,1.3722262236055471,5.261163091096969,0.9627643065402495
1731474157.4700716,-0.3997398614883423,0.48361581563949585,-10.031452178955078,0.028985341813142496,-0.10370194847208743,0.007239835713488883,1.3748484944400186,5.2540564516158845,0.9639789648516653
1731474157.5199513,-0.34380197525024414,0.5006750226020813,-9.992836952209473,0.02604968108007779,-0.100389988828156,0.007096874012038936,1.3674550823199858,5.246210233541224,0.9623726538072701
1731474157.570007,-0.40116724371910095,0.47793707251548767,-9.987176895141602,0.023159211247458455,-0.09691914288505372,0.006949367095203568,1.3702049361927424,5.2384732999823775,0.963625858464655
1731474157.6199002,-0.3695700168609619,0.49243950843811035,-9.979872703552246,0.020318964578888515,-0.09331495037157317,0.006797453736068563,1.363735797406393,5.23023281102393,0.9620543542975312
1731474157.6698487,-0.41193339228630066,0.5345649719238281,-9.984530448913574,0.017534479336377178,-0.08960241378208625,0.00664130240559605,1.3665670995912607,5.2219563662749735,0.9633337611613595
1731474157.7197323,-0.39578092098236084,0.5249258279800415,-9.9964017868042,0.014811786767670957,-0.08580604748184205,0.006481176455419234,1.3606645342183343,5.213369793021144,0.9617921486419261
1731474157.7697887,-0.4148857295513153,0.5152393579483032,-10.009360313415527,0.01215739184258046,-0.08194997311818453,0.006317373092733144,1.3635637825797207,5.204548216173615,0.9631016187127275
1731474157.8206913,-0.38384121656417847,0.5252273082733154,-9.947656631469727,0.00957819846181034,-0.07805786331916935,0.0061501538402932935,1.358494732725823,5.195160266628302,0.9616746814672213
1731474157.8705866,-0.37471675872802734,0.512197732925415,-9.963825225830078,0.007081321724080358,-0.07415277462872043,0.005979841688188677,1.361324005974892,5.1861853664273605,0.9629605255256498
1731474157.9205194,-0.39332878589630127,0.548274040222168,-9.980907440185547,0.004673828214730606,-0.07025702073570099,0.005807014062483948,1.3642900952389525,5.176640834587373,0.9643167276269247
1731474157.970504,-0.3940364420413971,0.5331264734268188,-9.951216697692871,0.002362564017787825,-0.06639213780527367,0.005632549475651381,1.3671796254743402,5.167201731397663,0.9656480768837546
1731474158.0204077,-0.3720216453075409,0.5273372530937195,-10.012054443359375,0.00015410455609471115,-0.06257887547999831,0.0054575320200398,1.3701392506705379,5.157381294451412,0.9670242604373115
1731474158.070431,-0.36154696345329285,0.5203379988670349,-9.981355667114258,-0.0019453384389720738,-0.058837098146443015,0.005283102994959971,1.3645973576651451,5.147671951157198,0.965320300768967
1731474158.1203873,-0.33269548416137695,0.5211107134819031,-9.980409622192383,-0.003930133604934362,-0.055185612389820754,0.005110315127449925,1.3675323327937705,5.137446234923278,0.9667158183015272
1731474158.170318,-0.3207956552505493,0.5135068893432617,-9.99845027923584,-0.005795498055245735,-0.05164202263774432,0.004940095454713751,1.3626482306473147,5.1275292740239555,0.9650444029225355
1731474158.2202368,-0.30687013268470764,0.5224953889846802,-9.994780540466309,-0.007537738001370191,-0.048222642192294184,0.004773253288522992,1.3583908310286426,5.117011240752726,0.9635529259555505
1731474158.2701979,-0.3119085729122162,0.5182780623435974,-9.960308074951172,-0.009154398177912922,-0.044942451553700476,0.004610466541844136,1.3610733144740892,5.106861002135851,0.9648823695830141
1731474158.3202002,-0.3232634663581848,0.5220323204994202,-9.994431495666504,-0.010644269526633842,-0.041815094514466945,0.004452342406926557,1.363844454225529,5.096169890259186,0.9662797398590152
1731474158.3702445,-0.28144803643226624,0.5371149778366089,-9.997028350830078,-0.012007298012822127,-0.03885290064942738,0.004299478098868976,1.3594900308457456,5.085784728620904,0.9646794011645269
1731474158.4200966,-0.28144803643226624,0.5371149778366089,-9.997028350830078,-0.013244548225986206,-0.036066948361880416,0.004152388150045369,1.3621134338626892,5.0750916674984285,0.9660519271166425
1731474158.4200966,-0.31811031699180603,0.5085797905921936,-9.998974800109863,-0.014358223782225774,-0.03346712257619521,0.0040114020225846345,1.3621703785859403,5.074857044227902,0.9660820293813112
1731474158.4701083,-0.2963423728942871,0.5248386859893799,-9.973089218139648,-0.015351552037318285,-0.031062073991425562,0.0038766628752883725,1.3581045166459869,5.064331881578814,0.9644884224201394
1731474158.5199509,-0.2963423728942871,0.5248386859893799,-9.973089218139648,-0.016228563970012454,-0.02885914015464732,0.0037482325392890667,1.3606033294097304,5.05353763044933,0.9658520098635724
1731474158.5199509,-0.2880183458328247,0.5108221173286438,-10.006240844726562,-0.016993971877279933,-0.0268643415823401,0.0036262040160949154,1.360620264929674,5.053463630821618,0.9658613587724046
1731474158.5699735,-0.2980497181415558,0.49068212509155273,-9.973512649536133,-0.017653129310576186,-0.025082379766546366,0.003510695191916055,1.3630822604981692,5.042578076087105,0.9672370365250601
1731474158.6198955,-0.31672346591949463,0.5230117440223694,-9.992152214050293,-0.01821193311075603,-0.02351657707143215,0.0034017869124008233,1.3655230620765615,5.031524984289955,0.9686348594115081
1731474158.6698563,-0.3087119460105896,0.5085582733154297,-10.039146423339844,-0.018676636012199772,-0.02216888596428649,0.003299473403501154,1.3612138011702302,5.020530140224224,0.96694284213983
1731474158.719787,-0.37044280767440796,0.5171928405761719,-9.983965873718262,-0.01905360917768514,-0.021040010061615003,0.003203541120713201,1.3635065841486267,5.009443018642043,0.968325295034657
1731474158.769825,-0.35450124740600586,0.50801682472229,-9.950888633728027,-0.01934905224702788,-0.020129516281379926,0.0031135375721292238,1.359531244376136,4.998349170857748,0.9666636800266194
1731474158.8206687,-0.3457523584365845,0.5308553576469421,-10.02107048034668,-0.019568731786748526,-0.019435909142433892,0.00302897848331856,1.3617373478352774,4.986929413943404,0.968068346196736
1731474158.8708599,-0.3598632216453552,0.5240755081176758,-9.973990440368652,-0.01971790799227218,-0.01895673783061556,0.0029494810059580963,1.3638618155784348,4.975624269236994,0.9694605149534868
1731474158.9206185,-0.37419551610946655,0.5006221532821655,-9.971975326538086,-0.019801371936661274,-0.01868870488212627,0.0028747123186800496,1.3659087966522065,4.9644241722120865,0.9708412207964173
1731474158.970634,-0.3892771303653717,0.5268489718437195,-10.022506713867188,-0.019823400253463276,-0.018627691666828403,0.0028043775401834603,1.3616649707673172,4.9531348362753365,0.9690493457282514
1731474159.0204418,-0.42074161767959595,0.5047159194946289,-9.953629493713379,-0.019787614087041345,-0.018768756931064307,0.002738213273137594,1.3635914860551754,4.941766496035637,0.970430501064022
1731474159.0705018,-0.42074161767959595,0.5047159194946289,-9.953629493713379,-0.019696810092599576,-0.019106172888954935,0.002676009223724417,1.3598354207278585,4.930375812146176,0.968689116343268
1731474159.0705018,-0.4061630666255951,0.5313308238983154,-9.978107452392578,-0.019552861162783645,-0.01963347222997714,0.0026177708169051687,1.3598443978584944,4.930319456507504,0.9686958602734088
1731474159.1203768,-0.4061630666255951,0.5313308238983154,-9.978107452392578,-0.01935679243390448,-0.020343559913769342,0.0025637991520646884,1.3563815734592248,4.918897255266397,0.9670528194083617
1731474159.1203768,-0.40526318550109863,0.5140536427497864,-10.022367477416992,-0.019108981586033476,-0.02122888555846335,0.0025145310183647663,1.3563921568368291,4.918827546527843,0.9670610320678633
1731474159.170345,-0.3965300917625427,0.502784788608551,-9.966509819030762,-0.01880934953313329,-0.022281512496546838,0.0024703141573801306,1.3581054096761622,4.907361155419839,0.9684117412682682
1731474159.2203305,-0.38581791520118713,0.508468508720398,-9.955740928649902,-0.018457524052872074,-0.023493055229786685,0.0024313640487765376,1.3597864508513327,4.8957407441747804,0.9697799785807952
1731474159.2702694,-0.3934820294380188,0.535594642162323,-9.982986450195312,-0.018053006125247947,-0.024854660984913967,0.0023979350930218362,1.3614164708220546,4.884096690660191,0.9711499196159067
1731474159.3201983,-0.35386738181114197,0.5342658758163452,-9.970437049865723,-0.017595329732885783,-0.026357151695241134,0.0023704412836036493,1.3578403580159686,4.872454217440181,0.969359864107553
1731474159.3701587,-0.3599652647972107,0.5136325359344482,-9.988588333129883,-0.017084242027014043,-0.02799121406405878,0.0023493947529384315,1.3593513494451797,4.860694406176744,0.970717111461548
1731474159.4200087,-0.32312655448913574,0.5253065824508667,-10.006949424743652,-0.01651991943769026,-0.029747464570500474,0.002335278915749468,1.3560353822667146,4.848814494023848,0.9689699483290933
1731474159.4701254,-0.32851725816726685,0.5242536067962646,-9.958294868469238,-0.015903169852613183,-0.03161642680650418,0.002328443610012337,1.3574394046799572,4.836883904514519,0.9703189851572933
1731474159.5200732,-0.32851725816726685,0.5242536067962646,-9.958294868469238,-0.015235559530180437,-0.033588551706652744,0.0023291388527579564,1.3588006676361783,4.824905929230441,0.9716699988291031
1731474159.5200732,-0.2989529073238373,0.5134327411651611,-9.978981018066406,-0.014519442930189388,-0.03565426390051557,0.002337683930384533,1.358808792356623,4.824833169017802,0.9716781944993537
1731474159.5699933,-0.2976040542125702,0.528435468673706,-10.035711288452148,-0.013757974557733699,-0.03780397888090562,0.0023544813810654425,1.3601277119674229,4.812822080228212,0.9730287587892307
1731474159.6201284,-0.2584826648235321,0.5214108228683472,-9.999695777893066,-0.012955181462040645,-0.040028129098210956,0.002379755119859059,1.356735486609871,4.800593393169606,0.9711255237686082
1731474159.6698892,-0.29298895597457886,0.5123870372772217,-9.98195743560791,-0.012116041002148529,-0.042317210715862225,0.0024133346681659376,1.3579696091039108,4.7883193628230085,0.9724715546558804
1731474159.7198591,-0.2805013358592987,0.5189118385314941,-9.997715950012207,-0.011246439321148353,-0.044661798245958784,0.0024547328998821933,1.3591786550505036,4.775895134891857,0.9738282118717305
1731474159.7697053,-0.25231388211250305,0.526025652885437,-9.983038902282715,-0.010353018567725606,-0.047052550387583686,0.002503325394364886,1.3559032961159723,4.7635136857566405,0.9718483037094584
1731474159.8196115,-0.2625800669193268,0.5331252813339233,-9.989421844482422,-0.009443079089493885,-0.04948027769387604,0.002558432080549039,1.3570535796577283,4.750641042662011,0.9732161353932717
1731474159.870672,-0.25197145342826843,0.5226522088050842,-10.016423225402832,-0.008524552363954642,-0.051936044397687633,0.002619320548927177,1.3581643570412296,4.737826907369937,0.974570653455689
1731474159.9206076,-0.2829984724521637,0.5082409381866455,-9.991646766662598,-0.0076058948296939925,-0.05441120586456533,0.002685148015812609,1.359252676142493,4.7249048851756745,0.9759291258942502
1731474159.9705005,-0.28480449318885803,0.5353925824165344,-9.947487831115723,-0.006695851554818609,-0.05689737054039899,0.0027549578432881313,1.3560157069441225,4.711905636195533,0.9738280551425188
1731474160.0204332,-0.2747306227684021,0.5366898775100708,-10.02096939086914,-0.005803178680775847,-0.05938641107443395,0.00282782853590409,1.3532954347605137,4.697571771326634,0.971984775992414
1731474160.0705328,-0.2890772521495819,0.5572153329849243,-9.990310668945312,-0.004936449810555649,-0.06187059372848964,0.0029029430656602917,1.354200573135473,4.68539115432286,0.9731979456063828
1731474160.120394,-0.30816128849983215,0.5108066201210022,-9.969518661499023,-0.004103928189647641,-0.06434270341654351,0.0029794942753568277,1.3551804900035131,4.671908838432617,0.9745327700938151
1731474160.1703773,-0.3075338900089264,0.5318730473518372,-9.989680290222168,-0.003313394684101155,-0.06679601604708515,0.003056688714812858,1.35614922847081,4.658290285647277,0.9758724424747499
1731474160.220353,-0.3075338900089264,0.5318730473518372,-9.989680290222168,-0.002571970167775897,-0.06922418190199436,0.003133836498638704,1.3532969633979484,4.644423687596094,0.973786653566872
1731474160.220353,-0.3376113772392273,0.514896035194397,-9.994827270507812,-0.0018860059721060437,-0.07162117570635597,0.0032103318679554864,1.3533025895666224,4.644340211892854,0.9737946352961964
1731474160.2703774,-0.34983736276626587,0.5286862254142761,-9.962014198303223,-0.0012609669067939668,-0.07398128971079418,0.0032856042860369417,1.3542364648624694,4.630368280648047,0.9751258578960349
1731474160.3201654,-0.3544542193412781,0.5517596006393433,-9.99022388458252,-0.0007012629931824833,-0.07629914013718925,0.0033591663780385907,1.3516706249397288,4.61627881169504,0.9730773819052576
1731474160.370143,-0.3516252934932709,0.5374683141708374,-9.990341186523438,-0.0002101375786335404,-0.07856975817822968,0.0034306640951086032,1.3492832225132767,4.601907021571048,0.9711719232932687
1731474160.4202018,-0.35329899191856384,0.519231379032135,-9.9598970413208,0.0002103154599507204,-0.08078867329346401,0.0034998491547510073,1.3501751706049465,4.587324902137568,0.9724840152300697
1731474160.4702244,-0.3345542550086975,0.5284436941146851,-9.966591835021973,0.0005590397198368443,-0.08295185125596069,0.003566597254964454,1.351072432843818,4.572465740838345,0.9738113894108879
1731474160.5200076,-0.3611922562122345,0.5078816413879395,-10.020652770996094,0.0008358683671358952,-0.08505556412503482,0.0036309569887498674,1.3519662962718062,4.557481678108621,0.9751401558386856
1731474160.570008,-0.3498118817806244,0.5143244862556458,-10.008946418762207,0.0010414173310062523,-0.08709629670475497,0.0036930129826425713,1.349539999427913,4.54230230670458,0.973119482342357
1731474160.6198819,-0.33152875304222107,0.5191381573677063,-9.96742057800293,0.0011770183207146822,-0.08907069772853032,0.0037526711018601175,1.3504152023337888,4.526935611773659,0.974438190505783
1731474160.6699362,-0.3189314603805542,0.520063042640686,-9.994635581970215,0.0012445736352150495,-0.09097559324327849,0.00380967479585791,1.3481769692383265,4.511288648317766,0.9724829904754326
1731474160.7198498,-0.31146132946014404,0.49782794713974,-9.991044998168945,0.0012463178756121887,-0.0928080254004183,0.0038637563149672934,1.3490495534752307,4.495275101634582,0.9738133065575837
1731474160.7696915,-0.27925825119018555,0.5191643238067627,-9.976333618164062,0.001184579245021773,-0.09456523887421661,0.003914681750108903,1.3469313979643927,5.1512274836811045,0.971888718767656
1731474160.8196826,-0.26903486251831055,0.5131709575653076,-9.989280700683594,0.0010615481493040785,-0.09624466131301021,0.003962249951496208,1.347786067083995,5.1388512938845485,0.9732075381470227
1731474160.8696597,-0.2614664137363434,0.5186227560043335,-10.001703262329102,0.0008790536984751773,-0.09784394737197732,0.004006301349687857,1.3458152726979768,5.467407590539345,0.9713612351326624
1731474160.9207711,-0.2614664137363434,0.5186227560043335,-10.001703262329102,0.0006384287774393109,-0.09936104053034413,0.00404665666793899,1.346675189017709,5.455931554336257,0.9727068764657203
1731474160.9207711,-0.2740640342235565,0.5009732246398926,-9.956851959228516,0.0003405112332407833,-0.1007941915990657,0.004083063673831344,1.3466797759659124,5.455869700810712,0.9727140757841831
1731474160.9705622,-0.274027019739151,0.5083372592926025,-10.000702857971191,-1.4244762258418123e-05,-0.1021419191544897,0.004115278582842132,1.3448482074121366,5.712803552008916,0.9708969067099775
1731474161.02048,-0.274027019739151,0.5083372592926025,-10.000702857971191,-0.0004256168838718113,-0.10340295363110759,0.004143142749346386,1.3433185839059727,5.916252212298482,0.9691976468494824
1731474161.02048,-0.2422710508108139,0.5382094979286194,-10.02502155303955,-0.0008935267571769258,-0.10457625618763161,0.004166476781429623,1.3433230937893943,5.916199112427417,0.9692048697115224
1731474161.070523,-0.2966766655445099,0.5066756010055542,-9.966814994812012,-0.0014180334643833221,-0.10566112031098722,0.004184935764632311,1.344126101980793,5.906592207528034,0.9704989650035111
1731474161.1204453,-0.2966766655445099,0.5066756010055542,-9.966814994812012,-0.0019992471534200367,-0.10665722037409614,0.004198079784048757,1.3449273935318302,5.896691041599176,0.9718075640878822
1731474161.1204453,-0.24885393679141998,0.5543649792671204,-9.974495887756348,-0.0026371423362063343,-0.10756457557129978,0.004205616045750403,1.3449315100476151,5.896639328267004,0.9718143349920062
1731474161.1704516,-0.2737577557563782,0.5325854420661926,-10.017370223999023,-0.0033315190043769196,-0.10838360151877086,0.004207504525724404,1.3457244941913322,5.886490345568359,0.9731307137408891
1731474161.2202854,-0.2737577557563782,0.5325854420661926,-10.017370223999023,-0.0040821079805984485,-0.10911523540719495,0.0042037802449591405,1.3440178009842114,6.058570083919072,0.9713035058099719
1731474161.2202854,-0.2906055152416229,0.5151991844177246,-9.989680290222168,-0.004888563560811038,-0.10976092446008434,0.004194310949250546,1.3440219507785898,6.0585174297509505,0.9713106312312413
1731474161.2703397,-0.3137006163597107,0.5183002948760986,-9.986680030822754,-0.0057503072819957615,-0.11032247685810528,0.0041787687564735845,1.3447773063380266,6.048704766551403,0.9726251268682358
1731474161.3202085,-0.3133438229560852,0.5345419645309448,-10.003192901611328,-0.006666329669880821,-0.11080193858221628,0.004156774225472325,1.343191055266628,6.192202800847521,0.9708431919474052
1731474161.370244,-0.3133438229560852,0.5345419645309448,-10.003192901611328,-0.007635039159823343,-0.11120158617227435,0.00412796919180179,1.3416933902698958,6.311995841386609,0.9691704720652257
1731474161.370244,-0.3098906874656677,0.528404951095581,-10.000290870666504,-0.008654231788473995,-0.11152398256759521,0.004091971527427877,1.3416969714033455,6.311947991321792,0.9691772641023992
1731474161.4202275,-0.3098906874656677,0.528404951095581,-10.000290870666504,-0.00972115952140132,-0.11177198216604906,0.004048341898219581,1.3423685758868562,6.3026728354394725,0.9704790774849192
1731474161.4202275,-0.33454248309135437,0.49304723739624023,-9.936529159545898,-0.01083259959551124,-0.11194864162380362,0.00399666093381822,1.342372393175857,6.302618338835687,0.9704866422527582
1731474161.470167,-0.3619610667228699,0.5299280881881714,-10.047443389892578,-0.01198482275083262,-0.11205707521937858,0.0039366766626011025,1.343013593042073,6.29311480045441,0.9717914959482601
1731474161.5199888,-0.36124423146247864,0.5293492674827576,-9.995766639709473,-0.013173447139665274,-0.11210038248302492,0.003868282075705725,1.3436257992805953,6.2833043055601685,0.973110151159085
1731474161.570011,-0.3769206404685974,0.5511707663536072,-9.91990852355957,-0.014393304083396298,-0.11208173946425766,0.003791385468107644,1.3419705138604587,6.273168788597571,0.9713115799759372
1731474161.6198852,-0.3769206404685974,0.5511707663536072,-9.91990852355957,-0.0156384110233573,-0.11200456109725579,0.003706125182645402,1.3424991652625704,6.262748789992907,0.9726331544114372
1731474161.6198852,-0.3783719837665558,0.543317973613739,-9.976374626159668,-0.01690202686213533,-0.11187260048295006,0.0036132834756876326,1.3425025975081026,6.262677575016278,0.972642097645327
1731474161.6698837,-0.24439649283885956,0.7247949242591858,-9.980547904968262,-0.01817687912916689,-0.11169009872914305,0.0035142976413309684,1.340815861871463,6.251890450568032,0.9708879470931916
1731474161.7198694,0.5133981704711914,1.6614665985107422,-9.919093132019043,-0.019456448267423862,-0.11146316277004316,0.0034109523495210307,1.3412337522850468,6.24108096811173,0.9721842655043488
1731474161.769799,0.2999531030654907,1.1952157020568848,-10.016883850097656,-0.020738160292620288,-0.11120333541579827,0.0033052169812196126,1.341607557562045,6.22985341914595,0.9735060498159654
1731474161.8197489,0.4892212450504303,1.505788803100586,-9.938413619995117,-0.02202676916348667,-0.11093095304361933,0.0031991812901592757,1.3419293656237525,6.218304829087276,0.9748410776864114
1731474161.8706505,-0.516516387462616,-0.022402653470635414,-9.965340614318848,-0.023334636542735925,-0.11067433737160695,0.0030949612760256696,1.340033971265936,6.206269442742332,0.9729684135636949
1731474161.9206002,-0.9550522565841675,-0.21024510264396667,-10.16689682006836,-0.024677325142797742,-0.11046341616907604,0.0029945188946057704,1.338177596481445,6.194180318108209,0.9711886898093999
1731474161.9705899,-0.7593311667442322,-0.04050649330019951,-10.03207015991211,-0.026066551886409113,-0.11032102962297283,0.002899106574181704,1.3382897320212774,6.181776702164081,0.9725024548488762
1731474162.0203743,-0.5015047788619995,0.2697582244873047,-10.028075218200684,-0.02750570749569535,-0.11025835163201717,0.0028087332178318397,1.3363646506302507,6.169306619428615,0.9707347652124263
1731474162.0706327,-0.6376875638961792,0.10086476802825928,-9.939265251159668,-0.028990406150296934,-0.11027630565061447,0.0027224231958568415,1.3363256885480632,6.15625046464982,0.9720503370550712
1731474162.1203902,-0.4812456965446472,0.29825708270072937,-9.977543830871582,-0.03051101894154108,-0.11036874279112524,0.0026389859408857573,1.336212418515969,6.143054026303824,0.973358856546807
1731474162.1703827,-0.5795964598655701,0.24074093997478485,-9.958183288574219,-0.03205438411622443,-0.11052455754652314,0.0025575565562849486,1.3360216795857571,6.129622314619302,0.9746699278542362
1731474162.2203078,-0.508014976978302,0.46040502190589905,-9.957934379577637,-0.03360476276764886,-0.11072926052860611,0.0024777432035047817,1.333841876152359,6.115821136348959,0.9727867828906065
1731474162.2702415,-0.508804440498352,0.4490143060684204,-9.982624053955078,-0.03514455994265822,-0.11096666210355023,0.002399585724841246,1.3334733010821767,6.1019175176564495,0.9740794097607484
1731474162.320172,-0.48865872621536255,0.4541880786418915,-9.978496551513672,-0.036654991487684536,-0.1112204223692771,0.0023234414472321804,1.333010551978428,6.087569503109142,0.9753934354625559
1731474162.370213,-0.5410983562469482,0.4174778163433075,-9.919493675231934,-0.03811667738891459,-0.11147492095825821,0.0022498857231122707,1.3306672951384242,6.07303457559538,0.9734490040825042
1731474162.4201007,-0.47556886076927185,0.47924375534057617,-9.938119888305664,-0.039510015059615364,-0.11171544137760112,0.0021798005376575157,1.3300020748943269,6.058135427414868,0.9747497395358397
1731474162.47022,-0.47460830211639404,0.529241681098938,-10.030539512634277,-0.040815496086820544,-0.1119282947341502,0.002114477104270295,1.3292365055961326,6.042965601975747,0.9760549944327044
1731474162.5199964,-0.4850676357746124,0.5224998593330383,-9.974165916442871,-0.042014138094610895,-0.11210122259466615,0.002055370234029133,1.3266970621984466,6.027657945768576,0.9740536022737362
1731474162.5699408,-0.48955443501472473,0.4771479666233063,-9.996931076049805,-0.04308783242598181,-0.11222374343943624,0.002003723127036657,1.3257083630252862,6.011891281940878,0.9753479536601987
1731474162.6199024,-0.4665283262729645,0.4885329604148865,-9.979948997497559,-0.044019499486499455,-0.1122870844487274,0.0019604691877235163,1.323078216622858,5.995900521552515,0.9733940940863964
1731474162.669962,-0.46965348720550537,0.5105751752853394,-9.998185157775879,-0.044793228605055455,-0.11228389970447808,0.001926304831249248,1.3203666922458857,5.979759386088698,0.9715489223553335
1731474162.7198188,-0.4509274959564209,0.5246589779853821,-10.004263877868652,-0.04539447925339479,-0.11220816627008383,0.0019017014955511691,1.3190204073004688,5.963102971314262,0.9728145532913794
1731474162.7698064,-0.4414564073085785,0.5083518624305725,-9.974061965942383,-0.04581027961279523,-0.11205525527587872,0.0018868763279093986,1.3175746032211115,5.94634276477299,0.9740715448306168
1731474162.8197534,-0.41812509298324585,0.5166147947311401,-9.975350379943848,-0.046029413991833086,-0.11182193836297163,0.0018818469055291542,1.3147698711748173,5.929325151758523,0.9721753954228293
1731474162.8696876,-0.38708367943763733,0.5227304100990295,-9.974908828735352,-0.04604263180670583,-0.11150628271054415,0.0018865759550858576,1.3130856231121626,5.911980488765592,0.9734208300219486
1731474162.9196005,-0.36882284283638,0.5231413841247559,-9.979649543762207,-0.04584288674381427,-0.11110755179167202,0.0019010678156564525,1.3100266439622084,5.894329657313187,0.9715621095766848
1731474162.970591,-0.3273898661136627,0.5379171371459961,-10.020581245422363,-0.04542557807948536,-0.11062615009455884,0.0019253272525451713,1.3080651188023036,5.87606000313492,0.9728196895481437
1731474163.0204976,-0.3707225024700165,0.505232036113739,-9.976547241210938,-0.04478870997525957,-0.11006355591280274,0.00195922061886102,1.3060251081884682,5.85784108541876,0.9740595112158825
1731474163.070438,-0.3476724922657013,0.5362069010734558,-9.949875831604004,-0.0439328402796728,-0.10942219322458935,0.002002437251086784,1.3038819122825243,5.839413093770382,0.9752999120363354
1731474163.1203568,-0.3835640251636505,0.5246970653533936,-9.991329193115234,-0.04286080937254093,-0.10870529248130617,0.0020546586150402583,1.300739515319712,5.8207155601802265,0.9733006256593473
1731474163.1703653,-0.3614824414253235,0.5287243723869324,-9.99287223815918,-0.041577398127046854,-0.10791680868841558,0.002115672254388137,1.298361075929419,5.801605252722156,0.9745367307390439
1731474163.2202575,-0.377625972032547,0.5039097666740417,-9.963214874267578,-0.04008903305119131,-0.10706132886527459,0.0021852853467822617,1.2950342470649538,5.782336568856973,0.9725780356279671
1731474163.2702463,-0.3766827881336212,0.5053097605705261,-10.006082534790039,-0.03840355362817434,-0.10614389230561788,0.002263252788342671,1.292456219577704,5.7627393179944,0.9737984803992807
1731474163.3201778,-0.37935033440589905,0.516689121723175,-9.970401763916016,-0.03653000349934028,-0.10516979588590303,0.002349277175376869,1.2890800725810092,5.742978788009557,0.9718747406617043
1731474163.3702471,-0.40080633759498596,0.4964871406555176,-10.002296447753906,-0.03447841305411986,-0.10414448257247627,0.0024429880791905032,1.2863068741106038,5.72279387976967,0.9730875666582688
1731474163.4201424,-0.38300633430480957,0.5083088278770447,-10.015450477600098,-0.03225957502725044,-0.10307347997148555,0.0025438902572322234,1.2834674894046076,5.702475320938404,0.9742990963479061
1731474163.470025,-0.443865567445755,0.4779611825942993,-10.014248847961426,-0.029884812438027965,-0.10196231095975124,0.0026512545007396286,1.2802125383938063,5.682021350351563,0.9723267038339368
1731474163.5200374,-0.3783123791217804,0.5307408571243286,-9.943964958190918,-0.027365742616587356,-0.10081640649950381,0.0027640705884122417,1.277202996699866,5.661048344906501,0.9735366397583439
1731474163.569949,-0.4149475693702698,0.529784619808197,-9.995633125305176,-0.02471413135600012,-0.09964113996196339,0.002881234018333634,1.273990087802591,5.640099435973959,0.9716044288311552
1731474163.6199312,-0.4006003737449646,0.5575022101402283,-9.984058380126953,-0.02194187499373535,-0.09844201222954589,0.0030017655684453377,1.2707564510593046,5.618652129101507,0.9698026520635816
1731474163.6698508,-0.4396592080593109,0.5405032634735107,-9.956144332885742,-0.01906094641733006,-0.09722483840826382,0.003124842323609603,1.2675930746808703,5.59706692571163,0.9709822240711291
1731474163.719805,-0.4295702874660492,0.5543187260627747,-9.9859037399292,-0.01608321627932896,-0.09599580243933871,0.0032497941723421755,1.2643966581440687,5.575314145256602,0.9721657587104372
1731474163.7697442,-0.42668965458869934,0.5741111636161804,-9.961564064025879,-0.013020270659256278,-0.09476142535217337,0.0033761464792697897,1.2611620332198576,5.553310394251921,0.9733582926239696
1731474163.8196783,-0.4360142648220062,0.5671287775039673,-9.956544876098633,-0.009883336206764213,-0.09352855910475023,0.0035036358826999753,1.25823123614794,5.530900611235672,0.9714386068453262
1731474163.8696399,-0.4315682351589203,0.557338535785675,-9.982433319091797,-0.006683273795588623,-0.09230437736269738,0.0036322231159361673,1.2549585851637668,5.508473006817542,0.9726235170488959
1731474163.9195507,-0.42473089694976807,0.5397765636444092,-10.009066581726074,-0.003430576243183688,-0.09109624721464248,0.0037620278807478256,1.2516433458418619,5.485610426376235,0.9738285324655672
1731474163.9695463,-0.42673540115356445,0.5290296673774719,-9.97465991973877,-0.00013539002223139402,-0.08991148563890144,0.0038931362845384294,1.2489932705217066,5.462750666869311,0.9718617100541186
1731474164.0205133,-0.41879597306251526,0.5388911366462708,-9.974834442138672,0.003192438848063823,-0.0887571158203334,0.004025493627251613,1.24561695621716,5.438960211866988,0.9730875095810216
1731474164.070491,-0.38974595069885254,0.5596628785133362,-10.005626678466797,0.006543299482429911,-0.0876397495560883,0.004158961969184182,1.2423332278679913,5.415512691227899,0.9742944930071081
1731474164.1204576,-0.38974595069885254,0.5596628785133362,-10.005626678466797,0.009907689376738827,-0.08656563722892033,0.004293319963553206,1.239983881869352,5.391915400265557,0.9722992517766047
1731474164.1204576,-0.38453778624534607,0.5208667516708374,-9.979079246520996,0.01327606901014222,-0.08554073982429361,0.004428163863908889,1.239955755505175,5.391709151431157,0.9723096574831511
1731474164.1704335,-0.3518224358558655,0.524154782295227,-9.996140480041504,0.016638772791831517,-0.08457063349696507,0.004562907082439208,1.2377021090732254,5.368103641166787,0.9704283106835516
1731474164.2203336,-0.34355854988098145,0.5191760063171387,-10.006608963012695,0.01998592121334574,-0.0836602990432539,0.00469685784451317,1.2345208392106262,5.343905426409636,0.9716278799054862
1731474164.270315,-0.3270731568336487,0.5440074801445007,-9.949302673339844,0.02330729447121614,-0.08281401256683078,0.00482925934840594,1.2324668651239152,5.319760846344013,0.9697974099245306
1731474164.3202639,-0.3096349239349365,0.5479848384857178,-10.00139331817627,0.026592233562514927,-0.08203541806131931,0.004959373049241464,1.2294215533086459,5.295226053242339,0.9709950330563625
1731474164.3701947,-0.3083556592464447,0.5252760648727417,-10.021833419799805,0.029829598363890163,-0.0813276634517773,0.005086534723679101,1.226448601675557,5.270500866970047,0.9722045426066318
1731474164.4201214,-0.32990550994873047,0.5256478190422058,-9.975671768188477,0.03300781094966944,-0.08069343131265093,0.005210034915637788,1.2235507780607813,5.245542303677203,0.973428440447955
1731474164.4701505,-0.3092363774776459,0.5399481058120728,-9.969268798828125,0.03611502567896524,-0.0801348713955477,0.005329060497069121,1.2222122196419298,5.22058296064646,0.9714946596553967
1731474164.520042,-0.2887982428073883,0.5596032738685608,-9.972800254821777,0.03913931346555176,-0.07965361214734229,0.005442869562196609,1.219516353118894,5.19531026227173,0.9727177764047257
1731474164.5699935,-0.3595009446144104,0.7189980745315552,-9.982955932617188,0.042068778989155314,-0.07925105360752158,0.005550951287984139,1.2183816819342421,5.16984788646245,0.9708402039061832
1731474164.6199439,-0.6427477598190308,1.415651559829712,-9.925313949584961,0.04489205659516588,-0.0789297013707767,0.005653059664083637,1.2159010724881585,5.144114289365578,0.9720713284854514
1731474164.6699345,-0.6165494918823242,0.5551245808601379,-9.866538047790527,0.047599672892508535,-0.07869559934392903,0.005749376673859165,1.2135286548812427,5.118097246260278,0.973320872825181
1731474164.719879,-1.4786083698272705,0.4926488995552063,-10.089213371276855,0.05018634675299219,-0.07855887032956023,0.005840729500713571,1.2129572915007794,5.092075317845711,0.9714162367244575
1731474164.7698503,-0.5003513693809509,0.51936936378479,-9.853687286376953,0.05265361136136768,-0.07853072804392602,0.005928410590251992,1.2108551856599339,5.065725170254927,0.9726689094377524
1731474164.8198128,0.04512631148099899,0.05102386325597763,-10.057523727416992,0.055009599530210444,-0.07861998459247808,0.006013818316590141,1.210514208875478,5.039286076412791,0.9708164644800936
