Timestamp,IMU_Linear_Acc_X,IMU_Linear_Acc_Y,IMU_Linear_Acc_Z,Filtered_X,Filtered_Y,Filtered_Z,Pose_X,Pose_Y,Pose_Z
1730865946.3340743,-1.64725923538208,0.7226855158805847,-9.841316223144531,0.0,0.0,0.0,0.0,0.0,0.0
1730865946.8840554,-1.6464816331863403,1.1096014976501465,-9.926274299621582,0.0007776021957397461,-0.38691598176956177,-0.08495807647705078,2.430006861686707e-07,-0.00012091124430298807,-2.6549398899078373e-05
1730865947.2339377,-1.466209888458252,1.5062932968139648,-9.781386375427246,0.18104934692382812,-0.7836077809333801,0.059929847717285156,5.730692297220231e-05,-0.0006076111644506456,-6.09201192855835e-05
1730865947.2838902,-1.6475468873977661,1.4503509998321533,-9.745635986328125,-0.00028765201568603516,-0.7276654839515686,0.09568023681640625,0.00017085887491703037,-0.0015665839798748495,-4.666268825531005e-05
1730865947.3337905,-1.7597566843032837,1.3032793998718262,-9.741059303283691,-0.11249744892120361,-0.5805938839912415,0.10025691986083984,0.0002491654828190804,-0.0029343878477811817,2.8825104236602805e-05
1730865947.3838024,-1.6816997528076172,1.2365984916687012,-9.753911018371582,-0.03444051742553711,-0.5139129757881165,0.08740520477294922,0.0002815539762377739,-0.004644225109368563,0.00016295731067657475
1730865947.4338114,-1.757475733757019,1.2633165121078491,-9.788309097290039,-0.11021649837493896,-0.5406309962272644,0.05300712585449219,0.00026873715221881867,-0.006683607362210751,0.0003409683704376222
1730865947.4836771,-1.9410609006881714,1.2342725992202759,-9.715015411376953,-0.2938016653060913,-0.5115870833396912,0.12630081176757812,0.00012966465204954146,-0.009051807764917614,0.0005750131607055666
1730865947.5337312,-1.7980672121047974,1.2204742431640625,-9.816902160644531,-0.15080797672271729,-0.4977887272834778,0.0244140625,-0.00014834836125373848,-0.011735438108444216,0.0008561563491821291
1730865947.5837328,-1.6201061010360718,1.2407430410385132,-9.861479759216309,0.0271531343460083,-0.5180575251579285,-0.020163536071777344,-0.00046500351279974,-0.014736520405858758,0.0011386278271675113
1730865947.6336718,-1.6417081356048584,1.2559638023376465,-9.932706832885742,0.00555109977722168,-0.5332782864570618,-0.09139060974121094,-0.0007714385911822321,-0.018066145144402985,0.0013862386345863346
1730865947.6836586,-1.4783844947814941,1.2720919847488403,-9.962823867797852,0.0,0.0,0.0,-0.0010761389508843425,-0.021562419347465042,0.0016052898764610294
1730865947.7336457,-1.4127205610275269,1.249739170074463,-9.95790958404541,0.06566393375396729,0.02235281467437744,0.004914283752441406,-0.0013603193312883381,-0.025051708295941357,0.001825876832008362
1730865947.7836764,-1.4345476627349854,1.2176520824432373,-9.960887908935547,0.04383683204650879,0.05443990230560303,0.0019359588623046875,-0.0016102807223796849,-0.02851699952036143,0.002048604488372803
1730865947.8337014,-1.6071974039077759,1.2252144813537598,-9.856568336486816,-0.12881290912628174,0.046877503395080566,0.10625553131103516,-0.0018867971375584607,-0.031950629055500036,0.0023051419854164127
1730865947.8835726,-1.532752275466919,1.1856809854507446,-9.923158645629883,-0.054367780685424805,0.0864109992980957,0.03966522216796875,-0.0022205575183033947,-0.03534260593354703,0.002607279717922211
1730865947.9345996,-1.49844229221344,1.2116985321044922,-9.878271102905273,-0.0200577974319458,0.060393452644348145,0.08455276489257812,-0.002577575892210007,-0.038688706420362005,0.0029482355713844307
1730865947.9846032,-1.521494746208191,1.106750726699829,-9.946966171264648,-0.04311025142669678,0.16534125804901123,0.015857696533203125,-0.0029543342813849456,-0.041964264810085306,0.0033205696940422067
1730865948.034629,-1.521235466003418,1.066617727279663,-9.89339542388916,-0.04285097122192383,0.20547425746917725,0.0694284439086914,-0.0033579555526375778,-0.04512394335120917,0.0037195557355880746
1730865948.0845356,-1.6524330377578735,0.9745575785636902,-9.893824577331543,-0.1740485429763794,0.29753440618515015,0.0689992904663086,-0.0038293579220771796,-0.048126431684941066,0.00416180044412613
1730865948.1347377,-1.714928388595581,0.9513433575630188,-9.833707809448242,-0.23654389381408691,0.32074862718582153,0.12911605834960938,-0.004429070428013803,-0.050935706570744525,0.00466595619916916
1730865948.1846237,-1.6118273735046387,0.9223973155021667,-9.884674072265625,-0.13344287872314453,0.3496946692466736,0.07814979553222656,-0.00514440380036831,-0.05353546792641283,0.005234882533550264
1730865948.2345996,-1.3661701679229736,0.9260615110397339,-9.857068061828613,0.0,0.0,0.0,-0.005901438072323801,-0.05602594969794155,0.005828230679035188
1730865948.2835228,-1.2212275266647339,0.8862243294715881,-9.932165145874023,0.14494264125823975,0.03983718156814575,-0.07509708404541016,-0.0066131777688860915,-0.05850398235023022,0.006398110985755922
1730865948.3344536,-1.0323896408081055,0.8774198889732361,-9.941996574401855,0.33378052711486816,0.0486416220664978,-0.08492851257324219,-0.007175316475331785,-0.060954365376383074,0.006917983293533326
1730865948.3844686,-1.2495695352554321,0.9381879568099976,-9.924843788146973,0.1166006326675415,-0.012126445770263672,-0.06777572631835938,-0.007596711069345476,-0.06339333740994334,0.007390135526657106
1730865948.4344435,-1.4342632293701172,1.0002256631851196,-9.9284086227417,-0.06809306144714355,-0.07416415214538574,-0.07134056091308594,-0.008002947047352793,-0.06585927525535225,0.007818813920021058
1730865948.4846096,-1.6491162776947021,1.1198151111602783,-9.88106918334961,-0.2829461097717285,-0.19375360012054443,-0.024001121520996094,-0.008518882766366009,-0.06840893739834426,0.008217698037624361
1730865948.5345068,-1.8150001764297485,1.2128596305847168,-9.911548614501953,-0.4488300085067749,-0.2867981195449829,-0.054480552673339844,-0.009263498522341256,-0.07110877195373176,0.008592056632041933
1730865948.5845046,-1.8747748136520386,1.2866096496582031,-9.855307579040527,-0.5086046457290649,-0.36054813861846924,0.0017604827880859375,-0.010307312607765202,-0.07401090221479534,0.008949940204620364
1730865948.6345894,-1.8972151279449463,1.2438414096832275,-9.890105247497559,-0.5310449600219727,-0.31777989864349365,-0.03303718566894531,-0.011676017194986347,-0.07712500998750327,0.009298049807548526
1730865948.6844258,-1.8699368238449097,1.2726092338562012,-9.829380989074707,-0.503766655921936,-0.3465477228164673,0.02768707275390625,-0.013368100412189964,-0.08044672014191745,0.009644487500190738
1730865948.7343395,-1.9649289846420288,1.1705948114395142,-9.842905044555664,-0.5987588167190552,-0.24453330039978027,0.014163017272949219,-0.01540472283959389,-0.0839531431160867,0.010004003345966343
1730865948.7843802,-1.755480170249939,1.117276906967163,-9.814167976379395,0.0,0.0,0.0,-0.017628457397222522,-0.0875359827466309,0.010367945134639744
1730865948.8343627,-1.648979902267456,1.0715574026107788,-9.870731353759766,0.10650026798248291,0.04571950435638428,-0.056563377380371094,-0.01981891062110663,-0.09110453503206371,0.010714210867881779
1730865948.8843756,-1.619248390197754,1.0923936367034912,-9.766934394836426,0.13623178005218506,0.024883270263671875,0.04723358154296875,-0.0219335100799799,-0.09465102395042777,0.011057561039924627
1730865948.9342463,-1.5719029903411865,1.1600306034088135,-9.814069747924805,0.18357717990875244,-0.04275369644165039,9.822845458984375e-05,-0.023948169238865377,-0.09820309737697244,0.011415702402591711
1730865948.9843962,-1.4718180894851685,1.2043366432189941,-9.855443000793457,0.2836620807647705,-0.08705973625183105,-0.0412750244140625,-0.02581681612879038,-0.10179573750123383,0.01176097601652146
1730865949.0343103,-1.5622344017028809,1.2559999227523804,-9.844598770141602,0.1932457685470581,-0.13872301578521729,-0.03043079376220703,-0.02753642931580544,-0.10545893473550678,0.012083841562271125
1730865949.084335,-1.6065484285354614,1.3037285804748535,-9.91126537322998,0.14893174171447754,-0.18645167350769043,-0.09709739685058594,-0.029149112030863764,-0.10922374906018377,0.01236685454845429
1730865949.1342292,-1.6464300155639648,1.3352413177490234,-9.848318099975586,0.10905015468597412,-0.21796441078186035,-0.034150123596191406,-0.03068117540329695,-0.11311494341120125,0.012608852684497839
1730865949.1843033,-1.7890230417251587,1.2793657779693604,-9.847938537597656,-0.03354287147521973,-0.16208887100219727,-0.03377056121826172,-0.03218964274972677,-0.11712490441277625,0.012829625606536872
1730865949.2342906,-1.9112098217010498,1.1769911050796509,-9.826825141906738,-0.15572965145111084,-0.05971419811248779,-0.01265716552734375,-0.03375725775957108,-0.12120417887344959,0.013035889863967903
1730865949.2843397,-1.7468112707138062,1.169215440750122,-9.872337341308594,0.008668899536132812,-0.051938533782958984,-0.05816936492919922,-0.035370829254388815,-0.12531834481284027,0.013220020830631262
1730865949.3341703,-1.7610691785812378,1.1731765270233154,-9.90518856048584,0.0,0.0,0.0,-0.036981691718101506,-0.1294487415440381,0.013385973870754249
1730865949.3842542,-1.772855281829834,1.1963719129562378,-9.869773864746094,-0.011786103248596191,-0.023195385932922363,0.035414695739746094,-0.03859623733907938,-0.13358638683333998,0.013562994003295905
1730865949.4341888,-1.7723252773284912,1.1582468748092651,-9.856871604919434,-0.011256098747253418,0.014929652214050293,0.04831695556640625,-0.040217983648180966,-0.137726615164429,0.013766180276870736
1730865949.4842129,-1.5951693058013916,1.1924304962158203,-9.84045124053955,0.1658998727798462,-0.019253969192504883,0.06473731994628906,-0.04179140377789736,-0.14186819484457378,0.014004696011543282
1730865949.5342839,-1.4303251504898071,1.1096744537353516,-9.871488571166992,0.33074402809143066,0.06350207328796387,0.033699989318847656,-0.043209622688591486,-0.14599594699218874,0.014273973405361184
1730865949.5842733,-1.4494115114212036,1.127644419670105,-9.831385612487793,0.3116576671600342,0.04553210735321045,0.07380294799804688,-0.044427091069519524,-0.15008962595835335,0.014576845467090616
1730865949.634126,-1.374488115310669,1.0864741802215576,-9.847817420959473,0.38658106327056885,0.08670234680175781,0.05737113952636719,-0.045426359847188,-0.15414198165759452,0.014920709431171427
1730865949.684152,-1.4525998830795288,1.0719263553619385,-9.802490234375,0.308469295501709,0.10125017166137695,0.10269832611083984,-0.04620842538774014,-0.15813560219481596,0.015314595103263865
1730865949.734146,-1.5784028768539429,1.0320987701416016,-9.840079307556152,0.18266630172729492,0.14107775688171387,0.0651092529296875,-0.04683701105415822,-0.16205349525436766,0.015760920643806468
1730865949.7841535,-1.5448294878005981,0.9901504516601562,-9.828018188476562,0.21623969078063965,0.18302607536315918,0.07717037200927734,-0.04734093859791756,-0.16587010586634285,0.016251708567142496
1730865949.8341901,-1.495914340019226,0.9905200004577637,-9.897010803222656,0.2651548385620117,0.18265652656555176,0.008177757263183594,-0.047694430351257325,-0.16957244066521532,0.01676916778087617
1730865949.8841543,-1.5989469289779663,0.96947181224823,-9.889765739440918,0.0,0.0,0.0,-0.04796506121754646,-0.17321769529953607,0.01728918254375459
1730865949.9341342,-1.5671354532241821,0.9694827198982239,-9.91878890991211,0.03181147575378418,-1.0907649993896484e-05,-0.029023170471191406,-0.04822575099766255,-0.17686295334249744,0.017800127565860763
1730865949.984129,-1.4966825246810913,0.9941743016242981,-9.964380264282227,0.102264404296875,-0.024702489376068115,-0.0746145248413086,-0.048444542065262795,-0.18051593432202945,0.018278685808181778
1730865950.0342054,-1.4800490140914917,0.969645619392395,-9.981051445007324,0.11889791488647461,-0.00017380714416503906,-0.09128570556640625,-0.04859421990811825,-0.18417668914422403,0.018705400228500382
1730865950.0840492,-1.459653377532959,1.016774296760559,-9.992463111877441,0.13929355144500732,-0.0473024845123291,-0.10269737243652344,-0.04866321291774511,-0.18785228030756126,0.01907149493694307
1730865950.1340241,-1.5144121646881104,1.049118995666504,-9.973414421081543,0.08453476428985596,-0.07964718341827393,-0.083648681640625,-0.04866225957870484,-0.1915675432421268,0.01937935650348665
1730865950.1840804,-1.6105612516403198,1.0086636543273926,-9.94045639038086,-0.011614322662353516,-0.0391918420791626,-0.050690650939941406,-0.04863851860165597,-0.1953199433721603,0.0196452370285988
1730865950.2339597,-1.5536221265792847,1.06661057472229,-9.94149398803711,0.04532480239868164,-0.09713876247406006,-0.051728248596191406,-0.04860424309968949,-0.1991149468161167,0.01987911164760591
1730865950.2839465,-1.603241205215454,1.065562129020691,-9.964529037475586,-0.004294276237487793,-0.09609031677246094,-0.07476329803466797,-0.04855714555829764,-0.2029703343473376,0.02007345765829088
1730865950.3339956,-1.879683494567871,1.0326447486877441,-9.866992950439453,-0.2807365655899048,-0.06317293643951416,0.022772789001464844,-0.04859912015497685,-0.20687549164518726,0.02025155663490297
1730865950.3840535,-2.0737950801849365,0.9914940595626831,-9.809025764465332,-0.4748481512069702,-0.022022247314453125,0.08073997497558594,-0.04887721497565509,-0.21080727243796002,0.02046200335025789
1730865950.4339852,-1.8243703842163086,0.9407444000244141,-9.798154830932617,0.0,0.0,0.0,-0.0493036998435855,-0.21474593518301854,0.020697681307792683
1730865950.4839067,-1.6435387134552002,1.0102969408035278,-9.805895805358887,0.1808316707611084,-0.06955254077911377,-0.007740974426269531,-0.04967367481440307,-0.21870633309707058,0.020930940210819263
1730865950.5338778,-1.5730770826339722,1.1460793018341064,-9.76155948638916,0.2512933015823364,-0.20533490180969238,0.03659534454345703,-0.04990861073136331,-0.2227526333369316,0.021173216104507463
1730865950.5837739,-1.402429223060608,1.2469379901885986,-9.80485725402832,0.4219411611557007,-0.30619359016418457,-0.006702423095703125,-0.04993316087871791,-0.22695878623053445,0.02142483353614809
1730865950.6338754,-1.2801685333251953,1.27745521068573,-9.844583511352539,0.5442018508911133,-0.3367108106613159,-0.046428680419921875,-0.04965579133480788,-0.23136584674939528,0.02165984749794008
1730865950.6837897,-1.3144124746322632,1.2810062170028687,-9.876189231872559,0.5099579095840454,-0.3402618169784546,-0.0780344009399414,-0.04904899686574937,-0.2359844612143935,0.021855966746807117
1730865950.7338083,-1.3720238208770752,1.2254197597503662,-9.91110610961914,0.4523465633392334,-0.28467535972595215,-0.11295127868652344,-0.048141482248902336,-0.24079836854711187,0.021992402970790883
1730865950.78379,-1.4993278980255127,1.1518988609313965,-9.931300163269043,0.3250424861907959,-0.21115446090698242,-0.13314533233642578,-0.04699103355407717,-0.24576722269877804,0.022051934003829977
1730865950.8337855,-1.6006672382354736,1.0863429307937622,-9.86929702758789,0.22370314598083496,-0.14559853076934814,-0.07114219665527344,-0.04566910184919836,-0.25084756216034304,0.022047625184059165
1730865950.8837059,-1.81550133228302,1.01986563205719,-9.81452465057373,0.008869051933288574,-0.07912123203277588,-0.01636981964111328,-0.04427449133247139,-0.25599812654778376,0.022015968859195732
1730865950.9336746,-1.9375649690628052,0.9927679896354675,-9.77560806274414,-0.11319458484649658,-0.05202358961105347,0.022546768188476562,-0.04291248254477979,-0.26118967369198814,0.02198624283075335
1730865950.9836621,-2.0457820892333984,0.9714118242263794,-9.726194381713867,0.0,0.0,0.0,-0.04158584706485273,-0.26639747820794596,0.021963562667369867
1730865951.0336392,-2.0869340896606445,1.0083929300308228,-9.737180709838867,-0.041152000427246094,-0.03698110580444336,-0.010986328125,-0.04027207158505918,-0.2716168393194677,0.02193744927644732
1730865951.083622,-2.0562994480133057,1.051559329032898,-9.758321762084961,-0.010517358779907227,-0.08014750480651855,-0.03212738037109375,-0.03897444278001787,-0.27687280312180534,0.021897862851619744
1730865951.133597,-1.9736506938934326,1.1039338111877441,-9.822582244873047,0.07213139533996582,-0.13252198696136475,-0.09638786315917969,-0.037657559588551534,-0.28219522614032044,0.021818115413188958
1730865951.1835477,-1.9302725791931152,1.1401413679122925,-9.887577056884766,0.1155095100402832,-0.16872954368591309,-0.16138267517089844,-0.03628203861415387,-0.2876117902621628,0.021657814681530024
1730865951.233644,-1.8705997467041016,1.1601102352142334,-9.892549514770508,0.17518234252929688,-0.188698410987854,-0.16635513305664062,-0.03481567643582822,-0.2931400506198408,0.021395095884799983
1730865951.2836158,-1.852792739868164,1.1702474355697632,-9.919771194458008,0.19298934936523438,-0.1988356113433838,-0.19357681274414062,-0.03323426060378552,-0.29878941535949727,0.021019898355007196
1730865951.3335752,-1.850260853767395,1.1229956150054932,-9.914119720458984,0.19552123546600342,-0.15158379077911377,-0.1879253387451172,-0.03153143521398307,-0.304548286162317,0.020525481402874017
1730865951.3836124,-1.8229795694351196,1.0839333534240723,-9.910886764526367,0.2228025197982788,-0.11252152919769287,-0.1846923828125,-0.029697883650660527,-0.31038968987762944,0.01991462141275408
1730865951.4335694,-1.7985893487930298,1.0479875802993774,-9.888747215270996,0.24719274044036865,-0.07657575607299805,-0.1625528335571289,-0.027717458568513403,-0.316290186494589,0.01919524729251864
1730865951.4836032,-1.7535266876220703,0.9978740811347961,-9.872357368469238,0.2922554016113281,-0.026462256908416748,-0.1461629867553711,-0.025568455941975127,-0.32222288249060527,0.018379399478435542
1730865951.533507,-1.7225205898284912,0.9698752164840698,-9.863229751586914,0.0,0.0,0.0,-0.02332812350243331,-0.3281638479419054,0.01751787573099139
1730865951.583536,-1.668954610824585,0.9353963732719421,-9.8529052734375,0.05356597900390625,0.034478843212127686,0.010324478149414062,-0.02107105169445277,-0.3340940387547017,0.016659578382968932
1730865951.6334298,-1.6359572410583496,0.9215210676193237,-9.852986335754395,0.0865633487701416,0.048354148864746094,0.010243415832519531,-0.018770189471542843,-0.3399983442574741,0.015807708501815825
1730865951.6834772,-1.6144894361495972,0.9229671359062195,-9.850465774536133,0.10803115367889404,0.04690808057785034,0.01276397705078125,-0.016408516466617593,-0.3458728803135456,0.014963028430938751
1730865951.7344527,-1.6067534685134888,0.9610587358474731,-9.857247352600098,0.11576712131500244,0.00881648063659668,0.005982398986816406,-0.01397690650075675,-0.35173000244423763,0.014124206602573425
1730865951.7843916,-1.5976148843765259,1.0084751844406128,-9.867647171020508,0.12490570545196533,-0.03859996795654297,-0.00441741943359375,-0.011470086276531228,-0.3575964319147171,0.013285873830318482
1730865951.8344188,-1.6114647388458252,1.0301212072372437,-9.874835968017578,0.11105585098266602,-0.06024599075317383,-0.011606216430664062,-0.008889528065919885,-0.3634937507472934,0.012442533671855958
1730865951.8845086,-1.5975745916366577,1.018343448638916,-9.889068603515625,0.1249459981918335,-0.04846823215484619,-0.025838851928710938,-0.006235219277441511,-0.3694250427745284,0.01158749192953113
1730865951.934418,-1.6075562238693237,0.9683912396430969,-9.893061637878418,0.11496436595916748,0.0014839768409729004,-0.029831886291503906,-0.0035059385001659487,-0.37537101738154904,0.010715053081512483
1730865951.9844997,-1.626556634902954,0.905511736869812,-9.897462844848633,0.09596395492553711,0.06436347961425781,-0.03423309326171875,-0.0007107426226139161,-0.3812964146584274,0.009822593927383454
1730865952.034278,-1.6508206129074097,0.8503293991088867,-9.890620231628418,0.07169997692108154,0.1195458173751831,-0.027390480041503906,0.0021368482336401847,-0.3871643402799965,0.008910877406597168
1730865952.0843859,-1.668717384338379,0.7852784395217896,-9.882685661315918,0.0,0.0,0.0,0.005006845332682123,-0.39299490783363594,0.007990601360797912
1730865952.134316,-1.666137456893921,0.7490000128746033,-9.847501754760742,0.002579927444458008,0.03627842664718628,0.03518390655517578,0.007877648659050454,-0.39881413837894814,0.007081320285797149
1730865952.1843207,-1.6244356632232666,0.7482098340988159,-9.854060173034668,0.044281721115112305,0.03706860542297363,0.02862548828125,0.010763096250593652,-0.40461044797673834,0.006191979646682769
1730865952.2342668,-1.5937052965164185,0.7874472141265869,-9.882034301757812,0.07501208782196045,-0.0021687746047973633,0.0006513595581054688,0.013685823157429685,-0.4103958513773979,0.005311788022518187
1730865952.2842512,-1.5707736015319824,0.8576775789260864,-9.910017013549805,0.09794378280639648,-0.07239913940429688,-0.02733135223388672,0.016662598773837082,-0.4162045572511853,0.004423258900642425
1730865952.3342435,-1.587791085243225,0.9232023358345032,-9.935588836669922,0.08092629909515381,-0.13792389631271362,-0.052903175354003906,0.01969527129083871,-0.4220789890736343,0.003509656488895446
1730865952.3842833,-1.5839658975601196,0.9715844392776489,-9.951668739318848,0.08475148677825928,-0.18630599975585938,-0.06898307800292969,0.02277971811592578,-0.4280547427386047,0.0025579646229744258
1730865952.4342704,-1.6285433769226074,0.9795622229576111,-9.949352264404297,0.040174007415771484,-0.19428378343582153,-0.0666666030883789,0.025903204157948487,-0.4341494307108225,0.0015638822317123715
1730865952.4843504,-1.6731714010238647,0.9589577913284302,-9.931402206420898,-0.00445401668548584,-0.17367935180664062,-0.04871654510498047,0.029037852697074408,-0.4403591071628036,0.0005337426066398922
1730865952.5342863,-1.7608195543289185,0.9085907340049744,-9.892904281616211,-0.09210216999053955,-0.12331229448318481,-0.010218620300292969,0.03214232742786407,-0.4466615935042502,-0.0005148142576217349
1730865952.5842535,-1.8198007345199585,0.8613375425338745,-9.845653533935547,-0.1510833501815796,-0.07605910301208496,0.037032127380371094,0.035170806683599946,-0.45302638340741413,-0.0015549919009208376
1730865952.634168,-1.8743910789489746,0.8098325729370117,-9.812735557556152,0.0,0.0,0.0,0.03815207239240408,-0.4594149417802693,-0.0025835970044135745
1730865952.6841817,-1.8814746141433716,0.8248398900032043,-9.78154468536377,-0.007083535194396973,-0.015007317066192627,0.031190872192382812,0.041131124496459955,-0.4658081899397077,-0.0036024549603461916
1730865952.7341259,-1.8178749084472656,0.9012826681137085,-9.799697875976562,0.056516170501708984,-0.09145009517669678,0.013037681579589844,0.04412562429904937,-0.47223470604047196,-0.004607491493225068
1730865952.7841399,-1.7743693590164185,0.9895063042640686,-9.821540832519531,0.10002171993255615,-0.17967373132705688,-0.008805274963378906,0.047169042192399493,-0.47874594833701867,-0.005611205399036377
1730865952.834016,-1.7426655292510986,1.0704177618026733,-9.879551887512207,0.13172554969787598,-0.2605851888656616,-0.06681632995605469,0.05028488110750912,-0.4853947715461256,-0.006638551056385009
1730865952.884022,-1.7173658609390259,1.144403100013733,-9.899643898010254,0.15702521800994873,-0.3345705270767212,-0.08690834045410156,0.053490954637527455,-0.4922295809164645,-0.007713935673236815
1730865952.9340377,-1.7238008975982666,1.201750636100769,-9.902915954589844,0.150590181350708,-0.3919180631637573,-0.0901803970336914,0.056793157979845986,-0.4992914179712536,-0.008844660520553556
1730865952.9839852,-1.7645459175109863,1.1820310354232788,-9.86949348449707,0.10984516143798828,-0.3721984624862671,-0.05675792694091797,0.06017674736678599,-0.5065920414403083,-0.010021303594112364
1730865953.0339887,-1.83077871799469,1.1543887853622437,-9.82955265045166,0.04361236095428467,-0.34455621242523193,-0.016817092895507812,0.06360829222947358,-0.5141166507452729,-0.011220938861370055
1730865953.0839276,-1.8594506978988647,1.0799541473388672,-9.79504680633545,0.014940381050109863,-0.27012157440185547,0.017688751220703125,0.06705813482403754,-0.5218333468586209,-0.012420301735401122
1730865953.1339393,-1.8404059410095215,1.018115758895874,-9.759230613708496,0.033985137939453125,-0.2082831859588623,0.05350494384765625,0.07052326664328573,-0.5296995444595817,-0.013597416579723328
1730865953.1840162,-1.7897979021072388,0.9865586757659912,-9.764646530151367,0.0,0.0,0.0,0.07399901881814001,-0.5376308305561546,-0.01475781112909314
1730865953.2339149,-1.698754072189331,1.0258070230484009,-9.786855697631836,0.09104382991790771,-0.03924834728240967,-0.02220916748046875,0.07750322218984364,-0.5455743817612532,-0.015925146043300597
1730865953.2839737,-1.6195176839828491,1.096706748008728,-9.849236488342285,0.17028021812438965,-0.11014807224273682,-0.08458995819091797,0.08108908932656048,-0.5535646193474534,-0.017125855684280364
1730865953.3338645,-1.5690386295318604,1.1863417625427246,-9.894932746887207,0.22075927257537842,-0.1997830867767334,-0.13028621673583984,0.08479715630412099,-0.5616517104208473,-0.018393714129924743
1730865953.384044,-1.5596836805343628,1.2637195587158203,-9.941064834594727,0.23011422157287598,-0.2771608829498291,-0.17641830444335938,0.08864612124860284,-0.5698878464847806,-0.019757417738437623
1730865953.4338489,-1.59630286693573,1.3051685094833374,-9.960204124450684,0.1934950351715088,-0.3186098337173462,-0.1955575942993164,0.0926274640858173,-0.5783101608976725,-0.021237363815307584
1730865953.4840422,-1.6284863948822021,1.3273265361785889,-9.94701862335205,0.16131150722503662,-0.34076786041259766,-0.1823720932006836,0.0967196839675307,-0.58693853083998,-0.0228354129195213
1730865953.5338588,-1.6553434133529663,1.316172480583191,-9.920696258544922,0.13445448875427246,-0.3296138048171997,-0.1560497283935547,0.10090433072298761,-0.5957763950526718,-0.024539218842983213
1730865953.583919,-1.6599690914154053,1.2806527614593506,-9.860176086425781,0.1298288106918335,-0.2940940856933594,-0.09552955627441406,0.10517156600952145,-0.6048091679811481,-0.026321643292903867
1730865953.6338382,-1.6765570640563965,1.1801283359527588,-9.819402694702148,0.11324083805084229,-0.19356966018676758,-0.05475616455078125,0.10951476056128737,-0.613994335830212,-0.028151032030582394
1730865953.6838663,-1.6720153093338013,1.0732054710388184,-9.787087440490723,0.1177825927734375,-0.08664679527282715,-0.02244091033935547,0.11393014993518587,-0.6232670713216071,-0.03000454485416409
1730865953.7339408,-1.6663193702697754,0.9791675806045532,-9.763050079345703,0.0,0.0,0.0,0.11838234636932607,-0.6325668839365248,-0.031865070462226835
1730865953.7837968,-1.6707918643951416,0.9239218235015869,-9.750232696533203,-0.004472494125366211,0.05524575710296631,0.0128173828125,0.1228331451490521,-0.6418494322523479,-0.03372159063816067
1730865953.8338177,-1.6994575262069702,0.9047927856445312,-9.781537055969238,-0.033138155937194824,0.07437479496002197,-0.018486976623535156,0.12727219060063358,-0.6510914741456514,-0.035579882562160464
1730865953.8838098,-1.7137017250061035,0.9450106620788574,-9.824131965637207,-0.047382354736328125,0.0341569185256958,-0.061081886291503906,0.13168607339262958,-0.6602995998784905,-0.0374630397558212
1730865953.933771,-1.7199853658676147,1.0237822532653809,-9.900525093078613,-0.053665995597839355,-0.04461467266082764,-0.13747501373291016,0.13606837857514617,-0.669510993659497,-0.03940824598073957
1730865953.9838536,-1.7121604681015015,1.109671950340271,-9.941783905029297,-0.045841097831726074,-0.13050436973571777,-0.17873382568359375,0.140419587790966,-0.6787771121412522,-0.04145226746797559
1730865954.033785,-1.7125602960586548,1.1412822008132935,-9.991416931152344,-0.046240925788879395,-0.16211462020874023,-0.22836685180664062,0.1447420213744044,-0.6881346740573652,-0.04362350791692731
1730865954.0837812,-1.7383090257644653,1.1559922695159912,-9.991555213928223,-0.07198965549468994,-0.176824688911438,-0.22850513458251953,0.14902750790119168,-0.6975981545075781,-0.04593752086162565
1730865954.1337168,-1.7700742483139038,1.0934906005859375,-9.966474533081055,-0.10375487804412842,-0.11432301998138428,-0.20342445373535156,0.15325807426124807,-0.7071526186168201,-0.04838651180267332
1730865954.1838078,-1.7931220531463623,1.0574482679367065,-9.924484252929688,-0.12680268287658691,-0.07828068733215332,-0.16143417358398438,0.15741659138351677,-0.7167672713845975,-0.05094952106475828
1730865954.233678,-1.8051255941390991,0.9757516384124756,-9.861323356628418,-0.13880622386932373,0.0034159421920776367,-0.09827327728271484,0.16149210572242736,-0.7264053193852312,-0.053593688905239086
1730865954.2837088,-1.8243852853775024,0.909440279006958,-9.807530403137207,0.0,0.0,0.0,0.16552424311637878,-0.7360422999039299,-0.05626856714487074
1730865954.3335953,-1.831785798072815,0.8526820540428162,-9.77783489227295,-0.0074005126953125,0.056758224964141846,0.029695510864257812,0.16955406785011293,-0.7456615434773273,-0.058934165537357315
1730865954.3836603,-1.7967559099197388,0.8678164482116699,-9.767488479614258,0.027629375457763672,0.041623830795288086,0.04004192352294922,0.17359021410346032,-0.7552500426582999,-0.06157797098159788
1730865954.433618,-1.7605763673782349,0.9291214346885681,-9.799591064453125,0.06380891799926758,-0.019681155681610107,0.007939338684082031,0.17765493482351302,-0.7648316847532994,-0.06420678228139876
1730865954.4836576,-1.710945725440979,1.0032237768173218,-9.818702697753906,0.11343955993652344,-0.09378349781036377,-0.011172294616699219,0.1817750456929207,-0.7744487845525152,-0.06683660387992857
1730865954.5335536,-1.7012803554534912,1.053971767425537,-9.838756561279297,0.12310492992401123,-0.1445314884185791,-0.031226158142089844,0.18596907671540977,-0.7841403577849275,-0.0694796749949455
1730865954.5836434,-1.6881037950515747,1.0379717350006104,-9.849413871765137,0.13628149032592773,-0.12853145599365234,-0.04188346862792969,0.19024416599422694,-0.7939172631874687,-0.07214559286832808
1730865954.6335702,-1.7113316059112549,0.9963055849075317,-9.854170799255371,0.11305367946624756,-0.08686530590057373,-0.04664039611816406,0.1945971725136042,-0.8037614800781018,-0.07483917444944381
1730865954.683587,-1.745736837387085,0.9328804016113281,-9.85682487487793,0.07864844799041748,-0.023440122604370117,-0.049294471740722656,0.19901008594781164,-0.8136401674151428,-0.07756273567676544
1730865954.733575,-1.7479357719421387,0.8603179454803467,-9.831171989440918,0.07644951343536377,0.04912233352661133,-0.023641586303710938,0.20347146749496461,-0.8235108290612705,-0.08030908942222595
1730865954.7836032,-1.7491909265518188,0.843873918056488,-9.839099884033203,0.0751943588256836,0.06556636095046997,-0.031569480895996094,0.20798023775219918,-0.8333456504903741,-0.08307269662618635
1730865954.8335345,-1.719849944114685,0.8954249024391174,-9.856204986572266,0.0,0.0,0.0,0.21251250624656678,-0.8431599824316807,-0.08584616929292677
1730865954.8834958,-1.69038987159729,1.013269066810608,-9.893735885620117,0.02946007251739502,-0.11784416437149048,-0.03753089904785156,0.21705398101359608,-0.8530111406743534,-0.08863137036561963
1730865954.9335127,-1.6407148838043213,1.1782209873199463,-9.94733715057373,0.07913506031036377,-0.28279608488082886,-0.09113216400146484,0.22162939175963403,-0.8629874989949174,-0.09145677864551541
1730865954.9834745,-1.5968351364135742,1.3148117065429688,-9.980710983276367,0.12301480770111084,-0.4193868041038513,-0.12450599670410156,0.22626797433942555,-0.8731832894682892,-0.09434957385063168
1730865955.0333755,-1.5788203477859497,1.3853707313537598,-9.986942291259766,0.14102959632873535,-0.48994582891464233,-0.1307373046875,0.23098907079547643,-0.8836632463894791,-0.09732213258743283
1730865955.0834413,-1.59587824344635,1.345052719116211,-9.986001014709473,0.12397170066833496,-0.4496278166770935,-0.12979602813720703,0.2357929801568389,-0.8944368200749165,-0.10037610799074169
1730865955.1334794,-1.6471034288406372,1.241713523864746,-9.92891788482666,0.07274651527404785,-0.34628862142562866,-0.07271289825439453,0.24065836396068335,-0.9054591176472611,-0.10349336743354794
1730865955.1834555,-1.7504501342773438,1.1041513681411743,-9.85863208770752,-0.03060019016265869,-0.20872646570205688,-0.0024271011352539062,0.2455369184911251,-0.9166548574343331,-0.10663410812616345
1730865955.2333221,-1.8304283618927002,0.9711137413978577,-9.74976921081543,-0.11057841777801514,-0.07568883895874023,0.10643577575683594,0.25037135470658545,-0.9279394770041115,-0.1097423461079597
1730865955.2834413,-1.9156988859176636,0.9128645658493042,-9.670672416687012,-0.19584894180297852,-0.017439663410186768,0.1855325698852539,0.25511003237217666,-0.9392531992308802,-0.11275934398174281
1730865955.3332965,-1.9563443660736084,0.903839647769928,-9.61693286895752,-0.23649442195892334,-0.008414745330810547,0.2392721176147461,0.2597136027365923,-0.9505750009603805,-0.11564359039068217
1730865955.3834836,-1.9662718772888184,0.9583784937858582,-9.625625610351562,0.0,0.0,0.0,0.26424326859414576,-0.9618994322977967,-0.11845306426286692
1730865955.4342368,-1.923431158065796,1.0500279664993286,-9.705564498901367,0.04284071922302246,-0.09164947271347046,-0.07993888854980469,0.2687863221764564,-0.9732525040954358,-0.12128751903772349
1730865955.4842105,-1.8367159366607666,1.1513241529464722,-9.823517799377441,0.12955594062805176,-0.192945659160614,-0.1978921890258789,0.2733832497149706,-0.9846945118717857,-0.12420879602432244
1730865955.5342638,-1.7143102884292603,1.2665013074874878,-9.948857307434082,0.2519615888595581,-0.30812281370162964,-0.32323169708251953,0.27809940148144957,-0.996293103545905,-0.12729292422533028
1730865955.5842412,-1.5934988260269165,1.3747628927230835,-10.055098533630371,0.37277305126190186,-0.41638439893722534,-0.4294729232788086,0.28301078282296654,-1.008118103723974,-0.13061227262020103
1730865955.6342456,-1.4835880994796753,1.4298890829086304,-10.111140251159668,0.48268377780914307,-0.4715105891227722,-0.48551464080810547,0.2881894944235682,-1.0202205710858117,-0.13421755462884896
1730865955.6842623,-1.443881630897522,1.4316983222961426,-10.103753089904785,0.5223902463912964,-0.4733198285102844,-0.47812747955322266,0.29368229165673254,-1.0326182979531595,-0.1381239748001098
1730865955.7341847,-1.4952565431594849,1.3775787353515625,-10.049909591674805,0.4710153341293335,-0.41920024156570435,-0.4242839813232422,0.2994855281338095,-1.0452949373424063,-0.14231239855289454
1730865955.7842758,-1.6399167776107788,1.2702287435531616,-9.953142166137695,0.32635509967803955,-0.31185024976730347,-0.3275165557861328,0.30553794287145136,-1.0582000300101946,-0.14673575997352595
1730865955.8341494,-1.8158236742019653,1.1555479764938354,-9.814238548278809,0.15044820308685303,-0.1971694827079773,-0.1886129379272461,0.3117393586412072,-1.0712641913443812,-0.15132041186094278
1730865955.8841746,-1.987913966178894,1.0372942686080933,-9.684324264526367,-0.021642088890075684,-0.07891577482223511,-0.05869865417480469,0.31798102632164954,-1.0844146293215462,-0.1559823486208915
1730865955.9341092,-2.1046435832977295,0.9711049795150757,-9.589987754821777,0.0,0.0,0.0,0.3242159308493137,-1.0975897284783431,-0.16066262871026984
1730865955.9841945,-2.1483964920043945,0.9394667744636536,-9.553539276123047,-0.04375290870666504,0.03163820505142212,0.03644847869873047,0.33043716259300704,-1.1107549406960615,-0.16533151865005483
1730865956.0340698,-2.121264934539795,0.9565346837043762,-9.586009979248047,-0.01662135124206543,0.014570295810699463,0.003977775573730469,0.33663952738046643,-1.1239057127572605,-0.16998777538537968
1730865956.0840585,-2.039263963699341,0.9619608521461487,-9.645097732543945,0.06537961959838867,0.009144127368927002,-0.05510997772216797,0.3428571291267871,-1.1370490740612158,-0.17466001093387593
1730865956.1340225,-1.9312196969985962,0.9948458671569824,-9.719782829284668,0.1734238862991333,-0.02374088764190674,-0.12979507446289062,0.3491493569687008,-1.1501969968527563,-0.17939002931118
1730865956.184022,-1.8107657432556152,1.0069457292556763,-9.799466133117676,0.29387784004211426,-0.035840749740600586,-0.20947837829589844,0.3555876166000962,-1.163363538905979,-0.1842260706424712
1730865956.2339506,-1.7375962734222412,1.0039891004562378,-9.883305549621582,0.3670473098754883,-0.03288412094116211,-0.2933177947998047,0.3622324153408408,-1.1765515574812897,-0.18921923577785482
1730865956.2840056,-1.6901278495788574,0.9899908900260925,-9.963652610778809,0.41451573371887207,-0.018885910511016846,-0.37366485595703125,0.36912145253270856,-1.1897557541914292,-0.19442083299159996
1730865956.3338845,-1.6511867046356201,1.0167818069458008,-10.022025108337402,0.4534568786621094,-0.0456768274307251,-0.432037353515625,0.37628173116594543,-1.2029801267571754,-0.19987421214580528
1730865956.3839247,-1.626352071762085,1.0566904544830322,-10.058816909790039,0.47829151153564453,-0.08558547496795654,-0.4688291549682617,0.3837331811711191,-1.2162455187924213,-0.20560911208391183
1730865956.433835,-1.6089198589324951,1.1275053024291992,-10.08283519744873,0.4957237243652344,-0.15640032291412354,-0.4928474426269531,0.39148901093751176,-1.2295865313895054,-0.21164453595876687
1730865956.4838657,-1.548673152923584,1.161179542541504,-10.08017635345459,0.0,0.0,0.0,0.3993997543677686,-1.2429764190875001,-0.21783397465944282
1730865956.533793,-1.5168516635894775,1.1840696334838867,-10.051786422729492,0.031821489334106445,-0.022890090942382812,0.028389930725097656,0.4073204420134423,-1.2563734599389145,-0.22401454150676717
1730865956.5838237,-1.4813148975372314,1.1318827867507935,-9.987784385681152,0.06735825538635254,0.02929675579071045,0.0923919677734375,0.4152721233293412,-1.2697684987075637,-0.23015736401081074
1730865956.6337664,-1.4938756227493286,1.0512200593948364,-9.905617713928223,0.05479753017425537,0.10995948314666748,0.1745586395263672,0.4232619783282278,-1.283120019901545,-0.23621676445007314
1730865956.683823,-1.5253958702087402,0.9455553293228149,-9.82075309753418,0.02327728271484375,0.21562421321868896,0.25942325592041016,0.43127623170614227,-1.296369796190412,-0.24214054554700842
1730865956.7337284,-1.6069215536117554,0.8572342395782471,-9.72569751739502,-0.05824840068817139,0.30394530296325684,0.3544788360595703,0.43927955660969004,-1.3094572070054722,-0.24787248224019995
1730865956.7837372,-1.7038275003433228,0.803158164024353,-9.66273307800293,-0.15515434741973877,0.3580213785171509,0.41744327545166016,0.44721619315445404,-1.3223377532325697,-0.2533631932735442
1730865956.8336544,-1.8090814352035522,0.8006678223609924,-9.635173797607422,-0.26040828227996826,0.3605117201805115,0.44500255584716797,0.45502296637743694,-1.3349937578663242,-0.2585843899846076
1730865956.883653,-1.8927173614501953,0.8072279691696167,-9.634767532348633,-0.34404420852661133,0.3539515733718872,0.44540882110595703,0.46264084819704276,-1.3474264927208435,-0.26352733314037313
1730865956.9336395,-1.9440635442733765,0.8602471947669983,-9.668485641479492,-0.3953903913497925,0.3009323477745056,0.41169071197509766,0.4700276567041872,-1.3596545763500045,-0.2682024326920508
1730865956.9837236,-1.9826576709747314,0.9154075980186462,-9.733817100524902,-0.43398451805114746,0.24577194452285767,0.3463592529296875,0.47715528555214387,-1.3717118148878227,-0.27264064162969576
1730865957.033659,-1.9989776611328125,0.9727869033813477,-9.810914993286133,0.0,0.0,0.0,0.48414729423820957,-1.3836922496929775,-0.2769706133008002
1730865957.083661,-1.9968469142913818,1.0430967807769775,-9.891023635864258,0.002130746841430664,-0.07030987739562988,-0.080108642578125,0.4911399687826632,-1.3956946563348185,-0.2813256189227103
1730865957.1336153,-1.9078164100646973,1.1033395528793335,-9.982389450073242,0.09116125106811523,-0.13055264949798584,-0.17147445678710938,0.4981617970764635,-1.4077598325163136,-0.285759244263172
1730865957.1835968,-1.811535358428955,1.1505705118179321,-10.037453651428223,0.18744230270385742,-0.17778360843658447,-0.22653865814208984,0.5052706889808176,-1.4199213637784134,-0.2903172487020491
1730865957.2335598,-1.684177279472351,1.158101201057434,-10.068291664123535,0.3148003816604614,-0.18531429767608643,-0.25737667083740234,0.5125365317240356,-1.4321963631361734,-0.2950264766812323
1730865957.2836456,-1.607757568359375,1.1402833461761475,-10.083259582519531,0.3912200927734375,-0.1674964427947998,-0.27234458923339844,0.5200230058655141,-1.4445816158503304,-0.2999012425541876
1730865957.3335211,-1.5794684886932373,1.0847864151000977,-10.054425239562988,0.4195091724395752,-0.11199951171875,-0.24351024627685547,0.5277628329023717,-1.4570542110502729,-0.3049372130632399
1730865957.3835816,-1.6266781091690063,1.0333889722824097,-10.00820255279541,0.37229955196380615,-0.06060206890106201,-0.19728755950927734,0.5357501001656053,-1.4695807442441593,-0.31011093288660035
1730865957.4335127,-1.7076492309570312,0.985153317451477,-9.948284149169922,0.29132843017578125,-0.012366414070129395,-0.13736915588378906,0.5439447511732576,-1.482130080088974,-0.3153892329335211
1730865957.4836228,-1.7534598112106323,0.9991579055786133,-9.872818946838379,0.24551784992218018,-0.026371002197265625,-0.061903953552246094,0.5523071666434405,-1.4946915213763725,-0.3207298058271406
1730865957.5335631,-1.761965274810791,1.019677996635437,-9.80775260925293,0.23701238632202148,-0.046891093254089355,0.003162384033203125,0.5608203728124497,-1.5072758570685993,-0.32608873546123485
1730865957.5835302,-1.7332777976989746,1.0601274967193604,-9.740081787109375,0.0,0.0,0.0,0.5694076453521845,-1.519874846227468,-0.3314466768503187
1730865957.633568,-1.7360866069793701,1.0578792095184326,-9.706241607666016,-0.002808809280395508,0.0022482872009277344,0.033840179443359375,0.5779940401390191,-1.5324731327965864,-0.3367940431833265
1730865957.683474,-1.7078824043273926,1.0534155368804932,-9.675688743591309,0.02539539337158203,0.0067119598388671875,0.0643930435180664,0.5865874932333823,-1.5450686192885048,-0.34211071163415885
1730865957.733404,-1.7233083248138428,1.0290294885635376,-9.678693771362305,0.009969472885131836,0.031098008155822754,0.06138801574707031,0.5951919978484508,-1.557652290165425,-0.3473880735039709
1730865957.7834828,-1.7296462059020996,1.0342074632644653,-9.693284034729004,0.003631591796875,0.02592003345489502,0.046797752380371094,0.6038007527962322,-1.570218142904342,-0.35263162732124304
1730865957.833414,-1.7782323360443115,1.0552161931991577,-9.738544464111328,-0.044954538345336914,0.004911303520202637,0.001537322998046875,0.6123965943232174,-1.582774360850454,-0.3578600764274595
1730865957.8834038,-1.8271551132202148,1.1032934188842773,-9.756502151489258,-0.09387731552124023,-0.04316592216491699,-0.016420364379882812,0.6209490508958693,-1.5953425333648927,-0.3630931764841077
1730865957.933347,-1.8970963954925537,1.1459044218063354,-9.80887222290039,-0.1638185977935791,-0.0857769250869751,-0.06879043579101562,0.6294209774956103,-1.6079510005190976,-0.3683529049158094
1730865957.983341,-1.9201931953430176,1.1988476514816284,-9.833016395568848,-0.18691539764404297,-0.13872015476226807,-0.09293460845947266,0.637783299721777,-1.6206296230107553,-0.37366317242383934
1730865958.0332818,-1.93211030960083,1.2210768461227417,-9.855461120605469,-0.19883251190185547,-0.16094934940338135,-0.11537933349609375,0.6460250757262107,-1.633401892222465,-0.3790385380387304
1730865958.0833924,-1.8952357769012451,1.1917591094970703,-9.863088607788086,-0.1619579792022705,-0.13163161277770996,-0.12300682067871094,0.6541541047021743,-1.646265592984856,-0.38448839932680107
1730865958.1332362,-1.8420480489730835,1.143674373626709,-9.883455276489258,0.0,0.0,0.0,0.6622325218096372,-1.65917042862624,-0.38997670024633385
1730865958.1833367,-1.7618697881698608,1.129366159439087,-9.8805570602417,0.08017826080322266,0.01430821418762207,0.0028982162475585938,0.6703359946236012,-1.6720707929506906,-0.39546409547328926
1730865958.2332082,-1.694387674331665,1.115341305732727,-9.905627250671387,0.14766037464141846,0.028333067893981934,-0.022171974182128906,0.6785106670111415,-1.6849578318744907,-0.4009575137495992
1730865958.2832747,-1.6100733280181885,1.094612956047058,-9.931663513183594,0.23197472095489502,0.04906141757965088,-0.04820823669433594,0.6868039753660556,-1.6978206850215802,-0.40647292584180805
1730865958.3331993,-1.5418109893798828,1.0807050466537476,-9.972339630126953,0.3002370595932007,0.06296932697296143,-0.08888435363769531,0.6952635999023912,-1.7106485285609971,-0.41203117936849565
1730865958.383289,-1.499990701675415,1.0729589462280273,-10.015694618225098,0.34205734729766846,0.07071542739868164,-0.13223934173583984,0.70392394144088,-1.7234345956146728,-0.41765853404998754
1730865958.4332135,-1.4388550519943237,1.0682786703109741,-10.016959190368652,0.40319299697875977,0.07539570331573486,-0.13350391387939453,0.7128171737119553,-1.7361750029400003,-0.4233689334988592
1730865958.4831707,-1.4234479665756226,1.0768064260482788,-10.036955833435059,0.41860008239746094,0.06686794757843018,-0.15350055694580078,0.7219672163203356,-1.748870952874423,-0.42916902184486366
1730865958.5341525,-1.4432932138442993,1.1116139888763428,-10.005428314208984,0.3987548351287842,0.03206038475036621,-0.12197303771972656,0.7313726823404428,-1.7615359877049932,-0.43505519568920115
1730865958.5831633,-1.5085569620132446,1.1484904289245605,-9.962830543518066,0.33349108695983887,-0.0048160552978515625,-0.0793752670288086,0.7410069752112027,-1.7741925086826096,-0.4410042908787725
1730865958.6341417,-1.5824558734893799,1.1850098371505737,-9.87814998626709,0.2595921754837036,-0.041335463523864746,0.005305290222167969,0.7508266066014763,-1.7868634520098579,-0.44697653293609596
1730865958.6841717,-1.7026240825653076,1.1562330722808838,-9.797066688537598,0.0,0.0,0.0,0.7607273605465885,-1.7995473126694572,-0.452947117090225
1730865958.7341104,-1.8434793949127197,1.0966352224349976,-9.701960563659668,-0.1408553123474121,0.05959784984588623,0.09510612487792969,0.7705840972065922,-1.8122125490009797,-0.4588879805803297
1730865958.7841659,-1.9647480249404907,1.0394996404647827,-9.635427474975586,-0.2621239423751831,0.11673343181610107,0.16163921356201172,0.780314902849495,-1.8248226818069828,-0.46474861115217186
1730865958.8331368,-2.0362460613250732,0.9632866978645325,-9.589738845825195,-0.3336219787597656,0.19294637441635132,0.20732784271240234,0.7898595378920431,-1.8373360396735383,-0.4704939395189283
1730865958.8841126,-2.0580220222473145,0.9396564364433289,-9.595098495483398,-0.35539793968200684,0.21657663583755493,0.20196819305419922,0.7991888542100782,-1.8497214215993896,-0.4761113628745077
1730865958.9341154,-2.0260348320007324,0.9472898840904236,-9.640368461608887,-0.3234107494354248,0.2089431881904602,0.15669822692871094,0.8083060428127642,-1.8619738285802319,-0.48161670297384246
1730865958.984118,-1.9630955457687378,1.0134309530258179,-9.721592903137207,-0.2604714632034302,0.14280211925506592,0.07547378540039062,0.8172407682240005,-1.8741163151524975,-0.48704948931932435
1730865959.0339692,-1.895137906074524,1.0919886827468872,-9.815616607666016,-0.1925138235092163,0.06424438953399658,-0.01854991912841797,0.8260339357331391,-1.8861940996907667,-0.4924644869565962
1730865959.0840662,-1.8222602605819702,1.1473636627197266,-9.905097961425781,-0.1196361780166626,0.008869409561157227,-0.1080312728881836,0.8347295563668008,-1.8982490361668185,-0.49791904121637326
1730865959.1339521,-1.7455374002456665,1.1361726522445679,-9.956357955932617,-0.04291331768035889,0.020060420036315918,-0.15929126739501953,0.8433743802830572,-1.910294932071121,-0.5034571337699888
1730865959.1839936,-1.700907826423645,1.1482601165771484,-10.000899314880371,0.0017162561416625977,0.007972955703735352,-0.20383262634277344,0.8520063301175828,-1.922332067545505,-0.5091087025403974
1730865959.233999,-1.7207727432250977,1.1174755096435547,-10.020934104919434,0.0,0.0,0.0,0.8606388162821526,-1.9343667114712313,-0.5148239690065382
1730865959.2839696,-1.7523990869522095,1.134559988975525,-9.988039016723633,-0.031626343727111816,-0.017084479331970215,0.03289508819580078,0.8692614192143078,-1.9464066942967488,-0.5205289557576177
1730865959.3339097,-1.8286563158035278,1.1376848220825195,-9.950651168823242,-0.10788357257843018,-0.020209312438964844,0.0702829360961914,0.8778404252976174,-1.9584583314321948,-0.5262016993761061
1730865959.3839538,-1.8731988668441772,1.1633003950119019,-9.883402824401855,-0.1524261236190796,-0.04582488536834717,0.13753128051757812,0.8863380846008653,-1.9705306042544557,-0.5318095010519025
1730865959.43391,-1.87714421749115,1.2097761631011963,-9.829784393310547,-0.15637147426605225,-0.0923006534576416,0.19114971160888672,0.8947392446547742,-1.9826460413075997,-0.5373145899176595
1730865959.483997,-1.8527741432189941,1.2444229125976562,-9.779115676879883,-0.13200139999389648,-0.12694740295410156,0.24181842803955078,0.9030502881854767,-1.9948299933783724,-0.5426843762397764
1730865959.5338774,-1.7791498899459839,1.2536530494689941,-9.761033058166504,-0.05837714672088623,-0.13617753982543945,0.2599010467529297,0.911301838420331,-2.0070961719937634,-0.5478973752260206
1730865959.583923,-1.7433054447174072,1.2289862632751465,-9.7857084274292,-0.02253270149230957,-0.1115107536315918,0.23522567749023438,0.9195281043276186,-2.01943975320086,-0.5529556471109388
1730865959.6338441,-1.7001326084136963,1.2023404836654663,-9.813427925109863,0.020640134811401367,-0.08486497402191162,0.2075061798095703,0.9277537788078183,-2.0318447018228483,-0.5578755652904509
1730865959.6838272,-1.658395528793335,1.1724835634231567,-9.855494499206543,0.062377214431762695,-0.05500805377960205,0.16543960571289062,0.9360053962096566,-2.0442933607660243,-0.5626789379119871
1730865959.733828,-1.589672565460205,1.1396898031234741,-9.88569164276123,0.13110017776489258,-0.022214293479919434,0.13524246215820312,0.9443174752965563,-2.0567661516927194,-0.5673883473873136
1730865959.7838185,-1.5081108808517456,1.1046420335769653,-9.922158241271973,0.0,0.0,0.0,0.9526705231890076,-2.0692458845861266,-0.5720554935932157
1730865959.833836,-1.4295170307159424,1.1049782037734985,-9.95274543762207,0.07859385013580322,-0.0003361701965332031,-0.030587196350097656,0.9610481316596263,-2.0817257225327204,-0.5767321982979773
1730865959.8838398,-1.4276865720748901,1.1359474658966064,-9.951932907104492,0.08042430877685547,-0.03130543231964111,-0.02977466583251953,0.9694754333049053,-2.0942154484801008,-0.5814277660846708
1730865959.9337692,-1.4848183393478394,1.1582427024841309,-9.916403770446777,0.02329254150390625,-0.05360066890716553,0.0057544708251953125,0.9779351464658969,-2.1067317075841143,-0.5861308401823042
1730865959.9839382,-1.5948827266693115,1.1681678295135498,-9.850994110107422,-0.08677184581756592,-0.06352579593658447,0.07116413116455078,0.9863750223442905,-2.1192845687083914,-0.5908098772168158
1730865960.0338023,-1.7093874216079712,1.1369863748550415,-9.79179573059082,-0.20127654075622559,-0.03234434127807617,0.13036251068115234,0.9947248831018798,-2.131867389250548,-0.5954259371757505
1730865960.083812,-1.8193243741989136,1.1080282926559448,-9.737626075744629,-0.31121349334716797,-0.003386259078979492,0.18453216552734375,1.0029145907238117,-2.144461375605316,-0.5999435925483702
1730865960.1337838,-1.884267807006836,1.1029753684997559,-9.714607238769531,-0.37615692615509033,0.0016666650772094727,0.2075510025024414,1.0108894950896494,-2.15705589933321,-0.6043387219309805
1730865960.1837988,-1.9105286598205566,1.1115912199020386,-9.716594696044922,-0.40241777896881104,-0.006949186325073242,0.20556354522705078,1.0186210948601357,-2.1696520738489937,-0.6086047530174253
1730865960.2337227,-1.9257912635803223,1.116139531135559,-9.744019508361816,-0.41768038272857666,-0.01149749755859375,0.17813873291015625,1.0260964139550917,-2.182254012953491,-0.6127508771419523
1730865960.28374,-1.9447674751281738,1.1083884239196777,-9.78177261352539,-0.4366565942764282,-0.0037463903427124023,0.14038562774658203,1.0333047527447334,-2.1948607157729576,-0.6167974624037741
1730865960.3336928,-1.942165493965149,1.0875669717788696,-9.824285507202148,0.0,0.0,0.0,1.040376636348664,-2.207468589339406,-0.620800177156925
1730865960.383695,-1.9253342151641846,1.0885087251663208,-9.844911575317383,0.016831278800964355,-0.0009417533874511719,-0.020626068115234375,1.0474537797272199,-2.2200767572037883,-0.624809337556362
1730865960.4336674,-1.8715403079986572,1.0781447887420654,-9.8873929977417,0.0706251859664917,0.0094221830368042,-0.06310749053955078,1.0545582532510156,-2.232682274933905,-0.6288446646928786
1730865960.48365,-1.8378441333770752,1.0401469469070435,-9.917705535888672,0.10432136058807373,0.04742002487182617,-0.09342002868652344,1.0617173975706096,-2.2452700294740504,-0.6329289066791532
1730865960.5337403,-1.7672381401062012,1.032460331916809,-9.951805114746094,0.17492735385894775,0.05510663986206055,-0.1275196075439453,1.0689638071134682,-2.2578257444314667,-0.63708219230175
1730865960.5838394,-1.7021394968032837,1.0370874404907227,-9.975760459899902,0.24002599716186523,0.05047953128814697,-0.1514749526977539,1.0763398895785206,-2.2703484637103983,-0.6413226637244223
1730865960.6337297,-1.65043306350708,1.073177456855774,-10.0149564743042,0.29173243045806885,0.014389514923095703,-0.19067096710205078,1.0838821465522044,-2.282850911412389,-0.645670055747032
1730865960.6836996,-1.6014059782028198,1.14634108543396,-10.020565032958984,0.3407595157623291,-0.05877411365509033,-0.19627952575683594,1.0916220572590822,-2.2953672293014833,-0.6501383697986601
1730865960.733647,-1.5850491523742676,1.22859787940979,-9.987622261047363,0.35711634159088135,-0.1410309076309204,-0.16333675384521484,1.0995800541713827,-2.3079459862597296,-0.6547190639376639
1730865960.7837098,-1.6096011400222778,1.2526041269302368,-9.945744514465332,0.3325643539428711,-0.1650371551513672,-0.1214590072631836,1.1077535763010375,-2.3206203894875954,-0.659388756752014
1730865960.8336103,-1.665219783782959,1.2559261322021484,-9.857342720031738,0.27694571018218994,-0.1683591604232788,-0.033057212829589844,1.1161175703257316,-2.333398979064078,-0.6641067358851431
1730865960.8836133,-1.7471556663513184,1.2027697563171387,-9.769553184509277,0.0,0.0,0.0,1.1245681098848574,-2.346230180878193,-0.6688350453972814
1730865960.9335773,-1.8258168697357178,1.1118991374969482,-9.667461395263672,-0.07866120338439941,0.09087061882019043,0.10209178924560547,1.1329940678179258,-2.359032985623927,-0.6735314512252805
1730865960.9835758,-1.8815194368362427,1.0185134410858154,-9.608986854553223,-0.13436377048492432,0.18425631523132324,0.1605663299560547,1.1413534554466598,-2.37174981320277,-0.678145776391029
1730865961.033538,-1.8734042644500732,0.954424262046814,-9.58102798461914,-0.12624859809875488,0.2483454942703247,0.18852519989013672,1.1496314017102114,-2.384331452716143,-0.6826510104537007
1730865961.0836797,-1.824157476425171,0.9195178747177124,-9.613903045654297,-0.07700181007385254,0.28325188159942627,0.15565013885498047,1.157845832221209,-2.3967469680495572,-0.6870486897230145
1730865961.133535,-1.7324042320251465,0.9404146075248718,-9.695297241210938,0.014751434326171875,0.26235514879226685,0.07425594329833984,1.1660408094897856,-2.4089919811859737,-0.6913745233416554
1730865961.1836119,-1.6441199779510498,0.9858413338661194,-9.814929962158203,0.10303568840026855,0.2169284224510193,-0.04537677764892578,1.1742725952342141,-2.421087218206377,-0.6956913322210309
1730865961.2334654,-1.5686087608337402,1.074684739112854,-9.920032501220703,0.17854690551757812,0.12808501720428467,-0.15047931671142578,1.1825923755392422,-2.433074638526888,-0.7000693461298939
1730865961.283573,-1.542607307434082,1.151999592781067,-10.003628730773926,0.20454835891723633,0.05077016353607178,-0.23407554626464844,1.191031873114406,-2.445006166603418,-0.704567533433437
1730865961.3333614,-1.5542049407958984,1.2301385402679443,-10.041191101074219,0.19295072555541992,-0.027368783950805664,-0.2716379165649414,1.1995955891534675,-2.456930381748827,-0.7092237561941144
1730865961.3834236,-1.6225168704986572,1.2406723499298096,-10.066964149475098,0.12463879585266113,-0.0379025936126709,-0.2974109649658203,1.208258551917969,-2.468874994199725,-0.71405780673027
1730865961.4334004,-1.7253564596176147,1.2138913869857788,-10.027120590209961,0.0,0.0,0.0,1.2169604643061744,-2.4808314512111265,-0.7189847981929774
1730865961.4834306,-1.8377536535263062,1.1672279834747314,-9.96264362335205,-0.1123971939086914,0.04666340351104736,0.06447696685791016,1.2256272525712835,-2.492773325908931,-0.7238916406035418
1730865961.5334456,-1.8791604042053223,1.118408203125,-9.90227222442627,-0.15380394458770752,0.09548318386077881,0.1248483657836914,1.2342108529806124,-2.5046707797981815,-0.7287393188476557
1730865961.5833516,-1.8703622817993164,1.049418330192566,-9.87574577331543,-0.14500582218170166,0.1644730567932129,0.15137481689453125,1.2427010753378258,-2.516486997362228,-0.7335006773471827
1730865961.6333067,-1.7904411554336548,0.9940613508224487,-9.860814094543457,-0.06508469581604004,0.21983003616333008,0.1663064956665039,1.251125644408165,-2.5281831202097256,-0.7381627604365343
1730865961.683353,-1.6464136838912964,0.9628157019615173,-9.86606502532959,0.07894277572631836,0.2510756850242615,0.1610555648803711,1.2595545441284761,-2.539732085019352,-0.742722542881965
1730865961.7333167,-1.5627888441085815,0.9482263922691345,-9.848698616027832,0.1625676155090332,0.2656649947166443,0.1784219741821289,1.2680589158460485,-2.551119568366559,-0.7471762385964388
1730865961.783527,-1.562458872795105,0.9341247081756592,-9.841981887817383,0.16289758682250977,0.27976667881011963,0.18513870239257812,1.2766649954393492,-2.5623366043157896,-0.7515163215994829
1730865961.8334281,-1.5797141790390015,0.9555282592773438,-9.840194702148438,0.14564228057861328,0.25836312770843506,0.18692588806152344,1.285367493741213,-2.5733854747004825,-0.7557401344180101
1730865961.883437,-1.656130313873291,1.0449622869491577,-9.828990936279297,0.06922614574432373,0.1689291000366211,0.19812965393066406,1.2941371384263025,-2.5843008162640055,-0.7598436173796649
1730865961.933372,-1.7408385276794434,1.130565881729126,-9.812065124511719,-0.015482068061828613,0.08332550525665283,0.2150554656982422,1.3029235781356678,-2.595137328263374,-0.7638179799914355
1730865961.9834905,-1.8037424087524414,1.1793253421783447,-9.80042552947998,0.0,0.0,0.0,1.3117051796987638,-2.6059478010423502,-0.7677251377701755
1730865962.0333447,-1.8700915575027466,1.1633671522140503,-9.820185661315918,-0.06634914875030518,0.015958189964294434,-0.0197601318359375,1.3204660471528753,-2.6167532868869627,-0.7716384705901141
1730865962.083408,-1.9134926795959473,1.100498914718628,-9.80792236328125,-0.10975027084350586,0.0788264274597168,-0.007496833801269531,1.329171883538364,-2.6275291525386297,-0.7755603212118144
1730865962.1332574,-1.9817607402801514,0.9967160820960999,-9.799867630004883,-0.17801833152770996,0.18260926008224487,0.0005578994750976562,1.3377877922356114,-2.63822331953794,-0.7794843402504916
1730865962.1833553,-2.009242534637451,0.8998187184333801,-9.762540817260742,-0.20550012588500977,0.2795066237449646,0.03788471221923828,1.3462838514149174,-2.6487730753235543,-0.7833963459730143
1730865962.2332752,-2.0146119594573975,0.8520634174346924,-9.732019424438477,-0.21086955070495605,0.32726192474365234,0.0684061050415039,1.3546497950702892,-2.6591332159377656,-0.7872751358151431
1730865962.2832632,-1.9653370380401611,0.8578269481658936,-9.763777732849121,-0.16159462928771973,0.32149839401245117,0.036647796630859375,1.362899343669413,-2.669290618952366,-0.7911210963129992
1730865962.3331802,-1.8760980367660522,0.9307280778884888,-9.811843872070312,-0.07235562801361084,0.24859726428985596,-0.011418342590332031,1.3710757828131304,-2.6792698670737467,-0.7949591726064676
1730865962.3832405,-1.7786275148391724,1.0387083292007446,-9.875558853149414,0.025114893913269043,0.1406170129776001,-0.0751333236694336,1.3792374592274415,-2.6891274857334815,-0.7988242962956422
1730865962.4332123,-1.7020138502120972,1.1243410110473633,-9.926508903503418,0.10172855854034424,0.054984331130981445,-0.1260833740234375,1.3874387742206442,-2.6989239789731823,-0.8027523002028458
1730865962.4832904,-1.6601722240447998,1.1989141702651978,-9.964488983154297,0.1435701847076416,-0.019588828086853027,-0.1640634536743164,1.3957167450711119,-2.708709411118182,-0.806770974993705
1730865962.5331616,-1.6342209577560425,1.2611186504364014,-9.975395202636719,0.0,0.0,0.0,1.4040395816043008,-2.7185009647719585,-0.8108409196138374
1730865962.5832772,-1.622498869895935,1.2675787210464478,-9.962905883789062,0.011722087860107422,-0.006460070610046387,0.01248931884765625,1.412366081289946,-2.7282945371978005,-0.8149069613218299
1730865962.6331246,-1.639206886291504,1.2061913013458252,-9.937066078186035,-0.004985928535461426,0.05492734909057617,0.038329124450683594,1.42069468602538,-2.7380729635991177,-0.8189571222662918
1730865962.6834114,-1.6860491037368774,1.1449236869812012,-9.880510330200195,-0.05182814598083496,0.1161949634552002,0.09488487243652344,1.4290055363625276,-2.7477979142777644,-0.8229656538367264
1730865962.7330935,-1.7109571695327759,1.0855287313461304,-9.83228588104248,-0.0767362117767334,0.175589919090271,0.14310932159423828,1.437276210337876,-2.7574316821806155,-0.8268998122215263
1730865962.7832174,-1.709753394126892,1.0741137266159058,-9.788422584533691,-0.07553243637084961,0.1870049238204956,0.18697261810302734,1.4454993003606784,-2.766952139195057,-0.8307308200001708
1730865962.8330767,-1.6724727153778076,1.0828081369400024,-9.795247077941895,-0.03825175762176514,0.17831051349639893,0.18014812469482422,1.453686832822858,-2.776358435135337,-0.8344471025466911
1730865962.8830912,-1.6206578016281128,1.0981696844100952,-9.837224006652832,0.013563156127929688,0.16294896602630615,0.13817119598388672,1.461866650097071,-2.7856580874882666,-0.8380639103054993
1730865962.933006,-1.5427521467208862,1.13316011428833,-9.84755802154541,0.09146881103515625,0.1279585361480713,0.1278371810913086,1.4700792898610222,-2.794866831246766,-0.8415975904464715
1730865962.9830446,-1.5629488229751587,1.1618047952651978,-9.863628387451172,0.07127213478088379,0.09931385517120361,0.11176681518554688,1.4783427861705412,-2.8040045523829784,-0.8450563943386071
1730865963.0340078,-1.629149079322815,1.215698003768921,-9.845447540283203,0.005071878433227539,0.04542064666748047,0.12994766235351562,1.4866301399841892,-2.813097043987366,-0.8484396624565117
1730865963.084012,-1.6967530250549316,1.2590280771255493,-9.838217735290527,0.0,0.0,0.0,1.4949190787598479,-2.8221753416396704,-0.8517823219299309
1730865963.1339903,-1.7413307428359985,1.2730633020401,-9.82457160949707,-0.044577717781066895,-0.014035224914550781,0.013646125793457031,1.5031940869987,-2.8312580252997606,-0.8551207169890396
1730865963.1839724,-1.7646113634109497,1.2583575248718262,-9.81188678741455,-0.06785833835601807,0.0006705522537231445,0.026330947875976562,1.5114339589700092,-2.8403448854200573,-0.8584466192126265
1730865963.233917,-1.7786732912063599,1.2127102613449097,-9.802888870239258,-0.08192026615142822,0.04631781578063965,0.03532886505126953,1.5196270251274098,-2.8494170616753434,-0.8617532527446738
1730865963.2838762,-1.8130278587341309,1.14822256565094,-9.807696342468262,-0.11627483367919922,0.11080551147460938,0.030521392822265625,1.5277581553161135,-2.858440136890862,-0.8650393080711357
1730865963.333905,-1.809478998184204,1.100132703781128,-9.810400009155273,-0.11272597312927246,0.1588953733444214,0.027817726135253906,1.5358177227526895,-2.8673789305798745,-0.8683071324229232
1730865963.383851,-1.797210454940796,1.1131501197814941,-9.829365730285645,-0.10045742988586426,0.14587795734405518,0.008852005004882812,1.543810670375823,-2.8762224826030467,-0.8715634974837295
1730865963.4338167,-1.7991148233413696,1.125964879989624,-9.836786270141602,-0.10236179828643799,0.1330631971359253,0.0014314651489257812,1.5517402369901527,-2.884978865515444,-0.8748166489601127
1730865963.4838102,-1.7826963663101196,1.1695894002914429,-9.845488548278809,-0.08594334125518799,0.08943867683410645,-0.00727081298828125,1.559610958248376,-2.893665716592226,-0.8780716252326957
1730865963.5337822,-1.7767739295959473,1.2048052549362183,-9.856528282165527,-0.08002090454101562,0.054222822189331055,-0.018310546875,1.5674298156797877,-2.902307673450563,-0.881334595680236
1730865963.5838563,-1.8129676580429077,1.1983704566955566,-9.851751327514648,-0.11621463298797607,0.060657620429992676,-0.013533592224121094,1.5751873495057216,-2.910913730170581,-0.8846075174212448
1730865963.633715,-1.865580439567566,1.1427628993988037,-9.82577133178711,0.0,0.0,0.0,1.5829085662588467,-2.919500831384215,-0.8878846684098236
1730865963.68373,-1.881205439567566,1.0834192037582397,-9.824111938476562,-0.015625,0.059343695640563965,0.001659393310546875,1.5906249001994717,-2.928069387692961,-0.8911613008379929
1730865963.7337158,-1.863053321838379,1.0553536415100098,-9.826824188232422,0.0025271177291870117,0.08740925788879395,-0.0010528564453125,1.5983371410518872,-2.93659208370373,-0.8944377437233918
1730865963.7837036,-1.8265241384506226,1.0528087615966797,-9.850543975830078,0.03905630111694336,0.08995413780212402,-0.02477264404296875,1.606062376722692,-2.945059353653345,-0.8977222570776933
1730865963.8336518,-1.7715882062911987,1.0776413679122925,-9.877630233764648,0.09399223327636719,0.06512153148651123,-0.05185890197753906,1.6138291900604949,-2.9534781624563076,-0.9010307177901261
1730865963.8837056,-1.7354477643966675,1.0973707437515259,-9.941924095153809,0.13013267517089844,0.04539215564727783,-0.11615276336669922,1.6216660424321876,-2.9618624357320407,-0.904391682147979
1730865963.9335935,-1.689695954322815,1.1317925453186035,-9.966397285461426,0.17588448524475098,0.010970354080200195,-0.1406259536743164,1.6295985251665102,-2.970229095723484,-0.9078328898549073
1730865963.9836588,-1.6389662027359009,1.1293141841888428,-9.971222877502441,0.22661423683166504,0.013448715209960938,-0.14545154571533203,1.6376567887514815,-2.978588124755774,-0.9113634967803949
1730865964.0335605,-1.6623183488845825,1.1505361795425415,-9.938908576965332,0.2032620906829834,-0.007773280143737793,-0.11313724517822266,1.6458493886888013,-2.986945380214606,-0.9149749127030365
1730865964.0836053,-1.685981035232544,1.114296793937683,-9.907242774963379,0.17959940433502197,0.028466105461120605,-0.08147144317626953,1.6541616328433142,-2.995296169165526,-0.918647143840789
1730865964.1335196,-1.7127622365951538,1.098321795463562,-9.828071594238281,0.1528182029724121,0.0444411039352417,-0.002300262451171875,1.6625777575001106,-3.0036241746135097,-0.9223455536365502
1730865964.1835907,-1.7381293773651123,1.0863145589828491,-9.812661170959473,0.0,0.0,0.0,1.6710416378453359,-3.011938292216514,-0.9260446822643273
1730865964.2335656,-1.7394286394119263,1.1070185899734497,-9.751754760742188,-0.0012992620468139648,-0.020704030990600586,0.060906410217285156,1.6795051121711715,-3.0202588798292025,-0.9297247776389116
1730865964.2834716,-1.7783422470092773,1.099996566772461,-9.74980354309082,-0.04021286964416504,-0.013682007789611816,0.06285762786865234,1.6879556139558538,-3.02859021307901,-0.9333661967515939
1730865964.3334875,-1.775434136390686,1.1180026531219482,-9.734968185424805,-0.03730475902557373,-0.03168809413909912,0.07769298553466797,1.6963818914815767,-3.0369357244856703,-0.9369636937975877
1730865964.3834748,-1.7961090803146362,1.0978853702545166,-9.74190616607666,-0.057979702949523926,-0.01157081127166748,0.0707550048828125,1.7047783926129325,-3.0452947543002713,-0.940514800846576
1730865964.4334664,-1.8024729490280151,1.096219539642334,-9.761283874511719,-0.06434357166290283,-0.009904980659484863,0.051377296447753906,1.713136667720972,-3.0536604952998507,-0.9440277415513986
1730865964.4834557,-1.8615046739578247,1.0873790979385376,-9.789366722106934,-0.1233752965927124,-0.0010645389556884766,0.023294448852539062,1.7214362806826815,-3.0620296642743097,-0.9475173473358147
1730865964.533443,-1.8906596899032593,1.113863468170166,-9.796687126159668,-0.15253031253814697,-0.027548909187316895,0.015974044799804688,1.7296496731415376,-3.0704077749513137,-0.9509946817159646
1730865964.5834439,-1.8843986988067627,1.1354656219482422,-9.818350791931152,-0.1462693214416504,-0.049151062965393066,-0.0056896209716796875,1.737769690714775,-3.078809854369615,-0.9544688022136681
1730865964.6334517,-1.8520234823226929,1.1645499467849731,-9.829914093017578,-0.11389410495758057,-0.07823538780212402,-0.01725292205810547,1.7458084072172628,-3.0872517420537817,-0.9579500922560685
1730865964.6834452,-1.8085271120071411,1.176212191581726,-9.861815452575684,-0.07039773464202881,-0.08989763259887695,-0.04915428161621094,1.7537895325198756,-3.0957461713068235,-0.9614521345496172
1730865964.7333987,-1.7181299924850464,1.1627516746520996,-9.876137733459473,0.0,0.0,0.0,1.7617486585304127,-3.1042686935700523,-0.9649695375561709
1730865964.7834475,-1.6924563646316528,1.1392431259155273,-9.905946731567383,0.025673627853393555,0.023508548736572266,-0.029808998107910156,1.7697158075496542,-3.112783869411801,-0.9684962558746333
1730865964.8333828,-1.6710063219070435,1.1597439050674438,-9.915834426879883,0.04712367057800293,0.0030077695846557617,-0.039696693420410156,1.7777057057246552,-3.121290758904075,-0.9720446947216983
1730865964.8834436,-1.6623401641845703,1.1732234954833984,-9.910504341125488,0.055789828300476074,-0.010471820831298828,-0.034366607666015625,1.785727764368056,-3.129799980912363,-0.9756162783503528
1730865964.933397,-1.664509892463684,1.188157320022583,-9.918722152709961,0.053620100021362305,-0.0254056453704834,-0.04258441925048828,1.7937840136140573,-3.138320414628839,-0.9792119091749187
1730865964.9834638,-1.6572636365890503,1.1673773527145386,-9.908549308776855,0.060866355895996094,-0.004625678062438965,-0.03241157531738281,1.8018760398775326,-3.146850233133888,-0.982830976247787
1730865965.0333724,-1.6591688394546509,1.130024790763855,-9.90406608581543,0.05896115303039551,0.03272688388824463,-0.02792835235595703,1.8100055122375476,-3.155371270012116,-0.9864688995480534
1730865965.0834715,-1.6374982595443726,1.1253414154052734,-9.897210121154785,0.08063173294067383,0.03741025924682617,-0.0210723876953125,1.8181786073744284,-3.1638703890331143,-0.9901221355795857
1730865965.1333466,-1.6542800664901733,1.1127800941467285,-9.890379905700684,0.06384992599487305,0.049971580505371094,-0.014242172241210938,1.8263968530297265,-3.1723422012291906,-0.9937864074110981
1730865965.183495,-1.6624219417572021,1.1077226400375366,-9.87459659576416,0.05570805072784424,0.05502903461456299,0.0015411376953125,1.8346524605527506,-3.180781200733042,-0.9974546483159061
1730865965.2333581,-1.6803877353668213,1.1172305345535278,-9.872438430786133,0.0377422571182251,0.04552114009857178,0.0036993026733398438,1.8429372712969765,-3.1891887783072947,-1.001121251583099
1730865965.2835011,-1.6642932891845703,1.1443051099777222,-9.851571083068848,0.0,0.0,0.0,1.851233876496552,-3.197582130525267,-1.0047866988182064
1730865965.3333554,-1.676072597503662,1.1518168449401855,-9.866317749023438,-0.011779308319091797,-0.007511734962463379,-0.014746665954589844,1.8595268006622776,-3.2059778301604154,-1.0084567543864247
1730865965.3832452,-1.688549518585205,1.173169493675232,-9.839729309082031,-0.024256229400634766,-0.028864383697509766,0.011841773986816406,1.867808463722466,-3.214384897332645,-1.0121277177333827
1730865965.4331973,-1.7406500577926636,1.1670211553573608,-9.839791297912598,-0.07635676860809326,-0.022716045379638672,0.01177978515625,1.8760586852207766,-3.2228080833889607,-1.0157912993431086
1730865965.4832108,-1.7592371702194214,1.1434805393218994,-9.807424545288086,-0.09494388103485107,0.0008245706558227539,0.04414653778076172,1.8842553752660736,-3.231238110531128,-1.019437403976917
1730865965.5332005,-1.7919294834136963,1.1425443887710571,-9.786770820617676,-0.12763619422912598,0.001760721206665039,0.06480026245117188,1.8923825090378508,-3.239667329769588,-1.0230494627356528
1730865965.5832748,-1.8289555311203003,1.1339582204818726,-9.734051704406738,-0.16466224193572998,0.01034688949584961,0.11751937866210938,1.9004182995483263,-3.2480927653797034,-1.0266045466065405
1730865965.6332035,-1.906752586364746,1.1017496585845947,-9.722082138061523,-0.24245929718017578,0.04255545139312744,0.12948894500732422,1.9083268645778284,-3.2565016690082915,-1.0300824403762816
1730865965.6832056,-1.9440362453460693,1.0649313926696777,-9.711519241333008,-0.279742956161499,0.07937371730804443,0.14005184173583984,1.916072241403161,-3.2648724697716602,-1.0334761026501655
1730865965.733109,-1.954621434211731,1.0486096143722534,-9.747272491455078,-0.29032814502716064,0.09569549560546875,0.10429859161376953,1.9236394710093723,-3.2731885614059935,-1.0367934054136276
1730865965.7832572,-1.9300211668014526,1.0519165992736816,-9.785317420959473,-0.2657278776168823,0.09238851070404053,0.066253662109375,1.9310329331085072,-3.281445876788355,-1.0400574105978013
1730865965.8331983,-1.8917458057403564,1.0662336349487305,-9.863221168518066,0.0,0.0,0.0,1.9383433552458869,-3.2896743207611214,-1.0433007115125656
1730865965.8832433,-1.8261340856552124,1.0515388250350952,-9.917787551879883,0.06561172008514404,0.014694809913635254,-0.054566383361816406,1.9456742810457932,-3.2978981726057897,-1.0465610644221306
1730865965.9331484,-1.7325536012649536,1.0188775062561035,-9.973783493041992,0.15919220447540283,0.04735612869262695,-0.11056232452392578,1.9530754580721246,-3.3061026335321437,-1.0498730200529098
1730865965.9832146,-1.6438817977905273,1.0134690999984741,-9.997303009033203,0.2478640079498291,0.05276453495025635,-0.13408184051513672,1.9606038401648387,-3.3142758067511093,-1.0532614269852638
1730865966.0331244,-1.6068297624588013,1.0392526388168335,-10.010113716125488,0.2849160432815552,0.026980996131896973,-0.14689254760742188,1.9682987160235628,-3.3224240594916115,-1.0567376384139062
1730865966.0831685,-1.5930547714233398,1.1113393306732178,-9.983500480651855,0.2986910343170166,-0.045105695724487305,-0.12027931213378906,1.9761759690940364,-3.3305779762007366,-1.0602973410487175
1730865966.1329873,-1.6152253150939941,1.2080261707305908,-9.939994812011719,0.2765204906463623,-0.14179253578186035,-0.07677364349365234,1.9842329757660613,-3.3387902986072073,-1.0639186227321626
1730865966.183079,-1.6628810167312622,1.2549554109573364,-9.904179573059082,0.22886478900909424,-0.18872177600860596,-0.040958404541015625,1.9924479153379784,-3.3471059067361124,-1.0675766956806183
1730865966.232996,-1.7237470149993896,1.2498868703842163,-9.840123176574707,0.1679987907409668,-0.18365323543548584,0.023097991943359375,2.000786874778567,-3.3555378820560944,-1.0712403500080108
1730865966.282932,-1.7540323734283447,1.1959750652313232,-9.810408592224121,0.13771343231201172,-0.12974143028259277,0.05281257629394531,2.00922136928886,-3.364067793209113,-1.0748802822828292
1730865966.3329697,-1.7761001586914062,1.1373709440231323,-9.77637004852295,0.1156456470489502,-0.07113730907440186,0.08685111999511719,2.017735038511453,-3.3726604789681804,-1.0784765696525571
1730865966.3838212,-1.7739691734313965,1.080772876739502,-9.734260559082031,0.0,0.0,0.0,2.0262848469987493,-3.381275395136334,-1.0820457160472867
1730865966.4338863,-1.7863746881484985,1.0190056562423706,-9.72805404663086,-0.01240551471710205,0.06176722049713135,0.006206512451171875,2.0348307787626965,-3.389871009048082,-1.0856129229068754
1730865966.4838243,-1.763444423675537,0.9958710074424744,-9.702902793884277,0.010524749755859375,0.08490186929702759,0.031357765197753906,2.0433761227875933,-3.3984207888692692,-1.0891683909296987
1730865966.5338418,-1.7485802173614502,0.980993390083313,-9.72205638885498,0.02538895606994629,0.09977948665618896,0.012204170227050781,2.0519326898455605,-3.406912855766721,-1.0927102458477018
1730865966.5839176,-1.7739217281341553,0.9647471904754639,-9.749009132385254,4.744529724121094e-05,0.11602568626403809,-0.014748573303222656,2.060497205778955,-3.4153374835476353,-1.0962528958916662
1730865966.6337254,-1.776928424835205,1.0090956687927246,-9.792386054992676,-0.0029592514038085938,0.07167720794677734,-0.05812549591064453,2.069060811772941,-3.4237034541741087,-1.09981831908226
1730865966.6840096,-1.7719019651412964,1.0469619035720825,-9.85647201538086,0.0020672082901000977,0.033810973167419434,-0.12221145629882812,2.077624139003454,-3.432036459743984,-1.103440097570419
1730865966.733826,-1.742720127105713,1.0767850875854492,-9.918389320373535,0.031249046325683594,0.003987789154052734,-0.1841287612915039,2.0861978775635346,-3.4403576532006337,-1.1071576073765752
1730865966.7839155,-1.7308605909347534,1.0838773250579834,-9.983128547668457,0.043108582496643066,-0.0031044483184814453,-0.24886798858642578,2.094794852882622,-3.4486785706132723,-1.1110104286670683
1730865966.8337839,-1.7244657278060913,1.1198302507400513,-10.016728401184082,0.049503445625305176,-0.039057374000549316,-0.2824678421020508,2.103420769460498,-3.4570126635953855,-1.1150292924046514
1730865966.8839517,-1.6922295093536377,1.1217204332351685,-10.01152515411377,0.08173966407775879,-0.040947556495666504,-0.2772645950317383,2.112087699510156,-3.4653717581182786,-1.1192230725288388
1730865966.9338105,-1.6949405670166016,1.091368556022644,-10.003122329711914,0.0,0.0,0.0,2.120780173204838,-3.473743648752577,-1.1235034978389737
1730865966.9837117,-1.6541407108306885,1.079060673713684,-9.937772750854492,0.040799856185913086,0.012307882308959961,0.06534957885742188,2.129485396854578,-3.4821116931736533,-1.1277635014057157
1730865967.0336804,-1.6971153020858765,1.0559735298156738,-9.882655143737793,-0.0021747350692749023,0.035395026206970215,0.1204671859741211,2.1382026908546674,-3.490464830435819,-1.1319654372334478
1730865967.0837424,-1.7184339761734009,1.0200108289718628,-9.829143524169922,-0.023493409156799316,0.07135772705078125,0.1739788055419922,2.146911963559686,-3.498784607462592,-1.1360753586888312
1730865967.1336548,-1.7796587944030762,0.9819168448448181,-9.78043270111084,-0.08471822738647461,0.10945171117782593,0.22268962860107422,2.155587420128285,-3.507047881539918,-1.1400613212585449
1730865967.1838517,-1.7767276763916016,0.9837790727615356,-9.749464988708496,-0.081787109375,0.1075894832611084,0.25365734100341797,2.1642108437791463,-3.515243330243982,-1.143898425400257
1730865967.2337184,-1.7815088033676147,1.03798508644104,-9.75819206237793,-0.08656823635101318,0.053383469581604004,0.24493026733398438,2.1727816563844677,-3.5233884749002824,-1.1475797209143639
1730865967.283684,-1.7619465589523315,1.1153185367584229,-9.77953052520752,-0.06700599193572998,-0.02394998073577881,0.22359180450439453,2.1813044770434495,-3.531524421591319,-1.151114603281021
1730865967.3336196,-1.7306779623031616,1.2181533575057983,-9.794438362121582,-0.03573739528656006,-0.1267848014831543,0.20868396759033203,2.1897951903939243,-3.5397074729017985,-1.1545143994688987
1730865967.3837023,-1.73723566532135,1.2622041702270508,-9.825244903564453,-0.042295098304748535,-0.17083561420440674,0.17787742614746094,2.1982615185901517,-3.5479835305921807,-1.1577933952212334
1730865967.4336104,-1.7728885412216187,1.2536513805389404,-9.841352462768555,-0.07794797420501709,-0.1622828245162964,0.16176986694335938,2.20669027082622,-3.5563636877946627,-1.160966251194477
1730865967.4835632,-1.7957485914230347,1.2329119443893433,-9.852080345153809,0.0,0.0,0.0,2.2150946643203495,-3.5647945583798064,-1.164088554084301
1730865967.5335834,-1.8130037784576416,1.187165379524231,-9.869086265563965,-0.017255187034606934,0.045746564865112305,-0.01700592041015625,2.2234936655685305,-3.5732111331634298,-1.167216171324253
1730865967.5836523,-1.8403993844985962,1.1168467998504639,-9.861696243286133,-0.04465079307556152,0.1160651445388794,-0.009615898132324219,2.2318733211979267,-3.5815771417878643,-1.1703521078824997
1730865967.6335382,-1.8365612030029297,1.1099493503570557,-9.855596542358398,-0.04081261157989502,0.1229625940322876,-0.0035161972045898438,2.2402262695133683,-3.5898684542439954,-1.173492148220539
1730865967.683565,-1.8015090227127075,1.1125519275665283,-9.858222961425781,-0.0057604312896728516,0.12036001682281494,-0.006142616271972656,2.248564663752913,-3.598083728384234,-1.1766352069377897
1730865967.7336876,-1.7416749000549316,1.0947171449661255,-9.853496551513672,0.05407369136810303,0.13819479942321777,-0.0014162063598632812,2.2569181558862326,-3.606218204144396,-1.179780627787113
1730865967.7836096,-1.707353949546814,1.0896289348602295,-9.870576858520508,0.0883946418762207,0.14328300952911377,-0.01849651336669922,2.265316169373691,-3.6142647180892604,-1.1829322713613508
1730865967.833548,-1.6856294870376587,1.0882185697555542,-9.87708854675293,0.11011910438537598,0.14469337463378906,-0.025008201599121094,2.273776218406856,-3.622221239414074,-1.1860975101590154
1730865967.8835711,-1.6856732368469238,1.1131680011749268,-9.89499282836914,0.11007535457611084,0.1197439432144165,-0.04291248321533203,2.2823050782084464,-3.6300951240770596,-1.1892839741706847
1730865967.9334772,-1.6620116233825684,1.1451038122177124,-9.884458541870117,0.1337369680404663,0.08780813217163086,-0.032378196716308594,2.2909101293608543,-3.6379041487164874,-1.1924939665198324
1730865967.9834714,-1.6606212854385376,1.1801331043243408,-9.870457649230957,0.13512730598449707,0.05277884006500244,-0.018377304077148438,2.299599200598895,-3.6456692399270914,-1.1957198199629782
1730865968.0334425,-1.653437852859497,1.1797866821289062,-9.851520538330078,0.0,0.0,0.0,2.308330499120056,-3.6534178377501747,-1.198951416313648
1730865968.0835173,-1.6758476495742798,1.1824043989181519,-9.821070671081543,-0.022409796714782715,-0.0026177167892456055,0.030449867248535156,2.317054794579744,-3.661167253609755,-1.202173497080803
1730865968.1334534,-1.7237505912780762,1.1566532850265503,-9.81063461303711,-0.0703127384185791,0.023133397102355957,0.04088592529296875,2.3257501142472026,-3.668910258319237,-1.2053732854127883
1730865968.1835039,-1.7996176481246948,1.1426687240600586,-9.782665252685547,-0.14617979526519775,0.037117958068847656,0.06885528564453125,2.334377779997885,-3.676634434480228,-1.2085387796163558
1730865968.2334023,-1.8628112077713013,1.1092867851257324,-9.77823543548584,-0.2093733549118042,0.07049989700317383,0.07328510284423828,2.342894335389137,-3.6843249800615094,-1.2116598549485205
1730865968.2834685,-1.8774480819702148,1.0935637950897217,-9.79169750213623,-0.22401022911071777,0.08622288703918457,0.059823036193847656,2.351275458410382,-3.6919665497727774,-1.2147393339872359
1730865968.3333826,-1.8534674644470215,1.108945369720459,-9.822172164916992,-0.20002961158752441,0.07084131240844727,0.029348373413085938,2.3595240689814085,-3.699559036921718,-1.217790946960449
1730865968.3833833,-1.7973651885986328,1.1064001321792603,-9.855999946594238,-0.14392733573913574,0.073386549949646,-0.004479408264160156,2.367665193006396,-3.7071064528636715,-1.2208347883820532
1730865968.4334073,-1.749116063117981,1.0848197937011719,-9.900351524353027,-0.09567821025848389,0.09496688842773438,-0.04883098602294922,2.375731440298259,-3.714601258356132,-1.2238952893018722
1730865968.4834383,-1.6887575387954712,1.0780417919158936,-9.944061279296875,-0.03531968593597412,0.1017448902130127,-0.09254074096679688,2.383756750747561,-3.7220345914177675,-1.2269999688863753
1730865968.5333052,-1.660573959350586,1.0784896612167358,-9.943114280700684,-0.007136106491088867,0.10129702091217041,-0.09159374237060547,2.3917687937617296,-3.7294044738821763,-1.2301621904969213
1730865968.5834394,-1.6808581352233887,1.0688133239746094,-9.9386625289917,0.0,0.0,0.0,2.3997786067426197,-3.7367427010275502,-1.2333530351519582
1730865968.6333168,-1.6925055980682373,1.0484857559204102,-9.91047477722168,-0.011647462844848633,0.02032756805419922,0.02818775177001953,2.407784779891371,-3.744074575807907,-1.2365350711345668
1730865968.6832635,-1.7340891361236572,1.0040960311889648,-9.874168395996094,-0.053231000900268555,0.06471729278564453,0.06449413299560547,2.4157706785202016,-3.7513798740692517,-1.2396881440281864
1730865968.7332773,-1.7513102293014526,0.9668171405792236,-9.831408500671387,-0.07045209407806396,0.10199618339538574,0.1072540283203125,2.4237179261818516,-3.75863307436929,-1.2427875456213946
1730865968.783267,-1.7555934190750122,0.9132131338119507,-9.825553894042969,-0.07473528385162354,0.1556001901626587,0.11310863494873047,2.431619802787899,-3.765805775802591,-1.2458180838823314
1730865968.833155,-1.7511773109436035,0.8991687297821045,-9.808719635009766,-0.07031917572021484,0.16964459419250488,0.1299428939819336,2.43947634987533,-3.772876838240781,-1.2487726685404774
1730865968.8833268,-1.7669599056243896,0.9138646125793457,-9.811017036437988,-0.08610177040100098,0.15494871139526367,0.12764549255371094,2.447284015417098,-3.7798464652709747,-1.2516467568278309
1730865968.9331322,-1.7647291421890259,0.9623916149139404,-9.817171096801758,-0.08387100696563721,0.10642170906066895,0.1214914321899414,2.455038564465939,-3.7867344140447763,-1.254442989826202
1730865968.9830694,-1.774051547050476,0.9942019581794739,-9.836055755615234,-0.0931934118270874,0.0746113657951355,0.10260677337646484,2.462737780883907,-3.793565789982685,-1.2571691921353336
1730865969.0331802,-1.7563841342926025,1.0308074951171875,-9.850176811218262,-0.07552599906921387,0.038005828857421875,0.0884857177734375,2.47038427248597,-3.800361973047265,-1.2598356780409807
1730865969.0830772,-1.7418923377990723,1.052126407623291,-9.863423347473145,-0.061034202575683594,0.01668691635131836,0.07523918151855469,2.477988089025019,-3.8071410646289676,-1.2624509999155993
1730865969.1331055,-1.7634446620941162,1.1164103746414185,-9.859697341918945,0.0,0.0,0.0,2.4855728323757633,-3.81391494154931,-1.2650428095459934
1730865969.1830616,-1.7613576650619507,1.1499154567718506,-9.857751846313477,0.0020869970321655273,-0.03350508213043213,0.00194549560546875,2.49315822791308,-3.8206992888078184,-1.2676340112090108
1730865969.2330203,-1.7668864727020264,1.152148723602295,-9.854114532470703,-0.0034418106079101562,-0.035738348960876465,0.0055828094482421875,2.5007432000711542,-3.827505274638543,-1.2702228602766987
1730865969.2830868,-1.7597706317901611,1.146106243133545,-9.849930763244629,0.003674030303955078,-0.029695868492126465,0.009766578674316406,2.508328244797884,-3.8343317086622215,-1.2728069126605985
1730865969.3329446,-1.7832831144332886,1.1196283102035522,-9.831854820251465,-0.019838452339172363,-0.003217935562133789,0.02784252166748047,2.5159082381427273,-3.841168428249667,-1.2753792122006413
1730865969.3830001,-1.7911642789840698,1.0579688549041748,-9.824539184570312,-0.027719616889953613,0.05844151973724365,0.03515815734863281,2.5234733695909366,-3.8479878904670577,-1.2779318240284918
1730865969.432937,-1.793712854385376,1.0126854181289673,-9.833224296569824,-0.030268192291259766,0.10372495651245117,0.026473045349121094,2.5310203798487767,-3.85475667566062,-1.280465176105499
1730865969.4829564,-1.7517714500427246,1.0202561616897583,-9.849518775939941,0.011673212051391602,0.09615421295166016,0.010178565979003906,2.538561579175292,-3.861462998613725,-1.2829870745539664
1730865969.532836,-1.7155946493148804,1.0792349576950073,-9.881749153137207,0.04785001277923584,0.03717541694641113,-0.02205181121826172,2.5461213795095667,-3.868127656057487,-1.2855126833915709
1730865969.5827827,-1.6973638534545898,1.1483683586120605,-9.885079383850098,0.06608080863952637,-0.03195798397064209,-0.025382041931152344,2.5537167832255347,-3.874790683053444,-1.2880531153082846
1730865969.6338701,-1.6990910768508911,1.1914793252944946,-9.90003490447998,0.0643535852432251,-0.07506895065307617,-0.040337562561035156,2.561352947689591,-3.8814871559664708,-1.290614084601402
1730865969.6838133,-1.7048535346984863,1.1952179670333862,-9.894710540771484,0.0,0.0,0.0,2.569009222649036,-3.8882070879265767,-1.29318765938282
1730865969.7338028,-1.7279154062271118,1.140415906906128,-9.889106750488281,-0.02306187152862549,0.0548020601272583,0.005603790283203125,2.576658290773628,-3.894909894242893,-1.2957594829797745
1730865969.7837937,-1.727390170097351,1.0967813730239868,-9.850716590881348,-0.022536635398864746,0.09843659400939941,0.04399394989013672,2.5842931093648054,-3.901564813479791,-1.2983158072829246
1730865969.8337355,-1.7448590993881226,1.0502889156341553,-9.854978561401367,-0.04000556468963623,0.14492905139923096,0.03973197937011719,2.5919083835184553,-3.9081436809524996,-1.3008459672331811
1730865969.8838043,-1.7205950021743774,1.0371060371398926,-9.837763786315918,-0.015741467475891113,0.15811192989349365,0.056946754455566406,2.599506236724553,-3.914627848118554,-1.303345915079117
1730865969.9337204,-1.7044275999069214,1.004769206047058,-9.838481903076172,0.0004259347915649414,0.19044876098632812,0.0562286376953125,2.6070993038266876,-3.9210030900687083,-1.3058104956150056
1730865969.9836867,-1.6762114763259888,1.0011883974075317,-9.852025985717773,0.02864205837249756,0.1940295696258545,0.04268455505371094,2.6147014546766854,-3.9272581825405464,-1.3082441657781603
1730865970.0337353,-1.6579885482788086,0.9812003374099731,-9.872231483459473,0.046864986419677734,0.21401762962341309,0.02247905731201172,2.622327201478181,-3.933385760262619,-1.3106574723124507
1730865970.0836577,-1.6788157224655151,1.0039273500442505,-9.869159698486328,0.02603781223297119,0.19129061698913574,0.02555084228515625,2.6299757304042557,-3.939386679157625,-1.3130557695031169
1730865970.1336935,-1.7302862405776978,0.9892690777778625,-9.866273880004883,-0.025432705879211426,0.20594888925552368,0.028436660766601562,2.6376244484260654,-3.9452634607069297,-1.3154371955990793
1730865970.1836424,-1.7561147212982178,1.0005706548690796,-9.84821891784668,-0.051261186599731445,0.19464731216430664,0.04649162292480469,2.6452491996064755,-3.9510150559432904,-1.3177952066063883
1730865970.2335315,-1.7367112636566162,1.0267400741577148,-9.844929695129395,0.0,0.0,0.0,2.6528579316660736,-3.9567058238946,-1.3201386889815332
1730865970.283596,-1.7292639017105103,1.0034098625183105,-9.847564697265625,0.007447361946105957,0.023330211639404297,-0.0026350021362304688,2.66046899102628,-3.962389301154772,-1.3224829947948458
1730865970.3336132,-1.7082710266113281,1.0320013761520386,-9.856908798217773,0.028440237045288086,-0.0052613019943237305,-0.011979103088378906,2.668091265261171,-3.9680671318806806,-1.3248318675160409
1730865970.3835676,-1.7297741174697876,1.0265306234359741,-9.872505187988281,0.006937146186828613,0.00020945072174072266,-0.02757549285888672,2.6757245949283215,-3.973746541310111,-1.3271931010484697
1730865970.4335475,-1.73284912109375,1.026072382926941,-9.879054069519043,0.003862142562866211,0.0006676912307739258,-0.03412437438964844,2.6833612993732068,-3.979425676632682,-1.3295736157894136
1730865970.4835615,-1.7507237195968628,1.0402652025222778,-9.899032592773438,-0.014012455940246582,-0.013525128364562988,-0.05410289764404297,2.6909948318451615,-3.985108829904357,-1.331981701552868
1730865970.5335526,-1.7441734075546265,1.067531943321228,-9.886956214904785,-0.007462143898010254,-0.040791869163513184,-0.042026519775390625,2.698621653504667,-3.9908089572377596,-1.334419827759266
1730865970.583584,-1.7646288871765137,1.0706843137741089,-9.89332103729248,-0.02791762351989746,-0.04394423961639404,-0.04839134216308594,2.7062374189868543,-3.9965355646051557,-1.3368862095475198
1730865970.6335008,-1.8092890977859497,1.0768513679504395,-9.85693645477295,-0.0725778341293335,-0.05011129379272461,-0.012006759643554688,2.7138217796385264,-4.002291564326743,-1.3393714657425881
1730865970.6835158,-1.8451093435287476,1.0780317783355713,-9.835271835327148,-0.10839807987213135,-0.051291704177856445,0.009657859802246094,2.7213495853170726,-4.008079252485196,-1.3418574559688567
1730865970.7335863,-1.8778879642486572,1.068177342414856,-9.794242858886719,-0.14117670059204102,-0.04143726825714111,0.05068683624267578,2.728799398876724,-4.013895918447534,-1.3443245884776114
1730865970.7835293,-1.8792659044265747,1.0619271993637085,-9.761591911315918,0.0,0.0,0.0,2.7362050947174406,-4.019725533556203,-1.3467758813500403
1730865970.8334446,-1.8781741857528687,1.0342954397201538,-9.767451286315918,0.0010917186737060547,0.027631759643554688,-0.005859375,2.7436111317202427,-4.025546513739983,-1.3492290052771567
1730865970.8834481,-1.8452465534210205,1.0448501110076904,-9.792409896850586,0.0340193510055542,0.017077088356018066,-0.03081798553466797,2.7510281409323194,-4.0313535224087635,-1.35169359087944
1730865970.9334626,-1.7909832000732422,1.0523160696029663,-9.833215713500977,0.08828270435333252,0.009611129760742188,-0.0716238021850586,2.758483369536696,-4.037152191009382,-1.354190189540386
1730865970.9834626,-1.7380390167236328,1.0403714179992676,-9.891928672790527,0.1412268877029419,0.021555781364440918,-0.13033676147460938,2.76601031988859,-4.0429411199502745,-1.3567499008774755
1730865971.0333781,-1.6841381788253784,1.027842402458191,-9.939653396606445,0.1951277256011963,0.03408479690551758,-0.17806148529052734,2.7736423810571416,-4.048712661210457,-1.3594059866666792
1730865971.083417,-1.598343849182129,1.0370818376541138,-9.97574520111084,0.2809220552444458,0.024845361709594727,-0.21415328979492188,2.7814232077822076,-4.054465786796072,-1.3621846395730972
1730865971.133399,-1.5712602138519287,1.0332560539245605,-9.993497848510742,0.308005690574646,0.02867114543914795,-0.23190593719482422,2.789388074427842,-4.0602021884732045,-1.3651026859879494
1730865971.1834455,-1.550557255744934,1.039259433746338,-9.944525718688965,0.3287086486816406,0.022667765617370605,-0.18293380737304688,2.797551914304494,-4.065922546740631,-1.368150369822979
1730865971.233443,-1.5575945377349854,1.0153611898422241,-9.915091514587402,0.32167136669158936,0.046566009521484375,-0.15349960327148438,2.8059189979359496,-4.071621269453327,-1.3713031890988352
1730865971.283348,-1.6128383874893188,0.9890211224555969,-9.859123229980469,0.26642751693725586,0.07290607690811157,-0.09753131866455078,2.814469862468539,-4.077282657139013,-1.374534455537796
1730865971.3333108,-1.700724482536316,0.9786924719810486,-9.800239562988281,0.0,0.0,0.0,2.823103985600172,-4.082921261675666,-1.3777962005138398
1730865971.3833656,-1.7688379287719727,1.0146944522857666,-9.755945205688477,-0.06811344623565674,-0.03600198030471802,0.04429435729980469,2.831716823279856,-4.088571116831164,-1.3810441035032273
1730865971.433279,-1.8208271265029907,1.02140212059021,-9.763900756835938,-0.1201026439666748,-0.04270964860916138,0.03633880615234375,2.8402708434313517,-4.094245569370697,-1.384266808629036
1730865971.48329,-1.8217395544052124,1.0340009927749634,-9.765320777893066,-0.12101507186889648,-0.055308520793914795,0.034918785095214844,2.848749514296649,-4.099950652588169,-1.3874672457575798
1730865971.5332751,-1.782911777496338,1.0537012815475464,-9.80487060546875,-0.08218729496002197,-0.0750088095664978,-0.00463104248046875,2.857164684422312,-4.105696459971378,-1.3906582179665568
1730865971.5832372,-1.7525897026062012,1.0612386465072632,-9.85537052154541,-0.051865220069885254,-0.0825461745262146,-0.055130958557128906,2.8655379631370286,-4.111491503287116,-1.3938678658008579
1730865971.633259,-1.7406247854232788,1.1116029024124146,-9.87990665435791,-0.03990030288696289,-0.13291043043136597,-0.0796670913696289,2.873882565125821,-4.117353876791904,-1.397119638025761
1730865971.683197,-1.770524501800537,1.115897536277771,-9.90289306640625,-0.06980001926422119,-0.1372050642967224,-0.10265350341796875,2.882192885763941,-4.123300661388794,-1.4004283854365351
1730865971.7331789,-1.7900440692901611,1.1545110940933228,-9.899785995483398,-0.08931958675384521,-0.17581862211227417,-0.09954643249511719,2.890453481525181,-4.129345265887687,-1.4038003203272822
1730865971.783353,-1.8505797386169434,1.163799524307251,-9.896068572998047,-0.14985525608062744,-0.1851070523262024,-0.09582901000976562,2.898639335148035,-4.135502659659842,-1.4072333100438121
1730865971.8332534,-1.8653908967971802,1.1624170541763306,-9.862640380859375,-0.16466641426086426,-0.18372458219528198,-0.06240081787109375,2.906726900748907,-4.141775313317785,-1.4107157465815547
1730865971.8832345,-1.84821355342865,1.119704008102417,-9.858514785766602,0.0,0.0,0.0,2.9147630080953224,-4.148105380907664,-1.414217683374882
1730865971.9334147,-1.8270213603973389,1.114829421043396,-9.805334091186523,0.021192193031311035,0.004874587059020996,0.053180694580078125,2.9228057380020602,-4.154433925189086,-1.4177030012011531
1730865971.9832606,-1.793975830078125,1.0453251600265503,-9.822367668151855,0.0542377233505249,0.0743788480758667,0.036147117614746094,2.9308720397576673,-4.16073770277203,-1.4211604040861132
1730865972.0332992,-1.7209333181381226,1.0137131214141846,-9.828447341918945,0.12728023529052734,0.10599088668823242,0.03006744384765625,2.9389950658753494,-4.166985114812859,-1.4245971149206162
1730865972.0832047,-1.6012029647827148,0.9719731211662292,-9.870986938476562,0.24701058864593506,0.14773088693618774,-0.012472152709960938,2.947235057875512,-4.173153238799431,-1.428028327226639
1730865972.133241,-1.5673483610153198,0.9927900433540344,-9.874567985534668,0.2808651924133301,0.12691396474838257,-0.016053199768066406,2.9556400110572554,-4.179235536269851,-1.4314684537053108
1730865972.1831715,-1.5617990493774414,1.0194441080093384,-9.915316581726074,0.2864145040512085,0.10025990009307861,-0.056801795959472656,2.9642222391441444,-4.185246841907508,-1.4349313473701477
1730865972.2332606,-1.576568603515625,1.0584110021591187,-9.886327743530273,0.2716449499130249,0.06129300594329834,-0.027812957763671875,2.972978860810397,-4.19120766226203,-1.438420683145523
1730865972.283102,-1.631142258644104,1.0728533267974854,-9.91388988494873,0.2170712947845459,0.04685068130493164,-0.055375099182128906,2.981888206303118,-4.1971346877142865,-1.441936015188694
1730865972.3331964,-1.7173388004302979,1.079965353012085,-9.86382007598877,0.13087475299835205,0.03973865509033203,-0.005305290222167969,2.990906284935771,-4.20303465399892,-1.4454703098535537
1730865972.383157,-1.82231605052948,1.1077828407287598,-9.826631546020508,0.025897502899169922,0.011921167373657227,0.03188323974609375,2.999973354898392,-4.208918476589032,-1.4489962989091874
1730865972.4330823,-1.8533849716186523,1.1184059381484985,-9.800682067871094,0.0,0.0,0.0,3.0090485178306685,-4.21479857381434,-1.4525123244524003
1730865972.4830406,-1.8954871892929077,1.0949914455413818,-9.761144638061523,-0.04210221767425537,0.0234144926071167,0.03953742980957031,3.018110523819922,-4.220671354010708,-1.4560159945487978
1730865972.5331557,-1.8989217281341553,1.0262970924377441,-9.779446601867676,-0.04553675651550293,0.0921088457107544,0.02123546600341797,3.0271451426297413,-4.226508033163852,-1.4595006731152536
1730865972.5831227,-1.8536771535873413,1.0082930326461792,-9.78778076171875,-0.00029218196868896484,0.11011290550231934,0.01290130615234375,3.0361654398962843,-4.232281518019742,-1.4629746839404107
1730865972.6330674,-1.783974289894104,1.004658818244934,-9.84261703491211,0.06941068172454834,0.11374711990356445,-0.041934967041015625,3.045207336694001,-4.237985046617693,-1.4664577677845956
1730865972.6830595,-1.7528783082962036,1.0574264526367188,-9.855023384094238,0.10050666332244873,0.060979485511779785,-0.05434131622314453,3.054302332662045,-4.243633973151452,-1.4699709379673005
1730865972.7331333,-1.7219197750091553,1.080628514289856,-9.910914421081543,0.13146519660949707,0.03777742385864258,-0.11023235321044922,3.0634698198363175,-4.249252038151032,-1.4735355374217034
1730865972.7830756,-1.704637885093689,1.1132997274398804,-9.919187545776367,0.14874708652496338,0.005106210708618164,-0.11850547790527344,3.0727248733490695,-4.25485670201481,-1.4771716174483298
1730865972.8330402,-1.6880874633789062,1.1303209066390991,-9.951221466064453,0.1652975082397461,-0.011914968490600586,-0.15053939819335938,3.0820780657976856,-4.260463493615395,-1.4808917739987373
1730865972.8830557,-1.6892642974853516,1.1353075504302979,-9.929433822631836,0.16412067413330078,-0.016901612281799316,-0.1287517547607422,3.0915342014282934,-4.266079290397472,-1.4846992090344429
1730865972.9329422,-1.6928538084030151,1.1137971878051758,-9.93874454498291,0.1605311632156372,0.004608750343322754,-0.1380624771118164,3.1010917907580726,-4.271698928698904,-1.4885900235176086
1730865972.9829872,-1.7044410705566406,1.0738990306854248,-9.894899368286133,0.0,0.0,0.0,3.1106995460763565,-4.277317126765854,-1.4925239825248717
1730865973.0330038,-1.7288248538970947,1.0470776557922363,-9.854463577270508,-0.0243837833404541,0.026821374893188477,0.040435791015625,3.1202996814623463,-4.282926943153149,-1.4964453053474425
1730865973.082945,-1.782965898513794,1.0143132209777832,-9.822835922241211,-0.07852482795715332,0.0595858097076416,0.07206344604492188,3.129867657907306,-4.288509757295257,-1.5003314721584318
1730865973.132889,-1.8363450765609741,1.0109021663665771,-9.767317771911621,-0.1319040060043335,0.06299686431884766,0.12758159637451172,3.139369875341653,-4.294054264351732,-1.504155249893665
1730865973.1829495,-1.8869452476501465,0.9894759058952332,-9.760782241821289,-0.18250417709350586,0.08442312479019165,0.13411712646484375,3.1487738402187815,-4.29955270266161,-1.507897246778011
1730865973.232936,-1.8473352193832397,1.0347927808761597,-9.739604949951172,-0.14289414882659912,0.03910624980926514,0.15529441833496094,3.1580761181190597,-4.305012538041925,-1.5115488025546069
1730865973.2828844,-1.816389560699463,1.0465000867843628,-9.774761199951172,-0.11194849014282227,0.02739894390106201,0.12013816833496094,3.1672987576946605,-4.3104515905492065,-1.5151142856478685
1730865973.3328242,-1.783855676651001,1.0769073963165283,-9.79489803314209,-0.07941460609436035,-0.0030083656311035156,0.10000133514404297,3.176461596302687,-4.315883021000778,-1.518610975146293
1730865973.3828576,-1.7646828889846802,1.053520679473877,-9.82564926147461,-0.06024181842803955,0.02037835121154785,0.06925010681152344,3.18558079227805,-4.321309023331856,-1.5220547735691066
1730865973.432912,-1.7351040840148926,1.0145779848098755,-9.854711532592773,-0.030663013458251953,0.059321045875549316,0.040187835693359375,3.194671580493449,-4.326710119601344,-1.5254643726348873
1730865973.4828544,-1.683071255683899,0.9749651551246643,-9.900102615356445,0.0213698148727417,0.0989338755607605,-0.0052032470703125,3.2037594645842895,-4.332061761207884,-1.5288630390167233
1730865973.532847,-1.6453770399093628,0.9578630328178406,-9.910890579223633,0.0,0.0,0.0,3.2128540267422783,-4.337382485978311,-1.5322633314132688
1730865973.5828483,-1.649688720703125,0.9565423130989075,-9.945751190185547,-0.004311680793762207,0.0013207197189331055,-0.03486061096191406,3.2219472415000188,-4.342702798023826,-1.5356745177507398
1730865973.632834,-1.6442580223083496,0.9954084157943726,-9.940225601196289,0.0011190176010131836,-0.03754538297653198,-0.02933502197265625,3.2310394585505113,-4.348034430276608,-1.539105765223503
1730865973.682793,-1.6689367294311523,1.0497392416000366,-9.937795639038086,-0.02355968952178955,-0.09187620878219604,-0.026905059814453125,3.2401246628910285,-4.353406506776816,-1.5425545877218243
1730865973.7328548,-1.6859419345855713,1.0834542512893677,-9.915569305419922,-0.040564894676208496,-0.1255912184715271,-0.0046787261962890625,3.249189828298984,-4.35884654184804,-1.5460132801532742
1730865973.782775,-1.71327543258667,1.1262437105178833,-9.893120765686035,-0.06789839267730713,-0.16838067770004272,0.017769813537597656,3.2582210989296416,-4.364378443136818,-1.54946788161993
1730865973.8327966,-1.7269731760025024,1.1472166776657104,-9.872698783874512,-0.08159613609313965,-0.18935364484786987,0.038191795349121094,3.2672056525200586,-4.370022136401392,-1.5529049950838087
1730865973.8827624,-1.735066294670105,1.1401067972183228,-9.833118438720703,-0.08968925476074219,-0.18224376440048218,0.07777214050292969,3.276136679425834,-4.375781953856356,-1.5563058698177337
1730865973.9327734,-1.717958927154541,1.1496965885162354,-9.815305709838867,-0.07258188724517822,-0.19183355569839478,0.09558486938476562,3.2850169965997322,-4.3816586704738505,-1.5596525704860686
1730865973.9827108,-1.6673269271850586,1.18075430393219,-9.812365531921387,-0.0219498872756958,-0.22289127111434937,0.0985250473022461,3.293867772594093,-4.387664988599724,-1.562938611805439
1730865974.032757,-1.718985915184021,1.200554609298706,-9.816550254821777,-0.0736088752746582,-0.24269157648086548,0.09434032440185547,3.302688686475156,-4.393816801365471,-1.5661643826961518
1730865974.0837018,-1.777178168296814,1.1863377094268799,-9.796299934387207,0.0,0.0,0.0,3.311486597582696,-4.400044455248868,-1.569360672235489
1730865974.1328225,-1.8267006874084473,1.1075407266616821,-9.833602905273438,-0.0495225191116333,0.07879698276519775,-0.03730297088623047,3.320269032903014,-4.406247485075151,-1.572568618953228
1730865974.1827915,-1.8129234313964844,1.0744457244873047,-9.833734512329102,-0.03574526309967041,0.1118919849395752,-0.03743457794189453,3.3290248220413905,-4.412390924599027,-1.5757999211549758
1730865974.2327878,-1.7848941087722778,1.034195899963379,-9.854951858520508,-0.007715940475463867,0.15214180946350098,-0.05865192413330078,3.33776702955365,-4.418451853562152,-1.579061250388622
1730865974.2827125,-1.7069191932678223,1.0519814491271973,-9.866008758544922,0.0702589750289917,0.13435626029968262,-0.06970882415771484,3.3465287817642078,-4.424423251878476,-1.5823626923561096
1730865974.333654,-1.7330290079116821,1.0380792617797852,-9.891645431518555,0.044149160385131836,0.14825844764709473,-0.09534549713134766,3.3553262865170823,-4.430306333098567,-1.585715713799
1730865974.383695,-1.723747968673706,1.0607243776321411,-9.90710735321045,0.05343019962310791,0.12561333179473877,-0.11080741882324219,3.3641542848199593,-4.436103829387582,-1.5891331580281258
1730865974.4336932,-1.6333900690078735,1.1029419898986816,-9.92292594909668,0.14378809928894043,0.08339571952819824,-0.12662601470947266,3.3730439138412462,-4.441836010348058,-1.5926248002052308
1730865974.4835937,-1.7185343503952026,1.0912126302719116,-9.885492324829102,0.05864381790161133,0.09512507915496826,-0.08919239044189453,3.3819968028366554,-4.447512403558945,-1.5961838856339456
1730865974.533778,-1.7632367610931396,1.0811116695404053,-9.884361267089844,0.013941407203674316,0.10522603988647461,-0.08806133270263672,3.39097237471491,-4.453126187045132,-1.5997983628511432
1730865974.583637,-1.7660847902297974,1.066494345664978,-9.817702293395996,0.011093378067016602,0.11984336376190186,-0.021402359008789062,3.3999557699635616,-4.458669636342679,-1.6034470474720004
1730865974.6336203,-1.76335608959198,1.0730304718017578,-9.786660194396973,0.0,0.0,0.0,3.408942631892859,-4.4641756345890515,-1.607102420330048
1730865974.683558,-1.755035638809204,1.0663394927978516,-9.755593299865723,0.008320450782775879,0.00669097900390625,0.03106689453125,3.417932093963026,-4.469679541904485,-1.6107480847835545
1730865974.7336075,-1.7797462940216064,1.05051851272583,-9.727736473083496,-0.016390204429626465,0.022511959075927734,0.05892372131347656,3.426919034235179,-4.475174323301768,-1.6143656271696094
1730865974.7834837,-1.7905184030532837,1.0506978034973145,-9.733460426330566,-0.02716231346130371,0.02233266830444336,0.05319976806640625,3.4358923643454906,-4.480655090752994,-1.617948130965233
1730865974.8335426,-1.7196898460388184,1.0897799730300903,-9.776664733886719,0.04366624355316162,-0.01674950122833252,0.009995460510253906,3.4448708519339557,-4.48613411346451,-1.6215108862519265
1730865974.8835092,-1.7713710069656372,1.1019127368927002,-9.835098266601562,-0.008014917373657227,-0.028882265090942383,-0.048438072204589844,3.453860480561852,-4.4916273961029995,-1.6250856548547745
1730865974.9336016,-1.8028919696807861,1.1387075185775757,-9.852670669555664,-0.03953588008880615,-0.06567704677581787,-0.0660104751586914,3.4628352495655412,-4.497150228526449,-1.6286961886286737
1730865974.9834633,-1.8285831212997437,1.182466745376587,-9.922863006591797,-0.06522703170776367,-0.1094362735748291,-0.13620281219482422,3.4717772801592943,-4.5027277838625075,-1.6323699140548706
1730865975.0335941,-1.8077365159988403,1.2220063209533691,-9.935257911682129,-0.04438042640686035,-0.14897584915161133,-0.14859771728515625,3.4806850584223863,-4.5083860929869175,-1.63613263964653
1730865975.0834959,-1.8268399238586426,1.19771409034729,-9.958266258239746,-0.0634838342666626,-0.12468361854553223,-0.17160606384277344,3.489559129104018,-4.514129920694983,-1.6399954289197922
1730865975.1334362,-1.7553056478500366,1.1827597618103027,-9.942646980285645,0.00805044174194336,-0.10972929000854492,-0.15598678588867188,3.4984158768504856,-4.519947002436972,-1.6439605909585953
1730865975.1834197,-1.7702215909957886,1.131227731704712,-9.93575382232666,0.0,0.0,0.0,3.5072751403599978,-4.525798374582088,-1.6479744988679885
1730865975.2334309,-1.7350672483444214,1.0756663084030151,-9.8892240524292,0.03515434265136719,0.05556142330169678,0.04652976989746094,3.5161453896015886,-4.531632383782423,-1.6519738662242889
1730865975.2833824,-1.6980245113372803,1.014807939529419,-9.849322319030762,0.0721970796585083,0.11641979217529297,0.08643150329589844,3.525049186162651,-4.5374126488529205,-1.6559316831827164
1730865975.3333728,-1.74787175655365,0.9247363805770874,-9.83838939666748,0.022349834442138672,0.2064913511276245,0.09736442565917969,3.53398252863437,-4.543092004191136,-1.6598320639133455
1730865975.3833628,-1.7218077182769775,0.9190731048583984,-9.835184097290039,0.048413872718811035,0.21215462684631348,0.1005697250366211,3.5429379847645768,-4.548640532661235,-1.663670590221882
1730865975.4333987,-1.710154414176941,0.9689270853996277,-9.809120178222656,0.060067176818847656,0.16230064630508423,0.1266336441040039,3.551927341222764,-4.554072043858474,-1.6674381154775622
1730865975.483403,-1.6837084293365479,0.9878154993057251,-9.841340065002441,0.08651316165924072,0.14341223239898682,0.09441375732421875,3.560962504036725,-4.559408019781118,-1.671136563420296
1730865975.5333564,-1.650559425354004,1.0081390142440796,-9.836055755615234,0.11966216564178467,0.12308871746063232,0.09969806671142578,3.570062096640468,-4.564660714156931,-1.6747743514180187
1730865975.5833364,-1.6746716499328613,1.0141290426254272,-9.857386589050293,0.09554994106292725,0.11709868907928467,0.07836723327636719,3.579228943027556,-4.5698383499682,-1.678356494009495
1730865975.6333683,-1.6851810216903687,1.004333734512329,-9.852632522583008,0.08504056930541992,0.1268939971923828,0.08312129974365234,3.5884522239491345,-4.574939738065009,-1.6818881714344027
1730865975.683324,-1.5812643766403198,1.044628381729126,-9.859695434570312,0.18895721435546875,0.08659934997558594,0.07605838775634766,3.597761129178107,-4.579974409490828,-1.6853701052069667
1730865975.7333395,-1.7228114604949951,1.0327458381652832,-9.875347137451172,0.0,0.0,0.0,3.6071290835365657,-4.58498201861978,-1.6888282707333568
1730865975.7832942,-1.8088876008987427,1.0366780757904053,-9.752493858337402,-0.08607614040374756,-0.00393223762512207,0.12285327911376953,3.616470139101148,-4.589990856572989,-1.6922480446100239
1730865975.8332365,-1.8492463827133179,1.0879586935043335,-9.823813438415527,-0.12643492221832275,-0.05521285533905029,0.05153369903564453,3.625744784958661,-4.595018177367749,-1.6956133225560193
1730865975.8832293,-1.8476037979125977,1.0733569860458374,-9.768607139587402,-0.12479233741760254,-0.0406111478805542,0.10673999786376953,3.6349409222975373,-4.600075443163517,-1.6989291399717334
1730865975.933179,-1.7965223789215088,1.0459142923355103,-9.815152168273926,-0.07371091842651367,-0.01316845417022705,0.060194969177246094,3.6440750273689626,-4.605149515084926,-1.7021927902102474
1730865975.9832678,-1.7969716787338257,1.0425485372543335,-9.871280670166016,-0.07416021823883057,-0.009802699089050293,0.00406646728515625,3.6531629227101803,-4.610230765491727,-1.7054363587498669
1730865976.0331671,-1.7303887605667114,1.079399585723877,-9.879664421081543,-0.007577300071716309,-0.04665374755859375,-0.004317283630371094,3.662225275076926,-4.615329658538106,-1.7086800056695943
1730865976.0831647,-1.6776671409606934,1.154143214225769,-9.950304985046387,0.04514431953430176,-0.12139737606048584,-0.07495784759521484,3.6712993671372534,-4.620481067560616,-1.7119484260678297
1730865976.1330926,-1.6643404960632324,1.210000991821289,-9.945380210876465,0.058470964431762695,-0.17725515365600586,-0.07003307342529297,3.68040583897382,-4.6257258054986625,-1.7152621561288839
1730865976.1830785,-1.6949403285980225,1.204162359237671,-9.977410316467285,0.027871131896972656,-0.1714165210723877,-0.10206317901611328,3.68953929271549,-4.631079503335061,-1.718629666268826
1730865976.2331274,-1.715383529663086,1.1504161357879639,-9.959513664245605,0.00742793083190918,-0.11767029762268066,-0.0841665267944336,3.6986837774142627,-4.636523540802303,-1.722055373191834
1730865976.2831085,-1.7309974431991577,1.0735752582550049,-9.935346603393555,0.0,0.0,0.0,3.70783058334142,-4.642004350237551,-1.7255073821544653
1730865976.333172,-1.751832365989685,1.0295008420944214,-9.867960929870605,-0.020834922790527344,0.044074416160583496,0.06738567352294922,3.7169708783552053,-4.647471386417749,-1.7289383330941206
1730865976.3830342,-1.7894331216812134,1.0231446027755737,-9.804779052734375,-0.058435678482055664,0.05043065547943115,0.1305675506591797,3.726086401306093,-4.652908889763059,-1.732307423651219
1730865976.4331918,-1.7807178497314453,0.9962002635002136,-9.770801544189453,-0.0497204065322876,0.07737499475479126,0.16454505920410156,3.7351681254804134,-4.6583064538426715,-1.735584291517735
1730865976.4830334,-1.7861945629119873,0.9779112339019775,-9.746031761169434,-0.05519711971282959,0.09566402435302734,0.1893148422241211,3.7442170629277824,-4.663649943228813,-1.738750578165055
1730865976.5330846,-1.7849152088165283,0.9251965284347534,-9.751386642456055,-0.053917765617370605,0.14837872982025146,0.1839599609375,3.7532319019734857,-4.668917169254275,-1.7418002164363868
1730865976.583109,-1.784656286239624,0.8895010352134705,-9.759675979614258,-0.05365884304046631,0.18407422304153442,0.17567062377929688,3.7622131233289835,-4.674080503731967,-1.7447374701499947
1730865976.6331296,-1.7826882600784302,0.8732828497886658,-9.80506706237793,-0.05169081687927246,0.2002924084663391,0.130279541015625,3.7711614229157564,-4.679123723637314,-1.7475791144371042
1730865976.6830444,-1.7952266931533813,0.8966658711433411,-9.827330589294434,-0.06422924995422363,0.17690938711166382,0.1080160140991211,3.7800734974816437,-4.684049067981543,-1.7503462913632402
1730865976.7331476,-1.813761830329895,0.8992002606391907,-9.887080192565918,-0.0827643871307373,0.1743749976158142,0.04826641082763672,3.7889396365359422,-4.688864635955544,-1.7530646300315866
1730865976.7829556,-1.7603381872177124,1.0126773118972778,-9.927574157714844,-0.029340744018554688,0.06089794635772705,0.0077724456787109375,3.7977707427367564,-4.693606681134553,-1.755765456557275
1730865976.8330567,-1.7341268062591553,1.0816811323165894,-9.964619636535645,0.0,0.0,0.0,3.806592679955065,-4.6983296957053255,-1.7584638541936886
1730865976.882986,-1.752147912979126,1.1004984378814697,-9.94594955444336,-0.018021106719970703,-0.01881730556488037,0.018670082092285156,3.8154089855775233,-4.703058590684087,-1.7611564174294483
1730865976.9328961,-1.7777737379074097,1.0999888181686401,-9.936602592468262,-0.043646931648254395,-0.01830768585205078,0.028017044067382812,3.8242060199379915,-4.707799087222666,-1.763834390938283
1730865976.9829338,-1.7552416324615479,1.0999363660812378,-9.89273738861084,-0.021114826202392578,-0.018255233764648438,0.07188224792480469,3.8329828162491313,-4.712551009673625,-1.7664811459183702
1730865977.0329692,-1.7443795204162598,1.0299259424209595,-9.859451293945312,-0.010252714157104492,0.05175518989562988,0.10516834259033203,3.8417498102039094,-4.7172924633882936,-1.7690725725889214
1730865977.0829315,-1.738450288772583,0.9913241267204285,-9.821126937866211,-0.004323482513427734,0.09035700559616089,0.1434926986694336,3.850512249097228,-4.721989507041871,-1.7715862926840789
1730865977.1329029,-1.72636079788208,1.0042277574539185,-9.780694961547852,0.007766008377075195,0.0774533748626709,0.18392467498779297,3.8592757637798787,-4.726634109951555,-1.7739976948499685
1730865977.1829247,-1.7019740343093872,1.0301756858825684,-9.777835845947266,0.032152771949768066,0.051505446434020996,0.1867837905883789,3.868051753081381,-4.731238413229584,-1.7762932506203657
1730865977.2328663,-1.7100615501403809,1.0236696004867554,-9.772236824035645,0.024065256118774414,0.058011531829833984,0.1923828125,3.8768453105166554,-4.735808492451906,-1.7784703168272977
1730865977.282879,-1.6848812103271484,1.0475960969924927,-9.79813289642334,0.049245595932006836,0.03408503532409668,0.1664867401123047,3.8856617775931954,-4.7403497914969925,-1.7805352362990383
1730865977.3328586,-1.6928070783615112,1.0816024541854858,-9.839337348937988,0.04131972789764404,7.867813110351562e-05,0.12528228759765625,3.894506546333432,-4.744880414381624,-1.7825089779496197
1730865977.382834,-1.6839771270751953,1.121504783630371,-9.875795364379883,0.0,0.0,0.0,3.9033642274886367,-4.74941101267934,-1.7844435688853268
1730865977.4328403,-1.7058701515197754,1.1514695882797241,-9.901827812194824,-0.021893024444580078,-0.029964804649353027,-0.026032447814941406,3.9122150670737024,-4.753950974978508,-1.7863862949609761
1730865977.4828014,-1.718064785003662,1.188222885131836,-9.899704933166504,-0.0340876579284668,-0.06671810150146484,-0.023909568786621094,3.9210484126955265,-4.758521150685849,-1.7883446279168134
1730865977.5329611,-1.7559535503387451,1.210862636566162,-9.879318237304688,-0.0719764232635498,-0.08935785293579102,-0.0035228729248046875,3.929848613291978,-4.763140100128951,-1.7903115335106854
1730865977.5827668,-1.7530285120010376,1.21330988407135,-9.857230186462402,-0.06905138492584229,-0.091805100440979,0.01856517791748047,3.93860474269837,-4.767815662994984,-1.7922737383842473
1730865977.6327608,-1.771667242050171,1.2144695520401,-9.824956893920898,-0.08769011497497559,-0.092964768409729,0.050838470458984375,3.9473118903860436,-4.772548966445032,-1.7942142546176916
1730865977.6826727,-1.7904527187347412,1.173574447631836,-9.815088272094727,-0.1064755916595459,-0.052069664001464844,0.06070709228515625,3.9559583612903935,-4.777327593155209,-1.7961199128627783
1730865977.732706,-1.791128396987915,1.1400463581085205,-9.794534683227539,-0.10715126991271973,-0.018541574478149414,0.08126068115234375,3.9645380738005023,-4.782128285877411,-1.7979812061786657
1730865977.7826765,-1.7754602432250977,1.096877932548523,-9.804055213928223,-0.09148311614990234,0.024626851081848145,0.07174015045166016,3.9730557130649666,-4.786927076950674,-1.799794686734677
1730865977.8326948,-1.7451756000518799,1.0755596160888672,-9.820162773132324,-0.06119847297668457,0.045945167541503906,0.055632591247558594,3.981525639332829,-4.791703814268116,-1.8015683633089072
1730865977.8826828,-1.7535194158554077,1.0384587049484253,-9.841119766235352,-0.0695422887802124,0.0830460786819458,0.03467559814453125,3.9899547091126424,-4.796440241821114,-1.8033138185739523
1730865977.932601,-1.7427948713302612,1.0323339700698853,-9.852581024169922,0.0,0.0,0.0,3.9983620469272116,-4.801150717474524,-1.8050484377145772
1730865977.9826145,-1.7566986083984375,1.0032477378845215,-9.877225875854492,-0.01390373706817627,0.02908623218536377,-0.024644851684570312,4.006765039823947,-4.805852103680376,-1.8067907583713536
1730865978.0336628,-1.751990556716919,1.0094205141067505,-9.899985313415527,-0.009195685386657715,0.022913455963134766,-0.04740428924560547,4.015160814151166,-4.810537239983682,-1.8085555943846707
1730865978.0835943,-1.7626899480819702,1.0143227577209473,-9.914119720458984,-0.019895076751708984,0.01801121234893799,-0.0615386962890625,4.0235474976152155,-4.815209587328139,-1.8103544750809675
1730865978.1336367,-1.7406483888626099,1.0380933284759521,-9.910380363464355,0.002146482467651367,-0.0057593584060668945,-0.057799339294433594,4.031928634643552,-4.8198781059682405,-1.812190648913384
1730865978.1836076,-1.7494313716888428,1.0510751008987427,-9.90699577331543,-0.006636500358581543,-0.018741130828857422,-0.05441474914550781,4.0403083685412975,-4.824554281011227,-1.8140618896484382
