Timestamp,IMU_Linear_Acc_X,IMU_Linear_Acc_Y,IMU_Linear_Acc_Z,Filtered_X,Filtered_Y,Filtered_Z,Pose_X,Pose_Y,Pose_Z
1731474136.5088224,-0.1835746020078659,0.5284029841423035,-9.957141876220703,-4.7597550349842155e-07,8.597563867073606e-07,1.749371830448369e-08,2.4441906747408986,8.188684118005439,0.880999982373532
1731474136.5587819,-0.32869449257850647,0.37620213627815247,-10.047292709350586,-4.336024721778211e-06,7.459907087127749e-06,7.357216834229458e-08,2.4429550967030016,8.219834761092326,0.8809999824156571
1731474136.6086814,-0.3212164640426636,0.5026140809059143,-9.98022747039795,-1.9885412394060395e-05,3.27554904914826e-05,3.3322063808418484e-08,2.440835659768464,8.208718606033145,0.8809999823968878
1731474136.6586556,-0.3097893297672272,0.373074471950531,-9.942727088928223,-6.255048192091118e-05,9.934112796766638e-05,-5.101530746009676e-07,2.439973033741311,8.222431467793855,0.8809999822789589
1731474136.7085814,-0.36415764689445496,0.45885133743286133,-10.01577377319336,-0.00015456161188487065,0.00023829773183078198,-2.065121957810381e-06,2.4406469495042487,8.199250478377481,0.8809999816683163
1731474136.7586725,-0.3174515664577484,0.43460458517074585,-9.97563648223877,-0.00032381830478753334,0.00048739171958768105,-5.0833662560553205e-06,2.440411521665944,8.202988072103532,0.8809999786967341
1731474136.808501,-0.37348827719688416,0.42250683903694153,-9.971975326538086,-0.0006027724397109793,0.0008895489241749024,-1.0013573355587775e-05,2.4378553660386606,8.193037096178873,0.880999977902143
1731474136.858473,-0.3333224654197693,0.4560640752315521,-10.020543098449707,-0.0010273757589527093,0.00149150520565578,-1.7338109855175286e-05,2.4371794225708787,8.19403286666727,0.880999965053761
1731474136.9084017,-0.3716474175453186,0.4254069924354553,-9.993083000183105,-0.0016360957384910658,0.0023425549801279837,-2.7612087296668574e-05,2.4377214105975433,8.312391426315623,0.8809999669903585
1731474136.9583972,-0.30855798721313477,0.4505065679550171,-9.975634574890137,-0.0024689756812411737,0.00349343614371339,-4.154197900676201e-05,2.4375439685049245,8.330540276272961,0.8809999328925099
1731474137.0092394,-0.33945232629776,0.44332513213157654,-10.006049156188965,-0.0035666811235442832,0.004995332654176885,-5.99396366964976e-05,2.437356146925105,8.349558998661493,0.8809999458623159
1731474137.0592687,-0.30693483352661133,0.45724576711654663,-9.974886894226074,-0.004969550057341914,0.0068990274479455846,-8.362735488452992e-05,2.437167773808007,8.368364565008127,0.8809998687128564
1731474137.1091747,-0.3404017686843872,0.42924872040748596,-9.97957992553711,-0.006716701360885973,0.009254237459904715,-0.00011339788916492764,2.4369766865463913,8.242517365234384,0.8809999088464604
1731474137.159192,-0.33027854561805725,0.4503231644630432,-9.993732452392578,-0.008845297541169419,0.012109019743902992,-0.000149969855987501,2.4367799012812337,8.25021454284535,0.8809997633450768
1731474137.2090607,-0.3312438130378723,0.4298307001590729,-9.984983444213867,-0.01139005178764213,0.015509160661175166,-0.00019397558289105035,2.4365772089648883,8.257904074184118,0.8809995106750084
1731474137.2591295,-0.32849225401878357,0.44427555799484253,-9.991825103759766,-0.014382900635176731,0.019497587920849234,-0.00024600295226999847,2.436366648125413,8.239786786110313,0.8809998152908265
1731474137.308942,-0.3466336131095886,0.43178790807724,-9.988767623901367,-0.01785273789447764,0.024113862992751207,-0.00030661932897097855,2.4361464296054547,8.244133385997067,0.8809995009602453
1731474137.3589773,-0.3226473927497864,0.4400995373725891,-9.986501693725586,-0.021825219968969793,0.029393764069909,-0.00037636703332279327,2.4359126570327465,8.25433939589147,0.8809997090222548
1731474137.4088914,-0.3401765823364258,0.42628738284111023,-10.006254196166992,-0.026322612876221674,0.035368945578961954,-0.00045576407388914545,2.4356648685675784,8.25955856546888,0.8809992238266735
1731474137.4588525,-0.32638588547706604,0.4399968981742859,-9.992179870605469,-0.03136364874377856,0.04206666276918343,-0.0005453360616555674,2.435398543099564,8.270262659967216,0.8809995608075619
1731474137.50879,-0.3352645933628082,0.4304140508174896,-9.980989456176758,-0.03696342715206549,0.04950957436894848,-0.000645636415396625,2.4351122155717575,8.275000450916583,0.8809988542150304
1731474137.5588923,-0.33292460441589355,0.43939563632011414,-9.997173309326172,-0.0431333725540651,0.05771562747924745,-0.0007571951392575374,2.4347970929714946,8.279830335892033,0.8809976962702424
1731474137.6086698,-0.3363683819770813,0.4308415949344635,-9.980420112609863,-0.04988126614336317,0.0666979763316332,-0.0008804527457808322,2.434454729629928,8.287658647138391,0.8809992646577731
1731474137.6586838,-0.3302421271800995,0.4421899914741516,-9.979595184326172,-0.0572113886295078,0.07646487745217168,-0.001015713413460375,2.43408330466028,8.290765372381586,0.8809981180314991
1731474137.7086177,-0.3302421271800995,0.4421899914741516,-9.979595184326172,-0.06512470822457922,0.08701960917322696,-0.0011630779977490813,2.433670785039626,8.302838108638639,0.880999027598489
1731474137.758543,-0.3301190137863159,0.4375700056552887,-9.977168083190918,-0.07361899953242129,0.09836051395734724,-0.0013223922376975616,2.4332143826193686,8.30668996399186,0.8809975006909235
1731474137.8085432,-0.34019094705581665,0.43010377883911133,-9.982741355895996,-0.08268890933565334,0.11048113046681245,-0.0014932512987220455,2.4327090068955393,8.310608215411724,0.8809950935942377
1731474137.8584952,-0.33192288875579834,0.43809831142425537,-9.991263389587402,-0.09232605168814084,0.12337033605187492,-0.0016750473033435565,2.432149190715989,8.314597833311268,0.8809916981015832
1731474137.9083514,-0.34595686197280884,0.4304082989692688,-9.981121063232422,-0.10251913628655283,0.13701251898206945,-0.0018670413001914917,2.4315145740159427,8.320842758282668,0.8809983215384372
1731474137.9583144,-0.3420066237449646,0.443705290555954,-9.989968299865723,-0.11325411288646894,0.151387808795493,-0.0020684186603458408,2.430842669835695,8.323493002431627,0.8809958782012145
1731474138.0092392,-0.34163692593574524,0.42966023087501526,-9.989768028259277,-0.12451432979713806,0.16647234379826129,-0.0022783146289695293,2.4300659576016987,8.338826165058986,0.8795709781101718
1731474138.0592258,-0.33824580907821655,0.44014066457748413,-9.97556209564209,-0.1362806789744049,0.18223854463127828,-0.002495829839184889,2.4292195632200926,8.343578401054977,0.879262141994307
1731474138.1091983,-0.341629296541214,0.4363786280155182,-9.98953914642334,-0.14853172274661605,0.19865538708191416,-0.002720022001332911,2.428287304671968,8.348432989306982,0.8789527444690716
1731474138.1591976,-0.3402191698551178,0.43175989389419556,-9.978646278381348,-0.1612438390722462,0.21568868579302974,-0.0029498894041025724,2.4272575220156685,8.353421769574238,0.878641258268547
1731474138.209059,-0.3476492762565613,0.432100772857666,-9.985774040222168,-0.17439140842623466,0.23330137508716428,-0.003184383196944751,2.4261211887846854,8.35855880361968,0.8783273613083095
1731474138.2590916,-0.33999305963516235,0.4344528317451477,-9.983550071716309,-0.18794702622962883,0.25145378301179044,-0.003422433112408507,2.42487507400824,8.34759557813991,0.8781148272616824
1731474138.3088815,-0.34422069787979126,0.4327370822429657,-9.9750337600708,-0.20188170093907348,0.2701039236696882,-0.003662960763913261,2.423511183433426,8.349266670773149,0.8779531616740416
1731474138.3589008,-0.3437175154685974,0.44072937965393066,-9.988846778869629,-0.2161650270676812,0.2892078102122615,-0.0039048762940008916,2.4220130405218954,8.351116906892246,0.8777886424050669
1731474138.4087975,-0.34332624077796936,0.4315757751464844,-9.98684024810791,-0.2307653593081678,0.3087197722585155,-0.00414708938828195,2.4203604200480906,8.354531789273329,0.8767955863147274
1731474138.458818,-0.33988749980926514,0.436118483543396,-9.992659568786621,-0.24564999054587672,0.3285927566494345,-0.00438855879430349,2.4185803968284607,8.3561783918623,0.876596762604628
1731474138.5087607,-0.3460216820240021,0.428290456533432,-9.99396800994873,-0.2607853227138315,0.348778598600232,-0.0046283477515122245,2.416639275235868,8.358038821549679,0.8763946958257524
1731474138.5588555,-0.32766076922416687,0.4385663866996765,-9.993430137634277,-0.2761370306954525,0.36922828161571863,-0.004865657855265746,2.414516697718376,8.36520952654218,0.8753371464025212
1731474138.6086557,-0.3306537866592407,0.4353063106536865,-9.987985610961914,-0.29167019904489977,0.38989221320681533,-0.0050998351651937585,2.412194214955773,8.367596967628097,0.8750765282205424
1731474138.6586676,-0.3333236277103424,0.4373985528945923,-9.995209693908691,-0.3073494389918763,0.41072051329185855,-0.0053303486767863496,2.4097522380744576,8.375434536117375,0.8739091205391136
1731474138.7086084,-0.3319365978240967,0.4339129328727722,-9.97912311553955,-0.3231390354481247,0.43166328627988615,-0.005556757941851035,2.4070790347989317,8.38468824455864,0.8738788496136882
1731474138.758562,-0.333381712436676,0.4398839473724365,-9.9823637008667,-0.33900311358939245,0.4526708703213536,-0.005778666114834306,2.4042072985659613,8.388437611501546,0.8737437990533645
1731474138.8085184,-0.3302189111709595,0.438150554895401,-9.991358757019043,-0.3549057893121608,0.47369408194916224,-0.0059956691072503504,2.4011031535044416,8.392496789230286,0.8736043409099529
1731474138.8586066,-0.3308621346950531,0.44120118021965027,-9.983616828918457,-0.3708113195336131,0.4946844548130386,-0.006207351133107972,2.397775016641721,8.396854940592444,0.8734612053515448
1731474139.2399957,-0.3376094102859497,0.43933042883872986,-9.987139701843262,-0.38668427200768074,0.5155944567105789,-0.006413312182993418,2.364495590176171,8.42971658583861,0.873790232028318
1731474139.2900891,-0.3423849642276764,0.43753117322921753,-9.985186576843262,-0.4024897208981211,0.5363776783378699,-0.006613175273666415,2.359059564482495,8.434220784613187,0.8737476874172729
1731474139.3398674,-0.34360605478286743,0.4366273581981659,-9.992426872253418,-0.41819346009691927,0.5569889935263552,-0.006806586953787976,2.3534342595452946,8.433379847823216,0.8739237724757558
1731474139.389985,-0.3389294445514679,0.4368346929550171,-9.979833602905273,-0.43376219357367857,0.5773846996515422,-0.006993228893398113,2.3474596052864998,8.4371977241181,0.8739038367844768
1731474139.4397805,-0.3331068754196167,0.42958614230155945,-9.990646362304688,-0.4491636642291965,0.5975226460544025,-0.007172817326180077,2.3411465275577665,8.441428017682394,0.8738791680773397
1731474139.4898527,-0.335146963596344,0.4248596131801605,-9.98840618133545,-0.4643667284559161,0.6173623372191173,-0.00734509601527955,2.3347925507654415,8.445869302876064,0.8738510045304744
1731474139.539713,-0.3328384459018707,0.4296468496322632,-9.984148025512695,-0.47934142069872665,0.6368650103684368,-0.007509844639663645,2.3280313580254015,8.443799058668988,0.8739748509463974
1731474139.5897124,-0.3308675289154053,0.4361976087093353,-9.986226081848145,-0.49405903139099233,0.6559937333676752,-0.007666873702485019,2.320835752899659,8.450772369848961,0.8739864070189968
1731474139.639718,-0.3300713300704956,0.44613346457481384,-9.986385345458984,-0.5084921814636827,0.6747135617000855,-0.007815985200019498,2.3134992576156894,8.453998413789543,0.8739756556428812
1731474139.6895943,-0.3355879783630371,0.4400116503238678,-9.9830961227417,-0.5226148907161948,0.6929917216241077,-0.007956931998918422,2.3057811687379446,8.457676003127986,0.8739599190417273
1731474139.7396622,-0.3371192514896393,0.4425605237483978,-9.980547904968262,-0.5364026631451309,0.7107977438307964,-0.00808939587390755,2.2976987603659067,8.461809158351818,0.8739390848499136
1731474139.789675,-0.33719924092292786,0.4419511556625366,-9.980554580688477,-0.5498325862584048,0.7281035228115671,-0.008212974352536744,2.2893356029178555,8.466360544083498,0.873913328929929
1731474139.8395355,-0.3354564905166626,0.445912629365921,-9.973817825317383,-0.5628834110114227,0.7448833449186286,-0.008327170319065814,2.280575997571918,8.471398788926766,0.8738822537091678
1731474139.8896139,-0.3405797779560089,0.44538143277168274,-9.989174842834473,-0.575535600442919,0.7611139178151516,-0.008431393719279506,2.2715114226366633,8.462690424752715,0.8739885652577349
1731474139.9394777,-0.33414551615715027,0.4462050497531891,-9.99086856842041,-0.587771362968534,0.7767743937224136,-0.008525005244433833,2.2620500631480107,8.46497505472087,0.8739762644019838
1731474139.9894018,-0.3440423011779785,0.44702938199043274,-9.984944343566895,-0.599574678115864,0.7918463740830854,-0.00860739573856565,2.2522609252337684,8.47021568358832,0.8739904168449142
1731474140.0392613,-0.32870543003082275,0.43953606486320496,-9.982325553894043,-0.6109313091886164,0.8063138907878682,-0.008678029009479974,2.2420505695957273,8.47285559330325,0.8739784834609147
1731474140.089296,-0.34796392917633057,0.4402678906917572,-9.993621826171875,-0.6218288001627192,0.820163357094447,-0.00873643181293791,2.231449086714658,8.476005500500094,0.8739610987324764
1731474140.1402464,-0.33399584889411926,0.432169646024704,-9.98773193359375,-0.632256474881156,0.8333834882850791,-0.008782196421813257,2.220258158414368,8.479741820237292,0.8739377831545343
1731474140.1902158,-0.339699923992157,0.42898687720298767,-9.98838996887207,-0.6422054449359851,0.8459651983128004,-0.00881500253878191,2.2088802896025097,8.48158797488097,0.8739891621677854
1731474140.2401154,-0.34191736578941345,0.42445263266563416,-9.988052368164062,-0.6516686024621846,0.857901483600458,-0.00883461546583273,2.197069343278315,8.484283971501652,0.8739764097771016
1731474140.2900033,-0.32970547676086426,0.4250764548778534,-9.985917091369629,-0.660640590152983,0.8691873217050151,-0.008840867387227603,2.184907362888252,8.492498814800152,0.8739901691738121
1731474140.3400288,-0.32910072803497314,0.4251329004764557,-9.99003791809082,-0.6691177369521895,0.8798196049039655,-0.008833646908742533,2.1722701959180477,8.501659005245232,0.8739913481248683
1731474140.3900661,-0.3384392559528351,0.42610400915145874,-9.983735084533691,-0.6770979674773299,0.8897971015847446,-0.008812896840632658,2.159248717993206,8.506445107356129,0.8739795999820589
1731474140.439955,-0.3377346694469452,0.435489296913147,-9.978569030761719,-0.6845807484484953,0.8991204359626436,-0.008778601816704522,2.1457575736140235,8.51180709479676,0.8739623068099467
1731474140.4899478,-0.33423569798469543,0.4322376847267151,-9.991771697998047,-0.6915670757316505,0.9077920838061766,-0.008730762750033243,2.131740103728517,8.521752454360097,0.8741750536680896
1731474140.5398195,-0.3368098735809326,0.4413033127784729,-9.979137420654297,-0.6980594387840027,0.9158163680578668,-0.008669392243147743,2.117602808223816,8.526005182594416,0.8741844162737401
1731474140.5896668,-0.32903242111206055,0.43979355692863464,-9.979314804077148,-0.7040617483124634,0.923199437194719,-0.00859452313747416,2.102948621481709,8.53084814180803,0.8741885407227581
1731474140.6397073,-0.33598414063453674,0.4474576413631439,-9.982017517089844,-0.7095792521120108,0.9299492291287441,-0.008506191763457776,2.0876667591072695,8.536333077427239,0.8741873558065762
1731474140.6897366,-0.341476172208786,0.44930747151374817,-9.990230560302734,-0.7146184731919873,0.9360754423840759,-0.008404428353321893,2.0720520838610184,8.54082609736216,0.8743914119895227
1731474140.7397206,-0.3397352695465088,0.44789478182792664,-9.97748851776123,-0.7191872009470646,0.9415895384670582,-0.008289279840333272,2.055895374294703,8.544789588760553,0.8744056650695938
1731474140.7895658,-0.3330007493495941,0.44037196040153503,-9.997563362121582,-0.7232944892471103,0.9465047303069232,-0.008160829144535135,2.039336279061214,8.54933221427106,0.8744147234531114
1731474140.8395772,-0.03880907967686653,0.5903394818305969,-9.978856086730957,-0.7269503201579101,0.9508360106056959,-0.008019207936521819,2.022338554154706,8.554463394838987,0.8744187217280939
1731474140.8895676,-0.0758434385061264,0.5316457748413086,-10.008713722229004,-0.7301644981028218,0.9546004363994496,-0.007864624530971642,2.0048882769177285,8.56214709215496,0.8745974468361202
1731474140.9393978,0.48951706290245056,0.8079436421394348,-9.981762886047363,-0.7329447826229629,0.9578177034747284,-0.007697402476786701,1.9871214457752207,8.566409334089911,0.8746134959318855
1731474140.9892786,0.7771492004394531,0.6103816628456116,-10.015816688537598,-0.7352941630227161,0.9605108119858716,-0.007518014457289354,1.9688934543605325,8.579661556595205,0.8746020394608452
1731474141.0394018,0.1431780755519867,0.499295175075531,-10.044015884399414,-0.7372081189401732,0.9627061574652515,-0.007327156577859673,1.9498905542777631,8.5844791378226,0.8745986386848911
1731474141.0892773,0.413790225982666,0.48516714572906494,-9.909783363342285,-0.7386745250714716,0.9644324184411275,-0.007125809806829845,1.9307169241564048,8.589822871605902,0.874590795085329
1731474141.1401522,0.413790225982666,0.48516714572906494,-9.909783363342285,-0.7396760934023529,0.9657190001337722,-0.006914961713366792,1.9106740100030197,8.596435844869054,0.8745961028947123
1731474141.1902132,0.22217567265033722,0.33590275049209595,-10.001534461975098,-0.7401923549039966,0.9665950185861929,-0.006695092803071875,1.890371895845193,8.600657237078018,0.8745874501211462
1731474141.2402446,0.017560504376888275,0.20069876313209534,-9.97430419921875,-0.7402008122404802,0.9670881862063583,-0.006466118406827409,1.8696128976296138,8.609901993586005,0.8745939324061476
1731474141.2901216,-0.7728275656700134,-0.02461777999997139,-9.977519989013672,-0.7396787609890368,0.967222505128609,-0.006227820183577038,1.8485404053897414,8.614693613089434,0.8745851400556814
1731474141.3400016,-1.2074174880981445,-0.021463442593812943,-10.009428024291992,-0.7386070006853062,0.9670153327955404,-0.005980186913843085,1.8269284324689088,8.623297233633878,0.8745933285219474
1731474141.3900766,-0.23980385065078735,0.27316224575042725,-9.937684059143066,-0.7369744437817036,0.9664759277116592,-0.005723501635927301,1.8049199326879517,8.628221339241511,0.8745849492155706
1731474141.4400213,-0.7082184553146362,0.12128511071205139,-10.163931846618652,-0.7347793601197888,0.9656065499829196,-0.0054584214696271355,1.7823423780880125,8.6337743279678,0.8745730296334097
1731474141.4898539,-0.29287877678871155,0.4290388226509094,-9.929959297180176,-0.7320267064811996,0.9644048266031032,-0.0051862553988755705,1.7594895015771992,8.62495173378581,0.8745931171944288
1731474141.5398967,-0.5628702044487,0.09986446797847748,-10.001678466796875,-0.7287256065389764,0.9628657462731496,-0.004909071777467532,1.7359689590774927,8.62723834114887,0.8745854560285192
1731474141.5897396,-0.3513105511665344,0.46714502573013306,-10.08678913116455,-0.7248883317362484,0.9609828635789415,-0.0046293867036224096,1.7122354895991032,8.630097706551945,0.8745749176178922
1731474141.6397777,-0.5107159614562988,0.16161222755908966,-9.946783065795898,-0.7205298101531326,0.9587490624972652,-0.004350000282022927,1.6878032418820177,8.625337955017862,0.8747931508611061
1731474141.6896517,-0.4068586826324463,0.43703973293304443,-9.962201118469238,-0.7156673459953093,0.9561572039544401,-0.004073940518892983,1.6631387039920285,8.62709380650712,0.8748178093760262
1731474141.7396317,-0.49801453948020935,0.2526971399784088,-10.004266738891602,-0.7103204638858238,0.9532006634178674,-0.003804102865302207,1.637784385587824,8.629465807124152,0.8748402397314898
1731474141.789641,-0.37864023447036743,0.4197238087654114,-9.953781127929688,-0.7045110943956883,0.9498739896494643,-0.003543016086459211,1.6122543317491431,8.63240370778063,0.874860156906558
1731474141.8394883,-0.42949461936950684,0.29616859555244446,-9.941106796264648,-0.6982645988546391,0.9461740548942497,-0.0032929030809999275,1.58622024800893,8.621165609823157,0.8750029352477209
1731474141.8893626,-0.41107162833213806,0.3372349739074707,-10.000696182250977,-0.6916111797138526,0.9421012708358013,-0.003055708925473095,1.5598669438016548,8.606520579560986,0.8750051634738674
1731474141.9393225,-0.3805420398712158,0.7001015543937683,-9.957939147949219,-0.684586371267227,0.937660352972976,-0.0028331527536228827,1.5328459481963297,8.604127662599904,0.8750107912755607
1731474141.9893405,-0.4000968039035797,0.667378306388855,-9.877378463745117,-0.6772303586900013,0.932861289114517,-0.0026267584978024693,1.5054130753342705,8.588685527004507,0.8750025695161343
1731474142.0393183,-0.4872780740261078,1.1421082019805908,-9.997286796569824,-0.6695870485823012,0.9277209993318416,-0.0024376499802427542,1.4774924668813907,8.585221252138622,0.8750014537880277
1731474142.0892508,-0.4453103244304657,0.9864438772201538,-9.849359512329102,-0.6617035048939633,0.9222650846585995,-0.0022663541191387387,1.4493613749174843,8.582357690051243,0.8749988828129845
1731474142.139246,-0.5104879140853882,0.7967690229415894,-10.028023719787598,-0.6536295737744996,0.9165285021230725,-0.002112824358982195,1.4207674127818135,8.566351248743768,0.8749991964559031
1731474142.1901712,-0.3782177269458771,0.7711344957351685,-9.996058464050293,-0.6454173046276583,0.9105541027606423,-0.001976694415097376,1.3911806467513483,8.564148400248708,0.8749965048283305
1731474142.2401364,-0.4499201774597168,0.7072227597236633,-10.010408401489258,-0.6371200516091663,0.904389835832952,-0.0018577602156061475,1.3617165091721246,8.541688448034463,0.8749982796558173
1731474142.2900872,-0.3696022629737854,0.713841438293457,-10.044113159179688,-0.6287914665563893,0.8980864108558949,-0.0017563682233949457,1.3319339343521925,8.536967920624207,0.8749957129227005
1731474142.3400176,-0.42195576429367065,0.5679761171340942,-9.984193801879883,-0.6204847079969473,0.8916958549561931,-0.0016734820587405426,1.3015656350079599,8.532778286028583,0.8749920533449222
1731474142.3899982,-0.30900314450263977,0.6061761379241943,-10.027217864990234,-0.6122519257888466,0.8852706506407507,-0.001610486300452793,1.2710728681117502,8.529176610711659,0.8749874042271841
1731474142.4399173,-0.30900314450263977,0.6061761379241943,-10.027217864990234,-0.60414374192055,0.8788632591714869,-0.0015688969187700244,1.2400764601532244,8.516366894007005,0.8749978471604641
1731474142.4898849,-0.3449501693248749,0.5600143671035767,-10.049895286560059,-0.5962086066393514,0.8725257479857411,-0.0015502690448687695,1.2087839226646155,8.514275269821843,0.8749954893459235
1731474142.5398262,-0.3187732696533203,0.5636372566223145,-10.002037048339844,-0.5884923383300384,0.866309245746842,-0.0015562710118044772,1.1770953558482888,8.490722578695102,0.8749981601776926
1731474142.5898345,-0.30297085642814636,0.5662887096405029,-10.012564659118652,-0.5810379334761289,0.860263283835733,-0.0015886308839465563,2.384341973665969,8.46561764907744,0.8749984258538952
1731474142.6396751,-0.3056734502315521,0.5174658894538879,-10.006267547607422,-0.5738853604791928,0.8544352440254055,-0.0016489462843186698,2.3821823116665968,8.45759153903661,0.8749962863286965
1731474142.689624,-0.32618317008018494,0.5069574117660522,-9.982719421386719,-0.5670713412506164,0.8488698667515276,-0.0017385289317182423,2.3796828022785723,8.450151847279775,0.8749931078949577
1731474142.7396877,-0.273434042930603,0.514680802822113,-9.964303016662598,-0.56062925838446,0.8436087538527361,-0.0018582733758013476,2.376804736576581,8.443173383232995,0.8749887676476782
1731474142.7895157,-0.2996521592140198,0.5227103233337402,-9.985552787780762,-0.5545890715713122,0.8386900425375589,-0.002008502793080758,2.3790105729680437,8.441899036222837,0.874997871892583
1731474142.8395174,-0.3358599841594696,0.5379204750061035,-9.958097457885742,-0.5489772434183756,0.8341483408838873,-0.0021888937876757483,2.3775461903232356,8.438992019146244,0.8749950422414962
1731474142.8894358,-0.336078017950058,0.4931144118309021,-9.98670482635498,-0.5438168021624759,0.8300146965383701,-0.002398510032683689,2.375773832257238,8.43665777287425,0.8749977653127438
1731474142.939421,-0.33337661623954773,0.5128029584884644,-10.005820274353027,-0.5391273250197475,0.8263162860350712,-0.002635909172529477,2.3736360190022157,8.434807109228819,0.874994527627977
1731474142.989331,-0.3498041331768036,0.4721747934818268,-9.94282341003418,-0.534924712947735,0.8230759216346177,-0.002899290540030559,2.3711818346582954,8.43348524172586,0.8749895947763624
1731474143.0392566,-0.32534632086753845,0.5132566094398499,-9.986802101135254,-0.531221078072655,0.8203117955157018,-0.003186537603150634,2.3683899375384447,8.432671279711924,0.8749827565583194
1731474143.0892653,-0.3674081265926361,0.5218324065208435,-10.014200210571289,-0.528024884496969,0.8180376202492889,-0.003495208639888744,2.36527303415021,8.432366457945923,0.8749967240572036
1731474143.1392438,-0.40713658928871155,0.5078936219215393,-9.99518871307373,-0.5253412596582442,0.816262999179553,-0.003822707916047461,2.3618082791052704,8.432573041108233,0.874991969962633
1731474143.1901145,-0.3748840391635895,0.5032426118850708,-9.95654582977295,-0.5231724444475097,0.8149937694449688,-0.0041664709220055616,2.357974791109118,8.433299674979889,0.8751942548433496
1731474143.2401328,-0.41319382190704346,0.513997495174408,-10.000679969787598,-0.5215181959313753,0.8142322105131815,-0.004523912595663624,2.3538578560977426,8.434529750143076,0.875392725411313
1731474143.2901106,-0.4174082279205322,0.5009680390357971,-9.988465309143066,-0.5203760382646826,0.8139772296164468,-0.0048923442925798595,2.3494220698880466,8.43626914672914,0.8754517983700288
1731474143.3401623,-0.4119400978088379,0.5024043917655945,-9.968817710876465,-0.5197414851447358,0.8142245770938613,-0.005269030796222652,2.344636268717584,8.438529353896136,0.875507984904523
1731474143.3899338,-0.3861069083213806,0.4877097010612488,-9.973749160766602,-0.5196082003098867,0.8149670356699387,-0.005651212192380421,2.339583285045846,8.441268324928368,0.8755601470661666
1731474143.4400024,-0.3813762664794922,0.4656544327735901,-10.00214672088623,-0.5199680278004998,0.8161945312522446,-0.006036051595928314,2.334133591897933,8.444555557147387,0.8766071583088352
1731474143.489819,-0.3586125075817108,0.4547431170940399,-9.964475631713867,-0.5208110439029643,0.8178941137142495,-0.006420631857062113,2.328443379139337,8.448301899401182,0.8767571496960684
1731474143.5397732,-0.3363964855670929,0.4302753210067749,-9.970362663269043,-0.5221256704705692,0.8200498701186453,-0.0068019375473410875,2.3223511289454004,8.45261091884409,0.8769049846490352
1731474143.5897393,-0.3230259418487549,0.4246014356613159,-10.018203735351562,-0.5238986799743046,0.8226429263925747,-0.00717681491070744,2.316019264651739,8.457365882462623,0.8777766029938124
1731474143.6397502,-0.3195480704307556,0.4174511432647705,-9.99730110168457,-0.5261150966085746,0.8256515899892511,-0.0075420905833274475,2.30926820882586,8.46270770170331,0.8779312092698955
1731474143.6896462,-0.29733991622924805,0.400546669960022,-9.969202995300293,-0.5287581474226761,0.829051585029081,-0.007894758263668821,2.3022536621465566,8.468513027457337,0.8780795369099748
1731474143.7396011,-0.2849956750869751,0.3818894624710083,-10.001726150512695,-0.5318092734678839,0.8328163024815962,-0.008231984952918523,2.294891471186236,8.47484752425018,0.8790386881705236
1731474143.789569,-0.2620607912540436,0.3989132344722748,-10.011852264404297,-0.5352481343472824,0.8369170358000366,-0.00855106561204385,2.2871871887895243,8.481713138277462,0.8792435347122426
1731474143.8395295,-0.3114404082298279,0.37750130891799927,-9.98075008392334,-0.5390526616408835,0.8413232661035176,-0.008849506613994813,2.279155775254853,8.489092781719638,0.8800723908530141
1731474143.8895874,-0.29066282510757446,0.38888999819755554,-10.001361846923828,-0.5431992912086416,0.8460030081938599,-0.009125084699702166,2.270735735744384,8.49704956221484,0.8803243822662997
1731474143.939539,-0.31284046173095703,0.36997202038764954,-10.00731372833252,-0.5476633343823425,0.8509231467963911,-0.00937581975141463,2.262025821643507,8.505488223120244,0.8805690806108759
1731474143.9893997,-0.27976566553115845,0.3753986358642578,-10.026233673095703,-0.5524192020308467,0.8560496540581672,-0.009599998064485164,2.2530058595336757,8.514425793560086,0.8808070449427341
1731474144.0392823,-0.2954639196395874,0.3394887149333954,-9.958551406860352,-0.5574402321092491,0.8613475291023822,-0.009796163897867433,2.2436410609926782,8.52389547487681,0.8810585830302499
1731474144.089266,-0.5322554707527161,-0.19363191723823547,-10.011695861816406,-0.562698552909887,0.86678007079978,-0.009962928147478631,2.2338726325436573,8.53395993874561,0.8811803978469913
1731474144.139285,-0.4975226819515228,-0.47324222326278687,-10.109478950500488,-0.568165830725769,0.8723067412113596,-0.010098890624083225,2.223763894308415,1.567251890808244,0.8810513045637453
1731474144.1902807,-0.6517626047134399,-0.1517183631658554,-10.05496883392334,-0.5738147087862224,0.877880308827794,-0.010203015791462856,2.213082686386792,1.3842572064122496,0.8810731503833343
1731474144.2401178,-0.7958483099937439,-0.4603233337402344,-10.047149658203125,-0.5796201657516697,0.88344575047536,-0.010275061575192873,2.2022971503280697,1.5482160549532828,0.8810176666663989
1731474144.2899477,-0.3774668574333191,0.1904527246952057,-9.920002937316895,-0.5855603521607369,0.8889417486401623,-0.010315442786783622,2.1911821408587184,1.505625872927074,0.8810129586576937
1731474144.3399312,-0.7103548049926758,-0.2533815801143646,-10.023809432983398,-0.5916163065122251,0.8943035308807625,-0.01032463060732152,2.1796017339466873,1.589131188958303,0.8809995795368533
1731474144.389945,-0.5084047317504883,0.20593859255313873,-9.930323600769043,-0.5977710092598735,0.8994656857669868,-0.010302682960458135,2.167654274188408,1.5806948307723059,0.8809877501025584
1731474144.4399543,-0.6116470098495483,0.06604569405317307,-9.929553985595703,-0.604008936485182,0.9043642894882323,-0.010249083826077834,2.1553655000334127,1.6199301348545987,0.8809923410888685
1731474144.489831,-0.5259138345718384,0.24936124682426453,-9.96333122253418,-0.6103159093133457,0.9089386671385794,-0.010162638097680442,2.142710498336229,1.6362114897341709,0.8809914897928732
1731474144.5398407,-0.5633005499839783,0.1612505167722702,-9.892698287963867,-0.6166790413930543,0.9131326452989769,-0.010041540375557826,2.129629209892807,1.6391285578088468,0.8809781848434918
1731474144.5897121,-0.5227437615394592,0.1753193736076355,-9.91405963897705,-0.623087419617881,0.9168945379542508,-0.009883851839488308,2.1162161321936934,1.642602222315169,0.8809587442773605
1731474144.6397834,-0.5227437615394592,0.1753193736076355,-9.91405963897705,-0.6295331881230739,0.9201762461994288,-0.00968810416365451,2.102351568927284,1.646664937792799,0.8809331074529472
1731474144.6897333,-0.4877649247646332,0.19532594084739685,-9.93302059173584,-0.6360118924033532,0.9229327037079815,-0.009453659701775134,2.0881328940209145,1.6548465549363558,0.8809878892999861
1731474144.7396362,-0.4850020408630371,0.15887004137039185,-9.961091995239258,-0.6425219202852951,0.925122049135337,-0.009180846019297782,2.0734893851113623,1.6580027610112429,0.8809740393527888
1731474144.7895703,-0.042006008327007294,0.42955347895622253,-9.968608856201172,-0.6490633462122867,0.9267061806427416,-0.008871061097104727,2.0584591142001023,1.6617326543809436,0.8809545787884874
1731474144.8395107,0.20982344448566437,0.5299987196922302,-9.996824264526367,-0.6556356035856679,0.9276519175164066,-0.008526892122566607,2.0430692980431737,1.6686403679344826,0.8809888019791378
1731474144.8894217,-0.2961362600326538,0.27400559186935425,-10.028383255004883,-0.6622345962799283,0.9279324934250667,-0.008152217211577108,2.0271654176574763,1.6722785159555187,0.8809762943205313
1731474144.9395008,-0.2961362600326538,0.27400559186935425,-10.028383255004883,-0.6688520386191557,0.9275278552410642,-0.007752303798478727,2.010948711334887,1.6769420465837968,0.8809903299293029
1731474144.989377,-0.3626199960708618,0.24273060262203217,-10.05359172821045,-0.6754775687294634,0.9264234912336753,-0.007333855734071658,1.9942634869770182,1.6799834215443954,0.880979257119942
1731474145.0394049,-0.1496284306049347,0.48473837971687317,-10.041500091552734,-0.6821007284150103,0.9246094672183159,-0.006904949745589389,1.9771990153719343,1.6861066886324392,0.8809912639137906
1731474145.0892012,-0.3409866988658905,0.2217046469449997,-10.007319450378418,-0.6887110305149926,0.922080583010214,-0.006474728894737816,1.9597628219758725,1.6895261212214934,0.8809814341682086
1731474145.1393504,-0.3409866988658905,0.2217046469449997,-10.007319450378418,-0.6952969824666495,0.9188366361004429,-0.006052627736131652,1.9416780484589204,1.6941114592796582,0.8809921360611489
1731474145.1891997,-0.3174585700035095,0.26658883690834045,-9.997493743896484,-0.7018454037655997,0.9148819208788691,-0.005647383223238129,1.923335866070065,1.6975071533874715,0.880983417605456
1731474145.2401588,-0.2567730247974396,0.41878947615623474,-9.975645065307617,-0.7083413275572257,0.9102247543916219,-0.005266429752129857,1.904102391372226,1.7015695718552843,0.8809709908479261
1731474145.290124,-0.31867489218711853,0.322895348072052,-10.004502296447754,-0.7147680728624339,0.9048777637115262,-0.004915758272493086,1.8848531724708297,1.706110547356109,0.8809556463120779
1731474145.3400424,-0.2900391221046448,0.4151308536529541,-9.99188232421875,-0.7211074395543202,0.8988582793000823,-0.004599988854576786,1.8651295932961165,1.711474320233622,0.8809925764977959
1731474145.390102,-0.331870973110199,0.35072141885757446,-9.961592674255371,-0.7273401482147104,0.892188235233738,-0.004322502072693678,1.8448699885920123,1.7151258542083883,0.8809853812750911
1731474145.4399805,-0.31109046936035156,0.4003080129623413,-9.982954025268555,-0.73344635535739,0.884893783669045,-0.004085493743227116,1.8243150889636153,1.7283533902330661,0.8809943839800793
1731474145.4899025,-0.3297779858112335,0.40445318818092346,-9.977746963500977,-0.7394060859379964,0.8770048878642331,-0.003889996880069213,1.8032056274006178,1.7332495620504569,0.880988400846815
1731474145.5398126,-0.3312694728374481,0.4171616733074188,-9.975252151489258,-0.7451995764836916,0.8685549866456952,-0.0037359978609764442,1.7816451014676575,1.7386868048890525,0.8809800455848351
1731474145.589731,-0.3365127444267273,0.42672958970069885,-9.98169231414795,-0.7508075702359203,0.8595807080160753,-0.0036225914136099793,1.759763369718047,1.750757404449729,0.880994951435802
1731474145.6397784,-0.6444383859634399,0.252627432346344,-9.986760139465332,-0.7562121263208689,0.8501214103598325,-0.0035481377874149265,1.7371451461462242,1.7554343852481133,0.8809895548980382
1731474145.6896195,-0.5891392230987549,0.3251998722553253,-9.954066276550293,-0.7613988770982144,0.8402183619197086,-0.0035104560308598055,1.7141958613119366,1.7606091240273771,0.8809819909317684
1731474145.739691,-0.7718563675880432,0.09749940782785416,-9.974160194396973,-0.7663599953141454,0.8299136822400488,-0.0035069711185566643,1.6905774482127984,1.7663519307522864,0.8809721563955345
1731474145.7895942,-0.46285444498062134,0.407083123922348,-9.982929229736328,-0.7710956417533539,0.8192494296900206,-0.0035347867108108098,1.6668467723117832,1.774015232657281,0.8809952783060194
1731474145.839546,0.17480438947677612,0.5993920564651489,-9.956948280334473,-0.7756124691093156,0.8082676535667616,-0.0035907723200364417,1.6423492908051818,1.778421390014555,0.8809900705450913
1731474145.8895202,-0.4296962022781372,0.3416212499141693,-10.036373138427734,-0.7799198134242169,0.797011603725703,-0.0036716876186547237,1.6175925936301447,1.7971384098079215,0.8809958809862038
1731474145.9394314,-0.10667605698108673,0.5735830664634705,-9.944799423217773,-0.7840267330905003,0.7855265725848439,-0.0037743353622769656,1.5920787479632763,1.802643557823034,0.8809907447345436
1731474145.9893925,-0.4261827766895294,0.25164923071861267,-9.998679161071777,-0.7879418144880588,0.7738594590282795,-0.003895641481109597,1.5663619953879198,1.821982354396709,0.8809958449265385
1731474146.0393891,-0.4261827766895294,0.25164923071861267,-9.998679161071777,-0.791674201437536,0.7620575698835389,-0.004032623175044699,1.5398544920939838,1.8289516731102706,0.8809904555727179
1731474146.0892906,-0.36952340602874756,0.26452311873435974,-9.984543800354004,-0.7952345064952608,0.7501671105571742,-0.004182420180253294,1.5130951619345638,1.836327342004574,0.880982563734888
1731474146.1392066,-0.2180897742509842,0.5275964140892029,-9.984308242797852,-0.7986350273248924,0.7382323478742623,-0.004342361635800043,1.485751104683398,1.8441901718576115,0.8809719963838999
1731474146.1892066,-0.35027265548706055,0.3020928204059601,-9.998504638671875,-0.8018886784539003,0.7262961314511378,-0.0045099351521462275,1.4578642378648061,1.852522432351509,0.8809586502200282
1731474146.2392662,-0.24522694945335388,0.4789474606513977,-9.97572135925293,-0.8050070835238778,0.7144007515828299,-0.004682722703003149,1.4294769126195348,1.8494212948716737,0.8809946888653196
1731474146.2900531,-0.32880857586860657,0.3587845265865326,-9.992473602294922,-0.8079988930012012,0.7025881937069076,-0.004858342987414775,1.4000667636986073,1.8538740786313426,0.8809879069452056
1731474146.3401139,-0.28920209407806396,0.4533703923225403,-9.996732711791992,-0.8108691406173634,0.690900006906563,-0.00503442039365261,1.370560687285694,1.872744294961392,0.8809948072103501
1731474146.3900425,-0.32036682963371277,0.38436904549598694,-9.975886344909668,-0.8136195728455534,0.6793770689577244,-0.005208617370428756,1.3407464186262574,1.87948420623474,0.8809879227007575
1731474146.4399643,-0.3222068250179291,0.4288286566734314,-9.992498397827148,-0.8162492620437993,0.6680592902007095,-0.0053786583181975435,1.3101011821456885,1.8867204251345262,0.8809776285806162
1731474146.4898868,-0.3282969295978546,0.4256960153579712,-9.982223510742188,-0.8187551681593126,0.6569853358226769,-0.005542316244624847,1.2793837245139128,1.8942648600657517,0.8809640947090475
1731474146.5398424,-0.3342430889606476,0.41899538040161133,-9.977553367614746,-0.8211326452713581,0.6461924216814867,-0.005697411130283109,1.2479411192255019,1.9018584990104752,0.8809935392813807
1731474146.5898244,-0.3272224962711334,0.4375999867916107,-9.990431785583496,-0.8233758644008142,0.6357161470257643,-0.005841812398237596,1.2161370712976265,1.9264924336697336,0.8809945624847094
1731474146.6398294,-0.348007470369339,0.42216381430625916,-9.980985641479492,-0.8254781585035943,0.6255903188702202,-0.005973452056912013,1.1834599274151938,1.934002216410377,0.8809868008370668
1731474146.6897447,-0.3311549723148346,0.43346843123435974,-9.981561660766602,-0.8274323308133333,0.6158467824751811,-0.006090355842904839,1.150680760379953,1.94180272935151,0.8809753947145216
1731474146.7396312,-0.3635404109954834,0.40990909934043884,-9.988479614257812,-0.8292309533015888,0.6065153431096914,-0.006190668352734043,1.1171638973071214,1.9500366437550207,0.880960087227807
1731474146.789546,-0.32311975955963135,0.4552238881587982,-9.978585243225098,-0.8308666619994085,0.5976239728548738,-0.006272698518712412,1.0833494816422404,1.9585900563802656,0.8809410221688919
1731474146.8395026,-0.3543110489845276,0.4205108880996704,-9.987153053283691,-0.8323323951310733,0.5891992326271243,-0.006334981782927547,1.0489151288025234,1.9575510111458587,0.880992353248854
1731474146.8894835,-0.33690303564071655,0.44204410910606384,-9.983466148376465,-0.8336215385920108,0.581266464408436,-0.006376309735477056,1.0137386022687198,1.9617083687635304,0.8809832014914315
1731474146.939377,-0.3456494212150574,0.4204249382019043,-9.974058151245117,-0.8347280320661623,0.5738496048405999,-0.006395721761039391,0.9782476510382762,1.9837022620239007,0.880794777700696
1731474146.9893372,-0.32335811853408813,0.44455331563949585,-9.994388580322266,-0.8356464426631764,0.5669708893516944,-0.0063924781526697805,0.9420914673404717,1.9906411046729993,0.8807463578642843
1731474147.0392928,-0.3419918715953827,0.4153200089931488,-9.980100631713867,-0.8363719815623325,0.5606506151054298,-0.006366052851722768,0.9055245633210195,1.9979102407791653,0.8806941089978502
1731474147.0892532,-0.33232659101486206,0.44813141226768494,-9.970808982849121,-0.8369005205536649,0.5549069495372232,-0.006316134153208529,0.8683844801220136,2.005537503101346,0.8806378314195882
1731474147.1392598,-0.3414287269115448,0.42118310928344727,-9.989472389221191,-0.8372286510313316,0.5497557821054166,-0.00624258140996805,0.8306595915158215,2.007531892431776,0.8805824805136606
1731474147.1892078,-0.32821929454803467,0.43675288558006287,-9.983247756958008,-0.8373537442314087,0.5452106155773693,-0.006145393985163419,0.792546298645643,2.0118146752960975,0.8805455508860955
1731474147.239118,-0.3308393657207489,0.41653814911842346,-9.989508628845215,-0.8372739676126408,0.5412824596854905,-0.006024742875643009,0.7537821660535882,2.0164512990836063,0.8805046947756673
1731474147.2890556,-0.3233639597892761,0.44228991866111755,-9.99915599822998,-0.8369882265748075,0.5379797678149354,-0.005881004812335731,0.7146771034890419,2.0291325866304564,0.8843973882084262
1731474147.34003,-0.3317860960960388,0.42187803983688354,-9.981391906738281,-0.8364960013680448,0.5353085175805816,-0.005714750555993684,0.6740593433747132,2.033562757494529,0.8848869063944068
1731474147.389953,-0.3199501931667328,0.43816444277763367,-9.984302520751953,-0.8357971541554784,0.5332723793215463,-0.005526674244591518,0.6337658858468805,2.038237219182344,0.8853626078749038
1731474147.4399762,-0.3348630368709564,0.410004585981369,-9.995926856994629,-0.8348918507775603,0.5318727937553316,-0.005317508786645607,0.5928832730138385,2.043252752898336,0.8858356971341873
1731474147.4898822,-0.31965500116348267,0.4335654675960541,-9.987404823303223,-0.8337806097706197,0.5311089276117854,-0.005088011449195471,0.5516876913189045,2.0560856716431766,0.8884775402750771
1731474147.5398347,-0.33629316091537476,0.42236918210983276,-9.98745346069336,-0.8324643844770157,0.5309776312899256,-0.004838992721587193,0.5099161172797047,2.060462026397084,0.8889811389698159
1731474147.5897639,-0.32917505502700806,0.4344494938850403,-9.999245643615723,-0.8309446384970888,0.5314734718304799,-0.004571322609244135,0.4676411055638659,2.083434044720794,0.8924392792708504
1731474147.6397233,-0.3516184091567993,0.42074695229530334,-9.990751266479492,-0.829223434238224,0.5325888018152847,-0.0042859406192941995,0.4247553389891893,2.090911353331325,0.8933937798327657
1731474147.6896822,-0.3454195261001587,0.43337929248809814,-9.982441902160645,-0.8273035423114152,0.5343138182915695,-0.00398386636450752,0.3814485459126807,2.098704152261302,0.8943436069911064
1731474147.739603,-0.3505779504776001,0.42843934893608093,-9.977140426635742,-0.8251885368718856,0.5366366281689231,-0.0036661511452412716,0.33764043806881,2.113410734169672,0.8926222344496527
1731474147.7895708,-0.3442579209804535,0.44717955589294434,-10.014467239379883,-0.8228828284857629,0.5395433557581932,-0.00333382384231393,0.2929870022684746,2.1189123192327455,0.8928203506638237
1731474147.839557,-0.2940550446510315,0.5944892764091492,-9.976007461547852,-0.8203915598736432,0.5430185719001142,-0.0029879494481543896,0.24821293009447395,2.14523279703272,0.8923756913094546
1731474147.889536,-0.20518560707569122,0.54371577501297,-9.946371078491211,-0.8177201899765378,0.5470464602894745,-0.002629716601946119,0.20270931951783172,2.153598830758178,0.8924247565685931
1731474147.939503,-0.43645983934402466,0.24578015506267548,-9.995434761047363,-0.8148739649753174,0.551611915094693,-0.0022604012182755265,0.1567477201928251,2.172603230446004,0.8880403910577936
1731474147.9893682,-0.2412494719028473,0.5809628963470459,-10.00178050994873,-0.8118579150374603,0.5567002873737404,-0.001881350339415052,0.1105245328210499,2.180936754867254,0.8871479501602317
1731474148.0393229,-0.4226839542388916,0.305077463388443,-9.972904205322266,-0.8086772858080054,0.5622965526742978,-0.0014941072390943144,0.06351674860296135,2.1896694086044866,0.8862490597059645
1731474148.0892675,-0.17636924982070923,0.6643232107162476,-9.994385719299316,-0.8053377135874595,0.5683851953032004,-0.0011004727603913158,0.01617704524314522,2.1987220142499733,0.8853526103394905
1731474148.1391916,-0.017241640016436577,0.4965020716190338,-10.021503448486328,-0.8018446946108111,0.5749506862215672,-0.0007024666339176084,-0.031767691267761605,2.2054800680376485,0.8837233249304045
1731474148.1891968,0.08745230734348297,0.6030604839324951,-10.011589050292969,-0.7982021621437565,0.581978039849955,-0.000302384373772025,-0.07999671255113566,2.2267309853953696,0.8802986216073527
1731474148.2391913,-0.9778934717178345,0.07814757525920868,-9.990920066833496,-0.7944118159051454,0.5894525930094345,9.71221314235321e-05,-0.1290676750396079,2.234004535435638,0.8793473902812253
1731474148.289004,-0.13256236910820007,0.6477596163749695,-9.916261672973633,-0.7904752920844352,0.5973586850606634,0.000493203406659589,-0.17842387969003748,2.2416167755655176,0.8784003801584361
1731474148.3390393,-0.5607509613037109,0.18505153059959412,-10.030675888061523,-0.7863968655686708,0.6056786674310493,0.0008831614000449101,-0.22846625901984405,2.2496348585622656,0.877450091451023
1731474148.3899746,-0.24053697288036346,0.6703055500984192,-9.993346214294434,-0.782183520575264,0.6143931789024075,0.0012645808401386446,-0.27964569087200336,2.2608143921881974,0.8796380146413739
1731474148.4399455,-0.4149532914161682,0.18424800038337708,-9.922703742980957,-0.7778436358635945,0.6234819453236154,0.001635245249855605,-0.3307526009646364,2.2662895580753535,0.8794709982057333
1731474148.4898977,-0.32263457775115967,0.564312756061554,-10.011099815368652,-0.7733861165875896,0.6329242830315618,0.0019932597337549806,1.563606604931283,2.2875282396008583,0.8798523006335808
1731474148.539939,-0.4096713662147522,0.33358514308929443,-9.978320121765137,-0.7688200674553353,0.6426992088878976,0.0023372137637117894,1.56086377448738,2.2952516951528152,0.8798108619558221
1731474148.5898108,-0.33266475796699524,0.4822407364845276,-9.983787536621094,-0.7641548179718731,0.6527855161844269,0.002666067559015424,1.5554603817670363,2.3138008635905156,0.879947227127699
1731474148.6398258,-0.36633315682411194,0.4079146981239319,-10.017582893371582,-0.7593999477563417,0.6631618920303568,0.0029789851138861826,1.552962467316246,2.3215498669978034,0.879938939240684
1731474148.6896837,-0.37975364923477173,0.41329842805862427,-9.984230041503906,-0.7545652008500092,0.6738069250149761,0.003275235697117526,1.549821668608986,2.3397368044524485,0.8799841079432404
1731474148.7397082,-0.3236582279205322,0.45023560523986816,-9.957239151000977,-0.7496604394678725,0.6846990489735288,0.003554163971558241,1.5476129998458135,2.346512595641735,0.8799853004455559
1731474148.7895982,-0.4094269871711731,0.40006208419799805,-10.010847091674805,-0.7446956174153619,0.695816510503767,0.0038152948907540663,1.5437659943804483,2.368418515534581,0.8799974219130746
1731474148.8395123,-0.3341081142425537,0.49790847301483154,-9.974881172180176,-0.7396807685095921,0.7071374292745038,0.004058393446154832,1.5385605510190248,2.3869948957717795,0.8800010443907668
1731474148.8895173,-0.40162166953086853,0.3858509361743927,-9.979796409606934,-0.7346260367919195,0.7186399193713524,0.0042834010078855005,1.5357562915088931,2.3950357042106902,0.8800060135765843
1731474148.9394271,-0.33520281314849854,0.49349677562713623,-9.995915412902832,-0.7295417525181903,0.7303019998885155,0.004490412279349276,1.5324930787039632,2.4035325864233625,0.8800137287340581
1731474148.989394,-0.39363962411880493,0.3769837021827698,-9.9759521484375,-0.724438693304562,0.7421009644911079,0.0046796822835386935,1.5287779279047662,2.4124833091706686,0.8800243036587582
1731474149.0393794,-0.32641667127609253,0.49767252802848816,-9.984671592712402,-0.7193284467909185,0.7540125193326858,0.004851612133600691,1.532844870647058,2.417231989455289,0.8800046713514094
1731474149.0893095,-0.39658495783805847,0.40310895442962646,-9.991823196411133,-0.7142235236892718,0.7660104527366334,0.005006746428669899,1.530882103768891,2.423043719624528,0.8800113852978895
1731474149.139286,-0.31508591771125793,0.49019932746887207,-9.974615097045898,-0.7091371884424112,0.7780669289290744,0.005145754808549287,1.5284715065743755,2.4293479119328336,0.8800212804139703
1731474149.1892076,-0.3865351676940918,0.38851404190063477,-9.984769821166992,-0.7040832068926284,0.7901529051687894,0.005269413067317644,1.5274384467162998,2.4361232032780884,0.8800055855834708
1731474149.2392628,-0.3284973204135895,0.4553205966949463,-9.989445686340332,-0.6990756141786528,0.8022384086029352,0.005378603374425011,1.5255736205422403,2.443424361107056,0.8800129467214236
1731474149.2891707,-0.36882221698760986,0.4021817743778229,-9.976908683776855,-0.6941285315620422,0.8142927395296712,0.005474289466728044,1.5232768544318964,2.4512173505269614,0.8800236856117709
1731474149.3390863,-0.339903861284256,0.46282950043678284,-9.997218132019043,-0.6892560075009895,0.8262847353003874,0.005557479672354454,1.5205507838019956,2.4595150420194822,0.8800378545629011
1731474149.3890233,-0.36403632164001465,0.4146801829338074,-9.983406066894531,-0.6844718755363431,0.8381831194581604,0.005629195092960979,1.5208846430244065,2.468317831464158,0.8800065495833033
1731474149.4399798,-0.3282560706138611,0.4430561661720276,-9.990992546081543,-0.6797896276818343,0.8499568304422811,0.005690435135783073,1.5189634146392947,2.4778886976937486,0.8800148031496816
1731474149.489963,-0.34830936789512634,0.4099680185317993,-9.985173225402832,-0.675222273930103,0.8615751772268487,0.005742154947973313,1.5166581298479445,2.4877823305719042,0.8800264774987154
1731474149.5398574,-0.3367198407649994,0.4484230577945709,-9.979958534240723,-0.670782232666827,0.8730077290291256,0.005785242827394898,1.5143952763167334,2.4982005443662425,0.8800067072863934
1731474149.5898209,-0.3511849343776703,0.42940324544906616,-9.9827299118042,-0.6664813023606426,0.8842241402948524,0.005820498841712119,1.5122399364322419,2.5091900919863286,0.880014921231205
1731474149.639785,-0.3449540138244629,0.44740235805511475,-9.993281364440918,-0.6623306639196128,0.8951942323023517,0.00584862670740877,1.509675384346743,2.520710339435897,0.8800267515380523
1731474149.689714,-0.348348468542099,0.4309273660182953,-9.968509674072266,-0.658340857342282,0.9058883008016377,0.005870227310683422,1.5078129343856779,2.5328471778059973,0.880006929284172
1731474149.7397473,-0.3465837836265564,0.4344233572483063,-9.99363899230957,-0.6545217330400134,0.9162774189815831,0.005885814779800685,1.5057483936325555,2.545516857406159,0.8800152895854447
1731474149.7896135,-0.35121646523475647,0.43669408559799194,-9.989757537841797,-0.6508823988236653,0.9263336726093688,0.005895832974460925,1.501228082462531,2.5587341202964438,0.8800065330498031
1731474149.839714,-0.3436480164527893,0.4485608637332916,-9.986307144165039,-0.6474311762460977,0.9360303895850439,0.0059006249744107606,1.4948674524990646,2.572581368653205,0.8800057634001001
1731474149.8895714,-0.3596985638141632,0.44395580887794495,-9.989258766174316,-0.644175567503019,0.9453423942702449,0.005900409775800102,1.4919584997953406,2.586940803715169,0.8800135786260653
1731474149.9394937,-0.3440133035182953,0.440993994474411,-9.989282608032227,-0.6411222390516788,0.9542462329089275,0.005895300692467806,1.4886265891092547,2.6019964755022738,0.8800251420624227
1731474149.9894161,-0.3629949986934662,0.4327376186847687,-9.978323936462402,-0.638277017370578,0.9627203093037825,0.005885332650690127,1.4849183804151889,2.617550290301217,0.8800402951489216
1731474150.0394707,-0.35161831974983215,0.4358040392398834,-9.977865219116211,-0.6356448922876161,0.970744968823207,0.005870502208807381,1.486738820153612,2.633805016597791,0.8800073685877037
1731474150.0892787,-0.3588835597038269,0.44195646047592163,-9.983288764953613,-0.6332300345947023,0.9783026397243039,0.005850803309697615,1.484664893936174,2.650587142698586,0.8800158667829129
1731474150.1392915,-0.3525645434856415,0.4376795291900635,-9.988021850585938,-0.6310358085320078,0.9853780364003563,0.005826209568296778,1.4821808725335162,2.6680932513299958,0.880028084321237
1731474150.1892414,-0.3610277473926544,0.4366692900657654,-9.989734649658203,-0.6290647680860991,0.9919582915584749,0.005796618321996646,1.4801210256669115,2.686031012835175,0.8800070221847424
1731474150.239233,-0.35390523076057434,0.44004589319229126,-9.980785369873047,-0.6273186556747392,0.9980329647448883,0.005761817491981565,1.4781773078406448,2.70475965447525,0.8800153470330045
1731474150.2891834,-0.34808841347694397,0.4356316924095154,-9.990507125854492,-0.625798396431626,1.0035940019464376,0.005721500577191429,1.475853460370327,2.724011596491675,0.880027206270085
1731474150.3391497,-0.3495331108570099,0.4318283796310425,-9.987534523010254,-0.6245040676030235,1.0086356830058265,0.0056752940377545105,1.4726482443409459,2.743948088942311,0.8800069468596843
1731474150.3889644,-0.34229859709739685,0.43807172775268555,-9.979005813598633,-0.623434862178984,1.0131545474109576,0.005622772640797447,1.4704219078061633,2.7643945193540023,0.8800150441121434
1731474150.4399717,-0.35194361209869385,0.43843650817871094,-9.987793922424316,-0.6225890798039985,1.017149323502057,0.00556348876893867,1.4637147432046393,9.516159991732879,0.880006516487783
1731474150.4899325,-0.3497510850429535,0.43838438391685486,-9.9824857711792,-0.6219641581928308,1.0206208779734918,0.005497007149358797,1.4569188023562671,9.512390620367626,0.8800055556497924
1731474150.5399475,-0.3440338671207428,0.4448617100715637,-9.980924606323242,-0.6215567291833115,1.0235721634286634,0.005422919846036785,1.4535899221999427,9.576308019478375,0.8800129301310643
1731474150.5898569,-0.3435697555541992,0.4436219334602356,-9.993441581726074,-0.6213626487873459,1.0260081635356144,0.0053408656249556395,1.4498718185802404,9.640882095539617,0.8800236698657988
1731474150.6397717,-0.3434273302555084,0.4445556402206421,-9.981748580932617,-0.6213769825490281,1.027935850057059,0.005250574189453324,1.4501999608262512,9.495680381030127,0.8800064866145195
1731474150.6896904,-0.34205594658851624,0.4357181191444397,-9.985618591308594,-0.6215939931974473,1.0293641200778345,0.005151927210357983,1.448079916897827,9.510127128360354,0.8800140068444224
1731474150.7397027,-0.3368449807167053,0.4365089237689972,-9.985532760620117,-0.622007164385816,1.0303036707031383,0.005045004641501448,1.442733425782428,9.470215688841785,0.880005927163591
1731474150.7896504,-0.3370206654071808,0.44003918766975403,-9.988101959228516,-0.622609243254767,1.0307668358737876,0.004930081995160736,1.4400315378467468,9.474482185283936,0.8800130408636349
1731474150.839731,-0.34878137707710266,0.4350849390029907,-9.995030403137207,-0.6233922991737565,1.0307674416285098,0.004807585303193265,1.4362285501651468,9.458299686285203,0.8800056678965068
1731474150.8894904,-0.34958556294441223,0.43955448269844055,-9.992443084716797,-0.6243478297611639,1.0303206823342892,0.004678029736969714,1.4336210530720355,9.459937418326877,0.8800123988661877
1731474150.9395454,-0.33814793825149536,0.4347154200077057,-9.992836952209473,-0.6254668882524186,1.0294429948895543,0.004541968274894307,1.4305887686295902,9.462241733468801,0.8800221058100005
1731474150.9894862,-0.3534073531627655,0.43426117300987244,-9.98823356628418,-0.6267401672390223,1.0281519267668502,0.004399974478226023,1.4271893540877443,9.465170030628427,0.8800345270107408
1731474151.0393903,-0.35689619183540344,0.43784937262535095,-9.982269287109375,-0.6281580677226631,1.02646600172677,0.004252660770063319,1.4281770280176835,9.450328859360411,0.8800059186606422
1731474151.089344,-0.34376397728919983,0.4424741268157959,-9.984296798706055,-0.6297107976136471,1.0244046030053688,0.0041007156796360016,1.4260851410968398,9.451367559683762,0.8800122423037716
1731474151.1394033,-0.34501925110816956,0.4349685609340668,-9.980411529541016,-0.6313884374171107,1.0219878720948001,0.0039449216886882936,1.4217464073201502,9.444824220133086,0.8800049149915502
1731474151.1892505,-0.35001081228256226,0.4367660880088806,-9.98748779296875,-0.6331809525609391,1.019236572507019,0.003786111411450267,1.419166870497862,9.445182823528043,0.8800105155932313
1731474151.2393665,-0.35077399015426636,0.4410512447357178,-9.983784675598145,-0.6350782289391678,1.016171921404947,0.003625080611678231,1.4161581426004575,9.446184259873498,0.8800185087507222
1731474151.2891529,-0.3346041738986969,0.4414082169532776,-9.978825569152832,-0.6370701323318211,1.0128154618053322,0.003462532668201136,1.413427741713562,9.439161534946056,0.880004681522132
1731474151.339152,-0.3532467186450958,0.44168803095817566,-9.982125282287598,-0.6391465336962426,1.009188986895328,0.0032990884268797897,1.4112583596434702,9.439801919818823,0.8800097850221973
1731474151.38902,-0.3444956839084625,0.44681721925735474,-9.989038467407227,-0.6412973313336398,1.005314471922539,0.0031353096542146848,1.4058736985930755,9.433104486323684,0.880003962329197
1731474151.4390323,-0.3412024676799774,0.45108357071876526,-9.988518714904785,-0.6435125036576663,1.0012140092931279,0.0029716827012136035,1.4031457575785553,9.433126954568115,0.8800084712156155
1731474151.4888942,-0.35135704278945923,0.44728460907936096,-9.988907814025879,-0.6457821518406138,0.99690975442733,0.002808583134191758,1.3965381020943852,9.427459383492351,0.8800035455618326
1731474151.5399947,-0.3428148031234741,0.43845781683921814,-9.985496520996094,-0.648096533284436,0.9924238482604557,0.0026462666510332212,1.3930291384099973,9.427279078386922,0.8800076873128593
1731474151.589838,-0.35130253434181213,0.43799132108688354,-9.989453315734863,-0.6504461087712625,0.9877782885714076,0.002484888272701867,1.3892064396994699,9.427725345604896,0.8800133298786929
1731474151.6397727,-0.34227749705314636,0.4340595602989197,-9.994230270385742,-0.652821582975219,0.9829947820651427,0.0023245164281192874,1.3895317992620306,9.421396044824883,0.8800033361670494
1731474151.6898038,-0.345090389251709,0.4354267120361328,-9.992863655090332,-0.6552139253842869,0.9780946241813878,0.0021651327836149014,1.3872854809904338,9.421776462779915,0.8800068327366082
1731474151.7628806,-0.3515869379043579,0.4293767511844635,-9.992466926574707,-0.6576143859081798,0.9730986118134243,0.002006660432457737,1.3796474358528916,9.414537088684828,0.8800039221181012
1731474151.839626,-0.3230764865875244,0.15276339650154114,-9.979936599731445,-0.6600145077994223,0.968026719233673,0.001849041901682306,1.3714126941122218,9.410353622340464,0.8800039418214891
1731474151.8895721,-0.22208143770694733,0.187400683760643,-10.070066452026367,-0.662405995596983,0.9628971049055643,0.001692250237488313,1.3679661438056212,9.410671535358166,0.8800073065313387
1731474151.939552,-0.3626958727836609,-0.3957504630088806,-10.0033597946167,-0.664780397615744,0.957724362804307,0.0015361038870387537,1.3640951552590153,9.4115899744829,0.8800116888902386
1731474151.989412,-0.49128592014312744,-0.6028002500534058,-10.101073265075684,-0.6671291877934853,0.9525168900041856,0.001380005635651882,1.3645743644201347,9.404208031494015,0.8800027611246344
1731474152.039409,-0.33004650473594666,0.15001556277275085,-9.991525650024414,-0.6694445483014888,0.947274482903219,0.001222809215036898,1.3579100922921394,9.398905439379936,0.8800018022712492
1731474152.0893848,-0.42409035563468933,-0.23452405631542206,-9.928579330444336,-0.6717199562010397,0.9419889171500759,0.0010630015208396642,1.3549060088279692,9.398705762131032,0.8800035869056302
1731474152.139399,-0.3635537326335907,0.16380023956298828,-9.96257495880127,-0.6739500599296615,0.9366471294449981,0.0008992753477308571,1.3514795267634971,9.399095138032578,0.8800059871059736
1731474152.1892323,-0.3265819549560547,0.03705446049571037,-9.926668167114258,-0.6761303534487206,0.9312339826524503,0.000731074042209512,1.347651316467202,9.400063520185356,0.8800088818354976
1731474152.2392316,-0.34383344650268555,0.2610261142253876,-9.951214790344238,-0.6782568499705951,0.9257340704006812,0.0005587379953853832,1.3433859552021148,9.401615003743396,0.8800121899172998
1731474152.2891235,-0.35642221570014954,0.23940710723400116,-9.95168685913086,-0.6803258036152992,0.9201330866266294,0.0003833718587317697,1.349931513074745,9.392875288800075,0.8800014170029811
1731474152.3392637,-0.3735845685005188,0.305618554353714,-9.976515769958496,-0.6823337293215507,0.914418359080122,0.0002065138689053655,1.3480042591165866,9.393526358136945,0.880002248019707
1731474152.389072,-0.3662432134151459,0.2762035131454468,-9.98367977142334,-0.6842776251838516,0.9085786334652131,2.9678779960589288e-05,1.3422625154819128,9.387468737461656,0.8831614416562064
1731474152.4390504,-0.3853393793106079,0.2848801612854004,-9.992253303527832,-0.6861551298703337,0.9026038301824832,-0.0001459934690739144,1.3394857339677642,9.387504333313155,0.8837867928148397
1731474152.4890246,-0.3745778203010559,0.2969180941581726,-9.987142562866211,-0.6879645685546059,0.8964850792459644,-0.0003198844702638729,1.336173267636005,9.383559040635879,0.8865702026296374
1731474152.539969,-0.36941108107566833,0.32635197043418884,-10.017279624938965,-0.6897049316228978,0.8902148868978572,-0.0004919273908813876,1.3334965254017026,9.383738896931114,0.8874026940617274
1731474152.5898287,-0.3613957464694977,0.32036691904067993,-9.987659454345703,-0.6913757797032074,0.8837873666386017,-0.0006626142518538697,1.330438473151979,9.384473287502516,0.8882182892824647
1731474152.6398501,-0.3558109700679779,0.3377763330936432,-10.017905235290527,-0.692977095968293,0.8771984552748063,-0.00083297618443015,1.3293423400232454,9.378606620391261,0.8869454781845753
1731474152.6896672,0.11172740161418915,0.9410831928253174,-9.988750457763672,-0.6945087282898038,0.8704465639152263,-0.0010045135607372466,1.3272334518733588,9.37904730525074,0.8871375728615651
1731474152.7397246,0.6022413969039917,1.6053311824798584,-9.950591087341309,-0.6959682456201045,0.8635352785186009,-0.0011790481854086203,1.323665703771888,9.373088182973952,0.8869545518911163
1731474152.7897217,0.45707929134368896,1.1785728931427002,-9.883322715759277,-0.6973471535120745,0.8564780384185647,-0.0013583755906308947,1.3212386338659816,9.372993506535424,0.8870456196367685
1731474152.8396256,0.18722468614578247,0.8254978060722351,-10.014012336730957,-0.6986278887037588,0.8493011080369266,-0.0015437782027349367,1.3183724590106127,9.373432246637666,0.8871358729705514
1731474152.889567,-0.2138817459344864,0.33085402846336365,-10.020838737487793,-0.6997834204743543,0.8420425106599098,-0.001735807134945912,1.3150818206560468,9.374395666373609,0.8872247691467181
1731474152.939633,-0.84199458360672,-0.42900434136390686,-10.077438354492188,-0.7007796797098425,0.834747797080514,-0.0019345475167301485,1.3166791222655765,9.367192461267706,0.887057075377573
1731474152.9894435,-1.1347620487213135,-0.6553553342819214,-10.159132957458496,-0.7015809459742877,0.8274633320422191,-0.0021401801346745634,1.3147108841462387,9.367570425762612,0.8870910707767503
1731474153.0395005,-0.5375619530677795,0.026560742408037186,-10.053828239440918,-0.7021557304760535,0.8202298416846305,-0.002353547848762807,1.3100673773688114,9.361172573595296,0.8840209896711908
1731474153.0893981,-0.6419805884361267,-0.14039817452430725,-10.018117904663086,-0.7024787846930689,0.8130807528077516,-0.002576276933419901,1.3074624789546434,9.360895835322218,0.8834125047147915
1731474153.13939,-0.6419805884361267,-0.14039817452430725,-10.018117904663086,-0.7025293762068561,0.8060445261918227,-0.0028102784703360334,1.3044058036786688,9.36112369406807,0.8827993625606552
1731474153.1893013,-0.5061772465705872,0.20886747539043427,-9.975037574768066,-0.7022895721472265,0.7991467598251162,-0.0030571358137797162,1.3009283294526488,9.361849298266355,0.8821875748770382
1731474153.2392278,-0.504601240158081,0.35937514901161194,-9.961531639099121,-0.7017435548425145,0.7924117333996661,-0.0033177340458379213,1.296989566850016,9.36307753616275,0.881569938384501
1731474153.2890863,-0.5235366225242615,0.4285810589790344,-9.942535400390625,-0.700877052926011,0.7858646512221121,-0.003592013290459118,1.303147000289041,9.35237260341556,0.88103043006409
1731474153.3391986,-0.5182399153709412,0.41647854447364807,-9.95583724975586,-0.6996770464333337,0.7795334853427874,-0.0038788166673864736,1.3013049716756617,9.352566036613126,0.8806967402873402
1731474153.3890479,-0.5484158992767334,0.4480695128440857,-9.937871932983398,-0.69813259047622,0.7734490556734267,-0.004175969456442052,1.2953817503486351,9.34446175281318,0.8812499459379572
1731474153.4390175,-0.5478430390357971,0.4370619058609009,-9.939542770385742,-0.6962376467684745,0.7676432342078048,-0.004480651202115122,1.2925356695082808,9.343702889595562,0.8812005731456357
1731474153.4889638,-0.5263280868530273,0.4694240391254425,-9.992203712463379,-0.693994750534946,0.7621464637648824,-0.0047899166298887436,1.288621109652328,9.336599593218713,0.8817320516257644
1731474153.5389593,-0.5467596054077148,0.46723413467407227,-9.985711097717285,-0.6914166020399913,0.7569863050271812,-0.005101156627973676,1.2858802721544373,9.335685284800887,0.8817912167996952
1731474153.5898702,-0.551529049873352,0.4757702946662903,-9.996859550476074,-0.6885252534272348,0.7521872404396013,-0.005412402214962975,1.2811752418942228,9.328333737378237,0.8821679970111572
1731474153.6398945,-0.5152885317802429,0.4587487578392029,-9.976001739501953,-0.6853506660220944,0.7477708117092182,-0.005722424094535982,1.2785727228521562,9.327596259387379,0.8822366231982574
1731474153.6898081,-0.5710768699645996,0.47691261768341064,-10.003650665283203,-0.6819293595603292,0.7437556664677872,-0.006030665768128973,1.2743097409247828,9.319198234340888,0.8826081328749278
1731474153.7397523,-0.525538980960846,0.48766395449638367,-9.994609832763672,-0.6783031686805294,0.740157605853907,-0.006337158039129213,1.2685412011871446,9.311162178541949,0.8828016748548837
1731474153.789613,-0.5084438323974609,0.5185731053352356,-9.965476989746094,-0.6745180978516467,0.7369897431493717,-0.006642451750423909,1.26561303140841,9.309470596018457,0.8828731152463278
1731474153.8396065,-0.5084438323974609,0.5185731053352356,-9.965476989746094,-0.6706231398125095,0.7342627653741607,-0.006947455842626569,1.2622560629403115,9.30823320203625,0.8829405290787113
1731474153.88953,-0.48913973569869995,0.46731847524642944,-9.979022026062012,-0.6666691256504054,0.7319851286350255,-0.007253215345832618,1.258489726556597,9.307455456253308,0.8830033695276217
1731474153.9395475,-0.4685397744178772,0.5056860446929932,-9.99309253692627,-0.6627076589532508,0.7301630868077839,-0.0075607721368349924,1.261129939359778,9.297876614501277,0.8830266081210315
1731474153.9894257,-0.4685397744178772,0.5056860446929932,-9.99309253692627,-0.658789953488356,0.7288008060413335,-0.007871046259633203,1.256135594225109,9.287364513052363,0.8830138147925607
1731474154.0394197,-0.45702219009399414,0.4998912811279297,-9.956080436706543,-0.6549656802825989,0.7279007098170533,-0.008184630756644502,1.253696761598574,9.285406942726157,0.883017558371665
1731474154.089314,-0.42270535230636597,0.48164358735084534,-9.983999252319336,-0.6512821484143837,0.7274637184956481,-0.008501583901007272,1.2508557014482249,9.283905251372476,0.8830161061810533
1731474154.1392968,-0.38456615805625916,0.5007065534591675,-9.960416793823242,-0.6477837496175252,0.7274892084880455,-0.008821345603989318,1.2475948223581745,9.28285184966415,0.8830092259076522
1731474154.1892097,-0.3837924003601074,0.4896668791770935,-10.00211238861084,-0.6445114396456284,0.7279749229037137,-0.009142801819990002,1.2439502905467774,9.28225706064692,0.8829967970356729
1731474154.2391903,-0.3806689977645874,0.47306615114212036,-10.001392364501953,-0.6415023320133655,0.7289169482408682,-0.009464465504321406,1.239883907839389,9.282114598981341,0.8829784823788167
1731474154.2891269,-0.3806689977645874,0.47306615114212036,-10.001392364501953,-0.6387895360216649,0.7303096659812746,-0.009784708918861863,1.2490778495632089,9.263279179863279,0.8831943129145371
1731474154.3391964,-0.6536251306533813,1.1910713911056519,-9.957026481628418,-0.6364024189836113,0.7321463291371368,-0.010101885832343328,1.2474391895666264,9.262142173785275,0.8831984171783187
1731474154.389024,-0.6536251306533813,1.1910713911056519,-9.957026481628418,-0.63436763003429,0.7344215405418801,-0.010414226950088371,1.2454090854731255,9.261464943213786,0.8831961209235549
1731474154.438984,-0.5680765509605408,0.5152410864830017,-9.884139060974121,-0.6327104040048781,0.737134073962223,-0.010719573040223949,1.2441740719615644,9.241609337291555,0.8833847202348839
1731474154.4890203,-0.5428992509841919,0.5303182005882263,-9.948053359985352,-0.6314552683607791,0.740286592576108,-0.011014986530535217,1.242495921565554,9.23963486570799,0.8833961015181279
1731474154.8706543,-0.253031849861145,0.3442539572715759,-9.981415748596191,-0.6306264470513443,0.7438834713660762,-0.011296295982591957,1.213142851425669,9.162814612569125,0.8839416285269533
1731474154.9205117,-0.23775433003902435,1.9156547784805298,-9.855184555053711,-0.6302479436454462,0.7479313548240676,-0.011557770621406484,1.2199052057578323,9.146062063640327,0.8839710061701775
1731474154.9705315,-0.23775433003902435,1.9156547784805298,-9.855184555053711,-0.6303426190109047,0.75244435971535,-0.01179188675408969,1.2171350472727067,9.143323495228946,0.8839588289416617
1731474155.020408,-0.1947299689054489,1.112312912940979,-10.022409439086914,-0.6309309686482957,0.7574499945571143,-0.011989240879448205,1.2194387027618903,9.114150279423262,0.8839832376141666
1731474155.0704117,-0.1947299689054489,1.112312912940979,-10.022409439086914,-0.6320304658482805,0.7629890316352594,-0.012139144375291417,1.2172454771343093,9.108768743173043,0.8839676868152992
1731474155.1203022,-0.2239534556865692,0.9041865468025208,-9.905142784118652,-0.6336552740163037,0.7691095069751803,-0.012230656044173258,1.2145854899767037,9.103705676483292,0.8839439670891376
1731474155.1704328,-1.3943976163864136,-0.5810168385505676,-10.084527969360352,-0.635817248347544,0.7758596407439546,-0.012253126578397585,1.21159964331703,9.099244695089762,0.883913279605113
1731474155.2202253,-0.5982986688613892,0.3721615672111511,-10.063822746276855,-0.6385294072557229,0.7832804348930174,-0.012196467681241054,1.208082624157693,9.095109494746227,0.8838734642579563
1731474155.2702136,-0.46314603090286255,0.03619835898280144,-10.011496543884277,-0.6418086705730691,0.7914001401765728,-0.01205166064831519,1.2168489089891863,9.080210265336405,0.8839846522062319
1731474155.320184,-0.5183843374252319,0.10595713555812836,-10.015792846679688,-0.6456741904476585,0.8002337890910567,-0.011811000825594213,1.2153532350117138,9.07776185361239,0.8839667235645853
1731474155.3702235,-0.5183843374252319,0.10595713555812836,-10.015792846679688,-0.6501437441534069,0.8097841792933194,-0.011467960543655875,1.214290729085762,9.055153543252096,0.8839869803049726
1731474155.4200754,-0.11161405593156815,0.15249505639076233,-10.028287887573242,-0.6552308427881629,0.8200399105205086,-0.011017338339421976,1.2127811259183692,9.0514091806912,0.8839711342985893
1731474155.469965,0.01588253118097782,0.03391246125102043,-10.020575523376465,-0.6609414829109324,0.8309721835162734,-0.010455730692224989,1.2108551086525998,9.048166251474733,0.8839485275536655
1731474155.5198517,-0.10165785253047943,0.2227284014225006,-9.922452926635742,-0.6672710716337947,0.8425339961387455,-0.009781685075498923,1.208533898143849,9.045466060872377,0.8839198452057757
1731474155.5699394,-0.1839110553264618,0.4192267656326294,-9.99095344543457,-0.6742036814963791,0.8546624966726925,-0.008995298591719863,1.2104930112438352,9.020394991356385,0.8839864554095371
1731474155.6198208,-0.19280876219272614,0.3612631559371948,-9.950533866882324,-0.6817136224218245,0.8672829294601714,-0.008097723354798868,1.2088919896056827,9.016387471603887,0.8839721680159753
1731474155.6698928,-0.00384950777515769,0.6912849545478821,-9.922014236450195,-0.6897674006779131,0.8803125958577898,-0.007090909310586921,1.2082597431407895,9.013167778149231,0.8841775627309071
1731474155.7207956,0.744889497756958,1.6483407020568848,-9.939879417419434,-0.6983239714117332,0.8936652438562275,-0.005977391625309931,1.2061464981247998,9.010310863205763,0.8843950427949908
1731474155.770732,0.3141680657863617,1.1341841220855713,-10.00156307220459,-0.7073327472095691,0.9072569973372677,-0.004760131709706192,1.204411144895585,9.008126289781556,0.8844567819387006
1731474155.8206358,-0.22723086178302765,1.8611536026000977,-9.893811225891113,-0.7167325906689775,0.9210117777766419,-0.003442577118479908,1.2021695755450963,9.006459522579751,0.8845177592975799
1731474155.8706558,-0.4820658564567566,1.1263463497161865,-9.909140586853027,-0.726455426659372,0.9348636703828853,-0.0020286211739929264,1.1995630719772246,9.005420374344165,0.8845749272309529
1731474155.9206085,-0.49431735277175903,1.4234706163406372,-9.892594337463379,-0.7364324899042141,0.9487576697690464,-0.000522372555130427,1.203684280374527,9.004944188174688,0.8846198145030166
1731474155.970523,-0.07631285488605499,0.5004467964172363,-10.070384979248047,-0.7465982606071787,0.9626516338939769,0.0010715578268180419,1.202572510244266,9.005059989325721,0.8847900481622389
1731474156.0204434,-0.24069371819496155,-0.35270124673843384,-10.206377029418945,-0.7568904956809324,0.9765172804250298,0.0027468203827627634,1.2011365286816564,9.005784128051554,0.8848415812289515
1731474156.0704284,-0.6625279188156128,-0.9579870700836182,-10.202309608459473,-0.7672491688265661,0.9903348048519929,0.0044937550481934105,1.1992220677731942,9.007124411841122,0.8848954398222602
1731474156.1203353,-0.7205891013145447,-0.26662561297416687,-10.021163940429688,-0.777617616910877,1.0040836462856313,0.006298652375860463,1.19683429553954,9.009080133379483,0.8849524466488984
1731474156.170457,-0.539745032787323,-0.3440362215042114,-10.02015209197998,-0.7879450988204139,1.017737950506206,0.008144498740928381,1.2006224124474334,9.011681414273758,0.8850158601233145
1731474156.220292,-0.7099660634994507,-0.18074804544448853,-9.97559928894043,-0.7981878694113135,1.031268197812342,0.01001254537910627,1.1992504534714856,9.014911292303564,0.8850549503924691
1731474156.270222,-0.4648881256580353,-0.01231425255537033,-9.95477294921875,-0.8083085572578429,1.0446442558911118,0.0118835978028544,1.1992894343490959,9.018769712059184,0.885020621845502
1731474156.320121,-0.4648881256580353,-0.01231425255537033,-9.95477294921875,-0.8182750176034058,1.0578375644150368,0.013738768957404899,1.197784480862169,9.023352750757198,0.8850436244081981
1731474156.370157,-0.4727819561958313,0.4156271815299988,-9.890789985656738,-0.828059012680804,1.0708229702333267,0.015559975198758052,1.1983268230148987,9.028485486112192,0.8850183607263733
1731474156.419992,-0.4727819561958313,0.4156271815299988,-9.890789985656738,-0.8376352289196694,1.0835807411999645,0.017330372487427782,1.1968815945243991,9.034339250699267,0.8850405516172488
1731474156.4700122,-0.4082532823085785,0.4868992269039154,-9.922954559326172,-0.8469808714891327,1.0960975712442294,0.019034773170632208,1.194903036071367,9.04090157946992,0.8850742145489798
1731474156.5199811,-0.4082532823085785,0.4868992269039154,-9.922954559326172,-0.8560752854569269,1.108363982955274,0.02065995263651403,1.19741273206,9.048113567860474,0.8850209341520064
1731474156.5699735,-0.3570947051048279,0.568742036819458,-9.979055404663086,-0.8648994055400607,1.1203693641093464,0.022194736339053795,1.1960344626206953,9.056067920376975,0.885049184065444
1731474156.6198468,-0.35170891880989075,0.5658196806907654,-10.006991386413574,-0.8734352863154222,1.1320992552075548,0.023629758137679892,1.1972699090721948,9.064659931162707,0.8850226491973556
1731474156.6698449,-0.35522300004959106,0.5524300336837769,-9.985919952392578,-0.8816658281645875,1.143535697233108,0.024956986044052002,1.195973258534274,9.074023051185605,0.8850544902641106
1731474156.7197773,-0.3219449818134308,0.549161434173584,-9.999293327331543,-0.8895746862669388,1.1546582136133916,0.026169372909661648,1.194131535225743,9.08405811457012,0.8851020896659735
1731474156.7707493,-0.28970977663993835,0.5290778875350952,-9.999696731567383,-0.8971462336021276,1.1654444242032387,0.027260756700055306,1.1916734240306583,9.095069801772778,0.8851679523556027
1731474156.8206139,-0.3143123984336853,0.5126650929450989,-10.002466201782227,-0.9043654643956115,1.1758704909175088,0.028225830700944168,1.1971290822008114,1.5720939003919203,0.8852266602396927
1731474156.870688,-0.2599155902862549,0.5240530371665955,-9.9974946975708,-0.9112179331485719,1.1859115071391992,0.029060101381673448,1.1974692575774948,1.4744823903157838,0.8854025941301727
1731474156.9205627,-0.2969132363796234,0.4891177713871002,-9.995007514953613,-0.917689785097999,1.1955418879257453,0.029759875773747824,1.1962890786303948,1.4434178289309512,0.8854833407001895
1731474156.9705002,-0.2969132363796234,0.4891177713871002,-9.995007514953613,-0.9237678630040461,1.2047357430396612,0.030322278852939633,1.1978867970349172,1.4483196800932632,0.8856367380472093
1731474157.0204966,-0.2579132318496704,0.4924958348274231,-10.007848739624023,-0.9294396739667999,1.2134672559842588,0.030745292835676025,1.1966802409622768,1.441398774176111,0.8857336411085537
1731474157.0704823,-0.24598565697669983,0.4703907370567322,-10.037233352661133,-0.9346926469993098,1.2217112285360126,0.031027823887932113,1.1949570364282989,1.435534814755017,0.8858451047316198
1731474157.1203732,-0.2604096531867981,0.4892358183860779,-9.96359920501709,-0.9395129361931881,1.2294437150471142,0.031169780873529337,1.1926199745769395,1.4303062166658718,0.8859780595870104
1731474157.1703653,-0.2412901222705841,0.49372807145118713,-10.008519172668457,-0.9438849130311674,1.2366424965616762,0.031172180253550178,1.1985645459015617,1.4536511820584983,0.885857445629888
1731474157.2202988,-0.25269076228141785,0.49582356214523315,-9.967084884643555,-0.947791545490494,1.2432873952698487,0.031037241977734827,1.1998496800776606,1.4611368649336032,0.8860787938356574
1731474157.2702527,-0.29472479224205017,0.49913355708122253,-9.967273712158203,-0.9512150493085036,1.2493605203476177,0.03076840715714486,1.1990124708813834,1.464314576196466,0.8862182177130062
1731474157.3201697,-0.2970694601535797,0.489962100982666,-10.00029182434082,-0.9541376091526943,1.2548464329132365,0.030370291086774602,1.1975836383222527,1.4682661598230782,0.8863764252652596
1731474157.370167,-0.34497785568237305,0.48454904556274414,-9.985206604003906,-0.9565421515325845,1.2597322172572025,0.029848532982860356,1.1955560251596746,1.4730098269827738,0.8865537256257972
1731474157.4200604,-0.34497785568237305,0.48454904556274414,-9.985206604003906,-0.9584130533271362,1.2640074801288685,0.029209564885470312,1.2006696642309145,1.4673446721582752,0.8860889205024363
1731474157.4700716,-0.3997398614883423,0.48361581563949585,-10.031452178955078,-0.959736749732839,1.2676643294763361,0.02846041204359213,1.1994550988323913,1.4698489245628834,0.88614916055806
1731474157.5199513,-0.3997398614883423,0.48361581563949585,-10.031452178955078,-0.960502258379208,1.2706973685121414,0.02760845122742102,1.2015813242024678,1.471907376866618,0.8860530116898635
1731474157.570007,-0.40116724371910095,0.47793707251548767,-9.987176895141602,-0.9607016785295228,1.2731036892163203,0.026661134087671248,1.2004881356225916,1.474678096972552,0.8860955191935844
1731474157.6199002,-0.3695700168609619,0.49243950843811035,-9.979872703552246,-0.9603307327886893,1.274882853534299,0.025625913533187328,1.2033038145727049,1.4766469051159798,0.8860379563557875
1731474157.6698487,-0.41193339228630066,0.5345649719238281,-9.984530448913574,-0.9593892071850705,1.276036927268075,0.02451037757965857,1.202386334280045,1.479620082244967,0.886075049749011
1731474157.7197323,-0.39578092098236084,0.5249258279800415,-9.9964017868042,-0.9578810689310755,1.276570626936341,0.023322330208362996,1.2049537503089292,1.481516299794287,0.886030808328309
1731474157.7697887,-0.4148857295513153,0.5152393579483032,-10.009360313415527,-0.9558143153930133,1.2764914467229427,0.02206969981623826,1.2039748705490017,1.4844010263039698,0.8860644934758052
1731474157.8206913,-0.38384121656417847,0.5252273082733154,-9.947656631469727,-0.9532006998260731,1.27580959214915,0.0207604145528149,1.206898189184522,1.4870221577028995,0.8862249961324292
1731474157.8705866,-0.37471675872802734,0.512197732925415,-9.963825225830078,-0.9500553397614847,1.2745377821582906,0.019402448560405697,1.2060415660384105,1.4900541749083354,0.8862925782935333
1731474157.9205194,-0.39332878589630127,0.548274040222168,-9.980907440185547,-0.946396250195715,1.2726910725212766,0.0180039681215764,1.20455498812179,1.4940053057336198,0.8863745437664713
1731474157.970504,-0.3940364420413971,0.5331264734268188,-9.951216697692871,-0.9422439624081407,1.2702867541571883,0.016573335454662566,1.2025268157979434,1.4986333651919999,0.8864649618706572
1731474158.0204077,-0.3720216453075409,0.5273372530937195,-10.012054443359375,-0.9376212635740657,1.2673442616560227,0.015118974191613937,1.1998365468710763,1.504214807101393,0.8865683082157707
1731474158.070431,-0.36154696345329285,0.5203379988670349,-9.981355667114258,-0.9325528934748426,1.263884978252253,0.013649185699257469,1.2087517473965022,1.5007420134148994,0.8862416262192838
1731474158.1203873,-0.33269548416137695,0.5211107134819031,-9.980409622192383,-0.9270651084878142,1.2599319731184888,0.01217196040654438,1.2076042269357938,1.5041237731938313,0.8862701742839078
1731474158.170318,-0.3207956552505493,0.5135068893432617,-9.99845027923584,-0.9211851676310763,1.2555098082062275,0.010694869573707617,1.2111871728481682,1.514374508692156,0.8862230123768315
1731474158.2202368,-0.30687013268470764,0.5224953889846802,-9.994780540466309,-0.9149408351522097,1.2506444161284116,0.0092249903015899,1.213315270870196,1.526262042591004,0.8862151014281155
1731474158.2701979,-0.3119085729122162,0.5182780623435974,-9.960308074951172,-0.9083600067855941,1.2453629638830108,0.007768844653856432,1.2127176462896343,1.5313796327892442,0.8862283664678912
1731474158.3202002,-0.3232634663581848,0.5220323204994202,-9.994431495666504,-0.9014705168406032,1.2396936833167076,0.006332455368704365,1.2115110747269577,1.5375646317307756,0.8862468278392687
1731474158.3702445,-0.28144803643226624,0.5371149778366089,-9.997028350830078,-0.8943000585427147,1.2336657048326733,0.004921415378232529,1.21549919086465,1.5332043374362305,0.8862110768803084
1731474158.4200966,-0.28144803643226624,0.5371149778366089,-9.997028350830078,-0.8868760529020125,1.2273089311281802,0.0035408244404934765,1.214662605312757,1.5364174878650758,0.886219499222712
1731474158.4701083,-0.2963423728942871,0.5248386859893799,-9.973089218139648,-0.879225445161381,1.2206539205864593,0.00219521988440809,1.2180801784779072,1.5373585502196847,0.8860070689499004
1731474158.5199509,-0.2880183458328247,0.5108221173286438,-10.006240844726562,-0.871374598059672,1.2137316877181294,0.0008886219295409651,1.2174830751703114,1.5403887977279904,0.8859700994200345
1731474158.5699735,-0.2980497181415558,0.49068212509155273,-9.973512649536133,-0.8633493116782419,1.2065733920765456,-0.0003754037652291195,1.2163373342917538,1.5442019432765464,0.8859329959946317
1731474158.6198955,-0.2980497181415558,0.49068212509155273,-9.973512649536133,-0.8551748574538186,1.1992099867780577,-0.0015937022422341314,1.214654283312553,1.5487631504969854,0.885895344088015
1731474158.6698563,-0.3087119460105896,0.5085582733154297,-10.039146423339844,-0.8468759889240206,1.1916719475060749,-0.0027634841057179414,1.2202760538592305,1.5429011298666464,0.8859848743074911
1731474158.719787,-0.37044280767440796,0.5171928405761719,-9.983965873718262,-0.8384769766594085,1.1839891791510873,-0.003882371752152194,1.219355546197305,1.545389224664104,0.8859753204866521
1731474158.769825,-0.35450124740600586,0.50801682472229,-9.950888633728027,-0.8300017540155622,1.1761910456005795,-0.004948412537428636,1.2233832284840602,1.5485006106563843,0.885991297394877
1731474158.8206687,-0.3457523584365845,0.5308553576469421,-10.02107048034668,-0.8214740926649591,1.1683063799707618,-0.005959893998763242,1.2229037868457333,1.5515803560248742,0.8859834048819857
1731474158.8708599,-0.3598632216453552,0.5240755081176758,-9.973990440368652,-0.8129176042282715,1.1603634543090038,-0.006915227258368535,1.2219075141944016,1.5553863306518072,0.8859714590797242
1731474158.9206185,-0.37419551610946655,0.5006221532821655,-9.971975326538086,-0.8043556324575762,1.152389922176599,-0.007813005476756977,1.220417775485729,1.5598724558892474,0.8859550517867154
1731474158.970634,-0.3892771303653717,0.5268489718437195,-10.022506713867188,-0.7958112322266305,1.144412685839534,-0.008652020884045979,1.2256073250076802,1.5631477640805171,0.8861850460719997
1731474159.0204418,-0.42074161767959595,0.5047159194946289,-9.953629493713379,-0.7873072487329383,1.136457744578193,-0.00943127421360641,1.2248005154337103,1.5666094407826279,0.8861946773077423
1731474159.0705018,-0.4061630666255951,0.5313308238983154,-9.978107452392578,-0.7788664162269735,1.1285501127223567,-0.010149976226224272,1.228725097993618,1.5777456498261586,0.8864064050448361
1731474159.1203768,-0.4061630666255951,0.5313308238983154,-9.978107452392578,-0.7705113677998866,1.120713800925584,-0.010807446923840636,1.2308698753248504,1.5891303448855434,0.8864096864080105
1731474159.170345,-0.3965300917625427,0.502784788608551,-9.966509819030762,-0.7622644855586792,1.112971809751774,-0.011403052919915354,1.2305561418498019,1.5944536659250315,0.8864157614483515
1731474159.2203305,-0.38581791520118713,0.508468508720398,-9.955740928649902,-0.7541477162518176,1.105346025079178,-0.011936243034073962,1.229772369910046,1.6004277094008887,0.8864145201800209
1731474159.2702694,-0.3934820294380188,0.535594642162323,-9.982986450195312,-0.7461825633956141,1.0978570257748257,-0.012406647380568266,1.228518231803188,1.6071079305171287,0.8864056836781743
1731474159.3201983,-0.35386738181114197,0.5342658758163452,-9.970437049865723,-0.7383901916331843,1.090524005769538,-0.012814267459027891,1.234172001623042,1.6040260265117026,0.886398229860064
1731474159.3701587,-0.3599652647972107,0.5136325359344482,-9.988588333129883,-0.730791338096433,1.083364830788566,-0.013159650476871594,1.233589378876646,1.6077532054948735,0.8863838804174701
1731474159.4200087,-0.32312655448913574,0.5253065824508667,-10.006949424743652,-0.7234059771675931,1.076396042953886,-0.01344396644134816,1.2369388621170518,1.6161914839962266,0.8863903268711405
1731474159.4701254,-0.32851725816726685,0.5242536067962646,-9.958294868469238,-0.7162529451210689,1.069632799036261,-0.013669030681458517,1.236575705341065,1.6206927826381927,0.8863729285851355
1731474159.5200732,-0.32851725816726685,0.5242536067962646,-9.958294868469238,-0.7093496583603236,1.0630888574973536,-0.013837193499771009,1.235766919965925,1.6258885182571978,0.886346858913718
1731474159.5699933,-0.2976040542125702,0.528435468673706,-10.035711288452148,-0.7027119450703521,1.0567766109790186,-0.01395115097390279,1.2345189637483744,1.6317401901687214,0.8863121553083267
1731474159.6201284,-0.2584826648235321,0.5214108228683472,-9.999695777893066,-0.6963538742405246,1.050707113808516,-0.014013977366338502,1.2402060798071197,1.6328273451698982,0.8861896495157885
1731474159.6698892,-0.29298895597457886,0.5123870372772217,-9.98195743560791,-0.6902875082700692,1.0448900844595357,-0.014029287727704016,1.2396651085776027,1.636666687062058,0.8861479713293724
1731474159.7198591,-0.29298895597457886,0.5123870372772217,-9.98195743560791,-0.6845227795728669,1.0393338710349378,-0.014001159956335944,1.2386898535976434,1.6411904543205986,0.886097174219565
1731474159.7697053,-0.25231388211250305,0.526025652885437,-9.983038902282715,-0.6790674860431383,1.034045436757276,-0.013933848720163563,1.2438796278350708,1.6540362525985215,0.8859873484369305
1731474159.8196115,-0.2625800669193268,0.5331252813339233,-9.989421844482422,-0.6739269910364675,1.0290304592315151,-0.013831493544373737,1.2434366406508917,1.6587442372357755,0.8859383140354349
1731474159.870672,-0.25197145342826843,0.5226522088050842,-10.016423225402832,-0.6691036886078529,1.0242935066664085,-0.01369791874676838,1.2425796555955833,1.6639996179744312,0.8858816413576663
1731474159.9206076,-0.2829984724521637,0.5082409381866455,-9.991646766662598,-0.6645968288756107,1.0198381306197204,-0.013536617126122637,1.2413063823823052,1.6698939810429358,0.8858164585505657
1731474159.9705005,-0.28480449318885803,0.5353925824165344,-9.947487831115723,-0.6604028451235788,1.0156668399738704,-0.0133507793218532,1.2473128163589262,1.6814915003016722,0.8859717851405043
1731474160.0204332,-0.2747306227684021,0.5366898775100708,-10.02096939086914,-0.65651583725863,1.0117811124568223,-0.013143194372567548,1.2507933991744724,1.7035000320954274,0.8859800411622866
1731474160.0705328,-0.2890772521495819,0.5572153329849243,-9.990310668945312,-0.6529279619886007,1.0081815304386748,-0.012916226066925749,1.2507490306426372,1.7099413664496836,0.8859621113233952
1731474160.120394,-0.2890772521495819,0.5572153329849243,-9.990310668945312,-0.6496297309838399,1.0048679596934431,-0.012671968216275899,1.2503129019685968,1.7176533876625355,0.885934707570297
1731474160.1703773,-0.3075338900089264,0.5318730473518372,-9.989680290222168,-0.6466103129341743,1.0018396572943813,-0.012412332301269532,1.2494708477328187,1.7260040412364015,0.8858994210194359
1731474160.220353,-0.3075338900089264,0.5318730473518372,-9.989680290222168,-0.6438578579646603,0.9990952338018988,-0.012139018166612916,1.2542891191601702,1.7034089008323798,0.8859820333227483
1731474160.2703774,-0.34983736276626587,0.5286862254142761,-9.962014198303223,-0.6413598299084622,0.9966325208575613,-0.011853481553536268,1.2538419521097006,1.7054171596724856,0.8859637851504854
1731474160.3201654,-0.3544542193412781,0.5517596006393433,-9.99022388458252,-0.6391034388052012,0.9944485342476077,-0.011556895021434761,1.2578870908024558,1.7080222255500355,0.8859856520108074
1731474160.370143,-0.3516252934932709,0.5374683141708374,-9.990341186523438,-0.6370762504747549,0.9925396506676909,-0.011250166020308079,1.26028931050447,1.711264150266412,0.8859881355075329
1731474160.4202018,-0.35329899191856384,0.519231379032135,-9.9598970413208,-0.6352667458810903,0.9909018377081293,-0.010934042458422801,1.2602501359120084,1.7151489883763391,0.8859728909798373
1731474160.4702244,-0.3345542550086975,0.5284436941146851,-9.966591835021973,-0.63366451564139,0.9895306939685288,-0.010609138499647926,1.25981457608681,1.719627789533328,0.8859510106462489
1731474160.5200076,-0.3611922562122345,0.5078816413879395,-10.020652770996094,-0.6322601464156249,0.9884213377046341,-0.010275898170089153,1.2589847027070873,1.7247223108868417,0.8859226264419984
1731474160.570008,-0.3498118817806244,0.5143244862556458,-10.008946418762207,-0.6310450769799996,0.9875683052183877,-0.009934735946306407,1.2631688139525175,1.7304342180216523,0.886180611304172
1731474160.6198819,-0.33152875304222107,0.5191381573677063,-9.96742057800293,-0.6300115005105659,0.9869655013842153,-0.009586254489725336,1.2626990474804347,1.736769013086343,0.8861882691989497
1731474160.6699362,-0.3189314603805542,0.520063042640686,-9.994635581970215,-0.6291521945610754,0.986606219174181,-0.009231230524193692,1.2655026929066688,1.743717963111621,0.8863945077635593
1731474160.7198498,-0.31146132946014404,0.49782794713974,-9.991044998168945,-0.6284602633760659,0.9864831907961835,-0.00887046519326556,1.2652117885195873,1.7513295252365135,0.8864287005328217
1731474160.7696915,-0.27925825119018555,0.5191643238067627,-9.976333618164062,-0.6279288847708946,0.9865885920911313,-0.008504740009060943,1.2678007149869839,1.7594080014935554,0.8866018873960904
1731474160.8196826,-0.26903486251831055,0.5131709575653076,-9.989280700683594,-0.6275510688562561,0.9869140460391403,-0.008134818397278752,1.2675285173957673,1.768226904938424,0.8866410059914362
1731474160.8696597,-0.2614664137363434,0.5186227560043335,-10.001703262329102,-0.6273193452398711,0.9874506646146253,-0.007761426558161044,1.2697873434279185,1.7776376712804551,0.8867947960617029
1731474160.9207711,-0.2614664137363434,0.5186227560043335,-10.001703262329102,-0.6272253055923721,0.9881890280194714,-0.007385274773658153,1.269366340884689,1.787949209332493,0.8868275799257158
1731474160.9705622,-0.274027019739151,0.5083372592926025,-10.000702857971191,-0.6272591722676687,0.9891190903533549,-0.007007095716730795,1.2714919654381882,1.7985428664130059,0.8870081211750682
1731474161.02048,-0.274027019739151,0.5083372592926025,-10.000702857971191,-0.6274097237755114,0.9902301292796443,-0.00662765021726981,1.2734264471544936,1.8098496991869246,0.8870122871476926
1731474161.070523,-0.2422710508108139,0.5382094979286194,-10.02502155303955,-0.6276645281962809,0.9915108035397491,-0.006247737264815171,1.2732576704427594,1.8217059801098212,0.8870232740658971
1731474161.1204453,-0.24885393679141998,0.5543649792671204,-9.974495887756348,-0.6280101497803356,0.9929493518355114,-0.0058682226777892485,1.2726938966904382,1.8342711714578126,0.8870305422612201
1731474161.1704516,-0.2737577557563782,0.5325854420661926,-10.017370223999023,-0.6284322921683838,0.9945338766606855,-0.005490010838099949,1.2717428132649637,1.847366909270188,0.887034221784228
1731474161.2202854,-0.2737577557563782,0.5325854420661926,-10.017370223999023,-0.6289160623381992,0.9962525175286749,-0.005114001663827454,1.274991316867017,1.8611367468233906,0.8870042963259901
1731474161.2703397,-0.3137006163597107,0.5183002948760986,-9.986680030822754,-0.6294463640257995,0.9980934409845066,-0.004741128308176384,1.2743836998572438,1.8754837505429351,0.8869999819673935
1731474161.3202085,-0.3137006163597107,0.5183002948760986,-9.986680030822754,-0.6300083158692764,1.0000447671920472,-0.004372342728206899,1.2764365486663867,7.6676622068229845,0.886998279985695
1731474161.370244,-0.3098906874656677,0.528404951095581,-10.000290870666504,-0.6305876071564672,1.002094541143555,-0.0040084895072491624,1.2776210271198951,7.707625863370564,0.8869971253660385
1731474161.4202275,-0.3098906874656677,0.528404951095581,-10.000290870666504,-0.6311707399585273,1.0042307959640326,-0.0036502541092392005,1.277139387143077,7.762111971584824,0.8869918891883088
1731474161.470167,-0.3619610667228699,0.5299280881881714,-10.047443389892578,-0.6317452953501583,1.006441696908428,-0.0032982737749612874,1.2762715608424524,7.816517290989311,0.8869845609949719
1731474161.5199888,-0.36124423146247864,0.5293492674827576,-9.995766639709473,-0.6323003512731757,1.0087156836194247,-0.002953318068425472,1.275008986217838,7.871717227471809,0.8869752711965162
1731474161.570011,-0.3769206404685974,0.5511707663536072,-9.91990852355957,-0.632826854581487,1.0110415693165091,-0.002616277981546282,1.2789251111632445,7.688906040758674,0.8869957931704423
1731474161.6198852,-0.3783719837665558,0.543317973613739,-9.976374626159668,-0.6333177413577102,1.0134086387498993,-0.0022878072140405004,1.2782216001527362,7.696866884747463,0.8869916326677227
1731474161.6698837,-0.24439649283885956,0.7247949242591858,-9.980547904968262,-0.6337677486391593,1.0158069005028485,-0.0019680042856004883,1.2771230681289654,7.7054578108742495,0.886986146040604
1731474161.7198694,0.5133981704711914,1.6614665985107422,-9.919093132019043,-0.6341721240560597,1.0182285752996882,-0.00165644008631334,1.2802361210667452,7.6453450345553575,0.8869968725636026
1731474161.769799,0.2999531030654907,1.1952157020568848,-10.016883850097656,-0.6345233923245833,1.0206717240412577,-0.0013522669375180718,1.2795771059969552,7.644324443429135,0.8869941558888726
1731474161.8197489,0.4892212450504303,1.505788803100586,-9.938413619995117,-0.634807915890113,1.0231436372712153,-0.0010543077126994934,1.278521038692257,7.64394020720529,0.8869906844074839
1731474161.8706505,-0.516516387462616,-0.022402653470635414,-9.965340614318848,-0.6350055587094325,1.0256600556377744,-0.0007611729130803805,1.2810983121454018,7.605280013216413,0.886997950942724
1731474161.9206002,-0.9550522565841675,-0.21024510264396667,-10.16689682006836,-0.6350940370472873,1.0282388162339113,-0.0004714621697948667,1.281935606526613,7.572314620848948,0.8869988512126529
1731474161.9705899,-0.7593311667442322,-0.04050649330019951,-10.03207015991211,-0.6350563149424371,1.030890670416504,-0.00018431074384505714,1.2813034843706943,7.5651132718644085,0.8869980422175382
1731474162.0203743,-0.5015047788619995,0.2697582244873047,-10.028075218200684,-0.6348865791337996,1.0336127640271278,0.00010016798446583011,1.282376752698754,7.532325038887445,0.8869994334801714
1731474162.0706327,-0.6376875638961792,0.10086476802825928,-9.939265251159668,-0.6345917326647958,1.0363874156554012,0.000381273226428278,1.2816356103614033,7.5236525903205145,0.8869993775397025
1731474162.1203902,-0.4812456965446472,0.29825708270072937,-9.977543830871582,-0.6341897273622211,1.0391841457098203,0.0006585361723993034,1.2805075668162489,7.51575671635779,0.8869996476813966
1731474162.1703827,-0.5795964598655701,0.24074093997478485,-9.958183288574219,-0.6337073026671971,1.0419624350159613,0.0009322114452575298,1.2789918453666962,7.508535784486802,0.8870004085841076
1731474162.2203078,-0.508014976978302,0.46040502190589905,-9.957934379577637,-0.6331780877912795,1.0446744342334373,0.0012033488252317117,1.2825681794483,7.490814795107666,0.8870003646751199
1731474162.2702415,-0.508804440498352,0.4490143060684204,-9.982624053955078,-0.6326410189522605,1.0472676810212087,0.0014736829796328237,1.2817137500284443,7.486069114704448,0.8870017522616261
1731474162.320172,-0.48865872621536255,0.4541880786418915,-9.978496551513672,-0.63213888731061,1.0496875856978973,0.0017454567817140334,1.280461873499829,7.481949436317474,0.8870041474545144
1731474162.370213,-0.5410983562469482,0.4174778163433075,-9.919493675231934,-0.6317170329019246,1.0518791440497108,0.002021265423976534,1.282477537210444,7.453709345489532,0.8870013962537255
1731474162.4201007,-0.47556886076927185,0.47924375534057617,-9.938119888305664,-0.631422327269121,1.0537878770330087,0.0023040943151490254,1.2815723546450895,7.449510778326999,0.8870039941969814
1731474162.47022,-0.47460830211639404,0.529241681098938,-10.030539512634277,-0.6313022775449724,1.0553606271200684,0.0025973763531070056,1.2802656025435355,7.445959759551896,0.8870081473650989
1731474162.5199964,-0.4850676357746124,0.5224998593330383,-9.974165916442871,-0.6314038302743612,1.0565470616574644,0.0029046540141431836,1.2821534964490413,7.405019328201616,0.8870024199855768
1731474162.5699408,-0.48955443501472473,0.4771479666233063,-9.996931076049805,-0.6317716183605947,1.057302480984625,0.0032289690867630325,1.2812092036348774,7.3979840608157135,0.8870062452099434
1731474162.6199024,-0.4665283262729645,0.4885329604148865,-9.979948997497559,-0.6324461203085261,1.0575908294338372,0.003572463295665306,1.2818784944140524,7.3566027931225655,0.8870031180527209
1731474162.669962,-0.46965348720550537,0.5105751752853394,-9.998185157775879,-0.633462604943084,1.057385952343844,0.003936305884476738,1.2812856007326945,7.310473008615905,0.8870032350294437
1731474162.7198188,-0.4509274959564209,0.5246589779853821,-10.004263877868652,-0.634850927758073,1.0566711946384104,0.0043207469617715455,1.2802283776539918,7.294889779223162,0.8870083176484047
1731474162.7698064,-0.4414564073085785,0.5083518624305725,-9.974061965942383,-0.6366356139639349,1.0554386268957945,0.00472518368047907,1.2787781715325266,7.2799857278600255,0.8870161997445266
1731474162.8197534,-0.41812509298324585,0.5166147947311401,-9.975350379943848,-0.6388359459027635,1.0536882540563153,0.005148303584382421,1.2804023781007479,7.256522777244192,0.8870049634080603
1731474162.8696876,-0.38708367943763733,0.5227304100990295,-9.974908828735352,-0.6414660217295235,1.0514271586539392,0.005588311367958209,1.2793688971055168,7.248416310373374,0.8870119314972224
1731474162.9196005,-0.36882284283638,0.5231413841247559,-9.979649543762207,-0.6445347763863511,1.0486686943785957,0.006043101070883655,1.2789488214713698,7.204576638806184,0.8870056520210106
1731474162.970591,-0.3273898661136627,0.5379171371459961,-10.020581245422363,-0.6480459925772524,1.0454317668688495,0.006510284587118734,1.2776881382422114,7.192856737804196,0.8870139792035755
1731474163.0204976,-0.3707225024700165,0.505232036113739,-9.976547241210938,-0.6519983856419924,1.0417401445027437,0.006987116753212794,1.2760460258044204,7.182054994628832,0.8870263708677766
1731474163.070438,-0.3476724922657013,0.5362069010734558,-9.949875831604004,-0.6563857671022215,1.0376217611884218,0.007470493340850046,1.2739994087989137,7.171913823442402,0.8870432398038433
1731474163.1203568,-0.3835640251636505,0.5246970653533936,-9.991329193115234,-0.661197069500794,1.033108082252915,0.007957089662678475,1.2773055906762854,7.155647825890285,0.8870080110634926
1731474163.1703653,-0.3614824414253235,0.5287243723869324,-9.99287223815918,-0.6664162658454661,1.0282335822700452,0.008443409373155918,1.2761483016364195,7.15018435592507,0.8870189491836549
1731474163.2202575,-0.377625972032547,0.5039097666740417,-9.963214874267578,-0.6720225931320937,1.0230352129459184,0.008925691807440841,1.2757025385678011,7.108174922274009,0.8870085637776096
1731474163.2702463,-0.3766827881336212,0.5053097605705261,-10.006082534790039,-0.6779911380535751,1.0175517758570916,0.009399905971052322,1.2743842394634135,7.098379639531055,0.8870206500016582
1731474163.3201778,-0.37935033440589905,0.516689121723175,-9.970401763916016,-0.6842935096438025,1.0118233022525613,0.009861833360071626,1.2737806640357845,7.053676796649094,0.8870097505530469
1731474163.3702471,-0.40080633759498596,0.4964871406555176,-10.002296447753906,-0.690898487044723,1.0058905511481573,0.010307121749164663,1.2722666237433282,7.0388842757460965,0.8870231706430831
1731474163.4201424,-0.38300633430480957,0.5083088278770447,-10.015450477600098,-0.6977726420233621,0.9997945911323491,0.010731300040074021,1.2703200894941316,7.024739714047292,0.887043156023293
1731474163.470025,-0.443865567445755,0.4779611825942993,-10.014248847961426,-0.7048809381250892,0.9935763865089282,0.011129728308694393,1.2721892090488305,7.002506621824224,0.8870119014359468
1731474163.5200374,-0.3783123791217804,0.5307408571243286,-9.943964958190918,-0.712187303931998,0.9872764164800223,0.011497602946654712,1.2708839700856351,6.994084729542635,0.8870273136049441
1731474163.569949,-0.4149475693702698,0.529784619808197,-9.995633125305176,-0.7196550875932051,0.980934445309463,0.011830188984392254,1.2702653933919923,6.948602885361934,0.887012173016531
1731474163.6199312,-0.4006003737449646,0.5575022101402283,-9.984058380126953,-0.7272474035746808,0.9745894905005814,0.012123109761618754,1.2688014377215286,6.90790655128868,0.8870112307425403
1731474163.6698508,-0.4396592080593109,0.5405032634735107,-9.956144332885742,-0.7349276241220387,0.9682798735935382,0.01237252935736168,1.2673355966043305,6.895727153853435,0.887027178238554
1731474163.719805,-0.4295702874660492,0.5543187260627747,-9.9859037399292,-0.742660034995517,0.9620431902402524,0.012575336740914789,1.2654055480854245,6.884133045260656,0.8870509503085017
1731474163.7697442,-0.42668965458869934,0.5741111636161804,-9.961564064025879,-0.7504103321231022,0.9559161621966258,0.012729281434157198,1.2630198258108079,6.873185933041156,0.8870824842894136
1731474163.8196783,-0.4360142648220062,0.5671287775039673,-9.956544876098633,-0.7581458210692628,0.9499344705317834,0.012832969767792739,1.2662380693909758,6.842819199887575,0.8870152721377379
1731474163.8696399,-0.4315682351589203,0.557338535785675,-9.982433319091797,-0.7658354801964892,0.9441325887268184,0.012885823974205204,1.2648225417811982,6.8351260070554964,0.8870336210028084
1731474163.9195507,-0.42473089694976807,0.5397765636444092,-10.009066581726074,-0.7734500086251952,0.9385435207600044,0.012887965349734529,1.2629238106655036,6.82801197939113,0.8870600538813423
1731474163.9695463,-0.42673540115356445,0.5290296673774719,-9.97465991973877,-0.7809618396793843,0.93319844657401,0.012839972004751338,1.2644342310098067,6.783168085924177,0.8870152308221335
1731474164.0205133,-0.41879597306251526,0.5388911366462708,-9.974834442138672,-0.7883451202380511,0.928126388635095,0.012742723990744394,1.2629327486788844,6.772978168060711,0.8870340232207943
1731474164.070491,-0.38974595069885254,0.5596628785133362,-10.005626678466797,-0.7955756613449192,0.923354024465914,0.01259741523512204,1.2609699271198107,6.763622219847716,0.8870603262974955
1731474164.1204576,-0.38453778624534607,0.5208667516708374,-9.979079246520996,-0.8026308139852689,0.9189056504485417,0.012405533615996259,1.2624588774388998,6.7417292473252175,0.8870153642675025
1731474164.1704335,-0.3518224358558655,0.524154782295227,-9.996140480041504,-0.8094892362705269,0.9148030939405222,0.012168783542240937,1.2615586433310209,6.705582075633939,0.8870124231464572
1731474164.2203336,-0.34355854988098145,0.5191760063171387,-10.006608963012695,-0.8161305306550333,0.911065441488883,0.011889067049514992,1.2601310687143588,6.695996602959871,0.8870287695472905
1731474164.270315,-0.3270731568336487,0.5440074801445007,-9.949302673339844,-0.8225348509234933,0.907708784819654,0.01156851464480822,1.2599363430465191,6.665385396010484,0.8870133633288038
1731474164.3202639,-0.3096349239349365,0.5479848384857178,-10.00139331817627,-0.8286826886186647,0.9047462282529763,0.011209561960776302,1.2584287722308485,6.6567094308417385,0.8870295923167818
1731474164.3701947,-0.3083556592464447,0.5252760648727417,-10.021833419799805,-0.834554864195836,0.9021880776985842,0.010814962815153126,1.2564132503163987,6.648639420883822,0.8870525675498737
1731474164.4201214,-0.32990550994873047,0.5256478190422058,-9.975671768188477,-0.8401326403740179,0.9000419652336402,0.010387617825998901,1.253860404908965,6.641077050890057,0.8870823275659859
1731474164.4701505,-0.3092363774776459,0.5399481058120728,-9.969268798828125,-0.8453979485303452,0.8983128803174039,0.009930467973855033,1.2586204876109874,6.618128499271663,0.8870141144776317
1731474164.520042,-0.2887982428073883,0.5596032738685608,-9.972800254821777,-0.850333616490251,0.8970032840847078,0.00944662519328356,1.257210185324225,6.6124643062535196,0.8870290315943404
1731474164.5699935,-0.3595009446144104,0.7189980745315552,-9.982955932617188,-0.8549235173843492,0.8961135083997538,0.008939491490768408,1.2573732551030443,6.572814275650514,0.8870114626867193
1731474164.6199439,-0.6427477598190308,1.415651559829712,-9.925313949584961,-0.8591530862042276,0.8956431986803619,0.00841275535672964,1.2558596301924994,6.563190809253746,0.8870243255271122
1731474164.6699345,-0.6165494918823242,0.5551245808601379,-9.866538047790527,-0.8630106929244834,0.8955938575776714,0.007870520918175477,1.2538072845159989,6.554123506053181,0.8870422814680622
1731474164.719879,-1.4786083698272705,0.4926488995552063,-10.089213371276855,-0.8664909561253795,0.8959694696239893,0.007317577896420032,1.2559358274731791,6.530582256608783,0.8870106221668165
1731474164.7698503,-0.5003513693809509,0.51936936378479,-9.853687286376953,-0.8696012411590107,0.8967735179085891,0.006759514586985656,1.254491224434592,6.525114019880005,0.8870215949292124
1731474164.8198128,-0.5003513693809509,0.51936936378479,-9.853687286376953,-0.8723671776959904,0.8980058789233877,0.006202950947675718,1.2547720493017929,6.486774637772935,0.887008534108281
1731474164.869673,0.020476045086979866,0.24266284704208374,-10.213884353637695,-0.8748311264432815,0.8996618872008086,0.005655842262147232,1.2532740786770384,6.477859292281104,0.8870175930520452
1731474164.9197352,-0.06659018248319626,0.2546806335449219,-9.995284080505371,-0.8770457496566979,0.9017318367702801,0.005126814645849203,1.253458716085997,6.439320432022192,0.8870071776794202
1731474164.9696233,-0.22866807878017426,0.2495405673980713,-9.991610527038574,-0.8790686975377101,0.9042001619407223,0.004624014614620088,1.2518709095350304,6.427206839363384,0.8870147046090571
1731474165.0195842,-0.17199070751667023,0.28089892864227295,-9.977840423583984,-0.8809603652225936,0.9070453257377079,0.0041549843091711865,1.249721381100194,6.415580672692485,0.8870250303153705
1731474165.0705101,-0.17834487557411194,0.4154818058013916,-9.964560508728027,-0.8827833144171009,0.9102407252944056,0.003727191791417734,1.2525099871935421,6.39677986136415,0.8870061900917325
1731474165.1204085,-0.16542883217334747,0.4964807629585266,-9.969206809997559,-0.8846015665281174,0.9137562494216929,0.0033482611485799374,1.2510646852991258,6.390284041100727,0.8870120426763938
1731474165.1703877,-0.23587629199028015,0.5165247917175293,-9.943984985351562,-0.8864795745049103,0.917560080708486,0.0030259636522510427,1.2516307427293085,6.352585274111454,0.8870045915285237
1731474165.220306,-0.22092512249946594,0.4952094256877899,-9.973434448242188,-0.8884814556718129,0.9216201185011857,0.0027681720176063592,1.2501448907302002,6.342957209870169,0.8870091779500385
1731474165.2703137,-0.2323492467403412,0.5198451280593872,-9.967941284179688,-0.8906693394511067,0.9259046935028924,0.0025826369384032606,1.2481055096372236,6.333930665035024,0.8870154289048156
1731474165.3203123,-0.25136658549308777,0.5174309611320496,-9.953958511352539,-0.8930985148047856,0.9303829081321108,0.0024763962204708487,1.2455138004878517,6.325500349933458,0.887023245480458
1731474165.37022,-0.22930991649627686,0.5732638835906982,-9.989588737487793,-0.8958110209039638,0.9350249795092952,0.002455063537924793,1.2423629855123217,6.317647244700466,0.887032603682723
1731474165.4201612,-0.27895158529281616,0.5520592331886292,-10.02342414855957,-0.8988325559066058,0.9398026054025319,0.002522401142633948,1.250636171510042,6.304607147445913,0.8870040489415454
1731474165.4701998,-0.257144570350647,0.5125899314880371,-9.987648010253906,-0.90217341499657,0.944689162838968,0.0026801666043731113,1.2502417407129884,6.2657221419928355,0.8870029099344254
1731474165.520094,-0.27159884572029114,0.5109673142433167,-10.002777099609375,-0.9058306039160607,0.9496595838838463,0.0029281571592795247,1.2488435279405596,6.256409738645222,0.8870065891486426
1731474165.5700138,-0.2805241048336029,0.5076335072517395,-10.030702590942383,-0.9097897518080306,0.9546900562653879,0.0032644126435051905,1.2468920317869785,6.247760033640999,0.8870121634000185
1731474165.6199641,-0.29612553119659424,0.549163281917572,-9.971040725708008,-0.9140268656879458,0.9597578704584578,0.0036854189637081326,1.244360435737224,6.239659072160201,0.8870199380575844
1731474165.6699429,-0.11691132932901382,0.7504041194915771,-9.982314109802246,-0.9185098312272867,0.9648417043757356,0.004186362097940874,1.2412669962628666,6.232184979860014,0.887030136495835
1731474165.7198658,0.6160908341407776,1.6543776988983154,-9.985828399658203,-0.9231986509575477,0.9699233354165974,0.004761493543301411,1.2491652599667105,6.198998205081429,0.8870042951876327
1731474165.7698388,0.2742922902107239,1.1484307050704956,-9.935419082641602,-0.9280437066169228,0.9749913457693139,0.005404451259244655,1.2477285151872943,6.193267655676888,0.8870106792445911
1731474165.8198068,0.2742922902107239,1.1484307050704956,-9.935419082641602,-0.9329838489571817,0.9800445457235373,0.0061085270587602205,1.2486123667074984,6.147525323132007,0.8870051649204502
1731474165.8697546,-0.5117053389549255,-0.020943261682987213,-10.053956031799316,-0.9379466920530578,0.9850922856757781,0.0068667802535316525,1.2471482057031729,6.136541627481653,0.8870131917966718
1731474165.9196506,-0.9748305082321167,-0.22038394212722778,-10.095508575439453,-0.9428521881795704,0.9901506777217708,0.0076716539089532795,1.24799438668282,6.095219279703569,0.8870067157937732
1731474165.9696872,-0.8960928916931152,-0.2285120189189911,-10.036360740661621,-0.9476190394864211,0.9952360736572613,0.008514314285150043,1.2465162720767746,6.082855953669981,0.8870168860390405
1731474166.0196366,-0.8960928916931152,-0.2285120189189911,-10.036360740661621,-0.9521704693479025,1.000359999156359,0.009384450555977766,1.2474276834109046,6.040192303859146,0.8870084673929276
1731474166.069539,-0.6234802007675171,0.0900634303689003,-9.969280242919922,-0.9564362306377955,1.0055281236581495,0.010270718358758849,1.2459792250980084,6.029645425368016,0.8870209349437089
1731474166.120549,-0.6234802007675171,0.0900634303689003,-9.969280242919922,-0.9603517278547944,1.0107419149309838,0.01116142812869019,1.2464714713685898,5.9778138996782175,0.8870105832899272
1731474166.1704626,-0.5917204022407532,0.2500773072242737,-9.959190368652344,-0.9638565240502559,1.0160010098733079,0.012045147643376938,1.2457588300622695,5.922055896653144,0.8870103034556672
1731474166.2203753,-0.5344301462173462,0.44564783573150635,-9.94918155670166,-0.9668934881156688,1.021305289904869,0.012911079466599884,1.2441680603280463,5.903480140133186,0.8870260690035054
1731474166.2703657,-0.5411988496780396,0.44175106287002563,-10.002894401550293,-0.9694086005523612,1.0266565909898995,0.013749196119294208,1.2419867968657925,5.885696989406552,0.8870500147270738
1731474166.3203707,-0.4982243478298187,0.440775603055954,-9.996415138244629,-0.9713509686095549,1.032059895505272,0.014550152311136086,1.2391785163284457,5.868419812706343,0.887083042059093
1731474166.3701982,-0.5401157140731812,0.4218352735042572,-9.947385787963867,-0.9726736933698594,1.037522839547976,0.015305138738452136,1.244483856867913,5.843987063871591,0.8870157822798773
1731474166.4201555,-0.5067511796951294,0.471881628036499,-9.999462127685547,-0.9733369650416528,1.0430526270817226,0.01600594706197352,1.2429176297577207,5.833210470199346,0.8870368896282027
1731474166.4702005,-0.4705067574977875,0.552297055721283,-9.99241828918457,-0.9733121628807408,1.0486521154794435,0.016645123031854038,1.243453970577382,5.776245067587669,0.8870165154714594
1731474166.520082,-0.46714261174201965,0.5296739935874939,-9.957019805908203,-0.9725836353704879,1.054318176153855,0.017215970906854942,1.2418340671505992,5.761297431717493,0.8870390560233204
1731474166.5699782,-0.5027879476547241,0.7166739106178284,-10.007081985473633,-0.9711478209742616,1.0600425490016963,0.017712539327806195,1.2396064496335073,5.746985281494384,0.8870725071591616
1731474166.619982,-0.7795722484588623,1.4734464883804321,-9.913012504577637,-0.969012092016777,1.0658141674854895,0.01812969093591472,1.2367707085405206,5.733320546987353,0.8871171840663188
1731474166.6698933,-0.6510591506958008,0.6669668555259705,-9.871582984924316,-0.9661944751212712,1.0716226016239672,0.01846332072731261,1.2421155243757076,5.706948964673322,0.8870209595876235
1731474166.7198677,-0.7435884475708008,0.8559263348579407,-9.995081901550293,-0.9627234956938504,1.0774599859318619,0.01871069037509514,1.2405507676526508,5.698962890405299,0.8870470728003845
1731474166.7698317,-1.0246074199676514,0.7830585241317749,-10.052181243896484,-0.9586375918683893,1.083319779458914,0.018870322529798905,1.2407615037081838,5.638756421291623,0.8870201653254776
1731474166.819787,-0.6633448600769043,-0.09543535858392715,-9.869963645935059,-0.9539845353611061,1.0891942962203545,0.01894140281036953,1.2395515146246465,5.586099758601658,0.8870180604413503
1731474166.869679,0.09758414328098297,0.14885461330413818,-10.152352333068848,-0.9488195860519499,1.0950715027266131,0.018923426628555597,1.2378119856775056,5.56811006259535,0.8870430359696015
1731474166.9196308,-0.10657283663749695,0.15302258729934692,-10.094240188598633,-0.9432002650605491,1.1009315485202575,0.018816046016456346,1.2354759906618058,5.550747877445665,0.8870798775216864
1731474166.9695954,-0.24901315569877625,0.22527316212654114,-9.930318832397461,-0.9371798158326681,1.1067453246328722,0.018619068985327808,1.2325589710678793,5.534112382175574,0.8871283077032192
1731474167.0195537,-0.2635975480079651,0.19347549974918365,-10.03125,-0.9308037556059817,1.1124750553826162,0.018333245553841596,1.2375339306271713,5.5142422965957145,0.8870233393046231
1731474167.0694854,-0.25550612807273865,0.27125734090805054,-9.987833023071289,-0.924110097282726,1.1180756493510895,0.01796121479135923,1.2366304565161528,5.459451928722529,0.8870184065070346
1731474167.1204903,-0.23449304699897766,0.3860339820384979,-9.952412605285645,-0.9171306426828443,1.1234965823403475,0.017507659381951465,1.2349948497141325,5.44468844467317,0.8870432493308471
1731474167.1704047,-0.27211546897888184,0.46041738986968994,-9.987509727478027,-0.9098918994314085,1.1286842092864868,0.01697910775324739,1.2328257384735886,5.431015372948825,0.8870783197241394
1731474167.220449,-0.22294831275939941,0.4955655038356781,-9.976760864257812,-0.9024157782092161,1.1335841179071697,0.016383766507727746,1.230079407172988,5.417988651754496,0.8871239938541662
1731474167.2703028,-0.29952070116996765,0.47761327028274536,-9.947431564331055,-0.8947202811583579,1.1381429960239122,0.015731256307191827,1.226777217746693,5.4057016317596265,0.8871796090558518
1731474167.3202782,-0.2390664666891098,0.5071632862091064,-9.96912670135498,-0.8868201861391387,1.142309767136585,0.015032373272820091,1.2347929155111168,5.3895210663126365,0.8870223733453669
1731474167.3702247,-0.2619829773902893,0.5499357581138611,-9.986207962036133,-0.8787276618602097,1.1460362813658247,0.014298888968390419,1.2343202302593148,5.3371360725597805,0.8870161588092755
1731474167.4201815,-0.29614388942718506,0.557115912437439,-10.006966590881348,-0.8704527621308109,1.1492779461935758,0.0135432086495174,1.2328980857903695,5.324123846007588,0.8870357967847592
1731474167.4701643,-0.29614388942718506,0.557115912437439,-10.006966590881348,-0.8620041176779636,1.1519946744980412,0.012777851872849383,1.233196544715616,5.264876072279347,0.8870160010049197
1731474167.5200758,-0.3237045407295227,0.5025440454483032,-10.022774696350098,-0.8533901880236923,1.1541525779861057,0.01201477928601302,1.2316953880723187,5.2465551478910015,0.8870342348765977
1731474167.570104,-0.304080992937088,0.5387887954711914,-10.006502151489258,-0.8446206517633832,1.1557258136267778,0.011264739162381526,1.229659414499996,5.228902186118302,0.8870597938684813
1731474167.6199863,-0.31559836864471436,0.5186578035354614,-10.001282691955566,-0.8357071217515333,1.1566972739372683,0.010536969426219341,1.232271032752331,5.21841761257048,0.8870151252175175
1731474167.6699455,-0.3472784459590912,0.548546552658081,-10.006768226623535,-0.8266631568511809,1.1570581254920618,0.009839278102279978,1.2308989590954529,5.210134148659157,0.8870308853061944
1731474167.719859,-0.3457614779472351,0.5572443008422852,-9.950666427612305,-0.8175041376328033,1.156807101962258,0.00917826072637232,1.232073583978028,5.173247197679523,0.8870123383132187
1731474167.7698534,-0.38967204093933105,0.5511984825134277,-9.947484970092773,-0.8082472312054552,1.1559498811770645,0.008559600350218795,1.2308238969979934,5.162687007942209,0.8870256667364164
1731474167.8198857,-0.4002406895160675,0.520408034324646,-9.988666534423828,-0.7989113858794854,1.154498417332475,0.007988382815141547,1.2318283824497773,5.138078778972877,0.8870106548901475
1731474167.8697584,-0.4084441363811493,0.5258782505989075,-9.968122482299805,-0.7895173168583236,1.152470132703235,0.007469190332022083,1.230627005218369,5.129622337211656,0.8870222197199907
1731474167.9197118,-0.4301626682281494,0.5229345560073853,-9.957510948181152,-0.7800874187497437,1.1498870808873631,0.007006022478292398,1.2318617588806913,5.0940959482680475,0.8870092376851703
1731474167.969659,-0.4301626682281494,0.5229345560073853,-9.957510948181152,-0.7706455956982028,1.146775241398946,0.0066023136300470955,1.2322997570023533,5.044915353352,0.8870074084141125
1731474168.0196166,-0.41738006472587585,0.5069164037704468,-9.992772102355957,-0.7612171375239346,1.1431638913148978,0.006260989822289299,1.2313489470057852,5.028910213179305,0.887016442071509
1731474168.06953,-0.42933446168899536,0.48471972346305847,-9.986830711364746,-0.7518288110364915,1.1390848767488848,0.005984331774501098,1.2299323479608724,5.013674791358978,0.8870292404005615
