Timestamp,IMU_Linear_Acc_X,IMU_Linear_Acc_Y,IMU_Linear_Acc_Z,Filtered_X,Filtered_Y,Filtered_Z,Pose_X,Pose_Y,Pose_Z
1731474136.2091148,-0.3425276577472687,0.41691985726356506,-9.980188369750977,5.186623377612936e-05,7.644429429883522e-05,5.528987269900483e-06,2.444999936034132,8.100000394208392,0.880999982565057
1731474136.25901,-0.34130141139030457,0.4240894317626953,-9.983531951904297,7.123525937498784e-05,0.00010351014016177798,6.465813233658502e-06,2.4449999348330436,8.100000412857135,0.8809999826270258
1731474136.3090398,-0.34130141139030457,0.4240894317626953,-9.983531951904297,9.509070417396233e-05,0.00013682123756001164,7.1555901377265025e-06,2.4449999352517224,8.100000414611294,0.8809999826869284
1731474136.3588867,-0.27416113018989563,0.43637028336524963,-9.988398551940918,0.00015779487958905177,0.00022622032318856948,7.27769750181312e-06,2.4449999354138305,8.100000415200004,0.8809999827074013
1731474136.408835,-0.46316227316856384,0.3740302622318268,-9.99268913269043,0.00019701667316764353,0.0002845022531109548,6.370912881568142e-06,2.444999936085284,8.100000426814939,0.8809999827777752
1731474136.4588637,-0.7430660724639893,0.23497319221496582,-10.004386901855469,0.00024200544185184846,0.000353646617870634,4.477782252492046e-06,2.4449999460040526,8.100000447777642,0.8809999833095085
1731474136.5088224,-0.1835746020078659,0.5284029841423035,-9.957141876220703,0.00029488507457537695,0.000435841299935023,1.2259294576949033e-06,2.44500042948563,8.10000120944935,0.8809999896080722
1731474136.5587819,-0.32869449257850647,0.37620213627815247,-10.047292709350586,0.00035938651367626386,0.0005339222810500119,-3.823386045289869e-06,2.4450017326427425,8.10000318610644,0.8809999926591914
1731474136.6086814,-0.3212164640426636,0.5026140809059143,-9.98022747039795,0.0004392258388742773,0.0006506377480776564,-1.121371656467722e-05,2.4450040205834385,8.10000665249045,0.8809999770187426
1731474136.6586556,-0.3097893297672272,0.373074471950531,-9.942727088928223,0.0005370372322138019,0.0007881684429861379,-2.1621474097006918e-05,2.4450075357946957,8.100011901525427,0.8809999203518633
1731474136.7085814,-0.36415764689445496,0.45885133743286133,-10.01577377319336,0.000654479300498009,0.0009481633931639101,-3.5676555179089484e-05,2.4450125389903232,8.100019341839715,0.8809997921019109
1731474136.7586725,-0.3174515664577484,0.43460458517074585,-9.97563648223877,0.0007925448996282345,0.0011318793037292997,-5.382368544564252e-05,2.4450193765736117,8.100029397038934,0.8809995510141095
1731474136.808501,-0.37348827719688416,0.42250683903694153,-9.971975326538086,0.0009517636947140244,0.0013401958214424331,-7.639363552902002e-05,2.445028367605895,8.10004253384528,0.8809991479670282
1731474136.858473,-0.3333224654197693,0.4560640752315521,-10.020543098449707,0.0011323498989892844,0.001573596773401502,-0.00010365649622502217,2.445039924455703,8.100059226340097,0.8809985224019581
1731474136.9084017,-0.3716474175453186,0.4254069924354553,-9.993083000183105,0.001334305548432769,0.001832188486424531,-0.0001358759824289189,2.4450549816941414,8.10008095238453,0.8809975701343622
1731474136.9583972,-0.3716474175453186,0.4254069924354553,-9.993083000183105,0.0015575178771435863,0.002115731795406778,-0.00017341775869006366,2.445072842200992,8.100106292740438,0.8809962873233237
1731474136.9583972,-0.30855798721313477,0.4505065679550171,-9.975634574890137,0.001801818379751761,0.0024237116221770393,-0.00021673346692105405,2.445072996454396,8.100106510710631,0.8809962756661485
1731474137.0092394,-0.30855798721313477,0.4505065679550171,-9.975634574890137,0.002066852393840232,0.002755356151486305,-0.0002662204740382409,2.4450960004469087,8.100138899049863,0.8809943969355685
1731474137.0092394,-0.33945232629776,0.44332513213157654,-10.006049156188965,0.002351817774031828,0.0031095651928449296,-0.000322129550810563,2.4450961723870472,8.100139139199532,0.8809943820590985
1731474137.0592687,-0.30693483352661133,0.45724576711654663,-9.974886894226074,0.002655381746305658,0.0034848781010391487,-0.0003845980814473077,2.4451248173083746,8.100178869295153,0.8809917111406942
1731474137.1091747,-0.3404017686843872,0.42924872040748596,-9.97957992553711,0.002975785293508068,0.003879519668996008,-0.0004537013507596722,2.4451605838233026,8.100228022071711,0.8809879872817619
1731474137.159192,-0.33027854561805725,0.4503231644630432,-9.993732452392578,0.0033109615366096676,0.004291484806144407,-0.0005294270693414743,2.4452042707078405,8.100287375133163,0.8809830271611588
1731474137.2090607,-0.33027854561805725,0.4503231644630432,-9.993732452392578,0.0036586489273566086,0.004718613264773177,-0.0006116753285192592,2.4452564763600013,8.100357730933448,0.880976664649111
1731474137.2090607,-0.3312438130378723,0.4298307001590729,-9.984983444213867,0.004016473228153731,0.005158617276273848,-0.0007003253967914736,2.4452568488345707,8.100358231163614,0.8809766178920067
1731474137.2591295,-0.3312438130378723,0.4298307001590729,-9.984983444213867,0.00438197948377207,0.005609137847992434,-0.0007952589660819025,2.4453189692794584,8.100441450332188,0.8809685185615622
1731474137.2591295,-0.32849225401878357,0.44427555799484253,-9.991825103759766,0.004752657931485198,0.006067850119448992,-0.0008963278880034844,2.4453195234464635,8.100442188962438,0.8809684439863642
1731474137.308942,-0.32849225401878357,0.44427555799484253,-9.991825103759766,0.00512596798614357,0.00653249676240273,-0.0010033486038173746,2.4453929565094605,8.100539696923645,0.8809581767682865
1731474137.308942,-0.3466336131095886,0.43178790807724,-9.988767623901367,0.0054993691643645416,0.007000846761107756,-0.0011161309988334844,2.4453934371731028,8.10054033314273,0.8809581074388748
1731474137.3589773,-0.3466336131095886,0.43178790807724,-9.988767623901367,0.005870401781245423,0.007470702568686438,-0.0012344903198733155,2.4454811030812933,8.100656147924493,0.8809449868414342
1731474137.3589773,-0.3226473927497864,0.4400995373725891,-9.986501693725586,0.006236774379474518,0.007939960941425482,-0.0013582312789267965,2.445481662751472,8.100656884337095,0.8809449004214112
1731474137.4088914,-0.3401765823364258,0.42628738284111023,-10.006254196166992,0.006596358248960442,0.00840664519626549,-0.0014871457152782997,2.44558460496381,8.100791996979403,0.880928424007041
1731474137.4588525,-0.32638588547706604,0.4399968981742859,-9.992179870605469,0.006947124997733262,0.008868908554137956,-0.0016210555808786565,2.4457050095143154,8.100949574187762,0.8809079966804184
1731474137.50879,-0.3352645933628082,0.4304140508174896,-9.980989456176758,0.00728712277757113,0.009325036734138857,-0.0017598434049578933,2.445842744826259,8.101129128482437,0.8808834151669322
1731474137.5588923,-0.33292460441589355,0.43939563632011414,-9.997173309326172,0.007614486677391346,0.009773440343714884,-0.001903407107899993,2.446000271851623,8.101334072549976,0.8808540409255506
1731474137.6086698,-0.3363683819770813,0.4308415949344635,-9.980420112609863,0.007927459582488966,0.010212643513937062,-0.0020516040089885675,2.446177329479889,8.10155612409698,0.8808197302214722
1731474137.6586838,-0.3302421271800995,0.4421899914741516,-9.979595184326172,0.008224414839747039,0.010641277915995308,-0.002204227304546242,2.44637196291364,8.101807897932572,0.8807805901727696
1731474137.7086177,-0.3302421271800995,0.4421899914741516,-9.979595184326172,0.008503857425340416,0.011058064738732451,-0.0023609683416626623,2.4465885765453206,8.102107885308339,0.8807355953436642
1731474137.7086177,-0.3371421694755554,0.43059173226356506,-9.996553421020508,0.008764411794837546,0.011461789481909793,-0.0025213962528236964,2.446598833044712,8.102121188732134,0.8807334275475862
1731474137.758543,-0.3301190137863159,0.4375700056552887,-9.977168083190918,0.009004827314776188,0.011851311081077242,-0.0026850027475974615,2.4468288150544546,8.102419694395495,0.8806838831690682
1731474137.8085432,-0.34019094705581665,0.43010377883911133,-9.982741355895996,0.009223998312086043,0.012225601273175178,-0.002851241815729208,2.4470907662145027,8.102760207011695,0.8806254784952515
1731474137.8584952,-0.33192288875579834,0.43809831142425537,-9.991263389587402,0.009420980483220702,0.012583767207401647,-0.003019522267976219,2.447375182525733,8.103130634546401,0.8805599329752979
1731474137.9083514,-0.34595686197280884,0.4304082989692688,-9.981121063232422,0.009595006173909444,0.012925049795655398,-0.0031892152679893248,2.447691620909335,8.10356650167442,0.8804847657993693
1731474137.9583144,-0.34595686197280884,0.4304082989692688,-9.981121063232422,0.00974551358199597,0.01324882270969538,-0.0033596765030510798,2.448015435223447,8.103990932297409,0.8804053752166228
1731474137.9583144,-0.3420066237449646,0.443705290555954,-9.989968299865723,0.009872185394548613,0.013554592918991755,-0.0035302423544607527,2.44801787053272,8.103994128418236,0.880404769766593
1731474138.0092392,-0.34163692593574524,0.42966023087501526,-9.989768028259277,0.009974956173206404,0.013841977875933855,-0.0037002411823154604,2.448379841896249,8.104503493017074,0.8803129977939437
1731474138.0592258,-0.34163692593574524,0.42966023087501526,-9.989768028259277,0.010053977452657452,0.014110685721597793,-0.00386903843822562,2.448762712846843,8.105010017685744,0.880212999144788
1731474138.0592258,-0.33824580907821655,0.44014066457748413,-9.97556209564209,0.010109576523214068,0.014360530634681146,-0.004036054974150088,2.4487656343004267,8.105013890196046,0.8802122245611562
1731474138.1091983,-0.341629296541214,0.4363786280155182,-9.98953914642334,0.010142224680359881,0.01459143068243169,-0.004200733048936217,2.4491718644037914,8.10555379251206,0.8801026372851055
1731474138.1591976,-0.3402191698551178,0.43175989389419556,-9.978646278381348,0.010152514895625138,0.014803374603243193,-0.004362502532695977,2.449605620134905,8.106133296956097,0.8799817750823888
1731474138.209059,-0.3476492762565613,0.432100772857666,-9.985774040222168,0.010141156749189719,0.014996418158832191,-0.004520780620912663,2.4500651718879993,8.106750628062011,0.8798496846703174
1731474138.2590916,-0.33999305963516235,0.4344528317451477,-9.983550071716309,0.010108984287598056,0.015170707221775867,-0.0046749829510937466,2.450548033275067,8.10743894599847,0.8797067935176304
1731474138.3088815,-0.34422069787979126,0.4327370822429657,-9.9750337600708,0.010056953968002623,0.015326482023332162,-0.004824527279673443,2.4510547008473282,8.108128299218508,0.8795523928168013
1731474138.3589008,-0.3437175154685974,0.44072937965393066,-9.988846778869629,0.009986125750662586,0.015464057739133799,-0.004968826436677877,2.4515886773218094,8.108859190037572,0.879385083046598
1731474138.4087975,-0.3437175154685974,0.44072937965393066,-9.988846778869629,0.009897646689131605,0.015583789719351558,-0.005107299324794316,2.4521517120695124,8.109681656383158,0.8792039044280731
1731474138.4087975,-0.34332624077796936,0.4315757751464844,-9.98684024810791,0.009792740642050253,0.015686040971799722,-0.005239418514500363,2.452155358444933,8.109686701530984,0.8792027149997035
1731474138.458818,-0.34332624077796936,0.4315757751464844,-9.98684024810791,0.009672693466556637,0.015771191039834983,-0.0053647451024850116,2.4527320170650473,8.110487497202625,0.8790119029910881
1731474138.458818,-0.33988749980926514,0.436118483543396,-9.992659568786621,0.009538832934533387,0.015839675728123694,-0.00548292961283402,2.45273571983544,8.110492657234445,0.8790106610653763
1731474138.5087607,-0.33988749980926514,0.436118483543396,-9.992659568786621,0.009392502492187498,0.01589199860245812,-0.005593718863868386,2.4533387882672613,8.11133653883223,0.8788053641108875
1731474138.5087607,-0.3460216820240021,0.428290456533432,-9.99396800994873,0.009235038585857887,0.01592871406156242,-0.005696977922013889,2.453343106078409,8.111342604751416,0.8788038733658058
1731474138.5588555,-0.3460216820240021,0.428290456533432,-9.99396800994873,0.009067773952428616,0.0159504332956686,-0.00579270235570135,2.453971503943354,8.11228899698076,0.8785837121997025
1731474138.5588555,-0.32766076922416687,0.4385663866996765,-9.993430137634277,0.008892043614849455,0.015957845591383905,-0.005881013343260995,2.4539751251081836,8.112294137336406,0.8785824243759376
1731474138.6086557,-0.32766076922416687,0.4385663866996765,-9.993430137634277,0.00870913186053899,0.015951697582617504,-0.0059621430039660285,2.4546303806050362,8.113228830968485,0.878345767557266
1731474138.6086557,-0.3306537866592407,0.4353063106536865,-9.987985610961914,0.008520180379961158,0.01593273807092262,-0.006036411187198496,2.454634773408147,8.113235126583186,0.8783441574980442
1731474138.6586676,-0.3306537866592407,0.4353063106536865,-9.987985610961914,0.008326147018161036,0.01590169114315078,-0.006104189739846293,2.455297049453423,8.11426352383051,0.8780977349393786
1731474138.6586676,-0.3333236277103424,0.4373985528945923,-9.995209693908691,0.008127829786291386,0.015859265088295244,-0.006165869587595183,2.4553011514301857,8.11426947186615,0.8780961862906806
1731474138.7086084,-0.3333236277103424,0.4373985528945923,-9.995209693908691,0.00792590708716922,0.01580615764100215,-0.006221862168877483,2.4559916299326066,8.115363276698652,0.8778313233391027
1731474138.7086084,-0.3319365978240967,0.4339129328727722,-9.97912311553955,0.007720968440059681,0.01574305089027892,-0.006272613447950664,2.455996471242672,8.115370385274955,0.8778294400113604
1731474138.758562,-0.3319365978240967,0.4339129328727722,-9.97912311553955,0.00751353010477102,0.01567061712086759,-0.006318563751751389,2.4567022645157346,8.116412417491606,0.8775507016078841
1731474138.758562,-0.333381712436676,0.4398839473724365,-9.9823637008667,0.007304040572728755,0.015589530169107368,-0.006360068102056554,2.4567077471721435,8.116420555304908,0.8775485047036291
1731474138.8085184,-0.3302189111709595,0.438150554895401,-9.991358757019043,0.007092886963711177,0.015500455850635014,-0.006397368737871009,2.457437174624624,8.117509446063638,0.8772517794189345
1731474138.8586066,-0.3302189111709595,0.438150554895401,-9.991358757019043,0.006880398806872885,0.015404028208713162,-0.006430646516381216,2.4581858481623318,8.118639577495617,0.8769383282520344
1731474138.8586066,-0.3308621346950531,0.44120118021965027,-9.983616828918457,0.00666684531871599,0.015300837452843458,-0.006460083064789058,2.4581904462148385,8.11864655654061,0.8769363761156259
1731474138.8586066,-0.3308621346950531,0.44120118021965027,-9.983616828918457,0.006452437205338198,0.015191424765712223,-0.006485867692782357,2.45842380760289,8.119082898422109,0.8768374708513264
1731474138.8586066,-0.3308621346950531,0.44120118021965027,-9.983616828918457,0.006237337173653854,0.015076273475892582,-0.006508162037565993,2.4584284693669467,8.1190900097985,0.8768354738764671
1731474139.2399957,-0.3308621346950531,0.44120118021965027,-9.983616828918457,0.006021671034034513,0.014955805994348233,-0.006527076184923832,2.4644065564463067,8.128791963102595,0.8740122439600219
1731474139.2399957,-0.3376094102859497,0.43933042883872986,-9.987139701843262,0.005805541832482639,0.014830391687693342,-0.006542673049741925,2.4644117727316517,8.128800570629412,0.8740095786648095
1731474139.2900891,-0.3423849642276764,0.43753117322921753,-9.985186576843262,0.005589063965159674,0.014700363458414483,-0.0065549873733487165,2.465290458222489,8.130257372346106,0.873555975504984
1731474139.3398674,-0.3423849642276764,0.43753117322921753,-9.985186576843262,0.005372416924023532,0.014566040340180914,-0.006564043278507669,2.466182434296731,8.131878320990271,0.873088008013858
1731474139.3398674,-0.34360605478286743,0.4366273581981659,-9.992426872253418,0.0051558875649561735,0.014427747398735941,-0.00656986599250422,2.4661884239069445,8.131888406562648,0.8730848227162898
1731474139.389985,-0.34360605478286743,0.4366273581981659,-9.992426872253418,0.004939881025857837,0.014285826573639606,-0.0065725053430744085,2.4670886841518804,8.133411702372321,0.8726011699882917
1731474139.389985,-0.3389294445514679,0.4368346929550171,-9.979833602905273,0.0047249073700927615,0.014140640433247219,-0.006572059209289771,2.467094838552442,8.13342216591457,0.8725978306195945
1731474139.4397805,-0.3389294445514679,0.4368346929550171,-9.979833602905273,0.004511549576653294,0.013992571146588995,-0.00656864762482452,2.468024378426396,8.135010683413798,0.8720881582653452
1731474139.4397805,-0.3331068754196167,0.42958614230155945,-9.990646362304688,0.004300418203433353,0.013842022895619931,-0.006562358076388195,2.4680301166316476,8.135020539215644,0.8720849796340487
1731474139.4898527,-0.335146963596344,0.4248596131801605,-9.98840618133545,0.004092105638824671,0.01368944680034436,-0.006553242728632206,2.4689350832226107,8.136582827053527,0.8715785716369792
1731474139.539713,-0.335146963596344,0.4248596131801605,-9.98840618133545,0.0038871547576014836,0.013535387590172195,-0.006541363844626001,2.4698700374337355,8.138357000433865,0.8710482929926089
1731474139.539713,-0.3328384459018707,0.4296468496322632,-9.984148025512695,0.0036860488161087517,0.01338051312803289,-0.006526816241774245,2.469877325722883,8.13836979561001,0.8710440908851464
1731474139.5897124,-0.3308675289154053,0.4361976087093353,-9.986226081848145,0.003489207299097143,0.013225590770268077,-0.0065097112046253675,2.4708295049606868,8.140219153219089,0.8704924302187688
1731474139.639718,-0.3300713300704956,0.44613346457481384,-9.986385345458984,0.003296972419548818,0.013071411212687194,-0.006490157021871637,2.471783163575113,8.141923260735277,0.8699256679137609
1731474139.6895943,-0.3355879783630371,0.4400116503238678,-9.9830961227417,0.003109599918885796,0.012918694417570254,-0.006468253352031621,2.4727410684251727,8.143652895367692,0.8693450931700122
1731474139.7396622,-0.3371192514896393,0.4425605237483978,-9.980547904968262,0.002927276669669579,0.01276803123651053,-0.006444083396931857,2.473717801644353,8.145435057108738,0.8687415107649419
1731474139.789675,-0.33719924092292786,0.4419511556625366,-9.980554580688477,0.0027501591965174714,0.012619879557309295,-0.006417692609308851,2.474693727930004,8.147234459522,0.8681267806063689
1731474139.8395355,-0.33719924092292786,0.4419511556625366,-9.980554580688477,0.002578403536285449,0.012474581073421273,-0.006389070141597989,2.475680565794182,8.149073042164426,0.8674933802872192
1731474139.8395355,-0.3354564905166626,0.445912629365921,-9.973817825317383,0.0024121720856498897,0.012332371225276452,-0.006358141086739145,2.475686611099312,8.14908436416187,0.8674894637316479
1731474139.8896139,-0.3405797779560089,0.44538143277168274,-9.989174842834473,0.0022516298381978802,0.01219337881774228,-0.006324766199501425,2.476671043737947,8.151124745630192,0.8668526035725735
1731474139.9394777,-0.33414551615715027,0.4462050497531891,-9.99086856842041,0.0020969442872548526,0.012057621088671413,-0.006288775638768441,2.4776688855392917,8.15302656470175,0.8661879968482136
1731474139.9894018,-0.33414551615715027,0.4462050497531891,-9.99086856842041,0.0019482800541305472,0.011925006127020181,-0.006250042368908021,2.478666552864928,8.155163399854178,0.8655189298131789
1731474139.9894018,-0.3440423011779785,0.44702938199043274,-9.984944343566895,0.0018057870031847134,0.011795343760243441,-0.006208532322377567,2.478672521683437,8.155174978137087,0.8655148454597695
1731474140.0392613,-0.32870543003082275,0.43953606486320496,-9.982325553894043,0.0016696023745308723,0.011668364171742607,-0.006164289190985441,2.479671739874838,8.15712368286934,0.8648248870881958
1731474140.089296,-0.34796392917633057,0.4402678906917572,-9.993621826171875,0.001539859064107678,0.01154375458577462,-0.006117394672395304,2.4806845365668804,8.15912001619633,0.8641129970236818
1731474140.1402464,-0.33399584889411926,0.432169646024704,-9.98773193359375,0.0014166923296438224,0.011421212056386595,-0.006067963841035414,2.481718758479599,8.161180624724047,0.863373046704348
1731474140.1902158,-0.339699923992157,0.42898687720298767,-9.98838996887207,0.0013002482441516227,0.011300500419269497,-0.006016166473198669,2.482735610185329,8.163468345924185,0.8626437727205656
1731474140.2401154,-0.34191736578941345,0.42445263266563416,-9.988052368164062,0.001190680664091928,0.011181506982878741,-0.005962227382875928,2.483757941552746,8.165552683620575,0.8618869764161542
1731474140.2900033,-0.34191736578941345,0.42445263266563416,-9.988052368164062,0.001088151570479695,0.011064287805848299,-0.005906408699393147,2.4847776104128476,8.16793101278116,0.8611331851100574
1731474140.2900033,-0.32970547676086426,0.4250764548778534,-9.985917091369629,0.0009928341733784231,0.010949084708920209,-0.005848996269144396,2.4847837775203607,8.16794381074706,0.8611285064416266
1731474140.3400288,-0.32910072803497314,0.4251329004764557,-9.99003791809082,0.0009048749356401142,0.010836311551375103,-0.00579028975701786,2.4858069733538115,8.170379269808038,0.8603606695163395
1731474140.3900661,-0.32910072803497314,0.4251329004764557,-9.99003791809082,0.0008243268046723229,0.010726523867491912,-0.005730601512289358,2.486835219566055,8.172551371968533,0.8595617232112329
1731474140.3900661,-0.3384392559528351,0.42610400915145874,-9.983735084533691,0.0007511208089375436,0.010620387088584546,-0.005670261166656636,2.486841970804884,8.172565707532971,0.8595564355754113
1731474140.439955,-0.3384392559528351,0.42610400915145874,-9.983735084533691,0.0006851025448603318,0.010518646968965383,-0.005609600504856489,2.4878719720769267,8.17476418956929,0.8587433591131657
1731474140.439955,-0.3377346694469452,0.435489296913147,-9.978569030761719,0.0006260929115771602,0.010422093553006724,-0.0055489152548415105,2.487878188696797,8.174777527144188,0.858738413395138
1731474140.4899478,-0.33423569798469543,0.4322376847267151,-9.991771697998047,0.00057391867045671,0.01033150894606019,-0.00548843849097025,2.488910648975625,8.177322156488914,0.8579294563429031
1731474140.5398195,-0.3368098735809326,0.4413033127784729,-9.979137420654297,0.0005284047520184184,0.010247608921192858,-0.005428350627624435,2.489928050997594,8.179543039196334,0.8571018651546086
1731474140.5896668,-0.32903242111206055,0.43979355692863464,-9.979314804077148,0.0004893542951865741,0.010170994161575922,-0.005368793202735771,2.490955442449902,8.181808032952526,0.8562539284104014
1731474140.6397073,-0.33598414063453674,0.4474576413631439,-9.982017517089844,0.000456530090469314,0.010102110175492838,-0.0053098513584640085,2.491999132681427,8.18413184472724,0.8553800855290188
1731474140.6897366,-0.341476172208786,0.44930747151374817,-9.990230560302734,0.0004296545072432588,0.010041211145048202,-0.005251546341737849,2.493031925526056,8.18681307866872,0.8545279496340631
1731474140.7397206,-0.3397352695465088,0.44789478182792664,-9.97748851776123,0.00040844591137215907,0.009988332620535539,-0.005193867314293426,2.4940741501233825,8.189184311084158,0.8536311590957188
1731474140.7895658,-0.3330007493495941,0.44037196040153503,-9.997563362121582,0.0003926549834966246,0.009943295957560985,-0.005136803198706397,2.4951087397792064,8.191560684356984,0.8527289525651083
1731474140.8395772,-0.03880907967686653,0.5903394818305969,-9.978856086730957,0.00038178798533558566,0.009905625370535295,-0.005080361904602124,2.4961534898184556,8.19398306388179,0.8518059159123611
1731474140.8895676,-0.0758434385061264,0.5316457748413086,-10.008713722229004,0.00037408538882193637,0.009874152680912717,-0.005024597205996927,2.4971877398427718,8.196817014746705,0.8509126379434152
1731474140.9393978,0.48951706290245056,0.8079436421394348,-9.981762886047363,0.0003647465856052386,0.009846315721952048,-0.004969644491680086,2.498227603602849,8.199278520402991,0.849971032942558
1731474140.9892786,0.7771492004394531,0.6103816628456116,-10.015816688537598,0.0003432957557075523,0.009817367520069054,-0.004915752580005482,2.499264659731441,8.202217972352681,0.8490566832487009
1731474141.0394018,0.1431780755519867,0.499295175075531,-10.044015884399414,0.0002909326595850729,0.00978016236487967,-0.004863356610581722,2.500317651002309,8.204762331955724,0.848080475852666
1731474141.0892773,0.413790225982666,0.48516714572906494,-9.909783363342285,0.00018052632011831272,0.009726147840975963,-0.004813138716591897,2.5013546565343607,8.207290866491176,0.8471076178720963
1731474141.1401522,0.038903508335351944,0.3011943995952606,-9.996171951293945,-2.0518470421156926e-05,0.009646968918344425,-0.004765827181122182,2.5024145358932346,8.210393137902706,0.8461443899221827
1731474141.1902132,0.22217567265033722,0.33590275049209595,-10.001534461975098,-0.0003472385644239716,0.009535838157322053,-0.004721903197579905,2.503463380542357,8.21300641128501,0.845136672495927
1731474141.2402446,0.017560504376888275,0.20069876313209534,-9.97430419921875,-0.0008350963820919023,0.00938853999801248,-0.004681634539791083,2.504512799576762,8.216201169242314,0.84416364208346
1731474141.2901216,-0.7728275656700134,-0.02461777999997139,-9.977519989013672,-0.00151782249424218,0.009204290756400247,-0.004645226884874374,2.5055438639151886,8.218834841350587,0.8431461733330309
1731474141.3400016,-1.2074174880981445,-0.021463442593812943,-10.009428024291992,-0.0024231328648614964,0.008986828969634009,-0.004612819314958592,2.5065774362811455,8.222092820633378,0.8421640617779171
1731474141.3900766,-0.23980385065078735,0.27316224575042725,-9.937684059143066,-0.003567636477524917,0.008745101012936391,-0.004584465352651691,2.5076030406493413,8.224796271895606,0.8411175301028102
1731474141.4400213,-0.7082184553146362,0.12128511071205139,-10.163931846618652,-0.004955849324996928,0.008492373329390583,-0.004560247853851682,2.50862240494612,8.227533049473944,0.8400549990257458
1731474141.4898539,-0.29287877678871155,0.4290388226509094,-9.929959297180176,-0.0065834429159417895,0.008244299402357316,-0.00454060519566824,2.509617084717842,8.23084353869549,0.8390553798852922
1731474141.5398967,-0.5628702044487,0.09986446797847748,-10.001678466796875,-0.008440285222617017,0.008017315947295729,-0.004526483792400989,2.5106038891209197,8.233630565974265,0.8379701993829856
1731474141.5897396,-0.3513105511665344,0.46714502573013306,-10.08678913116455,-0.010511926848117314,0.007827790917956594,-0.0045190682161136714,2.5115576583017227,8.236410255157796,0.836884311287004
1731474141.6397777,-0.5107159614562988,0.16161222755908966,-9.946783065795898,-0.012780508555020957,0.007691575698391335,-0.0045196560696935655,2.5122932401383022,8.239851419804593,0.8358508048529912
1731474141.6896517,-0.4068586826324463,0.43703973293304443,-9.962201118469238,-0.0152254106221223,0.007623639018485466,-0.004529637485605855,2.5131823264533835,8.242681093754399,0.8347416393517127
1731474141.7396317,-0.49801453948020935,0.2526971399784088,-10.004266738891602,-0.01782373284564278,0.007637778796436353,-0.004550167391512226,2.5140367243469735,8.245551153109307,0.8336127666326104
1731474141.789641,-0.37864023447036743,0.4197238087654114,-9.953781127929688,-0.02055074762638389,0.007746379675819576,-0.004581942905070239,2.5148369785621774,8.248418497226853,0.8324811351634829
1731474141.8394883,-0.42949461936950684,0.29616859555244446,-9.941106796264648,-0.023380484415153717,0.007960209286054376,-0.004625220752306914,2.5153596699468266,8.25195081699054,0.8314263478491053
1731474141.8893626,-0.41107162833213806,0.3372349739074707,-10.000696182250977,-0.026286375474269198,0.008288389809271539,-0.0046797743760487445,2.5157964214999464,8.255496719767667,0.8303697091641637
1731474141.9393225,-0.3805420398712158,0.7001015543937683,-9.957939147949219,-0.02924174907528984,0.008738222876441592,-0.00474492628453768,2.5164094910958603,8.258454721820963,0.8291995148534277
1731474141.9893405,-0.4000968039035797,0.667378306388855,-9.877378463745117,-0.03222021345787363,0.009314097135690792,-0.004819621724877727,2.516685691209468,8.261443812603133,0.8281224502805098
1731474142.0393183,-0.4872780740261078,1.1421082019805908,-9.997286796569824,-0.03519591484078616,0.01001549266663787,-0.0049022824524267775,2.517136316751336,8.264462028669852,0.826924061900999
1731474142.0892508,-0.4453103244304657,0.9864438772201538,-9.849359512329102,-0.03814347369916751,0.010834916459152681,-0.004990662935634791,2.5174910815198364,8.267473666124648,0.8257262802368375
1731474142.139246,-0.5104879140853882,0.7967690229415894,-10.028023719787598,-0.041037774340906046,0.011756930945448467,-0.0050819214037523385,2.5174762140699136,8.270540145734419,0.8246287775598362
1731474142.1901712,-0.3782177269458771,0.7711344957351685,-9.996058464050293,-0.043853999080406304,0.0127593384950417,-0.0051729161180748846,2.517627062145417,8.27368856071052,0.8233760161533789
1731474142.2401364,-0.4499201774597168,0.7072227597236633,-10.010408401489258,-0.04656802135107035,0.013815718185573346,-0.005260725033305606,2.5173641088562504,8.276823197904397,0.822263494444301
1731474142.2900872,-0.3696022629737854,0.713841438293457,-10.044113159179688,-0.04915694535101432,0.014897522770954791,-0.00534306730755074,2.517275413211357,8.2799719634907,0.8210133038380235
1731474142.3400176,-0.42195576429367065,0.5679761171340942,-9.984193801879883,-0.05159950508126162,0.015975431038472425,-0.005418426175438472,2.5170598456264437,8.283179187032388,0.8197417801702139
1731474142.3899982,-0.30900314450263977,0.6061761379241943,-10.027217864990234,-0.05387633326504168,0.017020514502584485,-0.005485982487764202,2.5167149854207103,8.286401588726699,0.8184669419510955
1731474142.4399173,-0.36433690786361694,0.5541598200798035,-9.993165969848633,-0.05597027094729716,0.01800526246626738,-0.005545457617273562,2.5159181763881557,8.28970077394535,0.8173241516373022
1731474142.4898849,-0.36433690786361694,0.5541598200798035,-9.993165969848633,-0.05786661188293249,0.01890422141980714,-0.005596963334099515,2.515292258225156,8.293011978456633,0.8160237177348494
1731474142.4898849,-0.3449501693248749,0.5600143671035767,-10.049895286560059,-0.05955307553946973,0.01969429835642445,-0.005640913423452562,2.5152879329150952,8.29303264443028,0.81601561554065
1731474142.5398262,-0.3449501693248749,0.5600143671035767,-10.049895286560059,-0.06101965920728697,0.02035486720465571,-0.00567809686022081,2.5141796430153778,8.296393995069993,0.8148718983771961
1731474142.5398262,-0.3187732696533203,0.5636372566223145,-10.002037048339844,-0.06225859988663462,0.020867723443260804,-0.005709847056675705,2.5141745416867542,8.29641423775818,0.8148640073231914
1731474142.5898345,-0.30297085642814636,0.5662887096405029,-10.012564659118652,-0.06326442220965131,0.0212169805884376,-0.005737987286577737,2.512893081053627,8.299820793085768,0.8137163827973424
1731474142.6396751,-0.3056734502315521,0.5174658894538879,-10.006267547607422,-0.06403399284413222,0.021389011841916498,-0.005764561226891672,2.5117910900976135,8.303313233403602,0.8123664018611335
1731474142.689624,-0.32618317008018494,0.5069574117660522,-9.982719421386719,-0.06456648169295323,0.021372531703648473,-0.005791616279650113,2.510538611279459,8.306829800978516,0.8110132676401762
1731474142.7396877,-0.273434042930603,0.514680802822113,-9.964303016662598,-0.06486319321693584,0.021158769760165643,-0.005821037208502558,2.5091083880054557,8.310441691237003,0.8096294337106181
1731474142.7895157,-0.273434042930603,0.514680802822113,-9.964303016662598,-0.06492744410315666,0.020741516324756414,-0.0058543397928417715,2.5071915492032115,8.31405436202667,0.8084581909725967
1731474142.7895157,-0.2996521592140198,0.5227103233337402,-9.985552787780762,-0.06476453762691031,0.020116967450301785,-0.005892535097492463,2.507184063230407,8.314070826369097,0.8084519288386322
1731474142.8395174,-0.3358599841594696,0.5379204750061035,-9.958097457885742,-0.06438157768625302,0.019283475802153255,-0.005936154595709349,2.505418154883004,8.317798171409379,0.8070360422603571
1731474142.8894358,-0.336078017950058,0.4931144118309021,-9.98670482635498,-0.06378701951184915,0.018241313265557897,-0.005985337600430557,2.5073501412566923,8.31743480992435,0.8058645739460423
1731474142.939421,-0.33337661623954773,0.5128029584884644,-10.005820274353027,-0.06299020662749369,0.01699254617946904,-0.006039933361450281,2.505320467519022,8.321187191046661,0.8044261521139131
1731474142.989331,-0.33337661623954773,0.5128029584884644,-10.005820274353027,-0.06200110723918763,0.015540985879589915,-0.006099686220116002,2.5031642485358225,8.32492762925518,0.8029927245097846
1731474142.989331,-0.3498041331768036,0.4721747934818268,-9.94282341003418,-0.060830191556694425,0.01389209507342002,-0.0061643753248258526,2.50314940126125,8.324952627757366,0.8029831432478195
1731474143.0392566,-0.32534632086753845,0.5132566094398499,-9.986802101135254,-0.059488324070642945,0.01205288888195883,-0.006233715740152706,2.5008372838479485,8.328735981950095,0.8015310829308857
1731474143.0892653,-0.3674081265926361,0.5218324065208435,-10.014200210571289,-0.05798665500781196,0.010031798057097644,-0.006307228136967164,2.5021706291796515,8.32855042768182,0.8003160960631521
1731474143.1392438,-0.40713658928871155,0.5078936219215393,-9.99518871307373,-0.056336442522690974,0.007838393702833502,-0.006384362621406754,2.4995914139893505,8.332370436073344,0.7988230996371923
1731474143.1901145,-0.3748840391635895,0.5032426118850708,-9.95654582977295,-0.054548742713922675,0.005483127395605159,-0.006464658981309194,2.5039641345072656,8.328594489252373,0.7975747463407229
1731474143.2401328,-0.41319382190704346,0.513997495174408,-10.000679969787598,-0.052634150107241304,0.0029772137717622655,-0.0065476719551113855,2.5114353279339263,8.321256519400293,0.7963401043136495
1731474143.2901106,-0.4174082279205322,0.5009680390357971,-9.988465309143066,-0.050602692384939786,0.0003325433172642084,-0.006632867202873103,2.5086534413207398,8.324887331801147,0.794807971779673
1731474143.3401623,-0.4119400978088379,0.5024043917655945,-9.968817710876465,-0.04846375539924369,-0.0024384284964429036,-0.006719659191636267,2.5057340667829333,8.328532371255516,0.793251926271052
1731474143.3899338,-0.3861069083213806,0.4877097010612488,-9.973749160766602,-0.04622607137782245,-0.005322760580602074,-0.0068074157391513675,2.5027338208520495,8.332122555884832,0.7916984791436522
1731474143.4400024,-0.3813762664794922,0.4656544327735901,-10.00214672088623,-0.043897878737716556,-0.008307047147231416,-0.006895403999262523,2.509055403257102,8.325561077325233,0.790430477871821
1731474143.489819,-0.3586125075817108,0.4547431170940399,-9.964475631713867,-0.041487175763508286,-0.011377374697597984,-0.00698282640851279,2.5059420207747873,8.328997119890849,0.788851450099336
1731474143.5397732,-0.3363964855670929,0.4302753210067749,-9.970362663269043,-0.03900196774797282,-0.014519241776800598,-0.007068862297908231,2.5026840556951737,8.332449682875128,0.7872324592989473
1731474143.5897393,-0.3230259418487549,0.4246014356613159,-10.018203735351562,-0.036450502776572344,-0.017717492738833402,-0.0071526484716303365,2.510872745465923,8.323454716800189,0.785979401171352
1731474143.6397502,-0.3195480704307556,0.4174511432647705,-9.99730110168457,-0.03384146721768799,-0.020956304082737777,-0.007233371249150213,2.507530307709074,8.3267117044073,0.7843215286790873
1731474143.6896462,-0.29733991622924805,0.400546669960022,-9.969202995300293,-0.031184089874178783,-0.024219238145567284,-0.007310414314370552,2.504130389765723,8.329888813688493,0.7826573242512208
1731474143.7396011,-0.2849956750869751,0.3818894624710083,-10.001726150512695,-0.028488191932465323,-0.02748931613072958,-0.0073833301242165646,2.515235879215497,8.31739240861129,0.7813886949119756
1731474143.789569,-0.2620607912540436,0.3989132344722748,-10.011852264404297,-0.025764248522217852,-0.030749081198788802,-0.00745176350980836,2.511840653408905,8.320277264094488,0.7796954438625454
1731474143.8395295,-0.3114404082298279,0.37750130891799927,-9.98075008392334,-0.023023405652275324,-0.03398071600460159,-0.00751550764063988,2.526367917657511,8.303857898017712,0.7784156132127831
1731474143.8895874,-0.29066282510757446,0.38888999819755554,-10.001361846923828,-0.02027732179629944,-0.037166226230526414,-0.007574538857509631,2.5230181816259285,8.306398938450348,0.7766833858875196
1731474143.939539,-0.31284046173095703,0.36997202038764954,-10.00731372833252,-0.017537873431162254,-0.040287619741517386,-0.007628968490065504,2.5196187269890005,8.308844913040128,0.7749308911216096
1731474143.9893997,-0.27976566553115845,0.3753986358642578,-10.026233673095703,-0.01481691859953831,-0.04332705369967847,-0.007679069789473142,2.5161966970921417,8.311174398706697,0.7731684661410159
1731474144.0392823,-0.2954639196395874,0.3394887149333954,-9.958551406860352,-0.012126199672237993,-0.04626693949559302,-0.007725337299976877,2.53146847262134,8.293409663183457,0.7718819584489982
1731474144.089266,-0.5322554707527161,-0.19363191723823547,-10.011695861816406,-0.00947708753694193,-0.04908949688647031,-0.007768395325537014,2.5281387447710935,8.295340105204463,0.7700782490191731
1731474144.139285,-0.4975226819515228,-0.47324222326278687,-10.109478950500488,-0.006879708216171265,-0.05177466828936229,-0.007808959287493438,2.5484471066711474,8.272002038542972,0.7687823624740013
1731474144.1902807,-0.6517626047134399,-0.1517183631658554,-10.05496883392334,-0.0043416987215324524,-0.05429703435056003,-0.007848176817747337,2.5452351317725737,8.273472861261462,0.7669077739547137
1731474144.2401178,-0.6517626047134399,-0.1517183631658554,-10.05496883392334,-0.0018672609879592154,-0.05662469297754863,-0.00788801002151078,2.5682397462094455,8.247031201388724,0.7656211746794391
1731474144.2401178,-0.7958483099937439,-0.4603233337402344,-10.047149658203125,0.0005434192752276816,-0.05872068040940917,-0.007931185684294085,2.5682252243948445,8.247036087801664,0.7656119322794375
1731474144.2899477,-0.3774668574333191,0.1904527246952057,-9.920002937316895,0.0028942341877373715,-0.0605446711697105,-0.007980793420983533,2.5653381392176624,8.247934668968005,0.7637624384103076
1731474144.3399312,-0.7103548049926758,-0.2533815801143646,-10.023809432983398,0.0051922008302225965,-0.062054674168926294,-0.008039733958207226,2.5913805661560927,8.218097381445503,0.7624621209939976
1731474144.389945,-0.5084047317504883,0.20593859255313873,-9.930323600769043,0.007446177950482813,-0.06320917261052374,-0.008110281795254727,2.5887377762162798,8.218429767934648,0.7605548831124538
1731474144.4399543,-0.6116470098495483,0.06604569405317307,-9.929553985595703,0.00966626018430444,-0.06396894062819293,-0.00819390361579487,2.6184685242643884,8.184520506471909,0.7592610119656842
1731474144.489831,-0.6116470098495483,0.06604569405317307,-9.929553985595703,0.011863559089156758,-0.06429835456964975,-0.00829110609843586,2.6504434296222623,8.148176461185988,0.7579768343085287
1731474144.489831,-0.5259138345718384,0.24936124682426453,-9.96333122253418,0.014049948863482676,-0.06416618851646863,-0.00840134932253619,2.6504313564350057,8.148172418281431,0.7579651076885638
1731474144.5398407,-0.5633005499839783,0.1612505167722702,-9.892698287963867,0.0162376967834192,-0.06354608785765414,-0.008523173797689465,2.648454647779575,8.147424611766976,0.7560149150212626
1731474144.5897121,-0.5227437615394592,0.1753193736076355,-9.91405963897705,0.018438951102010888,-0.06241700336555925,-0.008654295668817915,2.6465177427243876,8.14651934901278,0.754040247649391
1731474144.6397834,-0.530639111995697,0.1455938071012497,-9.948212623596191,0.020665326922801264,-0.06076316392004848,-0.008791600037305818,2.644620192165386,8.145455576937934,0.7520340199601998
1731474144.6897333,-0.4877649247646332,0.19532594084739685,-9.93302059173584,0.02292762791030545,-0.05857366012247763,-0.00893129977869479,2.6795297445352935,8.105728017699885,0.7507465122379501
1731474144.7396362,-0.4850020408630371,0.15887004137039185,-9.961091995239258,0.025235558447374802,-0.055842141437482416,-0.009069247937218416,2.6780542205025797,8.10405902478052,0.7487074852051664
1731474144.7895703,-0.042006008327007294,0.42955347895622253,-9.968608856201172,0.0275970654285744,-0.05256684435282441,-0.009201209251479473,2.6766459718973143,8.102256825459637,0.7466478216632347
1731474144.8395107,0.20982344448566437,0.5299987196922302,-9.996824264526367,0.03001646254691338,-0.048751301937626834,-0.00932310629200334,2.7111186094556983,8.062910459260623,0.7453636429501712
1731474144.8894217,-0.2961362600326538,0.27400559186935425,-10.028383255004883,0.03249197256543145,-0.04440537270329836,-0.009431306667200417,2.710141191659321,8.060565895034099,0.7432599835164833
1731474144.9395008,-0.07620701938867569,0.45252323150634766,-9.962984085083008,0.03501527160704454,-0.039545256823857726,-0.009522865134796962,2.7457969393125485,8.02003435283588,0.7419737043735805
1731474144.989377,-0.3626199960708618,0.24273060262203217,-10.05359172821045,0.03757340887013433,-0.03419238622039918,-0.009595588321263998,2.7452824720705524,8.017202522594753,0.7398353289574258
1731474145.0394049,-0.3626199960708618,0.24273060262203217,-10.05359172821045,0.040151043239187625,-0.028372115207583506,-0.009648069258549259,2.7821438802083405,7.975591212714715,0.7385565805371955
1731474145.0394049,-0.1496284306049347,0.48473837971687317,-10.041500091552734,0.042731959828460356,-0.022112673202310758,-0.009679867319485617,2.782143373163157,7.975570384784552,0.7385426661440163
1731474145.0892012,-0.3409866988658905,0.2217046469449997,-10.007319450378418,0.04529959822549333,-0.015444772803164402,-0.00969157153568178,2.782120702878138,7.972334188184741,0.7363814845230706
1731474145.1393504,-0.19522902369499207,0.4383619427680969,-10.02239990234375,0.04783694246432948,-0.008401560693129672,-0.009684555998811734,2.820229631081589,7.929668233848294,0.735081614191132
1731474145.1891997,-0.3174585700035095,0.26658883690834045,-9.997493743896484,0.05032662975490303,-0.0010182431115339078,-0.00966065941540087,2.820732531949407,7.926089572943825,0.7328779672375854
1731474145.2401588,-0.2567730247974396,0.41878947615623474,-9.975645065307617,0.05275130102829782,0.006668389176322668,-0.009621941073274274,2.8213823516216556,7.92241102603923,0.730583620036788
1731474145.290124,-0.31867489218711853,0.322895348072052,-10.004502296447754,0.05509395858908907,0.01462028264543095,-0.009570468278492877,2.8221545583339807,7.918834225987442,0.7283119466702527
1731474145.3400424,-0.2900391221046448,0.4151308536529541,-9.99188232421875,0.05733830969548186,0.022798368845047687,-0.009508196864797817,2.8629667643508334,7.874183488801375,0.727052822795469
1731474145.390102,-0.2900391221046448,0.4151308536529541,-9.99188232421875,0.05946900506635975,0.031162735409439216,-0.009436980850485477,2.8643292372236058,7.870399812113597,0.7247343389059507
1731474145.390102,-0.331870973110199,0.35072141885757446,-9.961592674255371,0.0614717690537904,0.0396727777342323,-0.009358560437066643,2.8643385746296923,7.870375490504726,0.724719201593917
1731474145.4399805,-0.31109046936035156,0.4003080129623413,-9.982954025268555,0.06333354045561303,0.048287530747979396,-0.00927445436826561,2.9064324776714323,7.825141020585632,0.7234931516355099
1731474145.4899025,-0.3297779858112335,0.40445318818092346,-9.977746963500977,0.06504264443046465,0.05696611801860092,-0.009185877032634513,2.9084081769958687,7.8212853294931755,0.7211411052902451
1731474145.5398126,-0.3312694728374481,0.4171616733074188,-9.975252151489258,0.06658889548927963,0.0656680101287223,-0.009093759046388109,2.910545942384482,7.817586345743975,0.7187686402797316
1731474145.589731,-0.3365127444267273,0.42672958970069885,-9.98169231414795,0.06796364199991356,0.07435312820951265,-0.008998800633631381,2.9546772492171973,7.771315511473188,0.7175538675331865
1731474145.6397784,-0.6444383859634399,0.252627432346344,-9.986760139465332,0.06916007118071094,0.08298214098590703,-0.008901515772754092,2.957474935894381,7.767654663389392,0.7151329317764114
1731474145.6896195,-0.5891392230987549,0.3251998722553253,-9.954066276550293,0.07017420748829907,0.09151719696371752,-0.008802266834007444,2.9604284138817185,7.764234700264255,0.712705405044546
1731474145.739691,-0.7718563675880432,0.09749940782785416,-9.974160194396973,0.07100626853485571,0.09992292820652149,-0.008701234493959351,2.9635782377146542,7.761032720260217,0.7102401294047266
1731474145.7895942,-0.46285444498062134,0.407083123922348,-9.982929229736328,0.07166131397026516,0.10816722399488715,-0.008598373397755429,3.010525817605145,7.713627078757373,0.7090756638169521
1731474145.839546,0.17480438947677612,0.5993920564651489,-9.956948280334473,0.07214792410847988,0.11622094048819505,-0.008493453035916376,3.014348873522815,7.710646344018262,0.7065780845428637
1731474145.8895202,-0.4296962022781372,0.3416212499141693,-10.036373138427734,0.0724748465056615,0.12405642504500805,-0.008386159393733533,3.0539159137349285,7.663098633696986,0.7054356814299383
1731474145.9394314,-0.10667605698108673,0.5735830664634705,-9.944799423217773,0.07264845132677264,0.13164641378479075,-0.008276227013499952,3.0583504091448757,7.660414239681747,0.7029027687340084
1731474145.9893925,-0.4261827766895294,0.25164923071861267,-9.998679161071777,0.0726729166583802,0.13896421349768417,-0.008163499958047094,3.092682273770273,7.612850238204318,0.7017901198843469
1731474146.0393891,-0.4261827766895294,0.25164923071861267,-9.998679161071777,0.07255160296469901,0.1459846528052492,-0.008047882446674027,3.097672672831937,7.6105417641629405,0.6992274467785331
1731474146.0393891,-0.1757666915655136,0.5858380794525146,-10.030649185180664,0.072288102575055,0.15268506281444938,-0.007929395692093666,3.0977037798025764,7.61052876782089,0.6992116993056525
1731474146.0892906,-0.36952340602874756,0.26452311873435974,-9.984543800354004,0.07188637987704338,0.15904529975755086,-0.007808348138617939,3.1027968876647387,7.6086332636127585,0.6966685194363321
1731474146.1392066,-0.2180897742509842,0.5275964140892029,-9.984308242797852,0.07135025066220754,0.16504712005727654,-0.007685346300344386,3.1081125041593394,7.607122175705034,0.6940835927292492
1731474146.1892066,-0.35027265548706055,0.3020928204059601,-9.998504638671875,0.07068316350628358,0.17067402495189546,-0.0075611234266465405,3.1136107529096484,7.606027570800692,0.6914768854895571
1731474146.2392662,-0.24522694945335388,0.4789474606513977,-9.97572135925293,0.06988833518450918,0.1759114220917216,-0.007436406215714095,3.151196191443747,7.5576280359793415,0.6904376642758712
1731474146.2900531,-0.32880857586860657,0.3587845265865326,-9.992473602294922,0.06896887268532588,0.1807466970364378,-0.0073118765008528186,3.1573553211453635,7.5570765648434515,0.687762948040321
1731474146.3401139,-0.28920209407806396,0.4533703923225403,-9.996732711791992,0.06792787556431382,0.18516919935552245,-0.007188163473347369,3.1878972996332062,7.509002028644694,0.6867616264548057
1731474146.3900425,-0.32036682963371277,0.38436904549598694,-9.975886344909668,0.06676856279569339,0.1891701884601416,-0.007065863083237577,3.19444270859181,7.5090582855442385,0.6841072417267203
1731474146.4399643,-0.3222068250179291,0.4288286566734314,-9.992498397827148,0.06549440745997549,0.19274280986354814,-0.006945539478830916,3.2011914040464493,7.509593846456802,0.681420111933149
1731474146.4898868,-0.3282969295978546,0.4256960153579712,-9.982223510742188,0.06410925427278122,0.19588207425395332,-0.006827692003459844,3.208055870936966,7.510609610899216,0.6787339866152653
1731474146.5398424,-0.3282969295978546,0.4256960153579712,-9.982223510742188,0.06261740953927145,0.19858477779230946,-0.006712740734081632,3.2394904501607726,7.462301600205556,0.6778373161902488
1731474146.5398424,-0.3342430889606476,0.41899538040161133,-9.977553367614746,0.061023675469537034,0.20084941149870014,-0.006601014737643386,3.239534293830806,7.462310182092503,0.6778210095361691
1731474146.5898244,-0.3272224962711334,0.4375999867916107,-9.990431785583496,0.0593333377592689,0.20267612453436984,-0.006492734371506818,3.2632656477604605,7.414687594676538,0.6769698725466232
1731474146.6398294,-0.3272224962711334,0.4375999867916107,-9.990431785583496,0.057552121183353504,0.20406667253040695,-0.006388036496202042,3.270897984828561,7.416550275435954,0.6742363514109365
1731474146.6398294,-0.348007470369339,0.42216381430625916,-9.980985641479492,0.05568613445671147,0.2050243250786745,-0.006287029030469304,3.2709512919489194,7.416564955635416,0.6742173844777082
1731474146.6897447,-0.3311549723148346,0.43346843123435974,-9.981561660766602,0.05374185391425079,0.20555382000137407,-0.006189801981282208,3.278584349496033,7.418900806699526,0.6715173605016497
1731474146.7396312,-0.3635404109954834,0.40990909934043884,-9.988479614257812,0.05172613715385717,0.2056613726865011,-0.006096397190592382,3.286444419216826,7.4217760938269235,0.6687680618960659
1731474146.789546,-0.32311975955963135,0.4552238881587982,-9.978585243225098,0.04964621666495887,0.20535465997482033,-0.0060067993643397825,3.2943817617218385,7.42514202856549,0.6660206163717409
1731474146.8395026,-0.3543110489845276,0.4205108880996704,-9.987153053283691,0.04750963810469581,0.2046427203200407,-0.00592094699363877,3.3192402081155095,7.377175320055638,0.6652962499235435
1731474146.8894835,-0.33690303564071655,0.44204410910606384,-9.983466148376465,0.045324164888921714,0.20353582015946517,-0.005838738669620067,3.327589234731832,7.381251932244388,0.6625085674404284
1731474146.939377,-0.3456494212150574,0.4204249382019043,-9.974058151245117,0.043097708233507226,0.20204537715674198,-0.005760034553364041,3.3440615706959997,7.333926542705222,0.6618433354883287
1731474146.9893372,-0.32335811853408813,0.44455331563949585,-9.994388580322266,0.040838258041573657,0.20018391645327782,-0.005684649461218556,3.3526484106090364,7.338667519916849,0.6590451171303152
1731474147.0392928,-0.3419918715953827,0.4153200089931488,-9.980100631713867,0.03855377501469722,0.1979650040556232,-0.005612365085204348,3.3613779426964756,7.343933835716269,0.6562187662756882
1731474147.0892532,-0.33232659101486206,0.44813141226768494,-9.970808982849121,0.0362520998400288,0.19540316887013381,-0.005542949665347047,3.370085544918179,7.349618292596453,0.6534157040383214
1731474147.1392598,-0.3414287269115448,0.42118310928344727,-9.989472389221191,0.03394092099254264,0.19251381405146484,-0.005476133126697216,3.3857105849164655,7.355295889739259,0.6528775667984391
1731474147.1892078,-0.32821929454803467,0.43675288558006287,-9.983247756958008,0.031627758952229794,0.18931311966205444,-0.005411593911772669,3.394671031332963,7.361967352869747,0.6500463551089298
1731474147.239118,-0.3308393657207489,0.41653814911842346,-9.989508628845215,0.02931992076659779,0.1858179721484018,-0.0053490079140937445,3.4037091129826913,7.369107117464579,0.6472011906272026
1731474147.2890556,-0.3233639597892761,0.44228991866111755,-9.99915599822998,0.02702442930783529,0.18204590743300697,-0.005288108896537501,3.4137745678280673,7.37614879747819,0.6467986649871821
1731474147.34003,-0.3317860960960388,0.42187803983688354,-9.981391906738281,0.02474796242982183,0.17801501857016913,-0.00522872971000393,3.4231536802169,7.384381480522671,0.6438773176623109
1731474147.389953,-0.3199501931667328,0.43816444277763367,-9.984302520751953,0.022496822709922596,0.17374383933497572,-0.005170796970843203,3.432388097017061,7.392878317840205,0.6410064886124578
1731474147.4399762,-0.3348630368709564,0.410004585981369,-9.995926856994629,0.02027692715537521,0.16925125659636242,-0.005114283177664788,3.4417513523876964,7.40187684034946,0.6380994039977478
1731474147.4898822,-0.31965500116348267,0.4335654675960541,-9.987404823303223,0.01809380717119735,0.16455646388175593,-0.00505919471720161,3.447021106500889,7.4105707827979606,0.6378879148717589
1731474147.5398347,-0.33629316091537476,0.42236918210983276,-9.98745346069336,0.015952615494524647,0.15967890450397343,-0.005005593196813737,3.4563603373709,7.420308363917498,0.6349972572699949
1731474147.5897639,-0.33629316091537476,0.42236918210983276,-9.98745346069336,0.013858148121805308,0.15463817435458202,-0.004953584863003464,3.452098206374066,7.429832878582039,0.6348571257864298
1731474147.5897639,-0.32917505502700806,0.4344494938850403,-9.999245643615723,0.011814885042939604,0.1494539188158091,-0.004903303044268483,3.4521558221096558,7.429896884564419,0.6348391887167377
1731474147.6397233,-0.3516184091567993,0.42074695229530334,-9.990751266479492,0.009827023965032586,0.14414573312440218,-0.004854929414049966,3.461404489400931,7.440336455013199,0.6319576506654708
1731474147.6896822,-0.3454195261001587,0.43337929248809814,-9.982441902160645,0.007898520059993005,0.1387330636514572,-0.004808709667539475,3.470729555911984,7.451188839241037,0.6290471626828475
1731474147.739603,-0.3505779504776001,0.42843934893608093,-9.977140426635742,0.006033145572757183,0.13323512275774757,-0.004764902214352084,3.464899569608389,7.461743056620372,0.6290067850543433
1731474147.7895708,-0.3442579209804535,0.44717955589294434,-10.014467239379883,0.004234515456826956,0.12767079111860563,-0.004723722096556119,3.4741790907545242,7.473289542354213,0.6260819127497095
1731474147.839557,-0.2940550446510315,0.5944892764091492,-9.976007461547852,0.002506012134912628,0.12205835143369347,-0.004685377526459875,3.458699137355591,7.484483451483181,0.6261013307591207
1731474147.889536,-0.20518560707569122,0.54371577501297,-9.946371078491211,0.0008504822438601982,0.11641488748503459,-0.004650077148486258,3.467805255002045,7.496616876940067,0.6231761422216611
1731474147.939503,-0.43645983934402466,0.24578015506267548,-9.995434761047363,-0.0007301358413444197,0.11075595077886131,-0.004617885799323957,3.4459828188350525,7.508380211553963,0.6232595264264575
1731474147.9893682,-0.2412494719028473,0.5809628963470459,-10.00178050994873,-0.002234728348019617,0.10509619135555728,-0.004588661731122017,3.4548348656923955,7.5210020192315685,0.6203438042370292
1731474148.0393229,-0.4226839542388916,0.305077463388443,-9.972904205322266,-0.0036625737313820857,0.09945009792751182,-0.004562208599013291,3.4637214543716737,7.533938421330493,0.6174028803285874
1731474148.0892675,-0.17636924982070923,0.6643232107162476,-9.994385719299316,-0.005013186537804071,0.09383189789922153,-0.004538384310384189,3.472580441695065,7.547091101316951,0.6144561810303258
1731474148.1391916,-0.017241640016436577,0.4965020716190338,-10.021503448486328,-0.006286857069812649,0.08825489883243627,-0.004517106129576799,3.458657545523959,7.559770517060035,0.6147346672929337
1731474148.1891968,0.08745230734348297,0.6030604839324951,-10.011589050292969,-0.007486074103373606,0.08273078352868662,-0.00449844779163334,3.4458615039188873,7.5726727920558154,0.615013073667312
1731474148.2391913,-0.9778934717178345,0.07814757525920868,-9.990920066833496,-0.008616187070462598,0.07726971305244018,-0.004482756896440558,3.454438340057689,7.586504692821067,0.6120612619395865
1731474148.289004,-0.13256236910820007,0.6477596163749695,-9.916261672973633,-0.009683220315981147,0.07188155627429621,-0.004470529660884091,3.462954683566114,7.600461446440285,0.6091112856511797
1731474148.3390393,-0.5607509613037109,0.18505153059959412,-10.030675888061523,-0.010691148648731632,0.06657681547772615,-0.004462092336405186,3.4714788781906063,7.614645756997949,0.6061386116955291
1731474148.3899746,-0.24053697288036346,0.6703055500984192,-9.993346214294434,-0.011641750696132925,0.06136637760216458,-0.0044575128913599705,3.4566783691141687,7.628457665327818,0.6065635867525908
1731474148.4399455,-0.4149532914161682,0.18424800038337708,-9.922703742980957,-0.012535706362350222,0.056260955430743276,-0.00445676939384966,3.4650275857810846,7.642985304905194,0.603581151987518
1731474148.4898977,-0.32263457775115967,0.564312756061554,-10.011099815368652,-0.013373178148703362,0.051270936703268793,-0.004459730080999565,3.4496194351415115,7.656831359963693,0.6041208828316292
1731474148.539939,-0.4096713662147522,0.33358514308929443,-9.978320121765137,-0.014153987880552797,0.04640644516048448,-0.004466045437223986,3.457748279373098,7.671586461738282,0.6011420726047148
1731474148.5898108,-0.33266475796699524,0.4822407364845276,-9.983787536621094,-0.0148776072206038,0.04167721203596535,-0.004475259579132077,3.4418843102771963,7.685587436134784,0.601758647083931
1731474148.6398258,-0.36633315682411194,0.4079146981239319,-10.017582893371582,-0.015543192442457141,0.03709235366027432,-0.004486957593037004,3.449799360829948,7.700546138461697,0.5987786010719672
1731474148.6896837,-0.36633315682411194,0.4079146981239319,-10.017582893371582,-0.016149730989954165,0.03266028914743626,-0.004500875294636608,3.4335307453045707,7.7146895066917365,0.5994644278488622
1731474148.6896837,-0.37975364923477173,0.41329842805862427,-9.984230041503906,-0.01669611004774578,0.028388787319870934,-0.004517020530779518,3.4335646627137315,7.714755803140558,0.599451347948892
1731474148.7397082,-0.3236582279205322,0.45023560523986816,-9.957239151000977,-0.01718112281862822,0.0242850197052838,-0.004535612607137344,3.4412300969455436,7.7298113426668875,0.5964813025503868
1731474148.7895982,-0.4094269871711731,0.40006208419799805,-10.010847091674805,-0.017603548163574304,0.020355475225263618,-0.004556847633153974,3.424525806629964,7.744099758864016,0.5972232116722094
1731474148.8395123,-0.3341081142425537,0.49790847301483154,-9.974881172180176,-0.017962211622403516,0.016605813641508198,-0.004580792783847382,3.4078385485392673,7.758475127559599,0.5979514194001917
1731474148.8895173,-0.40162166953086853,0.3858509361743927,-9.979796409606934,-0.018255961835863505,0.013040753357833421,-0.004607440267940374,3.415113488029506,7.773700152869045,0.5949821230345363
1731474148.9394271,-0.33520281314849854,0.49349677562713623,-9.995915412902832,-0.01848367988464033,0.00966402596942165,-0.004636723487761093,3.422331821104931,7.788931031518451,0.5920056740788545
1731474148.989394,-0.39363962411880493,0.3769837021827698,-9.9759521484375,-0.018644339066232345,0.006478434452891766,-0.004668510192922753,3.4294955578353994,7.804164358678924,0.589021088632219
1731474149.0393794,-0.32641667127609253,0.49767252802848816,-9.984671592712402,-0.018737073663912366,0.003485938906529669,-0.004702620444196278,3.411629681090176,7.8185746700755505,0.5899557930591578
1731474149.0893095,-0.39658495783805847,0.40310895442962646,-9.991823196411133,-0.018761244925569402,0.0006876839397860523,-0.0047388266627602154,3.418555521492809,7.833811876779004,0.5869718365355554
1731474149.139286,-0.31508591771125793,0.49019932746887207,-9.974615097045898,-0.018716487182876905,-0.0019160317808810919,-0.004776861845877597,3.425455215590157,7.849092967408754,0.5839671039907384
1731474149.1892076,-0.3865351676940918,0.38851404190063477,-9.984769821166992,-0.018602751307365453,-0.00432574800220674,-0.004816426396375294,3.406771596762135,7.787634882038658,0.5850160656056563
1731474149.2392628,-0.3284973204135895,0.4553205966949463,-9.989445686340332,-0.01842034217278842,-0.0065427205335178255,-0.004857176699013657,3.4134467650845797,7.802504135192555,0.5820052215010267
1731474149.2891707,-0.36882221698760986,0.4021817743778229,-9.976908683776855,-0.018169921058617058,-0.00856875033600197,-0.004898739542706429,3.420050681324928,7.817297486534359,0.5789937635271347
1731474149.3390863,-0.339903861284256,0.46282950043678284,-9.997218132019043,-0.017852497298690033,-0.010406097824019162,-0.004940739491207236,3.426611567612087,7.832071307219322,0.5759692174379915
1731474149.3890233,-0.36403632164001465,0.4146801829338074,-9.983406066894531,-0.0174694162193693,-0.012057506476845854,-0.0049828218402572615,3.406719350969416,7.776257024908598,0.5772090936649845
1731474149.4399798,-0.36403632164001465,0.4146801829338074,-9.983406066894531,-0.01702231212472507,-0.01352620406169315,-0.00502467211902537,3.413200604112093,7.790943099742264,0.5741100690366341
1731474149.4399798,-0.3282560706138611,0.4430561661720276,-9.990992546081543,-0.016513058227908144,-0.014815811738468833,-0.00506600742949892,3.4132491715064766,7.791053397843706,0.5740867161536315
1731474149.489963,-0.34830936789512634,0.4099680185317993,-9.985173225402832,-0.01594380114235007,-0.015930280170550776,-0.0051065654482327656,3.419501245346391,7.805277255490516,0.5710646432064209
1731474149.5398574,-0.3367198407649994,0.4484230577945709,-9.979958534240723,-0.015317046164458063,-0.016873903174522538,-0.005146107251997059,3.398839318264686,7.758606289897116,0.5724208209677386
1731474149.5898209,-0.3511849343776703,0.42940324544906616,-9.9827299118042,-0.014635664247907194,-0.017651344467846806,-0.005184396339721184,3.404912171243964,7.772531881720337,0.5693761059460114
1731474149.639785,-0.3449540138244629,0.44740235805511475,-9.993281364440918,-0.013902819621380066,-0.01826767252614355,-0.005221178545942022,3.4109640633759923,7.786446421911709,0.5663109127073459
1731474149.689714,-0.348348468542099,0.4309273660182953,-9.968509674072266,-0.013121892534687412,-0.01872837873525599,-0.005256194784592829,3.3895858947274333,7.7455520693907225,0.5678230228666538
1731474149.7397473,-0.3465837836265564,0.4344233572483063,-9.99363899230957,-0.012296426207715129,-0.01903933802796215,-0.005289181171459666,3.395448203040806,7.7591486396395375,0.5647436498248405
1731474149.7896135,-0.35121646523475647,0.43669408559799194,-9.989757537841797,-0.011430090284596309,-0.019206735784683904,-0.005319867357498251,3.373777890468697,7.729347222598486,0.566315488655549
1731474149.839714,-0.3436480164527893,0.4485608637332916,-9.986307144165039,-0.010526646520940092,-0.019237021737172365,-0.00534802056101262,3.352253645910172,7.711480327532144,0.5678313084670111
1731474149.8895714,-0.3596985638141632,0.44395580887794495,-9.989258766174316,-0.009589914923730933,-0.01913691973758768,-0.005373481158596243,3.3576819906262525,7.7244456543965665,0.5647932558031834
1731474149.9394937,-0.3440133035182953,0.440993994474411,-9.989282608032227,-0.008623733610431903,-0.018913438223848587,-0.005396155404230693,3.3631134678538563,7.737425266796381,0.5617272673397626
1731474149.9894161,-0.3629949986934662,0.4327376186847687,-9.978323936462402,-0.007631916395178133,-0.018573819070006842,-0.005415998152745709,3.3685051446035117,7.750311464677236,0.5586588536426943
1731474150.0394707,-0.35161831974983215,0.4358040392398834,-9.977865219116211,-0.006618215084820946,-0.01812543822269884,-0.0054329752529736815,3.3460944800406986,7.732004991074342,0.5603762674860048
1731474150.0892787,-0.3588835597038269,0.44195646047592163,-9.983288764953613,-0.00558628466901189,-0.017575723049741192,-0.005447010609375326,3.3512738504379405,7.744569382001808,0.5573254830089278
1731474150.1392915,-0.3525645434856415,0.4376795291900635,-9.988021850585938,-0.0045396658765675495,-0.01693212391485574,-0.0054579768798679075,3.3564942373522504,7.757220862701389,0.5542295094863254
1731474150.1892414,-0.3610277473926544,0.4366692900657654,-9.989734649658203,-0.003481782906647164,-0.016202104807400343,-0.005465742706822235,3.3334611817221846,7.746484188373066,0.5561041786495726
1731474150.239233,-0.35390523076057434,0.44004589319229126,-9.980785369873047,-0.002415935469163787,-0.015393112836775868,-0.005470219384463684,3.3385292488986034,7.758977261357374,0.5529988819438723
1731474150.2891834,-0.34808841347694397,0.4356316924095154,-9.990507125854492,-0.0013452989536888553,-0.014512541009705154,-0.0054713650186052395,3.3435473432094946,7.77132150698639,0.5499077338581222
1731474150.3391497,-0.3495331108570099,0.4318283796310425,-9.987534523010254,-0.00027295618088449454,-0.013567692585668329,-0.00546917430425274,3.3199970303219315,7.770222669046218,0.551906768582025
1731474150.3889644,-0.34229859709739685,0.43807172775268555,-9.979005813598633,0.0007980589108555087,-0.012565736507231523,-0.005463678464947643,3.324865282208405,7.782444401238257,0.5488153719216269
1731474150.4399717,-0.35194361209869385,0.43843650817871094,-9.987793922424316,0.001864739199261017,-0.01151367790948958,-0.005454929466690927,3.3012468168089883,7.79254601427075,0.5507904722874384
1731474150.4899325,-0.3497510850429535,0.43838438391685486,-9.9824857711792,0.0029241176548078546,-0.010418359571704797,-0.005442977158091419,3.2777571850565423,7.813444817338821,0.5527953262872641
1731474150.5399475,-0.3440338671207428,0.4448617100715637,-9.980924606323242,0.003973300573436982,-0.009286471082835005,-0.005427864600085392,3.2823770392253087,7.825733860268164,0.5496983950873784
1731474150.5898569,-0.3435697555541992,0.4436219334602356,-9.993441581726074,0.005009477824249879,-0.008124557286092075,-0.005409631572918305,3.2869956387587584,7.837968066224026,0.5465962990376526
1731474150.6397717,-0.3434273302555084,0.4445556402206421,-9.981748580932617,0.006029905147046809,-0.0069390264523768435,-0.00538833155463791,3.2631656838493086,7.858976834599734,0.5487368172251617
1731474150.6896904,-0.34205594658851624,0.4357181191444397,-9.985618591308594,0.007031895226327991,-0.005736135996144236,-0.005364049644088492,3.2676643108596584,7.871219065970299,0.5456380241534586
1731474150.7397027,-0.3368449807167053,0.4365089237689972,-9.985532760620117,0.008012820838810764,-0.004521942166917901,-0.005336893206188871,3.243767029494498,7.904055301822843,0.5477949180403718
1731474150.7896504,-0.3370206654071808,0.44003918766975403,-9.988101959228516,0.008970108921816608,-0.0033022416970968395,-0.005306981349508899,3.2481831487111323,7.916458729605393,0.5446809186489374
1731474150.839731,-0.34878137707710266,0.4350849390029907,-9.995030403137207,0.00990124166519744,-0.0020825430967622164,-0.005274462138466291,3.2242409312529285,7.957317947992241,0.5468838349462616
1731474150.8894904,-0.34958556294441223,0.43955448269844055,-9.992443084716797,0.010803804539378908,-0.0008680611463176482,-0.005239547994864771,3.228505480353235,7.969708023678017,0.5438115954054411
1731474150.9395454,-0.33814793825149536,0.4347154200077057,-9.992836952209473,0.01167555560307034,0.000336289067841415,-0.0052025428352907395,3.23286032869637,7.982278170669443,0.5406814965214788
1731474150.9894862,-0.3534073531627655,0.43426117300987244,-9.98823356628418,0.012514451372028113,0.0015259033344587314,-0.005163836819375524,3.2372235086421393,7.994787482461253,0.5375541761664798
1731474151.0393903,-0.35689619183540344,0.43784937262535095,-9.982269287109375,0.013318658435846377,0.0026965014766376677,-0.00512386725023219,3.2126383059288934,8.038396623111266,0.5399939692915936
1731474151.089344,-0.34376397728919983,0.4424741268157959,-9.984296798706055,0.014086595179050079,0.0038441232463902776,-0.0050830621015858085,3.216918476806531,8.051069033501205,0.5368722783446976
1731474151.1394033,-0.34501925110816956,0.4349685609340668,-9.980411529541016,0.014816940258984551,0.0049651015856199,-0.0050417927646871225,3.1923216748686087,8.089243760345521,0.5393296235139964
1731474151.1892505,-0.35001081228256226,0.4367660880088806,-9.98748779296875,0.015508585099345204,0.006056050082384306,-0.005000356728684784,3.196523398606619,8.10203931491229,0.5362168568598464
1731474151.2393665,-0.35077399015426636,0.4410512447357178,-9.983784675598145,0.016160609079589636,0.0071138736950705555,-0.0049589889434750335,3.2008014843440473,8.114962897589912,0.5330644678873369
1731474151.2891529,-0.3346041738986969,0.4414082169532776,-9.978825569152832,0.016772283813350143,0.008135763700057598,-0.004917877236494289,3.1759609983760915,8.152238737954859,0.535677449342784
1731474151.339152,-0.3532467186450958,0.44168803095817566,-9.982125282287598,0.017343049433781878,0.009119170326129406,-0.004877154731538483,3.1801609285422376,8.165267480793181,0.5325421134877645
1731474151.38902,-0.3444956839084625,0.44681721925735474,-9.989038467407227,0.01787249071742391,0.010061778229571114,-0.004836891261916754,3.155311804222419,8.201656920910725,0.5351828554295667
1731474151.4390323,-0.3412024676799774,0.45108357071876526,-9.988518714904785,0.018360345373229153,0.010961480421616262,-0.004797123436344866,3.159469821003592,8.214887167986856,0.5320426380167715
1731474151.4888942,-0.35135704278945923,0.44728460907936096,-9.988907814025879,0.018806503892488294,0.011816343474028199,-0.004757902662369699,3.1346735165634474,8.250439861930055,0.5347132079478824
1731474151.5399947,-0.3428148031234741,0.43845781683921814,-9.985496520996094,0.01921100201295004,0.012624598456840216,-0.004719315867999564,3.1388665827973963,8.26410728979974,0.5315143143203678
1731474151.589838,-0.35130253434181213,0.43799132108688354,-9.989453315734863,0.019574028744164362,0.013384685736010265,-0.004681476988744728,3.142993876421918,8.277434211956654,0.5283909513839044
1731474151.6397727,-0.34227749705314636,0.4340595602989197,-9.994230270385742,0.019895929714964823,0.01409532198279086,-0.004644522656781752,3.118076136215597,8.312207833743797,0.5311827753012232
1731474151.6898038,-0.345090389251709,0.4354267120361328,-9.992863655090332,0.020177192894167268,0.014755543081673738,-0.004608632481817489,3.1221865517396803,8.325789076343883,0.5280458890441238
1731474151.7628806,-0.345090389251709,0.4354267120361328,-9.992863655090332,0.020418425059950233,0.015364713290688711,-0.004574052254584133,3.0991661218400943,8.36600119292843,0.5294247990774255
1731474151.7628806,-0.3515869379043579,0.4293767511844635,-9.992466926574707,0.020620342519106893,0.01592251686071083,-0.0045410936744857905,3.0991911867241977,8.366085893679584,0.5294055180001314
1731474151.7896523,-0.3438718020915985,0.40278133749961853,-9.977875709533691,0.020783784275327677,0.01642897960690909,-0.004510104958898175,3.101351544371192,8.373367192984501,0.5277477461913332
1731474151.839626,-0.3230764865875244,0.15276339650154114,-9.979936599731445,0.020909694499118836,0.01688479114077964,-0.0044814064293931715,3.0765792448605644,8.406458598344491,0.5305884242445897
1731474151.8895721,-0.22208143770694733,0.187400683760643,-10.070066452026367,0.020998931504478218,0.017292251514096836,-0.004455298227978482,3.0806122306583696,8.42037576365752,0.5274666266323866
1731474151.939552,-0.3626958727836609,-0.3957504630088806,-10.0033597946167,0.021051919819400893,0.017656870080188587,-0.0044322808962850915,3.0846944556235543,8.43432504303187,0.5243363143608867
1731474151.989412,-0.49128592014312744,-0.6028002500534058,-10.101073265075684,0.021068725883534773,0.017989849932621673,-0.004413345714689817,3.0597709025153654,8.466401410335976,0.5273357475077999
1731474152.039409,-0.33004650473594666,0.15001556277275085,-9.991525650024414,0.021049825996027526,0.018310414969317124,-0.0044001051600768976,3.0352639724676096,8.49786931363873,0.5302188054600205
1731474152.0893848,-0.42409035563468933,-0.23452405631542206,-9.928579330444336,0.020996672412740454,0.018645185388984947,-0.004394593875307268,3.03922850079969,8.512121438380406,0.5271132240093782
1731474152.139399,-0.3635537326335907,0.16380023956298828,-9.96257495880127,0.020911551522431966,0.01902495532655897,-0.004398680618274597,3.043251477802754,8.526442016437127,0.5239919931631463
1731474152.1892323,-0.3265819549560547,0.03705446049571037,-9.926668167114258,0.020797241901976474,0.019481891207327035,-0.004413509718054638,3.0473007968501764,8.54071969158001,0.5208795915266375
1731474152.2392316,-0.34383344650268555,0.2610261142253876,-9.951214790344238,0.02065667412958823,0.02004769464184255,-0.004439342044956792,3.0514255075594017,8.555129930765679,0.5177379978551183
1731474152.2891235,-0.35642221570014954,0.23940710723400116,-9.95168685913086,0.02049263047813163,0.020752028260614154,-0.004475639545210701,3.026260168382199,8.585510271974057,0.5209677572198409
1731474152.3392637,-0.3735845685005188,0.305618554353714,-9.976515769958496,0.020307716069212743,0.021621282107977403,-0.004521243966533209,3.0303639825221897,8.600152678516075,0.5178222274424731
1731474152.389072,-0.3662432134151459,0.2762035131454468,-9.98367977142334,0.02010452065832904,0.022677854328785736,-0.004574632924740629,3.0052663440978837,8.629623862650643,0.521106253631634
1731474152.4390504,-0.3853393793106079,0.2848801612854004,-9.992253303527832,0.019885747163127493,0.023939976955070035,-0.004634179264035654,3.0093171879370564,8.644392078056185,0.517980175611219
1731474152.4890246,-0.3745778203010559,0.2969180941581726,-9.987142562866211,0.019654266339776252,0.02542188562999624,-0.00469833671759012,2.98438915805598,8.673158033947184,0.5212830403920626
1731474152.539969,-0.36941108107566833,0.32635197043418884,-10.017279624938965,0.019413115937403573,0.02713403235457521,-0.0047657457905811735,2.9884790987346923,8.688403471455874,0.5181040913362048
1731474152.5898287,-0.3613957464694977,0.32036691904067993,-9.987659454345703,0.01916542590785729,0.029083202717307723,-0.004835310498994138,2.992519295227096,8.703353483716285,0.5149894017176606
1731474152.6398501,-0.3613957464694977,0.32036691904067993,-9.987659454345703,0.018914295663538708,0.03127263431937617,-0.004906214851009871,2.9675470244419855,8.731333938989993,0.5183764126356747
1731474152.6398501,-0.3558109700679779,0.3377763330936432,-10.017905235290527,0.01866269024888746,0.033702243217855615,-0.004977859757927929,2.9675707095216364,8.73142401265363,0.5183579323576484
1731474152.6896672,0.11172740161418915,0.9410831928253174,-9.988750457763672,0.01841295501253009,0.03636834338077317,-0.005049839123158579,2.971532087234639,8.74644778406584,0.5152784771398483
1731474152.7397246,0.6022413969039917,1.6053311824798584,-9.950591087341309,0.018164725164391913,0.0392612071057518,-0.00512191168481246,2.9466623690902325,8.77362583632381,0.5186741427377273
1731474152.7897217,0.45707929134368896,1.1785728931427002,-9.883322715759277,0.017911170340406304,0.04236060537977179,-0.005193731837505792,2.9506251169984754,8.7890691706405,0.5155644568340425
1731474152.8396256,0.18722468614578247,0.8254978060722351,-10.014012336730957,0.017636497917498252,0.04563356482448253,-0.0052644610872511636,2.9546490908474397,8.804687799161297,0.5124285718226814
1731474152.889567,-0.2138817459344864,0.33085402846336365,-10.020838737487793,0.017317448000007056,0.04903763417023603,-0.005332802337937881,2.9586963663090287,8.820345767304302,0.509295266846471
1731474152.939633,-0.84199458360672,-0.42900434136390686,-10.077438354492188,0.016928278625915436,0.05252801003558397,-0.00539758937181961,2.933503607528834,8.846741237499346,0.512893739558368
1731474152.9894435,-1.1347620487213135,-0.6553553342819214,-10.159132957458496,0.01644728352835173,0.05606558942444657,-0.005458505189530182,2.9374609228435964,8.862548897128827,0.5097957423817714
1731474153.0395005,-1.1347620487213135,-0.6553553342819214,-10.159132957458496,0.015862627097191145,0.05962350725708252,-0.005516699315749761,2.912358616102008,8.888224014192396,0.5133929886394895
1731474153.0395005,-0.5375619530677795,0.026560742408037186,-10.053828239440918,0.015174721497517436,0.06318932881448747,-0.005575107850294312,2.91237737325877,8.888301588145254,0.5133780793238388
1731474153.0893981,-0.6419805884361267,-0.14039817452430725,-10.018117904663086,0.014394000987097257,0.06676215479960892,-0.005638080229533228,2.916299248874609,8.904530191259756,0.5102679189844928
1731474153.13939,-0.6419805884361267,-0.14039817452430725,-10.018117904663086,0.013536761763077772,0.07034795709143829,-0.005710486218434753,2.9202908665215337,8.921074287228011,0.507115921722145
1731474153.13939,-0.48468977212905884,0.17504572868347168,-9.904268264770508,0.012622408729992615,0.07395657244437455,-0.005796898219491044,2.9203165533657396,8.921180867202407,0.5070956781908763
1731474153.1893013,-0.5061772465705872,0.20886747539043427,-9.975037574768066,0.011672088439048569,0.07759975591792256,-0.0059010028786787155,2.924294785867536,8.937723276886603,0.5039645481287519
1731474153.2392278,-0.504601240158081,0.35937514901161194,-9.961531639099121,0.010707525086977886,0.08128886789789211,-0.006025275048814125,2.9283369448004106,8.954613303182178,0.5007901626222695
1731474153.2890863,-0.5235366225242615,0.4285810589790344,-9.942535400390625,0.0097502535264261,0.08503279709523442,-0.006171024465937025,2.9025529271906203,8.971681919092228,0.5047445254791565
1731474153.3391986,-0.5182399153709412,0.41647854447364807,-9.95583724975586,0.008821386870323689,0.08883668702650321,-0.0063385646048591095,2.9065402883745186,8.989136873972571,0.5015461995413277
1731474153.3890479,-0.5484158992767334,0.4480695128440857,-9.937871932983398,0.007941544783411351,0.09270142186048823,-0.006527288937521319,2.8808606680915747,9.006673023296768,0.5054828010749428
1731474153.4390175,-0.5478430390357971,0.4370619058609009,-9.939542770385742,0.007130808109043136,0.09662374734015736,-0.006735730788595195,2.8847405403787425,9.02453987809048,0.5022941612500742
1731474153.4889638,-0.5263280868530273,0.4694240391254425,-9.992203712463379,0.006408667443117249,0.10059666852096591,-0.006961684105388803,2.8593083546663642,9.042631245872006,0.5062030664499684
1731474153.5389593,-0.5467596054077148,0.46723413467407227,-9.985711097717285,0.005793876388760374,0.10460985685584742,-0.0072024685543926195,2.8630539041455547,9.060840105905044,0.5030402310124759
1731474153.5898702,-0.551529049873352,0.4757702946662903,-9.996859550476074,0.005304268640321637,0.10865003609845561,-0.007455282192329296,2.837888538402919,9.079787827572781,0.5068727355928292
1731474153.6398945,-0.5152885317802429,0.4587487578392029,-9.976001739501953,0.004956631830164995,0.11270140597084163,-0.007717420314559924,2.841561339644977,9.09869925027783,0.503677909173663
1731474153.6898081,-0.5710768699645996,0.47691261768341064,-10.003650665283203,0.004766584142293836,0.11674612897524958,-0.007986318298775632,2.8164851776158564,9.117776245832545,0.5075669036955255
1731474153.7397523,-0.525538980960846,0.48766395449638367,-9.994609832763672,0.004748472449931761,0.12076478917931738,-0.008259566734003453,2.7919156060831516,9.137297287532498,0.511309068181427
1731474153.789613,-0.5084438323974609,0.5185731053352356,-9.965476989746094,0.004915286518565792,0.12473671343474008,-0.008534936122100576,2.795345933674523,9.156972656900596,0.5081375339418905
1731474153.8396065,-0.5292466878890991,0.4623800218105316,-9.98769760131836,0.0052784763633936145,0.12864021421667254,-0.008810318638196191,2.7987895291418687,9.176966312884094,0.5049438910440542
1731474153.88953,-0.48913973569869995,0.46731847524642944,-9.979022026062012,0.005847759781403047,0.13245296610010893,-0.00908363867323373,2.802313304045584,9.197676736059648,0.501666205843043
1731474153.9395475,-0.4685397744178772,0.5056860446929932,-9.99309253692627,0.006630985523691604,0.13615250132371573,-0.009352858839056045,2.777321036969124,9.218059722329182,0.5056480468024555
1731474153.9894257,-0.4685397744178772,0.5056860446929932,-9.99309253692627,0.007633954227286184,0.1397165264679459,-0.009616054904003198,2.7528537113357645,9.239039429854598,0.5094596942427732
1731474153.9894257,-0.45702219009399414,0.4998912811279297,-9.956080436706543,0.008860268764218604,0.14312302545145927,-0.009871453116023037,2.75287760798564,9.239195059414904,0.5094360898559035
1731474154.0394197,-0.4022035002708435,0.5028836131095886,-9.970311164855957,0.010311274741091404,0.14635040337023436,-0.010117352351379576,2.7561271222199144,9.260456224665594,0.5062263914903501
1731474154.089314,-0.42270535230636597,0.48164358735084534,-9.983999252319336,0.01198597490574621,0.1493777479009809,-0.010352012316699032,2.7594184984621113,9.282177079164898,0.5029772758050491
1731474154.1392968,-0.42270535230636597,0.48164358735084534,-9.983999252319336,0.013880978267621424,0.15218513384302995,-0.010573676669530643,2.7627710103521754,9.304466085846247,0.4996736213199799
1731474154.1392968,-0.38456615805625916,0.5007065534591675,-9.960416793823242,0.015990616903733056,0.15475389514469753,-0.010780671644416998,2.7627921730408525,9.304607262917486,0.4996527919446224
1731474154.1892097,-0.3837924003601074,0.4896668791770935,-10.00211238861084,0.01830709069198919,0.15706677800133406,-0.010971434124734595,2.7661324161878156,9.326933336170924,0.49637383195859475
1731474154.2391903,-0.3806689977645874,0.47306615114212036,-10.001392364501953,0.02082053813634374,0.15910802322963383,-0.011144554948876204,2.7695400951131974,9.34977763222888,0.49304881836454234
1731474154.2891269,-0.5227342247962952,0.9770021438598633,-9.972333908081055,0.02351929234536493,0.1608630581071514,-0.011298891820532994,2.744311396874768,9.373064182444336,0.4972140308324055
1731474154.3391964,-0.6536251306533813,1.1910713911056519,-9.957026481628418,0.02639072340521555,0.1623167438003537,-0.01143355808438746,2.747746437948287,9.396957531213687,0.49383081668819734
1731474154.389024,-0.5680765509605408,0.5152410864830017,-9.884139060974121,0.029422542949055032,0.16345099043052935,-0.011547662027517383,2.7512229302680855,9.421061237977883,0.4904467492575897
1731474154.438984,-0.5680765509605408,0.5152410864830017,-9.884139060974121,0.032603670317094276,0.1642450721615687,-0.011639879262227995,2.726057887547615,9.445363172849316,0.4946648883969916
1731474154.438984,-0.8518714904785156,1.0223649740219116,-10.114818572998047,0.03592444313152898,0.1646784304347371,-0.011708278971130602,2.7260796595396157,9.445518304141997,0.4946435855674471
1731474154.4890203,-0.5428992509841919,0.5303182005882263,-9.948053359985352,0.039376943026038266,0.16473195833018173,-0.011750855589320243,2.729594422778256,9.470417274595516,0.4912380200937681
1731474154.4890203,-0.5428992509841919,0.5303182005882263,-9.948053359985352,0.04295504374972785,0.16438787508249864,-0.011766157648968921,2.7307435721330235,9.478494520227073,0.49013892280613486
1731474154.8706543,-0.5428992509841919,0.5303182005882263,-9.948053359985352,0.0466534436885573,0.1636308078556239,-0.011753167196360423,2.6753072822969735,9.674367335370968,0.48681424299228304
1731474154.8706543,-0.253031849861145,0.3442539572715759,-9.981415748596191,0.05046636607876211,0.16244934529163393,-0.011710901072338766,2.675334216929538,9.67455322881074,0.4867908746139718
1731474154.9205117,-0.23775433003902435,1.9156547784805298,-9.855184555053711,0.054386246337140697,0.1608355394761999,-0.011638291904936015,2.6516247728669313,9.703024536436919,0.4909524763945508
1731474154.9705315,-0.4001409411430359,0.5899046659469604,-9.77047061920166,0.058402504199153334,0.15878129993610324,-0.011533882627783635,2.65575810237417,9.73154188195418,0.48743239655778764
1731474155.020408,-0.1947299689054489,1.112312912940979,-10.022409439086914,0.06250128976180283,0.15627529253634623,-0.01139528453241913,2.6325580088323552,9.760922687805065,0.4915297384581397
1731474155.0704117,-0.1947299689054489,1.112312912940979,-10.022409439086914,0.06666586145522158,0.15330365692289014,-0.011219394352609862,2.636887948435087,9.790249956374465,0.48798165528371634
1731474155.0704117,-0.21322882175445557,0.8714746236801147,-10.088143348693848,0.07087660799704898,0.1498516245115868,-0.011003563780354757,2.636916721269287,9.79044244792705,0.48795842588491756
1731474155.1203022,-0.2239534556865692,0.9041865468025208,-9.905142784118652,0.07511111725201422,0.14590431489148156,-0.010746490257083116,2.6414972557529417,9.820634034953615,0.48432369164090794
1731474155.1704328,-1.3943976163864136,-0.5810168385505676,-10.084527969360352,0.07934580292898037,0.14144932477656796,-0.010448140935260159,2.64619837885927,9.850720057892364,0.480718185162761
1731474155.2202253,-0.5982986688613892,0.3721615672111511,-10.063822746276855,0.08355992311427869,0.13648203405594475,-0.010109464952418105,2.65129044880682,9.882317598818066,0.4769480343884978
1731474155.2702136,-0.46314603090286255,0.03619835898280144,-10.011496543884277,0.08773873494314156,0.1310098349902854,-0.009732508581136992,2.628091977430088,9.912157545460918,0.4814914734235861
1731474155.320184,-0.5183843374252319,0.10595713555812836,-10.015792846679688,0.09187221381739516,0.12505191110175984,-0.009320436455219646,2.633520978382036,9.944493124003305,0.4776994225227378
1731474155.3702235,-0.11161405593156815,0.15249505639076233,-10.028287887573242,0.09595172244113225,0.11863701507523883,-0.008877181554595869,2.610987055221477,9.97501682553103,0.4821857562322861
1731474155.4200754,-0.11161405593156815,0.15249505639076233,-10.028287887573242,0.09996751321178328,0.11180183718617445,-0.008407167093792418,2.6166037671466316,10.006938051540978,0.47850174186809
1731474155.4200754,0.01588253118097782,0.03391246125102043,-10.020575523376465,0.10390676374363976,0.10458960827031993,-0.007915229835339339,2.6167856239439944,10.007953021230739,0.47838478683009783
1731474155.469965,-0.25383296608924866,0.3448643088340759,-9.974748611450195,0.10775255795392251,0.09704882516327527,-0.007406498510683884,2.622472600805477,10.039087854988352,0.4748016698694824
1731474155.5198517,-0.10165785253047943,0.2227284014225006,-9.922452926635742,0.11148449030928842,0.0892317544957604,-0.006886062450527523,2.6286254971485703,10.071530743364702,0.4710767621459904
1731474155.5699394,-0.1839110553264618,0.4192267656326294,-9.99095344543457,0.115079977417293,0.08119251343990672,-0.006358528945300964,2.6068122503740097,10.103991544582586,0.47565190592600454
1731474155.6198208,-0.19280876219272614,0.3612631559371948,-9.950533866882324,0.11851522778374703,0.07298537132844685,-0.005827808391827116,2.613684675972283,10.138130342658549,0.47178457530930884
1731474155.6698928,-0.00384950777515769,0.6912849545478821,-9.922014236450195,0.1217657585593031,0.0646632961500128,-0.005297151145985782,2.6200725688083577,10.110385834414778,0.4764749328946668
1731474155.7207956,0.744889497756958,1.6483407020568848,-9.939879417419434,0.1248057133171972,0.0562753656871155,-0.00476911049296895,2.5990322682200717,10.058949666403967,0.48077062223192596
1731474155.770732,0.3141680657863617,1.1341841220855713,-10.00156307220459,0.12760524620016533,0.047862195215481115,-0.0042455054632006,2.6063749976099655,10.091271976668615,0.4771172649666103
1731474155.8206358,-0.22723086178302765,1.8611536026000977,-9.893811225891113,0.1301289151266572,0.03945176326199302,-0.0037275972702330855,2.614237821728774,10.124553138444767,0.4733579309123405
1731474155.8706558,-0.4820658564567566,1.1263463497161865,-9.909140586853027,0.13233871995246055,0.031058188392501206,-0.003216160241571284,2.622185751710754,10.156916128716553,0.4697035734355216
1731474155.9206085,-0.49431735277175903,1.4234706163406372,-9.892594337463379,0.13419982299655075,0.022683210565094467,-0.0027112468218513696,2.6016612553455554,10.104123857331619,0.4743483964853971
1731474155.970523,-0.07631285488605499,0.5004467964172363,-10.070384979248047,0.13568404443659665,0.014319726269867323,-0.002212150797824872,2.582002860969666,10.03162489158543,0.47884665246449765
1731474156.0204434,-0.24069371819496155,-0.35270124673843384,-10.206377029418945,0.13676950817365052,0.005957797282246378,-0.0017181647790184824,2.5908361597196072,10.063803027188893,0.4751883955565368
1731474156.0704284,-0.6625279188156128,-0.9579870700836182,-10.202309608459473,0.13743915893900438,-0.00240650183778896,-0.0012299909342316322,2.60001936608679,10.09601279609966,0.471523364545411
1731474156.1203353,-0.7205891013145447,-0.26662561297416687,-10.021163940429688,0.13768143515727235,-0.01076262132391756,-0.0007507024806126695,2.6095330069009046,10.128162018668807,0.4678608855010509
1731474156.170457,-0.539745032787323,-0.3440362215042114,-10.02015209197998,0.13749235850047314,-0.019082997656047842,-0.00028532364977247,2.590594739475751,10.047913639198734,0.47259640434079925
1731474156.220292,-0.539745032787323,-0.3440362215042114,-10.02015209197998,0.1368760148491928,-0.027326372807898215,0.000160400771781328,2.600657632536342,10.079455755849072,0.4689736523263527
1731474156.220292,-0.7099660634994507,-0.18074804544448853,-9.97559928894043,0.13584330723742954,-0.0354419654543379,0.000580889490333308,2.6007459996109765,10.07972780565717,0.46894237393928356
1731474156.270222,-0.4648881256580353,-0.01231425255537033,-9.95477294921875,0.13441084265388903,-0.04337256835791599,0.0009711215626872676,2.5824502546253205,9.97893104185585,0.47371261839955997
1731474156.320121,-0.6345815658569336,0.11943099647760391,-9.89240837097168,0.13260014732840095,-0.05105774394784769,0.0013269964633910144,2.5932205014296548,10.010162246399489,0.4700768353358579
1731474156.370157,-0.4727819561958313,0.4156271815299988,-9.890789985656738,0.13043666228751066,-0.058437313963270926,0.0016457573507782188,2.5756309800040444,9.896749436570628,0.47485567647177684
1731474156.419992,-0.4727819561958313,0.4156271815299988,-9.890789985656738,0.12794868414638833,-0.06545464928010353,0.0019262949860361102,2.586773276045151,9.92663836421063,0.47131539875790146
1731474156.419992,-0.4746846556663513,0.4383656084537506,-9.960733413696289,0.12516633350640385,-0.07205917191738309,0.002169118663030258,2.5868447725690955,9.926826921209537,0.47129301850829525
1731474156.4700122,-0.4082532823085785,0.4868992269039154,-9.922954559326172,0.12212064310294252,-0.07820750634110443,0.00237596784110274,2.598280305002966,9.956487157587237,0.467763980756169
1731474156.5199811,-0.4082532823085785,0.4868992269039154,-9.922954559326172,0.11884286667823332,-0.08386365580839711,0.002549382919884672,2.58137719430639,9.838621557527008,0.4726332234152004
1731474156.5199811,-0.42095184326171875,0.46034306287765503,-9.94420051574707,0.1153639089355364,-0.0889988469175323,0.0026925033295345166,2.581451174443859,9.83880243709876,0.47261130828240244
1731474156.5699735,-0.3570947051048279,0.568742036819458,-9.979055404663086,0.11171392202382603,-0.0935912116434259,0.0028089195931810416,2.593346681443043,9.867430432839075,0.4691321697980442
1731474156.6198468,-0.35170891880989075,0.5658196806907654,-10.006991386413574,0.10792198034291756,-0.09762554489285077,0.0029023443936125296,2.5770475307551126,9.732664734137586,0.4739994095383189
1731474156.6698449,-0.35522300004959106,0.5524300336837769,-9.985919952392578,0.10401571351436928,-0.10109321382427683,0.0029762153711639437,2.589439933546353,9.760320455642198,0.4705470445627579
1731474156.7197773,-0.35522300004959106,0.5524300336837769,-9.985919952392578,0.10002107830795985,-0.10399184979127361,0.0030334861862722747,2.602030336337438,9.78759660093561,0.4671176963245009
1731474156.7197773,-0.3219449818134308,0.549161434173584,-9.999293327331543,0.09596231834229353,-0.10632473042827327,0.003076642700410207,2.602108818143797,9.78776415462424,0.467096552902246
1731474156.7707493,-0.28970977663993835,0.5290778875350952,-9.999696731567383,0.09186188436903193,-0.1081001007197531,0.00310775347740549,2.6151659282005166,9.815246940374758,0.4636149144845116
1731474156.8206139,-0.3143123984336853,0.5126650929450989,-10.002466201782227,0.08774024666930633,-0.10933050378928574,0.00312845736182627,2.59910253936016,9.672310793113438,0.4687126893613841
1731474156.870688,-0.2599155902862549,0.5240530371665955,-9.9974946975708,0.08361576441170956,-0.11003210921239412,0.0031399587220179667,2.5835811943147973,9.51554555883585,0.4737091381375377
1731474156.9205627,-0.2969132363796234,0.4891177713871002,-9.995007514953613,0.07950466819385596,-0.1102241119370408,0.0031430755455407857,2.596645654502225,9.540000192476608,0.4704239602514504
1731474156.9705002,-0.2969132363796234,0.4891177713871002,-9.995007514953613,0.07542113594790657,-0.1099281945190228,0.0031383182996779914,2.5815684687494507,9.374152860175263,0.47540368313147147
1731474156.9705002,-0.2292598932981491,0.49995648860931396,-10.004132270812988,0.0713774396841388,-0.10916802376540102,0.0031259555602278586,2.5816561046035162,9.374307153714568,0.4753822230854862
1731474157.0204966,-0.2579132318496704,0.4924958348274231,-10.007848739624023,0.06738398682754748,-0.10796886174349035,0.0031060292725514456,2.5951389332771813,9.397762363466443,0.472105065822827
1731474157.0704823,-0.24598565697669983,0.4703907370567322,-10.037233352661133,0.06344926521898014,-0.106357271361144,0.0030783065482346333,2.6088072917749834,9.420990859462194,0.46883004130611056
1731474157.1203732,-0.2604096531867981,0.4892358183860779,-9.96359920501709,0.05957993456815064,-0.10436079704110438,0.0030422367823797077,2.622683826876292,9.444047646028189,0.4655496977925152
1731474157.1703653,-0.2412901222705841,0.49372807145118713,-10.008519172668457,0.055781052546913866,-0.10200767061441422,0.002997056149447329,2.6071760982830154,9.270785367388015,0.4708102342620479
1731474157.2202988,-0.25269076228141785,0.49582356214523315,-9.967084884643555,0.052056271728491574,-0.09932664002296403,0.0029419989234480085,2.592406218335792,9.070052405349266,0.47590385358656667
1731474157.2702527,-0.29472479224205017,0.49913355708122253,-9.967273712158203,0.04840803517917001,-0.09634685476455052,0.0028764584271322,2.606405897825067,9.09058881489623,0.47272459265570904
1731474157.3201697,-0.2970694601535797,0.489962100982666,-10.00029182434082,0.04483789666706526,-0.09309771654600497,0.0028000751060655374,2.620518818118735,9.110884660693348,0.4695530894714628
1731474157.370167,-0.34497785568237305,0.48454904556274414,-9.985206604003906,0.04134694412628749,-0.08960867977289388,0.002712713311702514,2.634754952582579,9.13097484399262,0.4663849608792297
1731474157.4200604,-0.34497785568237305,0.48454904556274414,-9.985206604003906,0.03793620713198925,-0.08590902117829373,0.0026143494647091823,2.619369658354344,8.941412731035554,0.47173568082666917
1731474157.4200604,-0.33604687452316284,0.4833928644657135,-9.957088470458984,0.03460695192819719,-0.082027627356375,0.0025050509524379184,2.619982177830306,8.94222640485921,0.47160155038939167
1731474157.4700716,-0.3997398614883423,0.48361581563949585,-10.031452178955078,0.03136082997119763,-0.07799283352740924,0.0023850282738449038,2.63369621348599,8.960300167519057,0.4686095771332556
1731474157.5199513,-0.34380197525024414,0.5006750226020813,-9.992836952209473,0.0281999712767326,-0.07383231576961209,0.0022545513656140265,2.6188727429212384,8.78137781826068,0.4738514484796832
1731474157.570007,-0.40116724371910095,0.47793707251548767,-9.987176895141602,0.025127043577773994,-0.06957302612731803,0.0021137893322044866,2.6328543525591876,8.798682998967939,0.47084985604843393
1731474157.6199002,-0.3695700168609619,0.49243950843811035,-9.979872703552246,0.02214522851477709,-0.0652411171416106,0.0019628247683329946,2.6180456169197215,8.624990643761235,0.4760970574890361
1731474157.6698487,-0.41193339228630066,0.5345649719238281,-9.984530448913574,0.019258184870058898,-0.0608618791629236,0.0018017985247274883,2.632158802316338,8.64143109168952,0.47310847839032705
1731474157.7197323,-0.39578092098236084,0.5249258279800415,-9.9964017868042,0.01647004144824385,-0.056459809170494944,0.0016309743681498503,2.617299787985928,8.472718014151573,0.47836032417180596
1731474157.7697887,-0.4148857295513153,0.5152393579483032,-10.009360313415527,0.0137853836680914,-0.052058725748836424,0.0014506772560107196,2.631586570558812,8.488417935256773,0.47536904415643044
1731474157.8206913,-0.38384121656417847,0.5252273082733154,-9.947656631469727,0.011209184561440912,-0.04768173215886126,0.0012612229376228593,2.617498797553538,8.325423485735003,0.4804551420055605
1731474157.8705866,-0.37471675872802734,0.512197732925415,-9.963825225830078,0.00874662273907349,-0.04335106841047901,0.0010630141069544118,2.631319014654481,8.339779394442417,0.47758784277917676
1731474157.9205194,-0.39332878589630127,0.548274040222168,-9.980907440185547,0.006402828262496294,-0.039088003353354245,0.0008567322493346228,2.645710957527634,8.354606331436376,0.4746082539837694
1731474157.970504,-0.3940364420413971,0.5331264734268188,-9.951216697692871,0.004182716101248025,-0.034912818555311795,0.0006433830635573312,2.6597847493212603,8.36900064358546,0.47169909731636217
1731474158.0204077,-0.3720216453075409,0.5273372530937195,-10.012054443359375,0.002090941259757715,-0.03084481749884905,0.0004241996363263396,2.6742545444418715,8.383708392970494,0.4687110763706825
1731474158.070431,-0.36154696345329285,0.5203379988670349,-9.981355667114258,0.0001318108565135676,-0.02690224465655182,0.00020049267449818338,2.6578047766464765,8.219485362435547,0.474322239747537
1731474158.1203873,-0.33269548416137695,0.5211107134819031,-9.980409622192383,-0.0016909276381804695,-0.023102130335043956,-2.6496730751042466e-05,2.672219274791791,8.233439657554682,0.47135600780485404
1731474158.170318,-0.3207956552505493,0.5135068893432617,-9.99845027923584,-0.0033743498035299297,-0.019460163257856357,-0.00025563572658147634,2.65580582137664,8.074510986246167,0.47692908933460165
1731474158.2202368,-0.30687013268470764,0.5224953889846802,-9.994780540466309,-0.004916590407584598,-0.015990618057938312,-0.00048589327521163814,2.6406283205599337,7.9227817758846975,0.48219535567228394
1731474158.2701979,-0.3119085729122162,0.5182780623435974,-9.960308074951172,-0.006316988584370289,-0.01270632955692699,-0.0007163553927570269,2.654119259202949,7.934732887672438,0.47942750736893996
1731474158.3202002,-0.3232634663581848,0.5220323204994202,-9.994431495666504,-0.007576091514765769,-0.009618704286139406,-0.0009461660500320102,2.6682685012553686,7.947254525822123,0.476518830944193
1731474158.3702445,-0.28144803643226624,0.5371149778366089,-9.997028350830078,-0.008695559493101036,-0.006737757853261156,-0.0011744680111313362,2.6519969515933806,7.797936562876297,0.481975956243363
1731474158.4200966,-0.28144803643226624,0.5371149778366089,-9.997028350830078,-0.009678126038358291,-0.004072192295720639,-0.001400477114982688,2.6656178233312198,7.80949745798397,0.4791698456989381
1731474158.4200966,-0.31811031699180603,0.5085797905921936,-9.998974800109863,-0.01052761507274995,-0.0016294674943455214,-0.0016235862239697522,2.6659590794730277,7.809787238087761,0.47909943319445375
1731474158.4701083,-0.2963423728942871,0.5248386859893799,-9.973089218139648,-0.011248822680650961,0.0005842264526049474,-0.0018433679952392997,2.6497134660468906,7.665018764448847,0.4845072946096423
1731474158.5199509,-0.2963423728942871,0.5248386859893799,-9.973089218139648,-0.011847294309918367,0.002564035648428095,-0.002059471413073612,2.6631474353477484,7.675985142119458,0.48172792848964985
1731474158.5199509,-0.2880183458328247,0.5108221173286438,-10.006240844726562,-0.012329200058547181,0.004306434391472588,-0.0022715107620322247,2.663228116964849,7.676051095538588,0.48171120243326604
1731474158.5699735,-0.2980497181415558,0.49068212509155273,-9.973512649536133,-0.012701292475632751,0.005809215913947495,-0.002479073340965152,2.676663942628802,7.687054484114983,0.47891943908447715
1731474158.6198955,-0.2980497181415558,0.49068212509155273,-9.973512649536133,-0.012970823511095313,0.007071570913456592,-0.002681766021001383,2.6901406632981804,7.698133858832749,0.47610602506833544
1731474158.6198955,-0.31672346591949463,0.5230117440223694,-9.992152214050293,-0.013145395907611695,0.008094137728953224,-0.0028791764354785428,2.690239371299906,7.698215172576681,0.4760853686402655
1731474158.6698563,-0.3087119460105896,0.5085582733154297,-10.039146423339844,-0.013232782225604655,0.00887888229974474,-0.003070902515950507,2.6730712401818604,7.555143359150551,0.48163218966997384
1731474158.719787,-0.37044280767440796,0.5171928405761719,-9.983965873718262,-0.013240718069360773,0.009428888693699611,-0.003256746764415277,2.6863348237079485,7.5656683950973385,0.47884246017500526
1731474158.769825,-0.35450124740600586,0.50801682472229,-9.950888633728027,-0.013176628602177212,0.009748220311106,-0.0034367807239499243,2.6694361403856073,7.42724237224391,0.48428243095624296
1731474158.8206687,-0.35450124740600586,0.50801682472229,-9.950888633728027,-0.013047364928946106,0.00984186156042893,-0.0036110734575269653,2.682707860388783,7.437408906101727,0.48146718775290526
1731474158.8206687,-0.3457523584365845,0.5308553576469421,-10.02107048034668,-0.012859126926918383,0.009715659103586915,-0.0037794205775488663,2.6827880542333533,7.437470492698946,0.4814501266735305
1731474158.8708599,-0.3457523584365845,0.5308553576469421,-10.02107048034668,-0.012617557026328503,0.009376193526300558,-0.003941472959008782,2.695829074047822,7.447509639028543,0.4786673331382489
1731474158.8708599,-0.3598632216453552,0.5240755081176758,-9.973990440368652,-0.012327839564926685,0.008830608841859896,-0.004097070561375347,2.695908867314182,7.447571212143693,0.4786502550550933
1731474158.9206185,-0.3598632216453552,0.5240755081176758,-9.973990440368652,-0.011994720241881494,0.008086510846059367,-0.004246300289497493,2.708735106661325,7.457489916962236,0.4758967272480093
1731474158.9206185,-0.37419551610946655,0.5006221532821655,-9.971975326538086,-0.011622463986693277,0.0071519684962842115,-0.004389266552209972,2.7088144161650116,7.457551379569794,0.47587964945428407
1731474158.970634,-0.3892771303653717,0.5268489718437195,-10.022506713867188,-0.011214788429900134,0.006035555483445977,-0.004525957899436006,2.6908126275128663,7.3208014893697655,0.4814913185533878
1731474159.0204418,-0.3892771303653717,0.5268489718437195,-10.022506713867188,-0.010774784058817561,0.004746330174664373,-0.004656394845318617,2.703571814935952,7.3302935745996765,0.47872504640217484
1731474159.0204418,-0.42074161767959595,0.5047159194946289,-9.953629493713379,-0.010304835797760993,0.0032937344343104908,-0.0047808298346988885,2.7036793972895468,7.3303737438560805,0.4787016481920098
1731474159.0705018,-0.42074161767959595,0.5047159194946289,-9.953629493713379,-0.009806544986371415,0.0016875435262497743,-0.004899643023405897,2.685839534520063,7.198055784867678,0.48423356075684754
1731474159.0705018,-0.4061630666255951,0.5313308238983154,-9.978107452392578,-0.009280682241338963,-6.211845573381668e-05,-0.005013015979526506,2.6859155742874115,7.198109963992707,0.48421695769008766
1731474159.1203768,-0.4061630666255951,0.5313308238983154,-9.978107452392578,-0.00872726687008876,-0.0019448615169734115,-0.005120801530404492,2.668704117111713,7.071049395670453,0.48955940014997645
1731474159.1203768,-0.40526318550109863,0.5140536427497864,-10.022367477416992,-0.00814575557503849,-0.00395019946701359,-0.005222686884156369,2.6687841104981893,7.0711037713017095,0.4895418630093783
1731474159.170345,-0.3965300917625427,0.502784788608551,-9.966509819030762,-0.007535222471808342,-0.006067614810415721,-0.0053184213368467695,2.681223755348564,7.079558483547107,0.4868060191257765
1731474159.2203305,-0.3965300917625427,0.502784788608551,-9.966509819030762,-0.006894503304751647,-0.00828648555304676,-0.0054078719688612715,2.693695620927452,7.088029434439747,0.48404580513272283
1731474159.2203305,-0.38581791520118713,0.508468508720398,-9.955740928649902,-0.0062223324292601835,-0.010596021088750726,-0.00549085806770537,2.6937990028563057,7.0880996141500985,0.48402285288499697
1731474159.2702694,-0.3934820294380188,0.535594642162323,-9.982986450195312,-0.005517465338856498,-0.012985321344592491,-0.005566987930914421,2.706176004199332,7.096490176521236,0.4812665581557542
1731474159.3201983,-0.35386738181114197,0.5342658758163452,-9.970437049865723,-0.004778793411961928,-0.015443561543437737,-0.005635676878412254,2.6881349232810177,6.970935173390291,0.48672956551424384
1731474159.3701587,-0.3599652647972107,0.5136325359344482,-9.988588333129883,-0.004005501197452163,-0.01796017993080474,-0.005696266306842909,2.7004523756077785,6.978810001972502,0.4839591198221349
1731474159.4200087,-0.32312655448913574,0.5253065824508667,-10.006949424743652,-0.0031972700435158718,-0.020524927621663296,-0.005748149051276595,2.6826669463072252,6.857293952550564,0.4893252377080163
1731474159.4701254,-0.32851725816726685,0.5242536067962646,-9.958294868469238,-0.0023544688918820866,-0.023127829995514236,-0.0057908727977939315,2.694813280456802,6.864566088478826,0.48656669731013646
1731474159.5200732,-0.2989529073238373,0.5134327411651611,-9.978981018066406,-0.00147829741182636,-0.025759180584107123,-0.005824123515153869,2.707034042105365,6.871824415871583,0.4837756165862122
1731474159.5699933,-0.2976040542125702,0.528435468673706,-10.035711288452148,-0.0005708830180051641,-0.028409556136887396,-0.005847658691429799,2.71915720587561,6.87895902944934,0.4809917483558636
1731474159.6201284,-0.2584826648235321,0.5214108228683472,-9.999695777893066,0.0003646410716779371,-0.031069834838696943,-0.005861429452695468,2.700579914586527,6.8847867529709434,0.4864811631754227
1731474159.6698892,-0.29298895597457886,0.5123870372772217,-9.98195743560791,0.0013240780507770397,-0.03373122500087204,-0.005865748410548604,2.712572486170785,6.891756486749886,0.4837035987945386
1731474159.7198591,-0.29298895597457886,0.5123870372772217,-9.98195743560791,0.002302233478857652,-0.03638525672160756,-0.005861201140064814,2.72467340174484,6.898698803350011,0.48088732059475814
1731474159.7198591,-0.2805013358592987,0.5189118385314941,-9.997715950012207,0.0032931373984346384,-0.03902374750466974,-0.005848443040036247,2.7247525482305712,6.898743897808714,0.48086885659252165
1731474159.7697053,-0.25231388211250305,0.526025652885437,-9.983038902282715,0.0042902311911006885,-0.04163882024360542,-0.005828133117648773,2.7056929542579504,6.904136432448678,0.48643453091115524
1731474159.8196115,-0.2625800669193268,0.5331252813339233,-9.989421844482422,0.005286389959955142,-0.04422298762211026,-0.00580095214508264,2.717881804616896,6.91097578700183,0.4835775998742938
1731474159.870672,-0.25197145342826843,0.5226522088050842,-10.016423225402832,0.006273911487097441,-0.04676924270793337,-0.00576762021512928,2.7298643912247478,6.917576415097156,0.4807578311479852
1731474159.9206076,-0.2829984724521637,0.5082409381866455,-9.991646766662598,0.007244620527109204,-0.0492710758397982,-0.005728956717031335,2.741871518704522,6.924061023875476,0.47792187902889127
1731474159.9705005,-0.28480449318885803,0.5353925824165344,-9.947487831115723,0.008190102996756696,-0.05172241629464092,-0.00568588561651344,2.722234886696123,6.9290109908197675,0.48358846716283665
1731474160.0204332,-0.2747306227684021,0.5366898775100708,-10.02096939086914,0.009101981155319384,-0.05411762347688752,-0.0056392881242034645,2.7045078781480645,6.9343931922662705,0.488790328471938
1731474160.0705328,-0.2890772521495819,0.5572153329849243,-9.990310668945312,0.009972104637711341,-0.05645159679742759,-0.005589934906150508,2.7152624801791982,6.939916213176608,0.48623284308382836
1731474160.120394,-0.2890772521495819,0.5572153329849243,-9.990310668945312,0.010792658375044905,-0.05871992333663367,-0.005538600772896811,2.7270796790679275,6.945834950957437,0.48341531048490033
1731474160.120394,-0.30816128849983215,0.5108066201210022,-9.969518661499023,0.011556283658669737,-0.06091893093624462,-0.0054860969971693,2.7271605120557356,6.945874887222732,0.4833960123703594
1731474160.1703773,-0.3075338900089264,0.5318730473518372,-9.989680290222168,0.01225623107066747,-0.06304555646108868,-0.005433156611985969,2.738957400589569,6.951617328767005,0.4805764964820334
1731474160.220353,-0.3376113772392273,0.514896035194397,-9.994827270507812,0.01288651772098928,-0.06509713109370927,-0.005380375831444878,2.719534066977895,6.955812995337463,0.48615603189798834
1731474160.2703774,-0.34983736276626587,0.5286862254142761,-9.962014198303223,0.013442099609479298,-0.06707126543489421,-0.005328251183275095,2.73133609346403,6.961257081459405,0.48332762894008224
1731474160.3201654,-0.3544542193412781,0.5517596006393433,-9.99022388458252,0.013919051347907383,-0.06896586575367572,-0.005277177891123541,2.7121571467739125,6.845427067128379,0.48884509764956363
1731474160.370143,-0.3516252934932709,0.5374683141708374,-9.990341186523438,0.014314670880898616,-0.0707792361082519,-0.00522742175205189,2.693806311814299,6.744197547656638,0.49414889579117355
1731474160.4202018,-0.35329899191856384,0.519231379032135,-9.9598970413208,0.014627455946655684,-0.07251015093937573,-0.005179147299676674,2.7055101675332223,6.748358829992821,0.49133754054452977
1731474160.4702244,-0.3345542550086975,0.5284436941146851,-9.966591835021973,0.014856985923612075,-0.07415778292280059,-0.005132400108301008,2.717223921831153,6.752326693276198,0.48851976066798464
1731474160.5200076,-0.3611922562122345,0.5078816413879395,-10.020652770996094,0.015003767959490006,-0.07572156327903366,-0.00508705831626744,2.7289494693777017,6.756098934028454,0.48569535541173015
1731474160.570008,-0.3498118817806244,0.5143244862556458,-10.008946418762207,0.01506912440273896,-0.07720107911932797,-0.005042969849610497,2.7099619692461627,6.662011373495267,0.4911417051747358
1731474160.6198819,-0.33152875304222107,0.5191381573677063,-9.96742057800293,0.015055120269807211,-0.0785960160839753,-0.005000167508058085,2.7216553840726045,6.665058098663784,0.48832154618009094
1731474160.6699362,-0.3189314603805542,0.520063042640686,-9.994635581970215,0.014964412726760594,-0.07990616375882989,-0.004958852844131489,2.7030597862429637,6.588894680763422,0.4936746559077884
1731474160.7198498,-0.31146132946014404,0.49782794713974,-9.991044998168945,0.014800007703236423,-0.08113144708653684,-0.004919245109107845,2.7147053321081747,6.591280632987816,0.4908628607996502
1731474160.7696915,-0.27925825119018555,0.5191643238067627,-9.976333618164062,0.014565016329663245,-0.08227190599915828,-0.004881536318183336,2.6962154564549774,6.527119302466738,0.49617878219027695
1731474160.8196826,-0.26903486251831055,0.5131709575653076,-9.989280700683594,0.014262418916479697,-0.0833276696809585,-0.004845892383141479,2.707826967781453,6.528883020139891,0.49337191594192914
1731474160.8696597,-0.2614664137363434,0.5186227560043335,-10.001703262329102,0.013894837079285573,-0.08429899501048214,-0.00481244429327176,2.689782226200324,6.474721688808784,0.4985688177107699
1731474160.9207711,-0.2614664137363434,0.5186227560043335,-10.001703262329102,0.013464394681612556,-0.08518632338263703,-0.0047813493595733145,2.7016541609887965,6.475907692952368,0.4956949843122328
1731474160.9207711,-0.2740640342235565,0.5009732246398926,-9.956851959228516,0.012972715144513043,-0.08599029481216441,-0.004752844378126459,2.7017246925531446,6.475914057508711,0.4956778987799195
1731474160.9705622,-0.274027019739151,0.5083372592926025,-10.000702857971191,0.012421029182873224,-0.08671170454701527,-0.004727164103709666,2.6837597246463125,6.435994171713204,0.5008462678122587
1731474161.02048,-0.274027019739151,0.5083372592926025,-10.000702857971191,0.01181032325889842,-0.08735144391556803,-0.004704464401777138,2.666681892046239,6.410196718672151,0.5057949870707795
1731474161.02048,-0.2422710508108139,0.5382094979286194,-10.02502155303955,0.011141424353481668,-0.08791051651072947,-0.004684927945900057,2.6667333898361245,6.41019869272486,0.5057825026669598
1731474161.070523,-0.2966766655445099,0.5066756010055542,-9.966814994812012,0.010415003584544436,-0.08839013766243749,-0.004668908778898136,2.6780689181971136,6.410523246398165,0.5030318211076554
1731474161.1204453,-0.24885393679141998,0.5543649792671204,-9.974495887756348,0.009631617000309007,-0.08879182424789289,-0.004656868452629363,2.6896095331972565,6.410629261941896,0.5002257393388784
1731474161.1704516,-0.2737577557563782,0.5325854420661926,-10.017370223999023,0.008791790420166245,-0.08911745949205034,-0.004649191738724128,2.700969961041041,6.410512987365206,0.49745749201269845
1731474161.2202854,-0.2737577557563782,0.5325854420661926,-10.017370223999023,0.007896061320921308,-0.08936934664126667,-0.004646199307095009,2.683189871266662,6.387004383286765,0.5025516045845281
1731474161.2202854,-0.2906055152416229,0.5151991844177246,-9.989680290222168,0.006945042437605997,-0.08955016683255089,-0.004648332413674401,2.6832623187689797,6.387001064973101,0.5025339077160995
1731474161.2703397,-0.3137006163597107,0.5183002948760986,-9.986680030822754,0.005939576689738697,-0.08966283306375082,-0.004656185041695654,2.6945369284639904,6.386374334544039,0.49977588678721047
1731474161.3202085,-0.3137006163597107,0.5183002948760986,-9.986680030822754,0.004880934510884144,-0.08971035572044686,-0.004670348581382204,2.6769992237112485,6.376198348847587,0.5047975662085417
1731474161.3202085,-0.3133438229560852,0.5345419645309448,-10.003192901611328,0.0037709646602945473,-0.0896957974436858,-0.004691300308990796,2.6770745902626674,6.3761918379952425,0.5047790654401672
1731474161.370244,-0.3098906874656677,0.528404951095581,-10.000290870666504,0.002612123859812195,-0.0896223128607804,-0.004719431694342175,2.660037189024043,6.376120003425948,0.5096596055898439
1731474161.4202275,-0.3098906874656677,0.528404951095581,-10.000290870666504,0.0014074064974118855,-0.08949320009623474,-0.004755127947821158,2.6712827638248675,6.374836134808028,0.5068862303061781
1731474161.4202275,-0.33454248309135437,0.49304723739624023,-9.936529159545898,0.00016027320083491776,-0.08931186684792296,-0.004798745781596206,2.671353156255061,6.374827387272132,0.5068688350726533
1731474161.470167,-0.3619610667228699,0.5299280881881714,-10.047443389892578,-0.0011253185872850068,-0.08908170411536542,-0.004850483055550074,2.6823905021417045,6.373346479305502,0.5041350278915736
1731474161.5199888,-0.36124423146247864,0.5293492674827576,-9.995766639709473,-0.002444769259446678,-0.08880601528072986,-0.004910400801279982,2.693553361141689,6.371627725868792,0.5013569400386739
1731474161.570011,-0.3769206404685974,0.5511707663536072,-9.91990852355957,-0.003792703465883511,-0.08848810909157422,-0.004978552462864493,2.675840516575104,6.375961584918489,0.5063577961044915
1731474161.6198852,-0.3783719837665558,0.543317973613739,-9.976374626159668,-0.005162942351900882,-0.08813145692828794,-0.005054819464572984,2.6868742884286796,6.373838450958005,0.5035847833436234
1731474161.6698837,-0.24439649283885956,0.7247949242591858,-9.980547904968262,-0.006548676091786775,-0.08773993731128477,-0.005138644543175927,2.6978930836712918,6.371496022672504,0.5007991488833967
1731474161.7198694,0.5133981704711914,1.6614665985107422,-9.919093132019043,-0.007943711956820955,-0.08731928252767178,-0.005229044457601265,2.6798951827664546,6.385844745605871,0.5058287027822781
1731474161.769799,0.2999531030654907,1.1952157020568848,-10.016883850097656,-0.009345665158187409,-0.08688066851983971,-0.0053247055704019625,2.6907430649093578,6.383153000667503,0.5030522790074821
1731474161.8197489,0.4892212450504303,1.505788803100586,-9.938413619995117,-0.010759355251931241,-0.08644406970977135,-0.005424060763271227,2.701588733532718,6.380239342491472,0.5002565913281207
1731474161.8706505,-0.516516387462616,-0.022402653470635414,-9.965340614318848,-0.012197099200885094,-0.08603744828228435,-0.005525395497705372,2.683438867689598,6.401515163260782,0.505267722956652
1731474161.9206002,-0.516516387462616,-0.022402653470635414,-9.965340614318848,-0.013674711320764615,-0.0856905415318371,-0.005626858317379838,2.6656726123696415,6.435555188609836,0.5101604709399554
1731474161.9206002,-0.9550522565841675,-0.21024510264396667,-10.16689682006836,-0.01520540983375736,-0.08542649252762426,-0.005726634616114831,2.6657366585900015,6.435535870419983,0.5101436448388906
1731474161.9705899,-0.7593311667442322,-0.04050649330019951,-10.03207015991211,-0.016795151955598404,-0.08525678766697076,-0.005823592134408667,2.676185972097887,6.4322720147906605,0.5073857274713868
1731474162.0203743,-0.5015047788619995,0.2697582244873047,-10.028075218200684,-0.018441271272115936,-0.08518133315254207,-0.005917814227285876,2.658440417083459,6.455537045450319,0.5122262354913678
1731474162.0706327,-0.6376875638961792,0.10086476802825928,-9.939265251159668,-0.02013404283585856,-0.08519135926659349,-0.006010318386904281,2.668887753259934,6.451876951222141,0.5094152225329639
1731474162.1203902,-0.4812456965446472,0.29825708270072937,-9.977543830871582,-0.021859169022313253,-0.08527247491189811,-0.006102292314530408,2.679200269845337,6.44802952497017,0.5066108314734957
1731474162.1703827,-0.5795964598655701,0.24074093997478485,-9.958183288574219,-0.023599444024661693,-0.08540666573798328,-0.006194558631644342,2.689269917210606,6.444042365634065,0.5038422206178357
1731474162.2203078,-0.508014976978302,0.46040502190589905,-9.957934379577637,-0.025335665613538772,-0.08557375509282207,-0.0062874324762308914,2.6991596764258405,6.46600326544305,0.5087788750003572
1731474162.2702415,-0.508804440498352,0.4490143060684204,-9.982624053955078,-0.02704731409930752,-0.08575298152738137,-0.006380767539364045,2.7091905012140023,6.461652013490637,0.5059857836041115
1731474162.320172,-0.48865872621536255,0.4541880786418915,-9.978496551513672,-0.028713178788520432,-0.08592444814374495,-0.0064740746079394885,2.7191825988300837,6.457074014168198,0.5031681845111452
1731474162.370213,-0.5410983562469482,0.4174778163433075,-9.919493675231934,-0.030311912658188202,-0.08606989711732446,-0.00656662506889316,2.7288278657623253,6.47752666968658,0.5081348704280669
1731474162.4201007,-0.47556886076927185,0.47924375534057617,-9.938119888305664,-0.03182236866920789,-0.08617280395254477,-0.006657366056821797,2.7386925906942534,6.472598660327857,0.5053084806949057
1731474162.47022,-0.47460830211639404,0.529241681098938,-10.030539512634277,-0.03322388119922897,-0.08621841616794515,-0.006744821334281883,2.7484616276947085,6.467462565614125,0.5024694930809953
1731474162.5199964,-0.4850676357746124,0.5224998593330383,-9.974165916442871,-0.03449666421999138,-0.08619407600965737,-0.006827340130047114,2.7578092269674754,6.486196540538093,0.507470870987954
1731474162.5699408,-0.48955443501472473,0.4771479666233063,-9.996931076049805,-0.03562212688862214,-0.08608949150122466,-0.006903475298267294,2.7673828481016995,6.480731038352978,0.5046358696549963
1731474162.6199024,-0.4665283262729645,0.4885329604148865,-9.979948997497559,-0.03658299836324949,-0.0858965974195334,-0.006972084207214398,2.776591157261942,6.497672272566379,0.5095418183883739
1731474162.669962,-0.46965348720550537,0.5105751752853394,-9.998185157775879,-0.03736343866504227,-0.08560920713040449,-0.007032258401080161,2.7856790888740246,6.512715572626536,0.514276566606806
1731474162.7198188,-0.4509274959564209,0.5246589779853821,-10.004263877868652,-0.037949212394770115,-0.0852228465986857,-0.007083313830735592,2.794984155583939,6.506757649467314,0.5114474302228138
1731474162.7698064,-0.4414564073085785,0.5083518624305725,-9.974061965942383,-0.038327861258293544,-0.0847347675533288,-0.0071248221948960275,2.8041915375119504,6.5005900176030424,0.5086014568251216
1731474162.8197534,-0.41812509298324585,0.5166147947311401,-9.975350379943848,-0.038488866870553064,-0.08414390001394415,-0.007156558042346436,2.8129741281989764,6.514228913653402,0.5133628518326903
1731474162.8696876,-0.38708367943763733,0.5227304100990295,-9.974908828735352,-0.038423836514762715,-0.08345069725879939,-0.00717835568027511,2.821990648830805,6.507713084131036,0.5105110805121431
1731474162.9196005,-0.36882284283638,0.5231413841247559,-9.979649543762207,-0.03812672044135179,-0.08265699023528142,-0.007190014154117439,2.830568014531296,6.5190971887727445,0.5151987738728393
1731474162.970591,-0.3273898661136627,0.5379171371459961,-10.020581245422363,-0.03759403264598932,-0.08176588950684784,-0.007191339701051682,2.839572374009124,6.512091230157778,0.5122829644279026
1731474163.0204976,-0.3707225024700165,0.505232036113739,-9.976547241210938,-0.036824990909198115,-0.08078167869849306,-0.007182285689758075,2.8483255594926384,6.505002430540152,0.5093999281874917
1731474163.070438,-0.3476724922657013,0.5362069010734558,-9.949875831604004,-0.035821447592216595,-0.07970965032038413,-0.007162992169482271,2.856949090897662,6.497746082133916,0.5065120352185921
1731474163.1203568,-0.3835640251636505,0.5246970653533936,-9.991329193115234,-0.03458760168851553,-0.07855593365137697,-0.007133617521088989,2.8651356098014737,6.507990376807394,0.5113296846956423
1731474163.1703653,-0.3614824414253235,0.5287243723869324,-9.99287223815918,-0.03312964116936655,-0.0773273829280175,-0.00709422516683164,2.873611200045039,6.500385240489567,0.50842854839872
1731474163.2202575,-0.377625972032547,0.5039097666740417,-9.963214874267578,-0.03145543364784988,-0.07603145779013881,-0.00704487054244801,2.8816136491113697,6.508326986503541,0.5131730640036807
1731474163.2702463,-0.3766827881336212,0.5053097605705261,-10.006082534790039,-0.029574280343460525,-0.07467601927095083,-0.006985673419325221,2.889945496114287,6.500383772412492,0.5102623749639905
1731474163.3201778,-0.37935033440589905,0.516689121723175,-9.970401763916016,-0.027496694953342088,-0.07326911344686743,-0.006916818216094438,2.8978117558414067,6.506214064033206,0.5149261727589772
