Timestamp,IMU_Linear_Acc_X,IMU_Linear_Acc_Y,IMU_Linear_Acc_Z,Filtered_X,Filtered_Y,Filtered_Z,Pose_X,Pose_Y,Pose_Z
1730865947.083904,-1.4505513906478882,1.3764179944992065,-9.885746955871582,0.0029623114559867575,-0.0037005819226956518,0.0010693361735119086,0.8626838174068988,-3.619523086106511,0.891139105263194
1730865947.1338828,-1.483825922012329,1.3574954271316528,-9.83907413482666,0.004522837540619508,-0.006243745977542617,0.0017836723593676646,0.876562760613557,-0.277519989589924,0.8903422148962902
1730865947.1838188,-1.5220105648040771,1.4168083667755127,-9.791072845458984,0.006485680980718839,-0.009865188550141664,0.0027784781775517927,0.8750519986207748,-0.6541090304791392,0.8892740503910957
1730865947.2339377,-1.466209888458252,1.5062932968139648,-9.781386375427246,0.008830095891234369,-0.014787334659314724,0.0041110662290673155,0.8238605045756288,-13.416671983956613,0.8530778333417324
1730865947.2838902,-1.7597566843032837,1.3032793998718262,-9.741059303283691,0.011519158229473076,-0.021227174186257004,0.005847026797657287,0.870123663252132,-1.8774648774913336,0.8803361675961642
1730865947.3337905,-1.7597566843032837,1.3032793998718262,-9.741059303283691,0.012980386924407634,-0.02507980303674412,0.006888497337300209,0.8669008561247336,-0.5625561663333292,0.8822042313054033
1730865947.3337905,-1.6816997528076172,1.2365984916687012,-9.753911018371582,0.01451562153397772,-0.029382838542052828,0.008058069021170303,0.866871886246153,-0.5660714959221754,0.8821859974889421
1730865947.3838024,-1.757475733757019,1.2633165121078491,-9.788309097290039,0.016124632643740765,-0.03415258252562214,0.009365100716370912,0.8613948136542807,-1.2331766791895908,0.8787377106484088
1730865947.4338114,-1.9410609006881714,1.2342725992202759,-9.715015411376953,0.017809019856597358,-0.03940073753796331,0.010818589085037428,0.8942725230139349,-1.9019034416217773,0.8841561368732419
1730865947.4836771,-1.7980672121047974,1.2204742431640625,-9.816902160644531,0.019572506496659134,-0.045134394506173126,0.012426948203812169,0.9027121323805188,-2.568844808626212,0.8829856538194257
1730865947.5337312,-1.6201061010360718,1.2407430410385132,-9.861479759216309,0.02142101940659493,-0.05135612764132706,0.01419773596918047,0.9112198951953994,-3.237245894965669,0.8818460794714738
1730865947.5837328,-1.6417081356048584,1.2559638023376465,-9.932706832885742,0.023361543997132122,-0.05806420485475501,0.016137030899016677,0.8899047140499622,-3.9058922027181477,0.8847962586854573
1730865947.6336718,-1.4783844947814941,1.2720919847488403,-9.962823867797852,0.025400420169721206,-0.06525298359067362,0.01824863257443509,0.8910441063556139,-4.575110061095416,0.8844447976263039
1730865947.6836586,-1.4127205610275269,1.249739170074463,-9.95790958404541,0.027541978895375012,-0.07291336814445938,0.02053349025237236,0.8922488484461675,-5.243987655554575,0.8841421165685962
1730865947.7336457,-1.4345476627349854,1.2176520824432373,-9.960887908935547,0.02978752412221049,-0.0810331084586205,0.022989545694083617,0.8822714166922004,-5.9094533484893175,0.8850204604097391
1730865947.7836764,-1.4345476627349854,1.2176520824432373,-9.960887908935547,0.0321348393317373,-0.0895968776040322,0.025611921989406886,0.8814041782097336,-6.578541918127745,0.8849319477583015
1730865947.7836764,-1.6071974039077759,1.2252144813537598,-9.856568336486816,0.03457854453248413,-0.0985863095691156,0.02839334315941931,0.8813994253745733,-6.582388652708195,0.884931624119793
1730865947.8337014,-1.6071974039077759,1.2252144813537598,-9.856568336486816,0.03711118920922843,-0.1079801965962024,0.031324821632405624,0.8806193332022155,-7.251621084485254,0.8849146683461292
1730865947.8337014,-1.532752275466919,1.1856809854507446,-9.923158645629883,0.039724451463146855,-0.11775478230921926,0.03439639669883813,0.8806156709942127,-7.254963177787828,0.8849147801493381
1730865947.8835726,-1.49844229221344,1.2116985321044922,-9.878271102905273,0.04240960846800443,-0.1278839818110188,0.03759745279080158,0.8767242728013901,-7.919326276259746,0.8849004153969696
1730865947.9345996,-1.521494746208191,1.106750726699829,-9.946966171264648,0.04515727368260217,-0.1383394912276466,0.04091666025680454,0.8755776219580893,-8.602366056781493,0.8849348709073618
1730865947.9846032,-1.521235466003418,1.066617727279663,-9.89339542388916,0.04795716539245238,-0.1490907114612633,0.044341908240619746,0.8748909305652893,-9.27203503049812,0.8845322944683832
1730865948.034629,-1.6524330377578735,0.9745575785636902,-9.893824577331543,0.05079834733472328,-0.16010440526337572,0.047860382142047825,0.8736000788604346,-9.941671119294348,0.8848356511707309
1730865948.0845356,-1.714928388595581,0.9513433575630188,-9.833707809448242,0.0536699738763804,-0.1713442667240746,0.051458855423266905,0.8728830465205833,-10.612529033158498,0.8850747500491185
1730865948.1347377,-1.6118273735046387,0.9223973155021667,-9.884674072265625,0.056562207861840366,-0.1827706887308063,0.05512411283316404,0.8722998255339164,-11.288894027886828,0.8854502670343415
1730865948.1846237,-1.3661701679229736,0.9260615110397339,-9.857068061828613,0.05946635057076331,-0.19434087757251364,0.05884322969774499,0.8718677433553446,-11.958130057645759,0.8859635768830509
1730865948.2345996,-1.2212275266647339,0.8862243294715881,-9.932165145874023,0.06237349972047381,-0.20600925973182113,0.06260357250115504,0.8720947875571115,-12.63174847551258,0.8852543777787417
1730865948.2835228,-1.0323896408081055,0.8774198889732361,-9.941996574401855,0.06527231546772648,-0.2177279745666849,0.06639257090374795,0.8719047443004144,-13.290937232574734,0.8856345882353899
1730865948.3344536,-1.2495695352554321,0.9381879568099976,-9.924843788146973,0.0681472499078939,-0.22944739889829976,0.07019741816061573,0.8706382854910496,-13.974635119020467,0.8852882801135697
1730865948.3844686,-1.4342632293701172,1.0002256631851196,-9.9284086227417,0.07097853243302028,-0.24111693390673444,0.07400495871444979,0.8703410784801716,-14.648651422718295,0.8856814235746175
1730865948.4344435,-1.6491162776947021,1.1198151111602783,-9.88106918334961,0.07374425258607523,-0.2526862187015285,0.07780186371113418,0.8702246924541417,-15.321395276064058,0.8862622644475219
1730865948.4846096,-1.8150001764297485,1.2128596305847168,-9.911548614501953,0.07642347619339313,-0.26410665578872905,0.08157494692585295,0.8702972218806112,-16.004543355104424,0.8870538210072659
1730865948.5345068,-1.8747748136520386,1.2866096496582031,-9.855307579040527,0.07899903049117936,-0.27533297919989363,0.08531146159573612,0.8678434851164807,-16.678700881911457,0.8853694793412699
1730865948.5845046,-1.8972151279449463,1.2438414096832275,-9.890105247497559,0.08145923365109521,-0.28632446475469403,0.08899932961715257,0.8660849007624559,-17.352193220902244,0.8853193667141553
1730865948.6345894,-1.8699368238449097,1.2726092338562012,-9.829380989074707,0.08379840446175697,-0.2970454268699646,0.09262732786427372,0.8655476064768535,-18.03151670645794,0.885787692786055
1730865948.6844258,-1.9649289846420288,1.1705948114395142,-9.842905044555664,0.08601653162890423,-0.3074650219591136,0.09618527088144635,0.8648915688340171,-18.710054948987974,0.8853893769439718
1730865948.7343395,-1.755480170249939,1.117276906967163,-9.814167976379395,0.08811859446605896,-0.31755656846019903,0.09966419707295672,0.8646645465907914,-19.385420154991223,0.8859106468369278
1730865948.7843802,-1.755480170249939,1.117276906967163,-9.814167976379395,0.09011346563907545,-0.3272966099125539,0.10305650551120647,0.8639648905718301,-20.06516643994983,0.8854241688609032
1730865948.7843802,-1.648979902267456,1.0715574026107788,-9.870731353759766,0.09201233981597311,-0.3366641068429634,0.1063559539024444,0.8639638389534823,-20.0692828129931,0.885426783402162
1730865948.8343627,-1.619248390197754,1.0923936367034912,-9.766934394836426,0.09382719802119405,-0.34563997976408173,0.10955751640247237,0.8639077358321661,-20.747227067374297,0.8859936972579024
1730865948.8843756,-1.5719029903411865,1.1600306034088135,-9.814069747924805,0.09556965438687907,-0.3542069845141124,0.11265732302388896,0.8650387409623007,-21.428653704863237,0.8853845269068749
1730865948.9342463,-1.4718180894851685,1.2043366432189941,-9.855443000793457,0.09725008487015532,-0.36234998976955607,0.11565269603473294,0.8656602890933286,-22.1073308723055,0.8859555418195573
1730865948.9843962,-1.5622344017028809,1.2559999227523804,-9.844598770141602,0.0988769646612856,-0.3700565749956837,0.11854194890920478,0.8660303508351433,-22.794496397347512,0.8854557159603007
1730865949.0343103,-1.6065484285354614,1.3037285804748535,-9.91126537322998,0.10045668941177706,-0.37731764360030007,0.12132395693583836,0.8668992344853242,-23.476736805482695,0.8860921975408544
1730865949.084335,-1.6464300155639648,1.3352413177490234,-9.848318099975586,0.10199409765026328,-0.38412788376254814,0.1239977927207197,0.8680285400201477,-24.16484443943312,0.8870412540469189
1730865949.1342292,-1.7890230417251587,1.2793657779693604,-9.847938537597656,0.1034933958462248,-0.3904859706030853,0.12656260119187454,0.8654093165647188,-24.854781491087323,0.8889658826064333
1730865949.1843033,-1.9112098217010498,1.1769911050796509,-9.826825141906738,0.10495928152441994,-0.3963942458404193,0.12901775557099968,0.8659342393005254,-25.537772322508406,0.8903402027825928
1730865949.2342906,-1.7468112707138062,1.169215440750122,-9.872337341308594,0.10639805359750706,-0.40185779153913903,0.13136306243576418,0.8667214248055647,-26.222793498473127,0.8920387281030627
1730865949.2843397,-1.7610691785812378,1.1731765270233154,-9.90518856048584,0.10781791752867557,-0.4068833855318852,0.13359870745358815,0.8645850952684929,-26.91339863607627,0.8929365453967621
1730865949.3341703,-1.772855281829834,1.1963719129562378,-9.869773864746094,0.10922833048172785,-0.41147892061028657,0.1357249721682987,0.8649957839769171,-27.60097263176484,0.8948149852342179
1730865949.3842542,-1.7723252773284912,1.1582468748092651,-9.856871604919434,0.11063931994331616,-0.4156532752349948,0.1377420664741621,0.8656851460244402,-28.29464759184313,0.8970501073078978
1730865949.4341888,-1.5951693058013916,1.1924304962158203,-9.84045124053955,0.11206106106256403,-0.41941626819671946,0.13965026468608593,0.8651944505918883,-28.98370712878833,0.8965819988893062
1730865949.4842129,-1.4303251504898071,1.1096744537353516,-9.871488571166992,0.11350297163850642,-0.42277851282471357,0.14145012698741205,0.8659323884435912,-29.68222121502088,0.8985643513333509
1730865949.5342839,-1.4494115114212036,1.127644419670105,-9.831385612487793,0.11497215841842535,-0.42575114014058607,0.1431425778546262,0.8643472416994951,-30.374083270570416,0.9003719171671581
1730865949.5842733,-1.374488115310669,1.0864741802215576,-9.847817420959473,0.1164721192887521,-0.42834543999883246,0.14472891064492432,0.8647250258126866,-31.071280991881455,0.9028710771161021
1730865949.634126,-1.4525998830795288,1.0719263553619385,-9.802490234375,0.11800236005438845,-0.4305725525731695,0.14621085620338994,0.8648625148522396,-31.763284328747382,0.9039416379208605
1730865949.684152,-1.5784028768539429,1.0320987701416016,-9.840079307556152,0.11955887569160786,-0.4324432182430076,0.14759069198236136,0.8655985881562847,-32.46219923324491,0.9065014075571166
1730865949.734146,-1.5448294878005981,0.9901504516601562,-9.828018188476562,0.12113528386778695,-0.4339674977820425,0.14887126842984016,0.8664713981028394,-33.15887035518831,0.9035250517757935
1730865949.7841535,-1.5448294878005981,0.9901504516601562,-9.828018188476562,0.12272399908481477,-0.43515447860911194,0.15005591596508283,0.8675756369952057,-33.86385628894821,0.9048855978296
1730865949.7841535,-1.495914340019226,0.9905200004577637,-9.897010803222656,0.12431677427708193,-0.4360121096083789,0.1511482794725164,0.867586279252746,-33.869809717671835,0.9048986977528989
1730865949.8341901,-1.495914340019226,0.9905200004577637,-9.897010803222656,0.12590469236916016,-0.4365472716773252,0.15215202619951132,0.8672107675869626,-34.55928006240259,0.9030305810933404
1730865949.8341901,-1.5989469289779663,0.96947181224823,-9.889765739440918,0.1274781546499123,-0.43676598177745046,0.15307048054956185,0.8672166787706628,-34.564231250895055,0.9030361468298191
1730865949.8841543,-1.5989469289779663,0.96947181224823,-9.889765739440918,0.12902728076864517,-0.43667355789557954,0.15390645030033845,0.8677537336876051,-35.26199626669087,0.8985633831537498
1730865949.8841543,-1.5671354532241821,0.9694827198982239,-9.91878890991211,0.13054254609770488,-0.43627473006474915,0.15466225786505933,0.8677607539181943,-35.26756546546534,0.8985545220581306
1730865949.9341342,-1.4966825246810913,0.9941743016242981,-9.964380264282227,0.13201503405233908,-0.4355738030563265,0.15533970228183341,0.8688036837261984,-35.9654768421844,0.8976377665861253
1730865949.984129,-1.4800490140914917,0.969645619392395,-9.981051445007324,0.13343610890470076,-0.43457490269547583,0.15593982383560034,0.8701861050414319,-36.67019308666206,0.8971015709034303
1730865950.0342054,-1.459653377532959,1.016774296760559,-9.992463111877441,0.13479691534588883,-0.43328222841213904,0.15646262256536686,0.8718997743121752,-37.374302799798016,0.8969563146900723
1730865950.0840492,-1.5144121646881104,1.049118995666504,-9.973414421081543,0.13608813921512505,-0.4317003360431408,0.1569069496892712,0.8672031684685576,-38.079778726236846,0.895335845503266
1730865950.1340241,-1.6105612516403198,1.0086636543273926,-9.94045639038086,0.13730026217883803,-0.4298344880182856,0.1572706705842459,0.8678880292881418,-38.78375970386767,0.8951712229256416
1730865950.1840804,-1.5536221265792847,1.06661057472229,-9.94149398803711,0.13842423819972147,-0.4276909033358335,0.15755104598912234,0.8666734312272182,-39.49938289462281,0.8925458907880933
1730865950.2339597,-1.603241205215454,1.065562129020691,-9.964529037475586,0.13945210377492234,-0.42527687787710455,0.1577451128484546,0.8672596447824,-40.20134536301126,0.8920833545454525
1730865950.2839465,-1.879683494567871,1.0326447486877441,-9.866992950439453,0.1403774664055936,-0.42260088796268047,0.15784993652806634,0.8682055298674562,-40.91539715065146,0.8920087985139931
1730865950.3339956,-2.0737950801849365,0.9914940595626831,-9.809025764465332,0.1411967078938854,-0.41967251099593544,0.1578629969903466,0.8683552617481054,-41.62232065505904,0.8901677070543459
1730865950.3840535,-2.0737950801849365,0.9914940595626831,-9.809025764465332,0.1419109732870914,-0.41650205477463476,0.15778286034012262,0.8694407603630193,-42.338915436165706,0.8901987493684315
1730865950.3840535,-1.8243703842163086,0.9407444000244141,-9.798154830932617,0.14252734702016395,-0.41310012191549117,0.15760973935264155,0.8694493484095721,-42.343779887476146,0.890200321690031
1730865950.4339852,-1.8243703842163086,0.9407444000244141,-9.798154830932617,0.14305796530431417,-0.4094772606326329,0.1573456332758009,0.8702715652323375,-43.04751510151571,0.8869696931532535
1730865950.4339852,-1.6435387134552002,1.0102969408035278,-9.805895805358887,0.1435178135173489,-0.40564377787887446,0.15699419362374872,0.870279984482446,-43.052267890653354,0.8869645657479491
1730865950.4839067,-1.5730770826339722,1.1460793018341064,-9.76155948638916,0.1439225379437022,-0.40161001837215615,0.15656053672681497,0.8717144729313127,-43.761793734081614,0.8863938260997789
1730865950.5338778,-1.402429223060608,1.2469379901885986,-9.80485725402832,0.1442865766738407,-0.39738731614535244,0.156051102486694,0.8735103127326241,-44.47457555870865,0.88620823671847
1730865950.5837739,-1.2801685333251953,1.27745521068573,-9.844583511352539,0.14462143300236452,-0.3929892499821589,0.1554734472098893,0.8756799870725457,-45.19311977286678,0.8864115343609007
1730865950.6338754,-1.3144124746322632,1.2810062170028687,-9.876189231872559,0.14493424823790607,-0.388432511305683,0.15483577875497237,0.8781974159514322,-45.90838202300977,0.8870000805916535
1730865950.6837897,-1.3720238208770752,1.2254197597503662,-9.91110610961914,0.1452272231443855,-0.3837370001489637,0.1541463275510404,0.8810933314032098,-46.628867256059706,0.887979211381703
1730865950.7338083,-1.4993278980255127,1.1518988609313965,-9.931300163269043,0.14549826013299325,-0.3789251998441544,0.15341278774445688,0.8725376518676955,-47.34610939374409,0.8875976902710652
1730865950.78379,-1.6006672382354736,1.0863429307937622,-9.86929702758789,0.1457425209466851,-0.374021067405761,0.15264198694253125,0.8738003783309929,-48.06930860871319,0.8883106421349892
1730865950.8337855,-1.81550133228302,1.01986563205719,-9.81452465057373,0.14595439386548992,-0.3690487557811311,0.15183997672014737,0.8753834618639571,-48.78441495248649,0.8880166379976783
1730865950.8837059,-1.9375649690628052,0.9927679896354675,-9.77560806274414,0.14612963214782165,-0.3640314715424677,0.15101256857693135,0.8771193329755553,-49.509364672990365,0.8888186835532175
1730865950.9336746,-2.0457820892333984,0.9714118242263794,-9.726194381713867,0.14626739035062408,-0.35899065839844,0.1501660107215862,0.8792063473794288,-50.22980856422211,0.8899897754583647
1730865950.9836621,-2.0869340896606445,1.0083929300308228,-9.737180709838867,0.14637168645218224,-0.3539456027638307,0.14930749953973635,0.8785561065142204,-50.95236102571569,0.888249154647928
1730865951.0336392,-2.0562994480133057,1.051559329032898,-9.758321762084961,0.14645197006426564,-0.34891350091900886,0.14844536498239752,0.8803253127799366,-51.67459548174428,0.8890915355505681
1730865951.083622,-1.9736506938934326,1.1039338111877441,-9.822582244873047,0.14652273413409994,-0.3439099321516954,0.14758883194897698,0.8853246063883314,-52.40271164731247,0.8882520835613484
1730865951.133597,-1.9302725791931152,1.1401413679122925,-9.887577056884766,0.14660232382836394,-0.33894953709674713,0.14674738347302949,0.8886676023202269,-53.12405223918241,0.889071453095607
1730865951.1835477,-1.8705997467041016,1.1601102352142334,-9.892549514770508,0.14671139607661304,-0.3340466471648835,0.14592993954223923,0.8919935377833003,-53.849866780191796,0.8882545104242207
1730865951.233644,-1.852792739868164,1.1702474355697632,-9.919771194458008,0.14687151120955189,-0.3292156975153222,0.14514418923931327,0.8959273553852549,-54.57925710351412,0.8890724571766567
1730865951.2836158,-1.850260853767395,1.1229956150054932,-9.914119720458984,0.14710408436147102,-0.3244713425043082,0.14439626578750525,0.8974044986668801,-55.3019417781257,0.8884766590648356
1730865951.3335752,-1.8229795694351196,1.0839333534240723,-9.910886764526367,0.14742971898289023,-0.3198282164142062,0.14369069664892825,0.9008983132274214,-56.030769339425795,0.8893464583761134
1730865951.3836124,-1.7985893487930298,1.0479875802993774,-9.888747215270996,0.14786776960017628,-0.31530039359959827,0.14303053689127226,0.9039287895383671,-56.76102216638351,0.8887240390200047
1730865951.4335694,-1.7535266876220703,0.9978740811347961,-9.872357368469238,0.14843592394813807,-0.31090075485092267,0.1424176456852036,0.9097978259333718,-57.48514853032006,0.8886142540431142
1730865951.4836032,-1.7225205898284912,0.9698752164840698,-9.863229751586914,0.14914973511729243,-0.3066404184656011,0.1418530292522619,0.9145152424849841,-58.221668673448065,0.8894153893219603
1730865951.533507,-1.668954610824585,0.9353963732719421,-9.8529052734375,0.15002214624635973,-0.30252828621429195,0.1413371506984643,0.9195826222120083,-58.954962592340436,0.8905676525132549
1730865951.583536,-1.6359572410583496,0.9215210676193237,-9.852986335754395,0.15106305051479418,-0.29857074396103234,0.14087015066953418,0.9250011200054026,-59.68564694181875,0.8920654911689533
1730865951.6334298,-1.6144894361495972,0.9229671359062195,-9.850465774536133,0.15227894119108976,-0.2947715518305993,0.14045197784353874,0.9139190591233867,-60.411184028647085,0.8887313747820395
1730865951.6834772,-1.6067534685134888,0.9610587358474731,-9.857247352600098,0.1536727458352278,-0.2911319740398126,0.14008244399159187,0.91640080343452,-61.14734406770681,0.8895543512453222
1730865951.7344527,-1.5976148843765259,1.0084751844406128,-9.867647171020508,0.1552438885056673,-0.28765120721927245,0.13976121279282885,0.915583122279778,-61.89114213192278,0.888653527107576
1730865951.7843916,-1.6114647388458252,1.0301212072372437,-9.874835968017578,0.15698853239753296,-0.2843270486272773,0.1394877313769427,0.917890510011925,-62.62644139875503,0.8894427338721705
1730865951.8344188,-1.5975745916366577,1.018343448638916,-9.889068603515625,0.1588999348862424,-0.2811565522677813,0.13926112910954874,0.9206031422856578,-63.36535138392855,0.8905846146580848
1730865951.8845086,-1.5975745916366577,1.018343448638916,-9.889068603515625,0.1609688296030684,-0.2781364121415643,0.13908011881659194,0.9166405855766458,-64.09774591800812,0.8886776209868396
1730865951.8845086,-1.6075562238693237,0.9683912396430969,-9.893061637878418,0.16318377511239635,-0.27526302461424906,0.13894293599706647,0.9166492669956389,-64.10230985341445,0.8886814894144974
1730865951.934418,-1.626556634902954,0.905511736869812,-9.897462844848633,0.1655315215638291,-0.2725322740173939,0.13884733301146002,0.9182482678456019,-64.83536771554817,0.8894747165424284
1730865951.9844997,-1.6508206129074097,0.8503293991088867,-9.890620231628418,0.16799746552650158,-0.26993906074700014,0.13879061265731407,0.9187114027127123,-65.57065494940457,0.888524192662956
1730865952.034278,-1.668717384338379,0.7852784395217896,-9.882685661315918,0.17056616935237034,-0.26747669392703755,0.13876970075616893,0.9206672506691659,-66.30523615229104,0.8892422740529076
1730865952.0843859,-1.666137456893921,0.7490000128746033,-9.847501754760742,0.17322184800940135,-0.26513633791665814,0.1387812975672738,0.9210844953154054,-67.04140252139989,0.8885681811260872
1730865952.134316,-1.666137456893921,0.7490000128746033,-9.847501754760742,0.1759487157797169,-0.2629066709122204,0.13882212271464317,0.9231974283321066,-67.78138566908439,0.8893247116097084
1730865952.134316,-1.6244356632232666,0.7482098340988159,-9.854060173034668,0.17873113190649598,-0.26077388666040846,0.13888915286380712,0.9232182348905505,-67.78798417916543,0.8893330117016155
1730865952.1843207,-1.5937052965164185,0.7874472141265869,-9.882034301757812,0.18155352532846383,-0.25872205595407205,0.13897968809991001,0.9257720747468399,-68.5262417406545,0.8904350092730781
1730865952.2342668,-1.5707736015319824,0.8576775789260864,-9.910017013549805,0.18440015097613832,-0.2567337909450108,0.13909119126989838,0.9191678017451017,-69.25802777281828,0.8885690646153732
1730865952.2842512,-1.5707736015319824,0.8576775789260864,-9.910017013549805,0.18725485414451204,-0.2547911296036533,0.1392210053371928,0.9176688670317952,-69.99215138699432,0.888503578599812
1730865952.2842512,-1.587791085243225,0.9232023358345032,-9.935588836669922,0.19010102653650857,-0.2528764197172982,0.13936611096903906,0.9176712674442397,-69.99830612127896,0.8885081389211109
1730865952.3342435,-1.5839658975601196,0.9715844392776489,-9.951668739318848,0.19292178821862965,-0.2509730639831038,0.13952297497737257,0.9181965608818512,-70.73419848257281,0.8892256037800814
1730865952.3842833,-1.5839658975601196,0.9715844392776489,-9.951668739318848,0.19570026521920728,-0.24906617258113348,0.13968744110482312,0.9141644920899558,1.0374092670253177,0.8882084972946555
1730865952.3842833,-1.6285433769226074,0.9795622229576111,-9.949352264404297,0.1984198586666261,-0.2471430182007886,0.13985469150528046,0.9141597026739215,1.0374919964466567,0.8882120774060711
1730865952.4342704,-1.6731714010238647,0.9589577913284302,-9.931402206420898,0.2010646016173827,-0.2451931430070919,0.14001934504991825,0.9138249668256633,1.0472646713615181,0.8888212365583051
1730865952.4843504,-1.7608195543289185,0.9085907340049744,-9.892904281616211,0.2036197387360488,-0.2432081526150874,0.14017570421047995,0.9139908699638302,1.0565313686975562,0.8897858312172146
1730865952.5342863,-1.8198007345199585,0.8613375425338745,-9.845653533935547,0.20607250615444986,-0.2411812485807444,0.14031816059939223,0.9117469484825028,1.1244025065905623,0.888029487663828
1730865952.5842535,-1.8743910789489746,0.8098325729370117,-9.812735557556152,0.20841294315991044,-0.2391065682663028,0.14044172910175606,0.9119405802283991,1.128506563470616,0.8887038610072958
1730865952.634168,-1.8814746141433716,0.8248398900032043,-9.78154468536377,0.21063449602455991,-0.23697854605199842,0.14054257875081871,0.9099373400009436,1.1489615792840782,0.8881155786571862
1730865952.6841817,-1.8178749084472656,0.9012826681137085,-9.799697875976562,0.2127341722940867,-0.23479162746722515,0.14061839387402014,0.9101062509544875,1.154368817192132,0.8888622289525306
1730865952.7341259,-1.7743693590164185,0.9895063042640686,-9.821540832519531,0.21471209837993765,-0.23254060802607476,0.14066843025893985,0.9080288156522529,1.1612315867605394,0.8881860298096148
1730865952.7841399,-1.7426655292510986,1.0704177618026733,-9.879551887512207,0.21657063507908028,-0.23022152264391318,0.1406932136997585,0.9081740936408405,1.1656429185230002,0.888957062045742
1730865952.834016,-1.7173658609390259,1.144403100013733,-9.899643898010254,0.21831346005178,-0.22783270017417362,0.14069397414544024,0.9082623986706001,1.1741624236834656,0.8882104116584753
1730865952.884022,-1.7238008975982666,1.201750636100769,-9.902915954589844,0.21994489665450895,-0.22537565066573967,0.14067205544379496,0.9091263208611597,1.178883173040777,0.8889935962113883
1730865952.9340377,-1.7645459175109863,1.1820310354232788,-9.86949348449707,0.22146957553562163,-0.222855597681926,0.14062857717308833,0.9091529945388606,1.1837260261661713,0.8889533499536975
1730865952.9839852,-1.7645459175109863,1.1820310354232788,-9.86949348449707,0.222892433984061,-0.22028150239427172,0.14056444637097015,0.909881661746343,1.1923639647344204,0.8895369851598376
1730865952.9839852,-1.83077871799469,1.1543887853622437,-9.82955265045166,0.22421892808310068,-0.21766559878379388,0.14048057793829474,0.9098893800668735,1.1923967630182903,0.8895429421115006
1730865953.0339887,-1.8594506978988647,1.0799541473388672,-9.79504680633545,0.22545534110050744,-0.21502262598568855,0.14037818679349456,0.9113427345033596,1.1971175886765566,0.8906229295868751
1730865953.0839276,-1.8404059410095215,1.018115758895874,-9.759230613708496,0.22660909635163295,-0.21236883404670953,0.1402591415125028,0.9133740548177444,1.2013475461973908,0.8920633276948525
1730865953.1339393,-1.7897979021072388,0.9865586757659912,-9.764646530151367,0.227688804797977,-0.2097208511966355,0.1401263075095973,0.9159755581872218,1.205047960905153,0.8938556403050915
1730865953.1840162,-1.698754072189331,1.0258070230484009,-9.786855697631836,0.2287038045825534,-0.20709475564037386,0.1399836848207554,0.9106919171055246,1.2068854124837112,0.8899681165081088
1730865953.2339149,-1.6195176839828491,1.096706748008728,-9.849236488342285,0.22966324685100303,-0.2045057342828034,0.139836190161437,0.9121165543321285,1.2099245126593439,0.8908766264059789
1730865953.2839737,-1.5690386295318604,1.1863417625427246,-9.894932746887207,0.23057501172704628,-0.20196842699985185,0.1396890911472634,0.9141297562888202,1.212473230721585,0.892142893624697
1730865953.3338645,-1.5596836805343628,1.2637195587158203,-9.941064834594727,0.23144483023834053,-0.19949772475455407,0.13954726447219837,0.9101200442037605,1.2200167426317168,0.8903973496767428
1730865953.384044,-1.59630286693573,1.3051685094833374,-9.960204124450684,0.2322759127935518,-0.1971096361914228,0.13941452142191132,0.9113167255881638,1.2237986431335302,0.8913499446450606
1730865953.4338489,-1.6284863948822021,1.3273265361785889,-9.94701862335205,0.23306916009150808,-0.1948218821395332,0.13929319368084842,0.9130652816790968,1.2270196291861994,0.8926283489648139
1730865953.4840422,-1.6553434133529663,1.316172480583191,-9.920696258544922,0.23382377088241277,-0.19265404736035863,0.1391840852110278,0.9095789226112799,1.234345239141107,0.8908124749477873
1730865953.5338588,-1.6599690914154053,1.2806527614593506,-9.860176086425781,0.23453791850737327,-0.1906272878028389,0.13908679812811464,0.9119476265414446,1.2482271792300434,0.8906332074801899
1730865953.583919,-1.6765570640563965,1.1801283359527588,-9.819402694702148,0.23520926656891933,-0.18876362159219479,0.13900034027811958,0.9140109050579016,1.2543899397358205,0.8914304380653374
1730865953.6338382,-1.6720153093338013,1.0732054710388184,-9.787087440490723,0.2358352957001592,-0.18708479396588,0.13892383047916226,0.9150627442415825,1.2594376509847056,0.8906520043445378
1730865953.6838663,-1.6663193702697754,0.9791675806045532,-9.763050079345703,0.23641348801533546,-0.18561082272484325,0.13885708640260008,0.9175059220152629,1.2641667297834152,0.8914388558856765
1730865953.7339408,-1.6707918643951416,0.9239218235015869,-9.750232696533203,0.2369413998616558,-0.18435856145773166,0.13880098923903994,0.9205308060493843,1.2684161746578122,0.8925693537380539
1730865953.7837968,-1.6994575262069702,0.9047927856445312,-9.781537055969238,0.2374167116696449,-0.1833406656563384,0.13875760683489274,0.9178910910081676,1.272086397443204,0.8906773834971141
1730865953.8338177,-1.7137017250061035,0.9450106620788574,-9.824131965637207,0.23783737653342102,-0.18256518839806005,0.1387300158429563,0.920231742581388,1.2760775251597507,0.8914732716532732
1730865953.8838098,-1.7199853658676147,1.0237822532653809,-9.900525093078613,0.23820185190950913,-0.18203587854302222,0.13872177998292223,0.9204991908909872,1.2855649339215272,0.8906292352900533
1730865953.933771,-1.7121604681015015,1.109671950340271,-9.941783905029297,0.2385092688685427,-0.18175310981297602,0.1387361796300095,0.9230590134799439,1.2944382140013722,0.8905485967367601
1730865953.9838536,-1.7125602960586548,1.1412822008132935,-9.991416931152344,0.2387594525461871,-0.1817151367468734,0.13877541559957188,0.9260158297408696,1.300169244069243,0.8912913504172404
1730865954.033785,-1.7383090257644653,1.1559922695159912,-9.991555213928223,0.2389528667103256,-0.1819192036535971,0.13884001713775218,0.9295330008911498,1.3053923707478792,0.8923696906573438
1730865954.0837812,-1.7700742483139038,1.0934906005859375,-9.966474533081055,0.23909064250975662,-0.18236213349932257,0.138928610474932,0.9252963588939203,1.3076062020375496,0.8906628622207063
1730865954.1337168,-1.7931220531463623,1.0574482679367065,-9.924484252929688,0.2391747622390969,-0.18304029763217874,0.13903812009754657,0.9275232081573733,1.3112734356002453,0.8914545464068897
1730865954.1838078,-1.8051255941390991,0.9757516384124756,-9.861323356628418,0.23920829423562345,-0.18394912263016994,0.13916434778289993,0.9273019842175851,1.3223575254509574,0.8906280477520219
1730865954.233678,-1.8243852853775024,0.909440279006958,-9.807530403137207,0.23919554219392963,-0.18508238235371208,0.13930277370591704,0.9296977374419585,1.3280339222618005,0.8913993852632955
1730865954.2837088,-1.831785798072815,0.8526820540428162,-9.77783489227295,0.23914208499446554,-0.18643146114829195,0.1394493848270883,0.9296095261701923,1.330602744225192,0.8906213555332885
1730865954.3335953,-1.7967559099197388,0.8678164482116699,-9.767488479614258,0.23905470320771335,-0.18798480110810606,0.1396013106879591,0.9320868880771377,1.3346653953184187,0.8913955876284209
1730865954.3836603,-1.7967559099197388,0.8678164482116699,-9.767488479614258,0.23894112988617863,-0.1897277831056076,0.13975712726510456,0.9324268149293685,1.3425929837402333,0.89062610878115
1730865954.3836603,-1.7605763673782349,0.9291214346885681,-9.799591064453125,0.2388096519552006,-0.1916431051942199,0.13991683267329205,0.9324418523236276,1.3426242559049029,0.8906300900575086
1730865954.433618,-1.710945725440979,1.0032237768173218,-9.818702697753906,0.2386686442568089,-0.19371156106721593,0.14008155856878515,0.935003334577168,1.3471025152379934,0.8914028302045934
1730865954.4836576,-1.710945725440979,1.0032237768173218,-9.818702697753906,0.23852605732646548,-0.19591305283605234,0.14025314700220487,0.9356082576195172,1.3511669932749566,0.8905205945499509
1730865954.4836576,-1.7012803554534912,1.053971767425537,-9.838756561279297,0.23838898189449811,-0.19822752605237604,0.14043377759245151,0.9356239587592006,1.3511906704708023,0.8905240553884617
1730865954.5335536,-1.6881037950515747,1.0379717350006104,-9.849413871765137,0.23826343437149894,-0.2006355966815544,0.1406257029103461,0.9384017694466227,1.35469306919775,0.8912443663106189
1730865954.5836434,-1.7113316059112549,0.9963055849075317,-9.854170799255371,0.23815431844877732,-0.20311884075949077,0.1408310328971499,0.9368638112458038,1.3577559573690914,0.8904806329939345
1730865954.6335702,-1.745736837387085,0.9328804016113281,-9.85682487487793,0.23806553472316272,-0.2056596823801348,0.14105157108879068,0.9391911256397975,1.3602920381240784,0.8912007827160144
1730865954.683587,-1.7479357719421387,0.8603179454803467,-9.831171989440918,0.2380002695064185,-0.20824087871469804,0.14128875864184692,0.9421025610337683,1.3623020963467873,0.8922699889027408
1730865954.733575,-1.7491909265518188,0.843873918056488,-9.839099884033203,0.2379613177072409,-0.21084483652501748,0.14154374269955433,0.9380349444270132,1.3637902677388911,0.8906062531585018
1730865954.7836032,-1.719849944114685,0.8954249024391174,-9.856204986572266,0.23795122793125,-0.21345315863272002,0.1418174735727799,0.9399193151254062,1.3647551310466686,0.8913969534775692
1730865954.8335345,-1.69038987159729,1.013269066810608,-9.893735885620117,0.23797220583272133,-0.21604683356990734,0.14211066002499023,0.9397609701834713,1.365186775358955,0.89061269267083
1730865954.8834958,-1.6407148838043213,1.1782209873199463,-9.94733715057373,0.23802581867001954,-0.21860725587340815,0.1424235009907728,0.9418777997610526,1.3650785112540342,0.8905469640178223
1730865954.9335127,-1.5968351364135742,1.3148117065429688,-9.980710983276367,0.23811257207137287,-0.22111789425978184,0.1427552508610796,0.9446880215256062,1.3644130455117491,0.8913037401280186
1730865954.9834745,-1.5788203477859497,1.3853707313537598,-9.986942291259766,0.23823147017804222,-0.22356608440155787,0.14310379102110932,0.9480822595959076,1.363196263007376,0.8924138965338837
1730865955.0333755,-1.59587824344635,1.345052719116211,-9.986001014709473,0.2383797436900831,-0.22594425060380846,0.14346542085830943,0.9432603101449093,1.3614277611523877,0.8906742043210669
1730865955.0834413,-1.6471034288406372,1.241713523864746,-9.92891788482666,0.23855294065668006,-0.22825001546758672,0.14383498238631287,0.9452851611649791,1.3590759871668128,0.8914915456913526
1730865955.1334794,-1.7504501342773438,1.1041513681411743,-9.85863208770752,0.23874548303451545,-0.2304851145345117,0.14420635459470105,0.9479178098851574,1.3561387690733655,0.8926744052228521
1730865955.1834555,-1.8304283618927002,0.9711137413978577,-9.74976921081543,0.23895165540414676,-0.23265350891740494,0.14457332309274606,0.9456100324487942,1.352638577924924,0.890691413872523
1730865955.2333221,-1.9156988859176636,0.9128645658493042,-9.670672416687012,0.23916680481635144,-0.23475932825576595,0.14493071416110992,0.9477908208450582,1.3485883410234847,0.8915093307540202
1730865955.2834413,-1.9563443660736084,0.903839647769928,-9.61693286895752,0.23938841959166632,-0.23680527942947008,0.14527552368489505,0.950612310825092,1.3438739207981019,0.8927070752369843
1730865955.3332965,-1.9563443660736084,0.903839647769928,-9.61693286895752,0.23961681461122997,-0.2387918865153655,0.1456077013494551,0.953989365309076,1.3386351967768324,0.8942495495808584
1730865955.3332965,-1.9662718772888184,0.9583784937858582,-9.625625610351562,0.23985529854545473,-0.2407174925308796,0.145930370484841,0.9540146445641534,1.3385971186050902,0.8942614052312974
1730865955.3834836,-1.923431158065796,1.0500279664993286,-9.705564498901367,0.2401098908850558,-0.24257881133053882,0.14624947158854337,0.9493300070409485,1.3327145651594288,0.8907113110002796
1730865955.4342368,-1.8367159366607666,1.1513241529464722,-9.823517799377441,0.24038868347255682,-0.24437193124607495,0.14657286924861837,0.9516292056509313,1.3261793754074032,0.8915235749331918
1730865955.4842105,-1.7143102884292603,1.2665013074874878,-9.948857307434082,0.24070079345522458,-0.24609362890296377,0.14690895945854576,0.9530665133419807,1.3191360626780326,0.890637548048845
1730865955.5342638,-1.5934988260269165,1.3747628927230835,-10.055098533630371,0.24105491248294708,-0.24774275667782744,0.14726499813495997,0.9560252618425061,1.311404347893802,0.8914460764047865
1730865955.5842412,-1.4835880994796753,1.4298890829086304,-10.111140251159668,0.24145769313546084,-0.2493214668104649,0.14764556537239135,0.9563414302053314,1.3030810066113645,0.8906471408812746
1730865955.6342456,-1.443881630897522,1.4316983222961426,-10.103753089904785,0.24191234303332096,-0.2508359922552508,0.14805157137879157,0.9593299466883689,1.2941422334625803,0.8914641014610069
1730865955.6842623,-1.4952565431594849,1.3775787353515625,-10.049909591674805,0.24241783761516972,-0.25229671635360773,0.14848005890884025,0.958692543334019,1.284543033896513,0.8859476499580168
1730865955.7341847,-1.6399167776107788,1.2702287435531616,-9.953142166137695,0.24296913358130903,-0.2537174428777187,0.14892482898394266,0.9612235065533874,1.274361505765427,0.8855987881094161
1730865955.7842758,-1.8158236742019653,1.1555479764938354,-9.814238548278809,0.24355851750783206,-0.2551139888846434,0.14937773019442763,0.9621213725895897,1.2634271700196538,0.8796587397172536
1730865955.8341494,-1.987913966178894,1.0372942686080933,-9.684324264526367,0.24417778875100415,-0.25650239194198043,0.14983037978008032,0.9653189199028334,1.2520726640061373,0.8753710589708487
1730865955.8841746,-2.1046435832977295,0.9711049795150757,-9.589987754821777,0.24482064411735077,-0.2578971298055249,0.15027599064959352,0.9687907508878998,1.2398884222250333,0.8733602266925771
1730865955.9341092,-2.1483964920043945,0.9394667744636536,-9.553539276123047,0.24548459271364934,-0.2593097448306052,0.15071086807391357,0.9728523747960005,1.227135291563285,0.8717373422433222
1730865955.9841945,-2.121264934539795,0.9565346837043762,-9.586009979248047,0.2461719256505751,-0.2607481345167796,0.15113518829035424,0.9775418434624109,1.213689877714565,0.8704862035808847
1730865956.0340698,-2.039263963699341,0.9619608521461487,-9.645097732543945,0.2468895793409867,-0.26221652349588614,0.15155289265750474,0.9680624470180615,1.199641398235124,0.8712329269152724
1730865956.0840585,-1.9312196969985962,0.9948458671569824,-9.719782829284668,0.24764804391403683,-0.26371589778498955,0.15197082873016193,0.9704369522654558,1.1849490668631408,0.8706504632152908
1730865956.1340225,-1.8107657432556152,1.0069457292556763,-9.799466133117676,0.24845966625339164,-0.2652446348886235,0.15239747841510945,0.9734382218691009,1.169547359037754,0.8704456340096628
1730865956.184022,-1.7375962734222412,1.0039891004562378,-9.883305549621582,0.24933677613750435,-0.26679913237024955,0.1528415904734395,0.977059563696785,1.153488553059904,0.8706219658699362
1730865956.2339506,-1.6901278495788574,0.9899908900260925,-9.963652610778809,0.2502900714714742,-0.2683742791252141,0.15331089281531946,0.9722753213403452,1.1368259408807104,0.867894258396923
1730865956.2840056,-1.6511867046356201,1.0167818069458008,-10.022025108337402,0.25132754746688035,-0.26996374203910756,0.15381098523853226,0.974910753369022,1.1193533241753215,0.867632734906449
1730865956.3338845,-1.626352071762085,1.0566904544830322,-10.058816909790039,0.25245395556944067,-0.27156025361648517,0.15434451973067864,0.9765427064172543,1.1014189513164703,0.8689729473756184
1730865956.3839247,-1.6089198589324951,1.1275053024291992,-10.08283519744873,0.2536706178061508,-0.2731561131175177,0.1549107549639672,0.9795302282688373,1.082575251978771,0.8696489142773735
1730865956.433835,-1.548673152923584,1.161179542541504,-10.08017635345459,0.2549754267094876,-0.27474390665281234,0.15550548772103065,0.9814722212569756,1.0632906017048769,0.8699271662647238
1730865956.4838657,-1.5168516635894775,1.1840696334838867,-10.051786422729492,0.2563628567567507,-0.27631722641933476,0.15612132391008654,0.9846263943117872,1.0431663482184694,0.8755626506160069
1730865956.533793,-1.4813148975372314,1.1318827867507935,-9.987784385681152,0.25782392487235695,-0.27787108917763315,0.15674828484481926,0.9883976550659732,1.0224063880207297,0.8787573031932755
1730865956.5838237,-1.4938756227493286,1.0512200593948364,-9.905617713928223,0.2593462389212795,-0.27940181799925584,0.15737474910152677,0.9928356073536455,1.0008416212375122,0.8823615745472372
1730865956.6337664,-1.5253958702087402,0.9455553293228149,-9.82075309753418,0.26091432012400184,-0.28090632688479167,0.15798865458838474,0.9979214050604434,0.978594226126043,0.8863577252992318
1730865956.683823,-1.6069215536117554,0.8572342395782471,-9.72569751739502,0.2625103070095446,-0.2823810014339553,0.15857879901517624,0.9878326186986814,0.9556385359715914,0.8806038482714712
1730865956.7337284,-1.7038275003433228,0.803158164024353,-9.66273307800293,0.26411505695172854,-0.28382054650034017,0.15913605947521403,0.9904928968232274,0.9321201706245325,0.8829190862318741
1730865956.7837372,-1.8090814352035522,0.8006678223609924,-9.635173797607422,0.26570955117427164,-0.2852171798286408,0.15965434170511145,0.992731877762421,0.9079437455805073,0.8845396861986282
1730865956.8336544,-1.8927173614501953,0.8072279691696167,-9.634767532348633,0.2672763869589025,-0.28656040115069603,0.16013106736251678,0.9970412585868542,0.8830816756995702,0.8879667480200527
1730865956.883653,-1.9440635442733765,0.8602471947669983,-9.668485641479492,0.2688010733114322,-0.2878373271421924,0.16056712166171386,1.0010081695891204,0.8571678947939344,0.8909399817883924
1730865956.9336395,-1.9826576709747314,0.9154075980186462,-9.733817100524902,0.27027290391344194,-0.28903344688376825,0.1609663134827249,1.0056319437863284,0.8306568379425,0.8943020463404394
1730865956.9837236,-1.9989776611328125,0.9727869033813477,-9.810914993286133,0.27168534884904516,-0.29013363130723324,0.16133444253190446,1.0037056535708662,0.8035619966841505,0.8926094412323488
1730865957.033659,-1.9968469142913818,1.0430967807769775,-9.891023635864258,0.27303604015221333,-0.29112321370962974,0.16167811822907935,1.0074484043462255,0.7757299786175693,0.8951639577212163
1730865957.083661,-1.9078164100646973,1.1033395528793335,-9.982389450073242,0.2743263720066142,-0.2919890099919252,0.16200351549565045,1.0119233068053561,0.74685075841731,0.8981552519848921
1730865957.1336153,-1.811535358428955,1.1505705118179321,-10.037453651428223,0.2755606060985627,-0.29272020760495315,0.16231522613977833,1.0081847016776415,0.7176743178411159,0.8917851352663813
1730865957.1835968,-1.684177279472351,1.158101201057434,-10.068291664123535,0.2767444672150715,-0.29330901109891144,0.1626153710722443,1.0114701062975602,0.6876350969383875,0.8930490794761875
1730865957.2335598,-1.607757568359375,1.1402833461761475,-10.083259582519531,0.2778834972640932,-0.2937508997324436,0.16290312974272203,1.0154820990165143,0.6565954924177453,0.894733680711433
1730865957.2836456,-1.5794684886932373,1.0847864151000977,-10.054425239562988,0.27898161284362644,-0.29404441630090894,0.16317472452979692,1.0201705872344091,0.6249864003188202,0.8968179970130875
1730865957.3335211,-1.6266781091690063,1.0333889722824097,-10.00820255279541,0.280040296495696,-0.29419053100251324,0.16342382409290487,1.013665658386478,0.5931018575274154,0.8911220316239578
1730865957.3835816,-1.7076492309570312,0.985153317451477,-9.948284149169922,0.2810586559620309,-0.29419176142303693,0.16364231037487392,1.0171388248453752,0.5600990663129953,0.8907756709923428
1730865957.4335127,-1.7534598112106323,0.9991579055786133,-9.872818946838379,0.28203421987806265,-0.2940513388272501,0.16382128491106507,1.020701348447826,0.5263717155853567,0.891670523373447
1730865957.4836228,-1.761965274810791,1.019677996635437,-9.80775260925293,0.28296397088469505,-0.2937727196693589,0.16395216017810543,1.0249876418465131,0.4917577571733212,0.8929800413408702
1730865957.5335631,-1.7332777976989746,1.0601274967193604,-9.740081787109375,0.2838450634586394,-0.2933595602218637,0.16402770121590982,1.0299779951582353,0.4564578818365155,0.8946986421952942
1730865957.5835302,-1.7360866069793701,1.0578792095184326,-9.706241607666016,0.2846750307961463,-0.2928159873389367,0.16404288919194177,1.0357080388177107,0.42025685024856396,0.8968387548664589
1730865957.633568,-1.7078824043273926,1.0534155368804932,-9.675688743591309,0.2854516771076918,-0.29214685330459567,0.16399549718833065,1.0219298021224092,0.38400334198034963,0.8908672906539192
1730865957.683474,-1.7233083248138428,1.0290294885635376,-9.678693771362305,0.28617291533155603,-0.29135776369595806,0.16388632278763338,1.0247191885097109,0.3464739545970458,0.8918310070615727
1730865957.733404,-1.7296462059020996,1.0342074632644653,-9.693284034729004,0.2868366913482269,-0.2904548978147401,0.16371908118083864,1.0261979531059369,0.3087327424538897,0.8907426551132678
1730865957.7834828,-1.7782323360443115,1.0552161931991577,-9.738544464111328,0.28744107864049234,-0.28944481413362233,0.1634999854204867,1.0297971762216185,0.2696614538819789,0.8916616631855483
1730865957.833414,-1.8271551132202148,1.1032934188842773,-9.756502151489258,0.2879845911341219,-0.2883344453242611,0.16323708534768325,1.0340760188368794,0.23025451658648174,0.8929775740902764
1730865957.8834038,-1.8970963954925537,1.1459044218063354,-9.80887222290039,0.2884666994495395,-0.2871313529611376,0.16293951036069532,1.0391298966706548,0.18966386323510814,0.8947191258414513
1730865957.933347,-1.9201931953430176,1.1988476514816284,-9.833016395568848,0.2888884374918842,-0.2858441519637659,0.16261673717207198,1.0301403723522247,0.1490177131685264,0.8910311048282841
1730865957.983341,-1.93211030960083,1.2210768461227417,-9.855461120605469,0.28925287255155135,-0.28448294573942895,0.1622779471028704,1.0329166146090738,0.10704113622775879,0.8920165709482089
1730865958.0332818,-1.8952357769012451,1.1917591094970703,-9.863088607788086,0.28956521786414,-0.28305957621398453,0.16193155160869607,1.0354477145140917,0.06533161255775555,0.8911915294967148
1730865958.0833924,-1.8952357769012451,1.1917591094970703,-9.863088607788086,0.28983254783190854,-0.28158751662022297,0.1615849339958483,1.0393743399609698,0.021873456217151227,0.8921926519635722
1730865958.0833924,-1.8420480489730835,1.143674373626709,-9.883455276489258,0.2900632697492974,-0.28008143674791275,0.16124435888418492,1.039402543634626,0.021585794741296262,0.8922005764107961
1730865958.1332362,-1.7618697881698608,1.129366159439087,-9.8805570602417,0.29026645296693016,-0.27855661417906286,0.16091494881793034,1.0388697156309774,-0.02138553404534661,0.8905751987539344
1730865958.1833367,-1.694387674331665,1.115341305732727,-9.905627250671387,0.29045096308343854,-0.2770283401486694,0.16060066454098984,1.04232237868931,-0.06612759668494403,0.8912626597749348
1730865958.2332082,-1.6100733280181885,1.094612956047058,-9.931663513183594,0.29062445180742746,-0.2755114369583177,0.16030425751821809,1.0464771650632156,-0.11126453543821861,0.8923458995758252
1730865958.2832747,-1.5418109893798828,1.0807050466537476,-9.972339630126953,0.29079238780316213,-0.2740199071058139,0.16002714036949625,1.04308602156512,-0.15710749928064524,0.8901754414329202
1730865958.3331993,-1.499990701675415,1.0729589462280273,-10.015694618225098,0.2909572697704872,-0.27256666224275833,0.15976915222490984,1.045622261238446,-0.2031082498310737,0.8896990188546581
1730865958.383289,-1.4388550519943237,1.0682786703109741,-10.016959190368652,0.2911181084443143,-0.2711633361638925,0.15952829919158962,1.048976515123426,-0.2505313009401128,0.8903521945093062
1730865958.4332135,-1.4234479665756226,1.0768064260482788,-10.036955833435059,0.29127018677759087,-0.2698202087110981,0.15930062379738613,1.0503081266067227,-0.29793661648312214,0.8889401674873686
1730865958.4831707,-1.4432932138442993,1.1116139888763428,-10.005428314208984,0.2914051058948033,-0.2685462666490614,0.1590803032453954,1.0543259459957548,-0.34681665592392413,0.8894395360594638
1730865958.5341525,-1.5085569620132446,1.1484904289245605,-9.962830543518066,0.29151124226387404,-0.2673494488388203,0.15886000171283823,1.0591532297656865,-0.39708963650960255,0.8903561138461744
1730865958.5831633,-1.5824558734893799,1.1850098371505737,-9.87814998626709,0.29157468997388003,-0.2662370602661688,0.15863151778711831,1.052802875636977,-0.4456217992017881,0.8884676365187862
1730865958.6341417,-1.7026240825653076,1.1562330722808838,-9.797066688537598,0.2915805819625196,-0.26521618310153405,0.15838672528953043,1.0557538575592307,-0.49728515647659877,0.8891636813256877
1730865958.6841717,-1.8434793949127197,1.0966352224349976,-9.701960563659668,0.2915146586455981,-0.2642937895236586,0.15811868829393663,1.0593699366986635,-0.5484305070849217,0.8902414925958376
1730865958.7341104,-1.9647480249404907,1.0394996404647827,-9.635427474975586,0.29136497899274144,-0.26347637332114193,0.15782276374332693,1.0637161416555978,-0.6002999881542117,0.8917138960821375
1730865958.7841659,-2.0362460613250732,0.9632866978645325,-9.589738845825195,0.29112352296845856,-0.26276922835591876,0.15749749143204372,1.0548045255009664,-0.6527286882910494,0.8888873088908252
1730865958.8331368,-2.0362460613250732,0.9632866978645325,-9.589738845825195,0.29078727693573486,-0.2621756899345906,0.15714508902822885,1.057200764812612,-0.7045889871337464,0.889783795551937
1730865958.8331368,-2.0580220222473145,0.9396564364433289,-9.595098495483398,0.29035853955069857,-0.2616966422396541,0.15677145512238969,1.0572191976783907,-0.7049395796724245,0.8897910792466933
1730865958.8841126,-2.0260348320007324,0.9472898840904236,-9.640368461608887,0.2898445649123789,-0.26133041560575443,0.1563857220079462,1.0568717008741562,-0.7591689596548499,0.8890586583995397
1730865958.9341154,-1.9630955457687378,1.0134309530258179,-9.721592903137207,0.2892567913084162,-0.2610730239940341,0.15599944423935894,1.0593618839078578,-0.813634863927521,0.8899421892514191
1730865958.984118,-1.895137906074524,1.0919886827468872,-9.815616607666016,0.28860973882557056,-0.2609187688867757,0.15562545777307485,1.0588938319937986,-0.8682874216256424,0.8893255606841308
1730865959.0339692,-1.8222602605819702,1.1473636627197266,-9.905097961425781,0.2879196659294633,-0.2608612046779635,0.1552765046765702,1.0614391818123334,-0.9237870057443743,0.8902628241856291
1730865959.0840662,-1.7455374002456665,1.1361726522445679,-9.956357955932617,0.2872031918045162,-0.26089413146944307,0.15496387605300999,1.0618933630132126,-0.9800863835478485,0.8896092000692711
1730865959.1339521,-1.700907826423645,1.1482601165771484,-10.000899314880371,0.2864760562880419,-0.26101219074619697,0.1546963605677541,1.0649840667694925,-1.0370595126318451,0.8905961341742566
1730865959.1839936,-1.7207727432250977,1.1174755096435547,-10.020934104919434,0.2857521996144652,-0.2612109766622032,0.15447963383911859,1.0688118223175491,-1.0950511019710578,0.8919769379861424
1730865959.233999,-1.7523990869522095,1.134559988975525,-9.988039016723633,0.2850433923117046,-0.261486874681963,0.154316087329716,1.0632451102487332,-1.1525005248897342,0.8926995941467752
1730865959.2839696,-1.8286563158035278,1.1376848220825195,-9.950651168823242,0.2843594823311545,-0.261836868287284,0.15420510570202425,1.0656063324318221,-1.2117810901559496,0.8942872023895293
1730865959.3339097,-1.8731988668441772,1.1633003950119019,-9.883402824401855,0.2837090779108385,-0.26225846332714453,0.15414376068262367,1.0651832032670818,-1.2705443721288554,0.895817625054464
1730865959.3839538,-1.87714421749115,1.2097761631011963,-9.829784393310547,0.28310032692320874,-0.262749775748733,0.1541277604383441,1.0677878194837405,-1.3311151596069632,0.8978861907330876
1730865959.43391,-1.87714421749115,1.2097761631011963,-9.829784393310547,0.2825414289777019,-0.26330974603447227,0.15415240108881356,1.0666572714040539,-1.3910405556946572,0.898804014633602
1730865959.43391,-1.8527741432189941,1.2444229125976562,-9.779115676879883,0.2820407350289354,-0.26393835563274315,0.15421327197635867,1.0666703524047654,-1.391420033079948,0.8988167848868512
1730865959.483997,-1.7791498899459839,1.2536530494689941,-9.761033058166504,0.28160649684848704,-0.2646367433187653,0.15430669423530863,1.0691374465521681,-1.4530706896099814,0.9010739208961793
1730865959.5338774,-1.7433054447174072,1.2289862632751465,-9.7857084274292,0.2812463247677927,-0.26540720491155945,0.15442999841467756,1.0675988591408783,6.364068512004319,0.9009891964212937
1730865959.583923,-1.7001326084136963,1.2023404836654663,-9.813427925109863,0.28096650236053683,-0.26625299876039366,0.1545815507883298,1.0697074649560885,6.356284389959442,0.9028725329587717
1730865959.6338441,-1.658395528793335,1.1724835634231567,-9.855494499206543,0.2807713958962313,-0.26717791307808003,0.15476043773795203,1.0697873276652612,6.350037618876973,0.903887240401854
1730865959.6838272,-1.658395528793335,1.1724835634231567,-9.855494499206543,0.2806630674038213,-0.2681857489798716,0.15496597621238017,1.0710392933479667,6.3350520432482496,0.9033604913053118
1730865959.6838272,-1.589672565460205,1.1396898031234741,-9.88569164276123,0.2806410754420038,-0.2692799012072816,0.15519729289423073,1.0710540378486837,6.334963112483614,0.903368237131937
1730865959.733828,-1.5081108808517456,1.1046420335769653,-9.922158241271973,0.280702300486839,-0.27046303181143766,0.15545302786632767,1.073515281468124,6.321897580567164,0.9046712101928214
1730865959.7838185,-1.5081108808517456,1.1046420335769653,-9.922158241271973,0.28084063783063384,-0.2717367503324503,0.15573107523874818,1.0766815871466038,6.308128213350925,0.9063647685708655
1730865959.7838185,-1.4295170307159424,1.1049782037734985,-9.95274543762207,0.2810467194742494,-0.2731013760201388,0.15602837206271047,1.0767050709661936,6.308034046609935,0.9063773755904132
1730865959.833836,-1.4295170307159424,1.1049782037734985,-9.95274543762207,0.28130784217798344,-0.2745559025069473,0.1563407968119716,1.0805547224839085,6.293657849127161,0.9084506300559023
1730865959.833836,-1.4276865720748901,1.1359474658966064,-9.951932907104492,0.2816080922101971,-0.27609813557307006,0.15666316946034264,1.0805815228839986,6.2935639165258594,0.9084651019639702
1730865959.8838398,-1.4848183393478394,1.1582427024841309,-9.916403770446777,0.2819287597869542,-0.2777249588730376,0.15698938911019056,1.0723189530765098,6.315487602022553,0.9025721127439645
1730865959.9337692,-1.5948827266693115,1.1681678295135498,-9.850994110107422,0.2822491967359336,-0.27943269496752554,0.15731280389763225,1.0737149286430367,6.3010896533897105,0.9021812033989748
1730865959.9839382,-1.7093874216079712,1.1369863748550415,-9.79179573059082,0.28254815596164773,-0.28121740231620684,0.15762685484783792,1.075925527098096,6.29105806429785,0.9029127813056619
1730865960.0338023,-1.8193243741989136,1.1080282926559448,-9.737626075744629,0.28280545549742786,-0.2830749159178392,0.15792588479758818,1.0759233302115303,6.280896609820202,0.9019966855922413
1730865960.083812,-1.884267807006836,1.1029753684997559,-9.714607238769531,0.28300360030357985,-0.2850006415056606,0.158205876420971,1.0783328953076963,6.270280528853534,0.9027635308856916
1730865960.1337838,-1.9105286598205566,1.1115912199020386,-9.716594696044922,0.28312897934252634,-0.286989339149983,0.1584649041994257,1.0814434616362354,6.258970033662203,0.9039234692268313
1730865960.1837988,-1.9257912635803223,1.116139531135559,-9.744019508361816,0.283172439338001,-0.2890350950156584,0.1587031896772111,1.0777404973536726,6.257090059959877,0.9018546963416106
1730865960.2337227,-1.9447674751281738,1.1083884239196777,-9.78177261352539,0.283129313540307,-0.2911314441317084,0.15892277048820747,1.0800338122674646,6.246595965018982,0.9026756355557579
1730865960.28374,-1.942165493965149,1.0875669717788696,-9.824285507202148,0.2829991508871347,-0.29327147702732,0.1591269001663469,1.0793008521167902,6.238068138959404,0.9016055901032756
1730865960.3336928,-1.9253342151641846,1.0885087251663208,-9.844911575317383,0.2827852919489131,-0.29544784295120674,0.15931935541460054,1.0817054311354295,6.226554694965779,0.9023878852849041
1730865960.383695,-1.8715403079986572,1.0781447887420654,-9.8873929977417,0.28249426513504994,-0.297652711461335,0.15950381329054647,1.0848213539514548,6.214277013803583,0.9035702443163786
1730865960.4336674,-1.8378441333770752,1.0401469469070435,-9.917705535888672,0.2821349672577995,-0.29987774364739855,0.1596833458830015,1.0886365019431814,6.201274907450013,0.9051488798969749
1730865960.48365,-1.7672381401062012,1.032460331916809,-9.951805114746094,0.2817177045291143,-0.30211401189855414,0.15985999403036677,1.0816493821822126,6.2182781453947555,0.8981274453906251
1730865960.5337403,-1.7021394968032837,1.0370874404907227,-9.975760459899902,0.28125319152964146,-0.30435189396082196,0.16003441918330108,1.0838611059284093,6.21082970800009,0.8984383837997646
1730865960.5838394,-1.65043306350708,1.073177456855774,-10.0149564743042,0.28075156312039723,-0.30658112351271466,0.16020565081886431,1.084692111378747,6.202614642453469,0.8938407973516684
1730865960.6337297,-1.6014059782028198,1.14634108543396,-10.020565032958984,0.2802215032835284,-0.3087911438851185,0.16037091993329,1.087502133160052,6.193688205998886,0.8932450981025931
1730865960.6836996,-1.5850491523742676,1.22859787940979,-9.987622261047363,0.27966961665106826,-0.31097180068261415,0.1605256475160566,1.0878032200008474,6.183977623030537,0.88992220191913
1730865960.733647,-1.6096011400222778,1.2526041269302368,-9.945744514465332,0.27910013859583693,-0.31311423531942617,0.16066374153921373,1.090815431295984,6.173450211442804,0.8890654574184169
1730865960.7837098,-1.665219783782959,1.2559261322021484,-9.857342720031738,0.27851508847717565,-0.31521161582592194,0.1607782598771491,1.0945468940031866,6.16207828540676,0.8886109555591207
1730865960.8336103,-1.7471556663513184,1.2027697563171387,-9.769553184509277,0.27791490126688134,-0.3172593639067144,0.16086237108513124,1.0989087652440186,6.150101101919038,0.8885616058598875
1730865960.8836133,-1.8258168697357178,1.1118991374969482,-9.667461395263672,0.2772994182020806,-0.319254774100812,0.16091050095964488,1.090168981554185,6.137220893664475,0.8865068887824149
1730865960.9335773,-1.8258168697357178,1.1118991374969482,-9.667461395263672,0.27666894276268983,-0.3211961851830053,0.16091942557954436,1.0925823721205241,6.1235834340605155,0.8863004071775593
1730865960.9335773,-1.8815194368362427,1.0185134410858154,-9.608986854553223,0.2760250033437544,-0.3230820839265288,0.16088897507074032,1.092600553193632,6.123490936118729,0.886300373183939
1730865960.9835758,-1.8734042644500732,0.954424262046814,-9.58102798461914,0.2753707155392839,-0.32491033876807074,0.16082227762041051,1.0922706611391586,6.109065780670384,0.8831149156364206
1730865961.033538,-1.8734042644500732,0.954424262046814,-9.58102798461914,0.2747108612102665,-0.32667751124080274,0.16072575159571328,1.0946751187634451,6.093793956534294,0.8826394168978487
1730865961.033538,-1.824157476425171,0.9195178747177124,-9.613903045654297,0.2740517030503334,-0.3283783933550139,0.16060887952033642,1.0946939231317432,6.093686687151598,0.8826375431147633
1730865961.0836797,-1.7324042320251465,0.9404146075248718,-9.695297241210938,0.2734004548617572,-0.33000593207017104,0.160483604263575,1.0977820709890254,6.077609192344399,0.8825647516130303
1730865961.133535,-1.6441199779510498,0.9858413338661194,-9.814929962158203,0.2727643728856019,-0.33155148383048544,0.16036326611747131,1.0950450276756662,6.060742522365638,0.887168534092076
1730865961.1836119,-1.5686087608337402,1.074684739112854,-9.920032501220703,0.2721496048750713,-0.3330054162007371,0.16026114683379766,1.0974435882215727,6.042923406197233,0.888662794849726
1730865961.2334654,-1.542607307434082,1.151999592781067,-10.003628730773926,0.271560135103471,-0.3343580844300271,0.1601888883491529,1.0974399687910437,6.0243631486658975,0.8912172186720584
1730865961.283573,-1.5542049407958984,1.2301385402679443,-10.041191101074219,0.27099716755756476,-0.3356009990127457,0.16015517962346593,1.1000776497844431,6.004875773669428,0.8934945504931158
1730865961.3333614,-1.6225168704986572,1.2406723499298096,-10.066964149475098,0.2704591372034067,-0.3367278670898637,0.16016498239253987,1.1033685029202402,5.984694429498272,0.8961531141229975
1730865961.3834236,-1.7253564596176147,1.2138913869857788,-10.027120590209961,0.269942380652303,-0.33773518034673683,0.16021935571574186,1.107358388397033,5.963526290603676,0.8992311430748594
1730865961.4334004,-1.8377536535263062,1.1672279834747314,-9.96264362335205,0.2694423505811522,-0.3386221600366674,0.16031585946345206,1.099561856100081,5.941555102294458,0.8943541021059487
1730865961.4834306,-1.8791604042053223,1.118408203125,-9.90227222442627,0.2689550536843196,-0.3393901626138254,0.1604494622782626,1.1017334524428606,5.918686199383396,0.8960826379387503
1730865961.5334456,-1.8703622817993164,1.049418330192566,-9.87574577331543,0.26847819260847516,-0.34004182248620496,0.16061367991842468,1.1016561277260621,5.895026280534754,0.8978465523138355
1730865961.5833516,-1.7904411554336548,0.9940613508224487,-9.860814094543457,0.2680115538936524,-0.34058013237495505,0.1608015554750388,1.1038275014471013,5.8705359148467355,0.9013676957158779
1730865961.6333067,-1.6464136838912964,0.9628157019615173,-9.86606502532959,0.26755648144766314,-0.34100759479453496,0.16100626571142046,1.106754294517445,5.845190599205184,0.9044970393402919
1730865961.683353,-1.5627888441085815,0.9482263922691345,-9.848698616027832,0.26711460615488614,-0.34132560880387247,0.1612213976462737,1.110373885919775,5.818818178053515,0.9080529441958533
1730865961.7333167,-1.562458872795105,0.9341247081756592,-9.841981887817383,0.26668640886583866,-0.3415341849312684,0.1614410726972851,1.1146268978608709,5.791828717293391,0.9119795657049367
1730865961.783527,-1.5797141790390015,0.9555282592773438,-9.840194702148438,0.2662703609744989,-0.34163194403621555,0.1616600451756519,1.1047153835859467,5.7636615769494135,0.9008812932008191
1730865961.8334281,-1.656130313873291,1.0449622869491577,-9.828990936279297,0.26586294512377295,-0.34161640848436475,0.16187377773967238,1.106707267566848,5.734987408450534,0.9021683409877841
1730865961.883437,-1.7408385276794434,1.130565881729126,-9.812065124511719,0.2654593673318127,-0.34148471480741965,0.16207849400519925,1.1093811878986273,5.705230942077873,0.9038718059942128
1730865961.933372,-1.8037424087524414,1.1793253421783447,-9.80042552947998,0.26505464668254586,-0.3412346743746501,0.1622712555824556,1.112700166128768,5.674808422676716,0.9059692216546251
1730865961.9834905,-1.8700915575027466,1.1633671522140503,-9.820185661315918,0.2646447430337029,-0.34086573340786763,0.1624500322147467,1.1045475945311498,5.643379750435262,0.8997479160290677
1730865962.0333447,-1.9134926795959473,1.100498914718628,-9.80792236328125,0.2642274621318996,-0.34037934379963336,0.16261366811376737,1.1062493402748248,5.611322482078717,0.9006998611375626
1730865962.083408,-1.9817607402801514,0.9967160820960999,-9.799867630004883,0.26380309017225223,-0.33977856418228364,0.162761771853917,1.1045250676525216,5.57815476895025,0.8991785347164138
1730865962.1332574,-2.009242534637451,0.8998187184333801,-9.762540817260742,0.26337482390282363,-0.33906704233672297,0.16289468033161061,1.1061532613968577,5.544402476851318,0.9000111492902331
1730865962.1833553,-2.0146119594573975,0.8520634174346924,-9.732019424438477,0.26294898669649386,-0.338247765617781,0.16301358264594368,1.1047569815496894,5.509470764548284,0.8988776616446258
1730865962.2332752,-1.9653370380401611,0.8578269481658936,-9.763777732849121,0.26253489055074936,-0.3373220810654333,0.16312070542138524,1.1047585053860256,5.474035152072557,0.8985696800402104
1730865962.2832632,-1.8760980367660522,0.9307280778884888,-9.811843872070312,0.2621442013830878,-0.3362893901313264,0.16321928259822197,1.1062959175724452,5.437614495335722,0.8993193318019248
1730865962.3331802,-1.7786275148391724,1.0387083292007446,-9.875558853149414,0.2617898030235103,-0.33514765925280415,0.16331310924085185,1.10848329840203,5.400421685282535,0.9004744324226658
1730865962.3832405,-1.7020138502120972,1.1243410110473633,-9.926508903503418,0.2614843678914939,-0.33389457769182296,0.16340579133526695,1.1113392793528942,5.36218589363273,0.9020458385532172
1730865962.4332123,-1.6601722240447998,1.1989141702651978,-9.964488983154297,0.2612390077038591,-0.33252893456824695,0.16349996800861671,1.1052152188784055,5.323284412347248,0.8987500026602193
1730865962.4832904,-1.6342209577560425,1.2611186504364014,-9.975395202636719,0.2610623263081877,-0.33105179139018615,0.1635967305688306,1.106803745380602,5.28343662808743,0.8996780531095175
1730865962.5331616,-1.6342209577560425,1.2611186504364014,-9.975395202636719,0.26095997582196084,-0.329467241663984,0.16369535647007288,1.1055708744539057,5.243027463147316,0.8989283125901419
1730865962.5331616,-1.622498869895935,1.2675787210464478,-9.962905883789062,0.260934623546245,-0.327782673575575,0.16379336042252413,1.1055789314898707,5.242771710673089,0.8989330548758168
1730865962.5832772,-1.639206886291504,1.2061913013458252,-9.937066078186035,0.2609861691093667,-0.326008522573737,0.16388678523845845,1.107202595660868,5.201277459786632,0.8999016928583985
1730865962.6331246,-1.6860491037368774,1.1449236869812012,-9.880510330200195,0.2611121348613829,-0.3241575760728268,0.1639706752931876,1.1094685745436847,5.1591745301351555,0.9012739263661298
1730865962.6834114,-1.7109571695327759,1.0855287313461304,-9.83228588104248,0.2613082494097828,-0.32224395224349955,0.16403972298691663,1.1059978445754612,5.11591543107998,0.8991020376029436
1730865962.7330935,-1.709753394126892,1.0741137266159058,-9.788422584533691,0.2615691178321735,-0.32028202242909604,0.164089015812404,1.1075928916869182,5.071750817866799,0.9000607953835403
1730865962.7832174,-1.6724727153778076,1.0828081369400024,-9.795247077941895,0.26188869557721706,-0.31828562606668875,0.16411468489687953,1.106454619817329,5.027617793064753,0.9030234543103143
1730865962.8330767,-1.6206578016281128,1.0981696844100952,-9.837224006652832,0.2622603659208096,-0.31626774713625994,0.1641142056522614,1.108128069633783,4.981148859343198,0.9052281031446098
1730865962.8830912,-1.5427521467208862,1.13316011428833,-9.84755802154541,0.26267663202769276,-0.3142405668496249,0.164086244114155,1.106920486025492,4.936124371216617,0.9068832604104946
1730865962.933006,-1.5629488229751587,1.1618047952651978,-9.863628387451172,0.26312863296105427,-0.3122157272950752,0.16403024625694887,1.1085743162142478,4.889231868375948,0.9094192762051171
1730865962.9830446,-1.629149079322815,1.215698003768921,-9.845447540283203,0.263605922799893,-0.3102047025973641,0.16394608963230978,1.1108958597908263,4.841340158009015,0.9123780947352644
1730865963.0340078,-1.6967530250549316,1.2590280771255493,-9.838217735290527,0.26409689679713977,-0.30821923259111533,0.16383394747724891,1.1139376983801776,4.791821561957556,0.915810601700264
1730865963.084012,-1.7413307428359985,1.2730633020401,-9.82457160949707,0.2645897351205322,-0.3062717470363135,0.16369432898355638,1.107592697639475,4.74247082068624,0.9063174164348792
1730865963.1339903,-1.7646113634109497,1.2583575248718262,-9.81188678741455,0.2650733723018782,-0.30437560640960515,0.16352819059354146,1.1092707916515496,4.692423494651927,0.9075055379637648
1730865963.1839724,-1.7786732912063599,1.2127102613449097,-9.802888870239258,0.2655381547257499,-0.30254498210764386,0.16333704407680522,1.1082137874503848,4.641448046043075,0.9051763305701289
1730865963.233917,-1.8130278587341309,1.14822256565094,-9.807696342468262,0.2659761761143229,-0.3007943379010203,0.1631230233632105,1.109971629919292,4.590062954133531,0.9060091012509158
1730865963.2838762,-1.809478998184204,1.100132703781128,-9.810400009155273,0.2663814379498456,-0.29913762738920774,0.16288886749871173,1.1124008079656356,4.537710926492863,0.9072519537357999
1730865963.333905,-1.797210454940796,1.1131501197814941,-9.829365730285645,0.2667498794975459,-0.2975874849407334,0.16263780194421595,1.1093203437820478,4.484583306005817,0.9045669429419472
1730865963.383851,-1.7991148233413696,1.125964879989624,-9.836786270141602,0.2670792243786558,-0.2961547585863402,0.1623733406523853,1.1111322050821693,4.430758741191011,0.9053888355344969
1730865963.4338167,-1.7826963663101196,1.1695894002914429,-9.845488548278809,0.26736870009630753,-0.29484852569336806,0.16209906059212628,1.1104127115148008,4.376264690584841,0.9002185199855435
1730865963.4838102,-1.7767739295959473,1.2048052549362183,-9.856528282165527,0.26761873740557224,-0.2936764570664966,0.1618184066878833,1.1123916385102959,4.3209469620933145,0.8996992989270667
1730865963.5337822,-1.8129676580429077,1.1983704566955566,-9.851751327514648,0.2678307208172324,-0.29264528919574917,0.1615345517661169,1.1112951864303147,4.263961447597565,0.8961432841432073
1730865963.5838563,-1.865580439567566,1.1427628993988037,-9.82577133178711,0.26800693463559166,-0.2917611017111068,0.1612503482692452,1.1132186820249392,4.208058325494967,0.8953032771566852
1730865963.633715,-1.881205439567566,1.0834192037582397,-9.824111938476562,0.2681507795135237,-0.29102914797420715,0.16096841957550967,1.1159442201348564,4.148466897036808,0.8948407976819713
1730865963.68373,-1.863053321838379,1.0553536415100098,-9.826824188232422,0.26826702717599465,-0.2904533084420873,0.16069131641845383,1.112193296724526,4.0925090037169065,0.8969556302664579
1730865963.7337158,-1.8265241384506226,1.0528087615966797,-9.850543975830078,0.2683617770929591,-0.29003554001904464,0.16042157365862658,1.1140812553765174,4.031911200754003,0.8975591323587424
1730865963.7837036,-1.7715882062911987,1.0776413679122925,-9.877630233764648,0.26844201750210467,-0.2897756560525385,0.16016158661765137,1.1165178580719952,3.9739153500775273,0.8985188851411422
1730865963.8336518,-1.7354477643966675,1.0973707437515259,-9.941924095153809,0.2685149353004823,-0.2896715039367289,0.1599133099538237,1.1131411198909258,3.9138335197035286,0.8978720963801942
1730865963.8837056,-1.689695954322815,1.1317925453186035,-9.966397285461426,0.26858718724232644,-0.28971940096121224,0.15967781065926365,1.1150194620084852,3.8524953967446205,0.898782123092051
1730865963.9335935,-1.689695954322815,1.1317925453186035,-9.966397285461426,0.26866430929354984,-0.2899146383681256,0.1594548322618796,1.1175498657912735,3.7909487469102805,0.9000811990646795
1730865963.9335935,-1.6389662027359009,1.1293141841888428,-9.971222877502441,0.26875034378221424,-0.29025188167653043,0.15924260259592976,1.1175673946055298,3.7905699739589775,0.9000903621188954
1730865963.9836588,-1.6623183488845825,1.1505361795425415,-9.938908576965332,0.26884765188138154,-0.29072539408287035,0.15903794759581721,1.1139370278926326,3.728314635425191,0.902018508250154
1730865964.0335605,-1.685981035232544,1.114296793937683,-9.907242774963379,0.26895692218720935,-0.29132914197715853,0.1588366372232869,1.1157615934303093,3.6628528557207654,0.903888571956908
1730865964.0836053,-1.7127622365951538,1.098321795463562,-9.828071594238281,0.26907745979213415,-0.2920567893539523,0.15863393945346765,1.1144503935191488,3.6010865217888868,0.906107570791223
1730865964.1335196,-1.7381293773651123,1.0863145589828491,-9.812661170959473,0.2692076808863749,-0.2929015482288489,0.15842533832422828,1.1162428395422028,3.535938092810155,0.9086032707215345
1730865964.1835907,-1.7394286394119263,1.1070185899734497,-9.751754760742188,0.26934560180706246,-0.29385602714374526,0.15820724220031557,1.115082067666501,3.4711911234501063,0.9142581603124701
1730865964.2335656,-1.7783422470092773,1.099996566772461,-9.74980354309082,0.2694892110825786,-0.2949122479127522,0.15797751275171992,1.1168860414193797,3.4048569222177405,0.9182568490119629
1730865964.2834716,-1.775434136390686,1.1180026531219482,-9.734968185424805,0.2696367521415285,-0.2960618017941907,0.15773575609325213,1.1193588254593374,3.3379559474132483,0.9226395894544609
1730865964.3334875,-1.775434136390686,1.1180026531219482,-9.734968185424805,0.26978692839721313,-0.2972960362282628,0.15748337044534863,1.11571150519283,3.270606166914725,0.9209896891950518
1730865964.3334875,-1.7961090803146362,1.0978853702545166,-9.74190616607666,0.2699389895403698,-0.29860620196354254,0.1572234030729393,1.1157182964731853,3.2702757623952032,0.9210035718205803
1730865964.3834748,-1.8024729490280151,1.096219539642334,-9.761283874511719,0.2700927591608065,-0.2999834953339093,0.15696028446072424,1.1174498143881495,3.2020552174112766,0.9240501032776326
1730865964.4334664,-1.8615046739578247,1.0873790979385376,-9.789366722106934,0.2702487315216413,-0.3014190081544421,0.15669945175224287,1.1161548204543739,3.133142650649125,0.9276376802747741
1730865964.4834557,-1.8906596899032593,1.113863468170166,-9.796687126159668,0.27040830742979227,-0.30290370777794456,0.15644689584225652,1.1178540163984505,3.062960156034163,0.9312494177468309
1730865964.533443,-1.8843986988067627,1.1354656219482422,-9.818350791931152,0.2705740943924466,-0.304428558373025,0.15620873058902696,1.1202239091576003,2.9922745445898635,0.9352391560425904
1730865964.5834439,-1.8520234823226929,1.1645499467849731,-9.829914093017578,0.27075000968350993,-0.30598479896996833,0.15599084899385016,1.1232701988038585,2.9208202611029566,0.9396192241848799
1730865964.6334517,-1.8085271120071411,1.176212191581726,-9.861815452575684,0.27094099465565574,-0.3075642861489652,0.15579863790171833,1.1169139914341457,2.8485238932631396,0.930892777652791
1730865964.6834452,-1.7181299924850464,1.1627516746520996,-9.876137733459473,0.2711523797791502,-0.3091597510953322,0.155636702795543,1.118644867578901,2.7755169890594673,0.9331451299642644
1730865964.7333987,-1.6924563646316528,1.1392431259155273,-9.905946731567383,0.27138904168548533,-0.31076484038919855,0.1555086036628753,1.1173503732378989,2.7005866896709083,0.9314283390394228
1730865964.7834475,-1.6710063219070435,1.1597439050674438,-9.915834426879883,0.27165461030744187,-0.31237395518279615,0.1554166339749604,1.1190679250867697,2.6275930528173945,0.9331502504033946
1730865964.8333828,-1.6623401641845703,1.1732234954833984,-9.910504341125488,0.2719510057195812,-0.3139821005335217,0.15536169333345845,1.121569150172382,2.5502219432540603,0.9353563842133383
1730865964.8834436,-1.664509892463684,1.188157320022583,-9.918722152709961,0.27227833322608264,-0.3155849077940154,0.15534330530800944,1.1245999561528213,2.4761644384603057,0.9378238449558196
1730865964.933397,-1.6572636365890503,1.1673773527145386,-9.908549308776855,0.27263498858180396,-0.3171787330641993,0.15535975657253637,1.117935275854641,2.3996828618766903,0.9284063274568553
1730865964.9834638,-1.6591688394546509,1.130024790763855,-9.90406608581543,0.2730178510706797,-0.31876061309880155,0.1554082910139596,1.1196565567302093,2.3216938077973746,0.929049755163235
1730865965.0333724,-1.6591688394546509,1.130024790763855,-9.90406608581543,0.27342249803310736,-0.32032800192206884,0.15548532789141925,1.1182168770141552,2.2436095795259448,0.9249182343641126
1730865965.0333724,-1.6374982595443726,1.1253414154052734,-9.897210121154785,0.27384340387944006,-0.3218784576081946,0.1555866719381952,1.1182293975222808,2.242896190457897,0.9249149333052216
1730865965.0834715,-1.6542800664901733,1.1127800941467285,-9.890379905700684,0.27427409616004117,-0.32340946270757553,0.15570769772224746,1.1184381444341205,2.164372454286727,0.9221225129151218
1730865965.1333466,-1.6624219417572021,1.1077226400375366,-9.87459659576416,0.2747073181060875,-0.32491834706712913,0.1558435374077794,1.1200802645836307,2.084591650075009,0.9214896803149867
1730865965.183495,-1.6803877353668213,1.1172305345535278,-9.872438430786133,0.27513528574123297,-0.3264022403821063,0.1559892860568921,1.122422105642768,2.0034507788391536,0.9212430060924579
1730865965.2333581,-1.6642932891845703,1.1443051099777222,-9.851571083068848,0.2755499939195505,-0.32785811245792107,0.1561402011830712,1.1192179290684947,1.9217020316021571,0.9200868591304521
1730865965.2835011,-1.676072597503662,1.1518168449401855,-9.866317749023438,0.2759434426503148,-0.32928295545240693,0.15629186674738477,1.120939574631665,1.839168883782453,0.9201342988360438
1730865965.3333554,-1.688549518585205,1.173169493675232,-9.839729309082031,0.2763077787881212,-0.3306740363657324,0.15644030000292472,1.1198467345199026,1.7569040730429413,0.920290375631172
1730865965.3832452,-1.7406500577926636,1.1670211553573608,-9.839791297912598,0.276635494272123,-0.3320291058301762,0.15658202688749728,1.1216604931034324,1.6727878354553194,0.9208570896187347
1730865965.4331973,-1.7592371702194214,1.1434805393218994,-9.807424545288086,0.276919780690813,-0.3333464768690277,0.15671418695551007,1.1206570236133873,1.5879558384005132,0.9203838112947877
1730865965.4832108,-1.7919294834136963,1.1425443887710571,-9.786770820617676,0.27715495964403447,-0.3346249281444416,0.15683469568996353,1.1225434982010545,1.502634401326199,0.9210904123436009
1730865965.5332005,-1.8289555311203003,1.1339582204818726,-9.734051704406738,0.2773368551881591,-0.3358635116845288,0.15694247709634293,1.1251426177958717,1.4156437760070189,0.9221967772268733
1730865965.5832748,-1.906752586364746,1.1017496585845947,-9.722082138061523,0.27746313825276825,-0.33706137346294657,0.15703775773241146,1.1214576026618455,1.3283974269639824,0.9203888991373568
1730865965.6332035,-1.9440362453460693,1.0649313926696777,-9.711519241333008,0.2775337527206002,-0.3382175364269142,0.15712231264009802,1.1233220541819,1.240089694739875,0.9211936107517296
1730865965.6832056,-1.954621434211731,1.0486096143722534,-9.747272491455078,0.2775513286865562,-0.3393305863648476,0.1571994927337634,1.1204714938665776,1.1516261070238485,0.9201799904447397
1730865965.733109,-1.9300211668014526,1.0519165992736816,-9.785317420959473,0.2775213042199397,-0.34039838677397805,0.15727393333112208,1.1218812842492714,1.0599178968787382,0.9209690288750736
1730865965.7832572,-1.8917458057403564,1.0662336349487305,-9.863221168518066,0.27745160048883577,-0.3414180007102001,0.1573509531739454,1.1239254836913712,0.9705036151944519,0.9221180719639847
1730865965.8331983,-1.8261340856552124,1.0515388250350952,-9.917787551879883,0.2773519161637485,-0.34238582543200646,0.15743573067424055,1.126685072838239,0.8789306218911203,0.9236728582983393
1730865965.8832433,-1.7325536012649536,1.0188775062561035,-9.973783493041992,0.27723275434826183,-0.34329774548252556,0.15753242134607595,1.1198912408440596,5.770808385619413,0.9201126231273872
1730865965.9331484,-1.6438817977905273,1.0134690999984741,-9.997303009033203,0.2771042570316823,-0.3441491327340659,0.15764342325469632,1.1213628772364335,5.765318631619536,0.9209716321759418
1730865965.9832146,-1.6068297624588013,1.0392526388168335,-10.010113716125488,0.27697501736814134,-0.34493479095629476,0.15776894012132164,1.119157032131043,5.751501807172185,0.9198249785617263
1730865966.0331244,-1.5930547714233398,1.1113393306732178,-9.983500480651855,0.27685119343427245,-0.34564912963345795,0.15790690170608496,1.1204658516283892,5.741957244039747,0.9206106487964882
1730865966.0831685,-1.6152253150939941,1.2080261707305908,-9.939994812011719,0.2767361688201694,-0.3462867589978897,0.15805325489605543,1.1185930483338815,5.737165160409372,0.9193613118604848
1730865966.1329873,-1.6628810167312622,1.2549554109573364,-9.904179573059082,0.2766307636817771,-0.34684342667025747,0.15820257100945467,1.1198804206758575,5.728025597691329,0.9200631465686876
1730865966.183079,-1.7237470149993896,1.2498868703842163,-9.840123176574707,0.2765338715925121,-0.3473169038044084,0.15834882105094006,1.121851490574103,5.718053975623818,0.9211563504464184
1730865966.232996,-1.7540323734283447,1.1959750652313232,-9.810408592224121,0.27644333133484944,-0.3477073459889272,0.1584861697187955,1.1181759827228606,5.718085613923685,0.919218079498203
1730865966.282932,-1.7761001586914062,1.1373709440231323,-9.77637004852295,0.2763567584471044,-0.3480169548705911,0.15860967059299652,1.117315338396849,5.702406640412221,0.9189433814054028
1730865966.3329697,-1.7739691734313965,1.080772876739502,-9.734260559082031,0.27627210912153316,-0.3482491561212142,0.15871578058621,1.1184723232517033,5.6915207446628715,0.9196856089933646
1730865966.3838212,-1.7863746881484985,1.0190056562423706,-9.72805404663086,0.27618793949057374,-0.3484076411703196,0.1588027037846868,1.1164551341711124,5.683583774284816,0.9184685463812726
1730865966.4338863,-1.7863746881484985,1.0190056562423706,-9.72805404663086,0.2761034728359657,-0.34849553672866024,0.1588705569262845,1.1175128532949932,5.671503596927818,0.9190993282275566
1730865966.4338863,-1.763444423675537,0.9958710074424744,-9.702902793884277,0.27601856780780054,-0.3485148824539803,0.15892132645188597,1.1175559698935769,5.671121270845806,0.9191248142186702
1730865966.4838243,-1.7485802173614502,0.980993390083313,-9.72205638885498,0.2759335722977335,-0.34846644118674674,0.15895870380776866,1.1192656638382787,5.658515136300046,0.9201303575079324
1730865966.5338418,-1.7739217281341553,0.9647471904754639,-9.749009132385254,0.2758491032789423,-0.3483496750176528,0.158987837830804,1.1161761971056332,5.669345249659804,0.9180974393183756
1730865966.5839176,-1.776928424835205,1.0090956687927246,-9.792386054992676,0.27576593071260924,-0.3481628084474373,0.1590149072517872,1.117487395981644,5.6613978855714215,0.918816213157943
1730865966.6337254,-1.7719019651412964,1.0469619035720825,-9.85647201538086,0.27568501435649806,-0.34790311250128514,0.1590464855606472,1.115706304703459,5.6509730888157375,0.917928141484583
1730865966.6840096,-1.742720127105713,1.0767850875854492,-9.918389320373535,0.2756075128693086,-0.3475674586606141,0.1590887645133086,1.1169894349420268,5.640509974427364,0.918692950922826
1730865966.733826,-1.7308605909347534,1.0838773250579834,-9.983128547668457,0.275534629696944,-0.34715292893893135,0.1591467236826178,1.1154773224395214,5.6368793402783055,0.9177673522514171
1730865966.7839155,-1.7244657278060913,1.1198302507400513,-10.016728401184082,0.27546736899406593,-0.3466572658714017,0.15922337769639777,1.1168201768875492,5.627205148624994,0.9185385615538497
1730865966.8337839,-1.7244657278060913,1.1198302507400513,-10.016728401184082,0.2754063549990145,-0.34607916297475794,0.1593192753665092,1.1163501571396997,5.619569705402999,0.9176087772934287
1730865966.8337839,-1.6922295093536377,1.1217204332351685,-10.01152515411377,0.2753517469495368,-0.34541844077868433,0.1594323890997489,1.1163614981584637,5.619493350709904,0.9176138558661661
1730865966.8839517,-1.6949405670166016,1.091368556022644,-10.003122329711914,0.27530315756300955,-0.34467605112211575,0.15955836533766654,1.118048982463895,5.610038405153309,0.9184153499905812
1730865966.9338105,-1.6541407108306885,1.079060673713684,-9.937772750854492,0.275259531247097,-0.34385387493580977,0.15969100709328943,1.117127948293735,5.604417380977865,0.9180524600588151
1730865966.9837117,-1.6971153020858765,1.0559735298156738,-9.882655143737793,0.27521904659025265,-0.3429543952667512,0.15982297090340852,1.118869507705249,5.595074836296533,0.9190230439572898
1730865967.0336804,-1.7184339761734009,1.0200108289718628,-9.829143524169922,0.2751791876224762,-0.3419803449658564,0.15994666138805658,1.1189262295600153,5.585933882426932,0.918695226273932
1730865967.0837424,-1.7796587944030762,0.9819168448448181,-9.78043270111084,0.27513709883942655,-0.34093433375937554,0.16005514023339268,1.1212086040019789,5.573636287876062,0.919839324756101
1730865967.1336548,-1.7767276763916016,0.9837790727615356,-9.749464988708496,0.2750901232962114,-0.3398184691057101,0.16014286634762234,1.1241680116112165,5.560551753955586,0.9213783993438319
1730865967.1838517,-1.7815088033676147,1.03798508644104,-9.75819206237793,0.2750362473482672,-0.338634163521954,0.16020617022425734,1.1201622694017492,5.569285611422941,0.9189280638899864
1730865967.2337184,-1.7815088033676147,1.03798508644104,-9.75819206237793,0.2749742730328619,-0.3373823152709149,0.16024338708180869,1.1221524067649273,5.5607380308147505,0.9199331455554909
1730865967.2337184,-1.7619465589523315,1.1153185367584229,-9.77953052520752,0.27490376736196254,-0.3360637669066269,0.16025467698329166,1.1221739684641083,5.5606550714465195,0.9199442793047583
1730865967.283684,-1.7306779623031616,1.2181533575057983,-9.794438362121582,0.2748248738642189,-0.33467992816461667,0.16024166786917687,1.1248448090534418,5.551272758738191,0.9213460846400554
1730865967.3336196,-1.73723566532135,1.2622041702270508,-9.825244903564453,0.27473802191212693,-0.3332336057028379,0.16020702373323178,1.1282311749547107,5.540950793388565,0.9231633353820221
1730865967.3837023,-1.7728885412216187,1.2536513805389404,-9.841352462768555,0.2746437008435866,-0.3317297976703603,0.1601539862690764,1.12123576307267,5.557324264706997,0.9189886986692718
1730865967.4336104,-1.7957485914230347,1.2329119443893433,-9.852080345153809,0.2745425047281024,-0.3301759834953588,0.1600859531873362,1.1231146435553403,5.551061899457942,0.9199291076929023
1730865967.4835632,-1.8130037784576416,1.187165379524231,-9.869086265563965,0.27443540009972633,-0.3285817978355553,0.16000615830817327,1.122440844685285,5.537606870574562,0.9189220768514619
1730865967.5335834,-1.8403993844985962,1.1168467998504639,-9.861696243286133,0.27432400670082246,-0.32695830319832314,0.1599174672735624,1.1244139210071225,5.528776261644761,0.9198138213872421
1730865967.5836523,-1.8365612030029297,1.1099493503570557,-9.855596542358398,0.27421078523102244,-0.3253170921623142,0.15982229233613054,1.1247876428955914,5.514232195660516,0.9184325000612916
1730865967.6335382,-1.8015090227127075,1.1125519275665283,-9.858222961425781,0.2740990677810876,-0.3236695158018926,0.15972262554922312,1.1264776646003405,5.498043958611238,0.9178742863891157
1730865967.683565,-1.7416749000549316,1.0947171449661255,-9.853496551513672,0.27399279970195056,-0.3220262722614594,0.1596201212574627,1.1290840260984427,5.4850943468405475,0.9184768140782007
1730865967.7336876,-1.707353949546814,1.0896289348602295,-9.870576858520508,0.2738959731906674,-0.3203972543271644,0.15951614634067016,1.132401974328241,5.471244644245752,0.9194877459308123
1730865967.7836096,-1.6856294870376587,1.0882185697555542,-9.87708854675293,0.2738119727924079,-0.31879145394362773,0.1594117638018133,1.1363572918957612,5.456786124491177,0.9208822802973944
1730865967.833548,-1.6856732368469238,1.1131680011749268,-9.89499282836914,0.27374311049477673,-0.3172169272444282,0.15930765068724512,1.1285554454097149,5.477188564414101,0.9176017728176188
1730865967.8835711,-1.6620116233825684,1.1451038122177124,-9.884458541870117,0.27369043694432243,-0.315680919371301,0.1592040025374965,1.1307637840803904,5.468512518696804,0.91838560831774
1730865967.9334772,-1.6606212854385376,1.1801331043243408,-9.870457649230957,0.27365371607077693,-0.3141901701121115,0.15910052032449132,1.1302117309797644,5.457287731312057,0.917119535780509
1730865967.9834714,-1.653437852859497,1.1797866821289062,-9.851520538330078,0.27363145566871155,-0.31275128983750494,0.15899654429485122,1.132633314216773,5.445733322228646,0.9178117606011269
1730865968.0334425,-1.6758476495742798,1.1824043989181519,-9.821070671081543,0.27362100944503936,-0.3113710164670339,0.15889131105525434,1.1357301442412613,5.433438513519252,0.9188986358679937
1730865968.0835173,-1.7237505912780762,1.1566532850265503,-9.81063461303711,0.27361883576244356,-0.3100562390503849,0.15878426145983363,1.1395214499113824,5.420329052324045,0.9203865496301121
1730865968.1334534,-1.7996176481246948,1.1426687240600586,-9.782665252685547,0.273621005478939,-0.30881381122037166,0.15867532648846341,1.131935151842116,5.440317191718868,0.9168510834218535
1730865968.1835039,-1.7996176481246948,1.1426687240600586,-9.782665252685547,0.2736239107279505,-0.30765026907684995,0.1585651397534555,1.1340004123110665,5.433274257537309,0.9176577404932188
1730865968.1835039,-1.8628112077713013,1.1092867851257324,-9.77823543548584,0.27362491763266533,-0.306571575107666,0.1584551453428176,1.1340116150175723,5.433239668973835,0.917662414834346
1730865968.2334023,-1.8774480819702148,1.0935637950897217,-9.79169750213623,0.27362280781751613,-0.3055828912354706,0.1583475727488657,1.1338807589536688,5.419947291272435,0.916263834037875
1730865968.2834685,-1.8534674644470215,1.108945369720459,-9.822172164916992,0.2736180205642058,-0.3046883639282414,0.15824526425517552,1.1354059835843884,5.3999035216124,0.9157802417135433
1730865968.3333826,-1.7973651885986328,1.1064001321792603,-9.855999946594238,0.27361256749852914,-0.303891033872697,0.1581513494780094,1.137952130972503,5.385554666264766,0.916333490992388
1730865968.3833833,-1.749116063117981,1.0848197937011719,-9.900351524353027,0.2736095056539419,-0.3031928891958505,0.1580687902219528,1.1411655912634138,5.370519180332028,0.917276633550476
1730865968.4334073,-1.6887575387954712,1.0780417919158936,-9.944061279296875,0.2736121375970705,-0.3025948967124455,0.1579998618699834,1.1450817879591628,5.354637538581244,0.9186202427359762
1730865968.4834383,-1.660573959350586,1.0784896612167358,-9.943114280700684,0.273623205285334,-0.3020969594213247,0.15794567847964297,1.137313219699945,5.3793943220826,0.9157890931221792
1730865968.5333052,-1.6808581352233887,1.0688133239746094,-9.9386625289917,0.2736443043558089,-0.30169790411696834,0.1579059292970563,1.1380914118767094,5.364023986416876,0.9155312268951145
1730865968.5834394,-1.6925055980682373,1.0484857559204102,-9.91047477722168,0.27367570336798197,-0.30139551229162326,0.1578789399493964,1.1402276274528687,5.353381428817373,0.9162758746928907
1730865968.6333168,-1.7340891361236572,1.0040960311889648,-9.874168395996094,0.2737165681152841,-0.30118648373523427,0.15786201427258484,1.1402858198129528,5.34804153727194,0.9156321737011373
1730865968.6832635,-1.7513102293014526,0.9668171405792236,-9.831408500671387,0.27376540793476595,-0.3010662519523954,0.15785195385088008,1.1427006480969357,5.338400093049824,0.9164808486213382
1730865968.7332773,-1.7555934190750122,0.9132131338119507,-9.825553894042969,0.2738205378541809,-0.3010286780785647,0.15784562899235546,1.1458050936942714,5.327987417824846,0.9177260970668079
1730865968.783267,-1.7511773109436035,0.8991687297821045,-9.808719635009766,0.27388038817801064,-0.3010657317786604,0.1578404266958508,1.1414364884944375,5.328149791379914,0.9157311781267434
1730865968.833155,-1.7669599056243896,0.9138646125793457,-9.811017036437988,0.2739436231138376,-0.30116733095859916,0.15783447982059406,1.1435289381343416,5.318797300490172,0.9166270938578828
1730865968.8833268,-1.7647291421890259,0.9623916149139404,-9.817171096801758,0.2740091804497354,-0.3013215302658802,0.15782671372985765,1.1463031166625424,5.308702455755183,0.9179160528022213
1730865968.9331322,-1.774051547050476,0.9942019581794739,-9.836055755615234,0.2740763141312286,-0.301515098872108,0.15781675477372534,1.142759829824445,5.310197094308012,0.915750499898224
1730865968.9830694,-1.7563841342926025,1.0308074951171875,-9.850176811218262,0.27414461190664835,-0.30173429894702436,0.15780472321912983,1.1448157816905582,5.301931412323303,0.9166480575202948
1730865969.0331802,-1.7418923377990723,1.052126407623291,-9.863423347473145,0.27421392801873395,-0.301965620824165,0.15779096973257417,1.147582267683996,5.292826571438223,0.9179518379945959
1730865969.0830772,-1.7634446620941162,1.1164103746414185,-9.859697341918945,0.27428424656171513,-0.30219639160057776,0.15777584365032282,1.150992521314464,5.283093389851451,0.919629834645662
1730865969.1331055,-1.7613576650619507,1.1499154567718506,-9.857751846313477,0.27435560275245774,-0.3024153353802578,0.15775956596971588,1.144290755922932,5.288854479500972,0.9155671496619219
1730865969.1830616,-1.7668864727020264,1.152148723602295,-9.854114532470703,0.2744281188270584,-0.3026130807450747,0.1577422170615301,1.1454947224401821,5.269163028371328,0.9151959727256007
1730865969.2330203,-1.7597706317901611,1.146106243133545,-9.849930763244629,0.27450205432329744,-0.30278242896477825,0.15772378667475986,1.1476963430426526,5.25768950319039,0.9159569624896313
1730865969.2830868,-1.7832831144332886,1.1196283102035522,-9.831854820251465,0.27457781746833004,-0.30291827113334424,0.15770424990634135,1.1475304432875897,5.2490299215783445,0.9150074263435043
1730865969.3329446,-1.7911642789840698,1.0579688549041748,-9.824539184570312,0.2746560067702737,-0.30301720624944,0.1576836795600682,1.1498903713898807,5.2380165719078455,0.9157802972520855
1730865969.3830001,-1.793712854385376,1.0126854181289673,-9.833224296569824,0.27473750916229794,-0.3030769191965588,0.15766236560352048,1.1500861922876837,5.229120415870617,0.9115669465859891
1730865969.432937,-1.7517714500427246,1.0202561616897583,-9.849518775939941,0.27482353452866304,-0.30309547746685966,0.15764084180876048,1.152646479806993,5.2182182443088045,0.9114007083936333
1730865969.4829564,-1.7155946493148804,1.0792349576950073,-9.881749153137207,0.2749154281913333,-0.30307091109348683,0.15761975097754272,1.1525377448082097,5.207671647482801,0.907880968730971
1730865969.532836,-1.6973638534545898,1.1483683586120605,-9.885079383850098,0.2750142730726066,-0.30300136448149195,0.15759958937174395,1.1552228893332808,5.195535341431979,0.9072722330344719
1730865969.5827827,-1.6990910768508911,1.1914793252944946,-9.90003490447998,0.2751205033795313,-0.30288572050567675,0.1575804571105446,1.158602752711267,5.182605238077246,0.9070548042927167
1730865969.6338701,-1.7048535346984863,1.1952179670333862,-9.894710540771484,0.2752337371478465,-0.30272428053757794,0.15756191923076368,1.1627908265350626,5.168534646343424,0.9072414726581185
1730865969.6838133,-1.7279154062271118,1.140415906906128,-9.889106750488281,0.2753528514847634,-0.3025190730584667,0.15754299453819068,1.1675346827802249,5.1541591159756575,0.9078176683463123
1730865969.7338028,-1.727390170097351,1.0967813730239868,-9.850716590881348,0.275476206562962,-0.3022735970155743,0.15752227732775867,1.1546896365941257,5.1918076181725,0.9025409376841583
1730865969.7837937,-1.7448590993881226,1.0502889156341553,-9.854978561401367,0.27560189995031126,-0.30199214183943807,0.15749819012217695,1.15684500122498,5.1854125528778505,0.9023341527315124
1730865969.8337355,-1.7205950021743774,1.0371060371398926,-9.837763786315918,0.2757279525011742,-0.30167903295762066,0.15746926316868093,1.1571141122390902,5.17366556104743,0.8963709641913414
1730865969.8838043,-1.7044275999069214,1.004769206047058,-9.838481903076172,0.27585235324177926,-0.30133806369996435,0.15743432045071282,1.159770882063942,5.163670624946324,0.8948651225224055
1730865969.9337204,-1.6762114763259888,1.0011883974075317,-9.852025985717773,0.27597293581242094,-0.3009721542125221,0.1573925507121547,1.1631030931344022,5.152973231398185,0.8937594448207062
1730865969.9836867,-1.6579885482788086,0.9812003374099731,-9.872231483459473,0.2760871523317925,-0.3005831737697458,0.15734345397931931,1.1671387514079836,5.141482798827527,0.8930435291086617
1730865970.0337353,-1.6788157224655151,1.0039273500442505,-9.869159698486328,0.2761918853646719,-0.3001718975111538,0.1572866754786943,1.1596162245399086,5.152707334678513,0.8912143335746349
1730865970.0836577,-1.7302862405776978,0.9892690777778625,-9.866273880004883,0.2762834829523325,-0.2997381004865495,0.15722184863331373,1.1618965568190625,5.145300058172401,0.8906749381813589
1730865970.1336935,-1.7561147212982178,1.0005706548690796,-9.84821891784668,0.2763581198388022,-0.29928073615495526,0.1571485652912222,1.1622246845640078,5.13516104882994,0.8887107842544225
1730865970.1836424,-1.7367112636566162,1.0267400741577148,-9.844929695129395,0.27641229029130077,-0.2987981426581455,0.1570664692465197,1.1623205299966608,5.116463449486702,0.8858428860086207
1730865970.2335315,-1.7292639017105103,1.0034098625183105,-9.847564697265625,0.27644307991207606,-0.2982882795779743,0.15697537893289357,1.16450981518299,5.102348371913013,0.8846484477251926
1730865970.283596,-1.7082710266113281,1.0320013761520386,-9.856908798217773,0.27644811348155807,-0.2977489436248368,0.15687533708202706,1.167401463457052,5.087421835192114,0.8838414525667995
1730865970.3336132,-1.7297741174697876,1.0265306234359741,-9.872505187988281,0.27642537426880076,-0.2971779212560745,0.15676654913922966,1.1710051980050489,5.0716742060517985,0.8834270587877754
1730865970.3835676,-1.73284912109375,1.026072382926941,-9.879054069519043,0.276373113409739,-0.2965731175034225,0.15664924396971647,1.1628003440426335,5.10291553198716,0.8865856407311502
1730865970.4335475,-1.7507237195968628,1.0402652025222778,-9.899032592773438,0.27628990942460274,-0.2959326552400041,0.15652351267424425,1.1646374052955697,5.095693513366755,0.8871331427353227
1730865970.4835615,-1.7441734075546265,1.067531943321228,-9.886956214904785,0.2761747884805652,-0.29525497403539314,0.1563891743660603,1.1671728372004322,5.087703908878528,0.8880742966077753
1730865970.5335526,-1.7646288871765137,1.0706843137741089,-9.89332103729248,0.27602731025545935,-0.294539003355905,0.15624571893927747,1.1653727471256585,5.092620083101766,0.8873853700505491
1730865970.583584,-1.8092890977859497,1.0768513679504395,-9.85693645477295,0.27584765881079976,-0.2937843484479558,0.15609236772966714,1.167562064864752,5.086772944536778,0.888198183044016
1730865970.6335008,-1.8451093435287476,1.0780317783355713,-9.835271835327148,0.27563686263158366,-0.2929913771641224,0.15592827297907896,1.170469984802299,5.080106022174283,0.8894108857419735
1730865970.6835158,-1.8778879642486572,1.068177342414856,-9.794242858886719,0.27539714203935617,-0.2921611982201996,0.1557528460580161,1.1684579117049283,5.074025462748635,0.8876473220795481
1730865970.7335863,-1.8792659044265747,1.0619271993637085,-9.761591911315918,0.27513221310681835,-0.2912955595099149,0.15556615312579397,1.1709709735920568,5.066147523308253,0.8885220965304403
1730865970.7835293,-1.8781741857528687,1.0342954397201538,-9.767451286315918,0.27484738410242404,-0.290396672596006,0.15536926823679376,1.171004646246842,5.0560409401258575,0.8879474456391372
1730865970.8334446,-1.8452465534210205,1.0448501110076904,-9.792409896850586,0.27454938956858543,-0.2894669901004533,0.1551644159014627,1.1726911346714814,5.0433737014530315,0.8880796473755368
1730865970.8834481,-1.7909832000732422,1.0523160696029663,-9.833215713500977,0.27424596599879963,-0.2885090351321985,0.15495477371844754,1.1755251160803901,5.032314444046587,0.8890258273818247
1730865970.9334626,-1.7380390167236328,1.0403714179992676,-9.891928672790527,0.27394519097699266,-0.2875253583396182,0.15474396961144943,1.179048255008137,5.0205177272723995,0.8903602668424662
1730865970.9834626,-1.6841381788253784,1.027842402458191,-9.939653396606445,0.27365468573902585,-0.28651853110711534,0.15453540448530917,1.18327574742962,5.007946969470734,0.8920896331456452
1730865971.0333781,-1.598343849182129,1.0370818376541138,-9.97574520111084,0.27338080917909513,-0.28549107439017707,0.15433155749301353,1.175021004314597,5.029090756596526,0.8884628448318224
1730865971.083417,-1.5712602138519287,1.0332560539245605,-9.993497848510742,0.2731279038277491,-0.284445388575466,0.1541334451117651,1.1773182281990757,5.022517528871042,0.8894228167002721
1730865971.133399,-1.550557255744934,1.039259433746338,-9.944525718688965,0.2728977201994714,-0.2833837539751826,0.15394039118479544,1.1772263005967725,5.014933344395801,0.8885910331528214
1730865971.1834455,-1.5575945377349854,1.0153611898422241,-9.915091514587402,0.2726892072975115,-0.2823083473378849,0.15375022544331712,1.179883397611211,5.006166984321362,0.8895531466168131
1730865971.233443,-1.6128383874893188,0.9890211224555969,-9.859123229980469,0.2724987288917756,-0.28122117197609264,0.15355986100759522,1.183221979666769,4.996700612037776,0.8908997893150286
1730865971.283348,-1.700724482536316,0.9786924719810486,-9.800239562988281,0.27232070807877384,-0.2801238675801928,0.15336604629017347,1.187226824558121,4.986570500360917,0.8926237887941885
1730865971.3333108,-1.7688379287719727,1.0146944522857666,-9.755945205688477,0.2721486657029403,-0.2790175398103044,0.1531661371180138,1.1790064032332583,5.002195795288203,0.8886278921574813
1730865971.3833656,-1.8208271265029907,1.02140212059021,-9.763900756835938,0.2719764047538431,-0.27790281252291693,0.15295874032677045,1.1809225923295914,4.98911884028874,0.8882140301652431
1730865971.433279,-1.8217395544052124,1.0340009927749634,-9.765320777893066,0.2717989657814459,-0.2767800828163958,0.1527440193859188,1.1834932126716975,4.98053483798977,0.8889569966959932
1730865971.48329,-1.782911777496338,1.0537012815475464,-9.80487060546875,0.2716130776409356,-0.27564979061173467,0.15252359260301349,1.1859207334148012,4.971628785588114,0.8879910647951105
1730865971.5332751,-1.7525897026062012,1.0612386465072632,-9.85537052154541,0.2714170352730875,-0.2745126294376361,0.15230011569714957,1.1894840841464902,4.961788845420113,0.8887304437310413
1730865971.5832372,-1.7406247854232788,1.1116029024124146,-9.87990665435791,0.2712102129056748,-0.2733697498124662,0.1520766684592245,1.1937298151511044,4.951255660254199,0.889851732486706
1730865971.633259,-1.770524501800537,1.115897536277771,-9.90289306640625,0.2709925991299095,-0.2722230034622901,0.15185613186622768,1.1986478289600224,4.9400547499085095,0.8913516321148135
1730865971.683197,-1.7900440692901611,1.1545110940933228,-9.899785995483398,0.2707646300522841,-0.2710751998286888,0.1516407555873962,1.1903421764490254,4.959305327773172,0.8881016431422072
1730865971.7331789,-1.8505797386169434,1.163799524307251,-9.896068572998047,0.270527341031788,-0.2699303021105365,0.15143198341729547,1.1911001182634902,4.948157740031586,0.8879830182285543
1730865971.783353,-1.8653908967971802,1.1624170541763306,-9.862640380859375,0.2702827050179475,-0.26879352020224534,0.15123051244019264,1.1936401409588029,4.940222081097844,0.888794747970662
1730865971.8332534,-1.84821355342865,1.119704008102417,-9.858514785766602,0.270033935579736,-0.26767121964805773,0.15103653069460984,1.1968323355799975,4.931687155828738,0.8899767507595812
1730865971.8832345,-1.8270213603973389,1.114829421043396,-9.805334091186523,0.2697855001892927,-0.2665705798159793,0.15085004937370808,1.2007044906338684,4.922468049813098,0.8915377499988169
1730865971.9334147,-1.793975830078125,1.0453251600265503,-9.822367668151855,0.26954278866435555,-0.26549907987804144,0.150671249321334,1.1934357676470442,4.933304175816248,0.8883736601699056
1730865971.9832606,-1.7209333181381226,1.0137131214141846,-9.828447341918945,0.2693115611778596,-0.26446390184347235,0.15050071610957177,1.19564560616313,4.927701129692605,0.8892856602576834
1730865972.0332992,-1.6012029647827148,0.9719731211662292,-9.870986938476562,0.2690971790786627,-0.2634713004167579,0.1503394122073388,1.1955381032438257,4.918121405169805,0.8885527362320071
1730865972.0832047,-1.5673483610153198,0.9927900433540344,-9.874567985534668,0.2689036012059669,-0.26252610108011387,0.15018840284646615,1.1980958969779145,4.909717605849207,0.8894864464628243
1730865972.133241,-1.5617990493774414,1.0194441080093384,-9.915316581726074,0.2687324745912828,-0.2616315416180122,0.15004850773666872,1.1977716096527642,4.903105190248285,0.888776735639941
1730865972.1831715,-1.576568603515625,1.0584110021591187,-9.886327743530273,0.26858276883595145,-0.260789521215196,0.14992002577643918,1.2004028629960868,4.894132039669534,0.8897173971720777
1730865972.2332606,-1.631142258644104,1.0728533267974854,-9.91388988494873,0.2684510267018536,-0.2600010956186056,0.14980261414645862,1.203729416776699,4.884430520575532,0.8910416636429676
1730865972.283102,-1.7173388004302979,1.079965353012085,-9.86382007598877,0.2683320678439435,-0.25926695499317665,0.1496953374246902,1.1996348780583368,4.8908079873337105,0.8887789237812326
1730865972.3331964,-1.82231605052948,1.1077828407287598,-9.826631546020508,0.2682200532732346,-0.25858774220699066,0.14959689666073595,1.201899590652878,4.8845152661527775,0.8896668537854621
1730865972.383157,-1.8533849716186523,1.1184059381484985,-9.800682067871094,0.26810973278803435,-0.25796426469456735,0.14950605033121334,1.2025141774916102,4.875832592705958,0.8886934280213385
1730865972.4330823,-1.8954871892929077,1.0949914455413818,-9.761144638061523,0.2679974943340857,-0.25739764182962555,0.14942210203103515,1.2052816440870022,4.867436681320304,0.8895340016428112
1730865972.4830406,-1.8989217281341553,1.0262970924377441,-9.779446601867676,0.2678819390912068,-0.2568892368462108,0.1493452677343093,1.2087012555279446,4.8584435053991015,0.8907416639337248
1730865972.5331557,-1.8536771535873413,1.0082930326461792,-9.78778076171875,0.2677639715017981,-0.2564402506044305,0.14927679850753225,1.2128454859849764,4.848677488118409,0.8923437146205746
1730865972.5831227,-1.783974289894104,1.004658818244934,-9.84261703491211,0.2676464150949464,-0.2560511905044356,0.1492187922011317,1.2052999464669167,4.8619771910560985,0.888752588444253
1730865972.6330674,-1.7528783082962036,1.0574264526367188,-9.855023384094238,0.2675332168596495,-0.25572160935858806,0.14917375108054975,1.2085979453333473,4.841613452186506,0.8886022621514941
1730865972.6830595,-1.7219197750091553,1.080628514289856,-9.910914421081543,0.26742855344478134,-0.2554502898997461,0.1491440464860186,1.2110506156919991,4.827165866043685,0.8924355228346235
1730865972.7331333,-1.7219197750091553,1.080628514289856,-9.910914421081543,0.26733617217138705,-0.25523568470543295,0.14913142905307367,1.2147708686770107,4.812605049285838,0.8949377956179203
1730865972.7331333,-1.704637885093689,1.1132997274398804,-9.919187545776367,0.2672590479435054,-0.25507629578952684,0.14913668909426434,1.2148169682689869,4.812436061367977,0.8949683588094949
1730865972.7830756,-1.6880874633789062,1.1303209066390991,-9.951221466064453,0.26719924015841584,-0.2549709188833269,0.14915951141058575,1.219132860742077,4.797505515967704,0.8977953233199532
1730865972.8330402,-1.6892642974853516,1.1353075504302979,-9.929433822631836,0.2671578177224833,-0.2549188462024938,0.14919844559727982,1.224183435921659,4.781699203458008,0.90103923980915
1730865972.8830557,-1.6928538084030151,1.1137971878051758,-9.93874454498291,0.2671348420799841,-0.25491997727410354,0.14925095311621445,1.2298817531794954,4.765315526111853,0.9046434098711872
1730865972.9329422,-1.7044410705566406,1.0738990306854248,-9.894899368286133,0.26712946325877585,-0.2549747013871409,0.1493135950404694,1.212476121123734,4.817234425498503,0.8956460277005018
1730865972.9829872,-1.7288248538970947,1.0470776557922363,-9.854463577270508,0.267140130286766,-0.25508353641411396,0.14938239656093663,1.2146081467455796,4.811799121454268,0.8971864650299983
1730865973.0330038,-1.782965898513794,1.0143132209777832,-9.822835922241211,0.26716491936157055,-0.2552466561796952,0.14945336800632572,1.2174098131109248,4.80572769724419,0.89910107549651
1730865973.082945,-1.8363450765609741,1.0109021663665771,-9.767317771911621,0.2672020239210968,-0.2554634783175401,0.14952308396165004,1.2152030074667917,4.804582953995653,0.8987518047990254
1730865973.132889,-1.8869452476501465,0.9894759058952332,-9.760782241821289,0.2672503783099295,-0.2557324110316188,0.1495891997264816,1.2177545489770512,4.79782642155574,0.9006837378671612
1730865973.1829495,-1.8473352193832397,1.0347927808761597,-9.739604949951172,0.26731020176187914,-0.2560507944896262,0.1496508090530946,1.2209733233023095,4.790433110592018,0.9029889428488712
1730865973.232936,-1.816389560699463,1.0465000867843628,-9.774761199951172,0.26738313670894776,-0.25641507760044085,0.14970854674095474,1.2175391150778545,4.791172156509919,0.9015555980841723
1730865973.2828844,-1.783855676651001,1.0769073963165283,-9.79489803314209,0.2674718804548131,-0.25682119769008305,0.14976439207416842,1.2193664781620461,4.778646846490135,0.9039934044420129
1730865973.3328242,-1.7646828889846802,1.053520679473877,-9.82564926147461,0.26757958432832213,-0.25726497202519827,0.14982123395159308,1.2219318476701329,4.770488690145303,0.9061522836428362
1730865973.3828576,-1.7351040840148926,1.0145779848098755,-9.854711532592773,0.26770931640628187,-0.25774226607524875,0.1498823441739726,1.2251678073519447,4.761683449023617,0.9086868620303262
1730865973.432912,-1.683071255683899,0.9749651551246643,-9.900102615356445,0.26786362103954714,-0.2582488281378803,0.14995086142462527,1.2290855103876868,4.752205913602651,0.9116050723828703
1730865973.4828544,-1.6453770399093628,0.9578630328178406,-9.910890579223633,0.26804407228170596,-0.2587799099152826,0.15002930993375255,1.233655082399041,4.742125380085952,0.9148848762161833
1730865973.532847,-1.649688720703125,0.9565423130989075,-9.945751190185547,0.2682508482589146,-0.25932994022273487,0.15011920811662643,1.2388969973797912,4.73139153558077,0.9185414508032499
1730865973.5828483,-1.6442580223083496,0.9954084157943726,-9.940225601196289,0.26848251591656763,-0.2598924588661192,0.1502208267800883,1.2221203626777595,4.7613554666971,0.9038954808903763
1730865973.632834,-1.6689367294311523,1.0497392416000366,-9.937795639038086,0.26873611823812216,-0.26046039860858294,0.15033312103895394,1.2242114971980351,4.756437500661928,0.9049243936843347
1730865973.682793,-1.6859419345855713,1.0834542512893677,-9.915569305419922,0.26900748080111236,-0.2610266664877711,0.1504538579168504,1.224496400226213,4.750447219094354,0.9030821679299017
1730865973.7328548,-1.71327543258667,1.1262437105178833,-9.893120765686035,0.2692916356043882,-0.2615848176083537,0.15057991839392412,1.2269218905042303,4.744509464599589,0.9039005579392778
1730865973.782775,-1.7269731760025024,1.1472166776657104,-9.872698783874512,0.2695832760102407,-0.2621296164656462,0.15070769706349713,1.2300237534191343,4.737909306706086,0.9050963513893936
1730865973.8327966,-1.735066294670105,1.1401067972183228,-9.833118438720703,0.26987715099653575,-0.26265738691573925,0.15083352873645955,1.2262354369825528,4.733057758030287,0.9031850380987514
1730865973.8827624,-1.717958927154541,1.1496965885162354,-9.815305709838867,0.27016831598833624,-0.26316610316985384,0.15095411028677547,1.228414571979353,4.726140745413942,0.9040967950051958
1730865973.9327734,-1.6673269271850586,1.18075430393219,-9.812365531921387,0.27045215427672104,-0.2636553061003599,0.15106686082345827,1.2282041504908106,4.719329167516129,0.903613146569361
1730865973.9827108,-1.718985915184021,1.200554609298706,-9.816550254821777,0.2707241971875922,-0.264126050298554,0.15117011000506908,1.2306501103310288,4.711349375396324,0.9046298447697945
1730865974.032757,-1.777178168296814,1.1863377094268799,-9.796299934387207,0.27098006962978427,-0.26458091992975913,0.1512631030518059,1.2299495736362849,4.706420193520753,0.9038169096598532
1730865974.0837018,-1.8267006874084473,1.1075407266616821,-9.833602905273438,0.2712158695434489,-0.2650238735410659,0.15134591916652484,1.2324222884771316,4.6982036798071345,0.9048065771837105
1730865974.1328225,-1.8129234313964844,1.0744457244873047,-9.833734512329102,0.2714287714032212,-0.26545969797076174,0.1514193116046071,1.2354828684279269,4.6896022782441795,0.9061370043341502
1730865974.1827915,-1.7848941087722778,1.034195899963379,-9.854951858520508,0.27161735558866096,-0.26589320952617024,0.15148444928038537,1.2392581016289406,4.680223446684882,0.9078608031579556
1730865974.2327878,-1.7069191932678223,1.0519814491271973,-9.866008758544922,0.271781409364758,-0.2663285831489448,0.15154264074644763,1.2319595909544472,4.690904173818436,0.9040617699507025
1730865974.2827125,-1.7330290079116821,1.0380792617797852,-9.891645431518555,0.2719213457363739,-0.2667690362537192,0.15159508924286813,1.2341452407154634,4.684581779116406,0.9050075182336133
1730865974.333654,-1.723747968673706,1.0607243776321411,-9.90710735321045,0.27203766775644045,-0.2672168172809195,0.1516426546352757,1.233795058148895,4.678768479212063,0.9041784295175843
1730865974.383695,-1.6333900690078735,1.1029419898986816,-9.92292594909668,0.272130681680923,-0.2676733865787179,0.15168563036021204,1.2361569672648016,4.671706294080751,0.9051183437809724
1730865974.4336932,-1.7185343503952026,1.0912126302719116,-9.885492324829102,0.272200260819582,-0.2681397356304268,0.15172361906382983,1.2391990854868027,4.663975786454898,0.9064375043546844
1730865974.4835937,-1.7632367610931396,1.0811116695404053,-9.884361267089844,0.2722457744697098,-0.2686166788788821,0.1517556160721844,1.2352444979524833,4.662513199555218,0.90395901125061
1730865974.533778,-1.7660847902297974,1.066494345664978,-9.817702293395996,0.27226647442366136,-0.2691049170269567,0.15178031160590658,1.2373675548609377,4.655734806861687,0.9048086819413252
1730865974.583637,-1.76335608959198,1.0730304718017578,-9.786660194396973,0.27226200960791963,-0.26960492681675213,0.15179655066039094,1.2366925976452732,4.648724907884263,0.9036332187879595
1730865974.6336203,-1.755035638809204,1.0663394927978516,-9.755593299865723,0.2722326201717442,-0.27011686694541076,0.1518038648070506,1.2389224002234867,4.640899603362239,0.9043934992576457
1730865974.683558,-1.7797462940216064,1.05051851272583,-9.727736473083496,0.27217908798639,-0.2706405453514697,0.1518029236115739,1.2379100558662948,4.634853938161118,0.9036316412964159
1730865974.7336075,-1.7905184030532837,1.0506978034973145,-9.733460426330566,0.2721027063550053,-0.27117537787797674,0.15179579290452816,1.240105048513279,4.626438978091898,0.9044581374644001
1730865974.7834837,-1.7196898460388184,1.0897799730300903,-9.776664733886719,0.272005277228244,-0.2717203728407358,0.15178593230142404,1.2389499047150938,4.618656448567304,0.9036584602078842
1730865974.8335426,-1.7713710069656372,1.1019127368927002,-9.835098266601562,0.271888957273062,-0.2722742804705617,0.15177783327781688,1.240996825906066,4.610352872324897,0.9045009076130333
1730865974.8835092,-1.8028919696807861,1.1387075185775757,-9.852670669555664,0.27175608382405136,-0.27283590778246375,0.1517763532462409,1.2382485042379552,4.599873737936477,0.9034254949696178
1730865974.9336016,-1.8285831212997437,1.182466745376587,-9.922863006591797,0.27160930083119705,-0.273404489455916,0.15178599571554557,1.2397510570006418,4.590005717292672,0.904193380064003
1730865974.9834633,-1.8077365159988403,1.2220063209533691,-9.935257911682129,0.27145185619980533,-0.27398008999366535,0.151810295660254,1.2419265531055004,4.579482326926566,0.9053376693437465
1730865975.0335941,-1.8268399238586426,1.19771409034729,-9.958266258239746,0.2712877198622162,-0.27456396421722873,0.15185135513481252,1.2447946163176116,4.568215049865798,0.9068690643926981
1730865975.0834959,-1.7553056478500366,1.1827597618103027,-9.942646980285645,0.2711214451831617,-0.2751586512972758,0.15190962087795704,1.2483176543975945,4.556343071501802,0.9087677876479521
1730865975.1334362,-1.7702215909957886,1.131227731704712,-9.93575382232666,0.2709578364531255,-0.275767685000046,0.15198394938475351,1.2377920767251622,4.584392282751093,0.9033230238277451
1730865975.1834197,-1.7350672483444214,1.0756663084030151,-9.8892240524292,0.2708015397069447,-0.2763950155424889,0.15207190813017812,1.2393137907016138,4.578503230460478,0.90416994324489
1730865975.2334309,-1.6980245113372803,1.014807939529419,-9.849322319030762,0.27065668916252944,-0.2770442711639731,0.15217026678085843,1.2388585766835147,4.567248823029692,0.9030014963136997
1730865975.2833824,-1.74787175655365,0.9247363805770874,-9.83838939666748,0.2705266414565276,-0.2777179429284972,0.1522755926041388,1.2407570480144532,4.557894355482059,0.9037546784228581
1730865975.3333728,-1.7218077182769775,0.9190731048583984,-9.835184097290039,0.27041388900874075,-0.2784165999244821,0.15238474788868211,1.240048624949704,4.549526186101553,0.902774891459367
1730865975.3833628,-1.7218077182769775,0.9190731048583984,-9.835184097290039,0.27032016252951874,-0.2791383742495209,0.15249513520059926,1.242064657360655,4.539239707038432,0.903516866998011
1730865975.3833628,-1.710154414176941,0.9689270853996277,-9.809120178222656,0.2702465105136739,-0.279878964750625,0.1526047606112544,1.2420856364154482,4.539144996523405,0.9035251822724871
1730865975.4333987,-1.6837084293365479,0.9878154993057251,-9.841340065002441,0.27019326465772625,-0.28063213095011214,0.15271225142628542,1.2405141822960284,4.535377517026494,0.9025251436808099
1730865975.483403,-1.650559425354004,1.0081390142440796,-9.836055755615234,0.27015992218325413,-0.28139039411081723,0.15281681079758125,1.2422312811010179,4.5271905227393745,0.9032330380795496
1730865975.5333564,-1.6746716499328613,1.0141290426254272,-9.857386589050293,0.2701449852621901,-0.2821456610490761,0.15291806019321122,1.2434036253069456,4.517650306348198,0.9025860964395727
1730865975.5833364,-1.6851810216903687,1.004333734512329,-9.852632522583008,0.2701459312438862,-0.2828896412382095,0.15301584483226294,1.2456136097606578,4.505354666305062,0.9025536143573332
1730865975.6333683,-1.5812643766403198,1.044628381729126,-9.859695434570312,0.27015932067933657,-0.2836140964750762,0.15311008808185916,1.2484541120825876,4.494593673824491,0.903354481365056
1730865975.683324,-1.7228114604949951,1.0327458381652832,-9.875347137451172,0.27018083768071277,-0.2843110550056277,0.15320069553103488,1.2519458779381518,4.483200986956261,0.9045300371962527
1730865975.7333395,-1.8088876008987427,1.0366780757904053,-9.752493858337402,0.2702055552455055,-0.28497302214306264,0.15328757362225376,1.256147383040893,4.470989574080239,0.9061007219925645
1730865975.7832942,-1.8492463827133179,1.0879586935043335,-9.823813438415527,0.270228830017278,-0.2855931420097164,0.1533709035426274,1.2484820117263544,4.487901107280034,0.9025194727661396
1730865975.8332365,-1.8476037979125977,1.0733569860458374,-9.768607139587402,0.27024733911839327,-0.2861653853467021,0.15345149126692562,1.250881203923684,4.480483278677038,0.9033557117462125
1730865975.8832293,-1.7965223789215088,1.0459142923355103,-9.815152168273926,0.2702595253034181,-0.2866847199501521,0.15353086317497133,1.2509159570664283,4.470803036692746,0.902210398318709
1730865975.933179,-1.7965223789215088,1.0459142923355103,-9.815152168273926,0.2702653819180495,-0.28714705461254275,0.15361112239521205,1.252861883500928,4.463079356134852,0.9019444173801967
1730865975.933179,-1.7969716787338257,1.0425485372543335,-9.871280670166016,0.2702659771464526,-0.28754901548589107,0.15369466724910957,1.2528823178653468,4.463012464262521,0.9019489471068333
1730865975.9832678,-1.7303887605667114,1.079399585723877,-9.879664421081543,0.27026303806511454,-0.28788781708077504,0.15378378739651027,1.255587411543015,4.454903463540549,0.9026659471305633
1730865976.0331671,-1.6776671409606934,1.154143214225769,-9.950304985046387,0.2702585018683772,-0.2881613957245954,0.15388020997413837,1.2589760291883743,4.4460469028750955,0.903768999944733
1730865976.0831647,-1.6643404960632324,1.210000991821289,-9.945380210876465,0.2702539027600111,-0.2883688647732652,0.15398466181343,1.2581399390977723,4.447005517724678,0.9017083815839995
1730865976.1330926,-1.6949403285980225,1.204162359237671,-9.977410316467285,0.27024987096118275,-0.2885111105513122,0.15409653346913563,1.2612580818416113,4.43949509295451,0.9024468623996965
1730865976.1830785,-1.715383529663086,1.1504161357879639,-9.959513664245605,0.2702460688907006,-0.28859108267826555,0.15421374915197816,1.2633383558103939,4.434650298898421,0.901524248396466
1730865976.2331274,-1.7309974431991577,1.0735752582550049,-9.935346603393555,0.2702414989462322,-0.2886134552116425,0.1543328767719948,1.2660596716721746,4.423196624901343,0.8981059898528547
1730865976.2831085,-1.751832365989685,1.0295008420944214,-9.867960929870605,0.2702348991211595,-0.2885837657585223,0.15444950534508478,1.2698048020994706,4.413536339734562,0.8975234749817279
1730865976.333172,-1.7894331216812134,1.0231446027755737,-9.804779052734375,0.2702250934394673,-0.2885074715427218,0.1545589113112295,1.2742487281702317,4.403097818406233,0.8973250640406589
1730865976.3830342,-1.7807178497314453,0.9962002635002136,-9.770801544189453,0.2702113093130272,-0.2883893145419337,0.15465688962835208,1.2689313965890285,4.4082080467666,0.8951634931217013
