Timestamp,IMU_Linear_Acc_X,IMU_Linear_Acc_Y,IMU_Linear_Acc_Z,Filtered_X,Filtered_Y,Filtered_Z,Pose_X,Pose_Y,Pose_Z
1731474136.2091148,-0.33983662724494934,0.4336758553981781,-9.985615730285645,-7.614326626592298e-06,-1.8853469353266038e-05,-1.796609266542459e-05,2.4450120910716175,8.100076506968602,0.8809999821521433
1731474136.25901,-0.34130141139030457,0.4240894317626953,-9.983531951904297,-1.5832982456477443e-05,-4.1515315591154173e-05,-3.992571765214586e-05,2.445012290349888,8.100077028478255,0.880999982120483
1731474136.3090398,-0.34130141139030457,0.4240894317626953,-9.983531951904297,-2.1793126193581002e-05,-5.745838196810501e-05,-5.597813525516396e-05,2.4450026287786844,8.100209084871175,0.8809999819039831
1731474136.3588867,-0.27416113018989563,0.43637028336524963,-9.988398551940918,-3.8677333132754966e-05,-9.865567395704228e-05,-0.0001003541676953137,2.445002410171786,8.1002120888005,0.8809999818278337
1731474136.408835,-0.46316227316856384,0.3740302622318268,-9.99268913269043,-5.042018783212795e-05,-0.00012357455936824974,-0.00012951807006766783,2.4450018259993143,8.100303495212566,0.880999981540706
1731474136.4588637,-0.7430660724639893,0.23497319221496582,-10.004386901855469,-6.456028998151134e-05,-0.0001507004391997538,-0.00016395333289161005,2.4449904992765648,8.100458943237635,0.8809999447808132
1731474136.5088224,-0.1835746020078659,0.5284029841423035,-9.957141876220703,-7.944625395517498e-05,-0.00017860332483714337,-0.00020420042654436404,2.444960819711195,8.100864190739204,0.880999516326186
1731474136.5587819,-0.32869449257850647,0.37620213627815247,-10.047292709350586,-9.176269096579396e-05,-0.00020512172326056597,-0.00025083267724862387,2.4449307184263387,8.101271771172001,0.8809985121156297
1731474136.6086814,-0.3212164640426636,0.5026140809059143,-9.98022747039795,-9.814932341488675e-05,-0.00022809272880571364,-0.0003044948824120381,2.4448854627429237,8.101905711997222,0.8809968319019806
1731474136.6586556,-0.3097893297672272,0.373074471950531,-9.942727088928223,-9.62660247355928e-05,-0.0002458272735607155,-0.0003659317791226685,2.444852693096786,8.102329547418062,0.8809943078192183
1731474136.7085814,-0.3097893297672272,0.373074471950531,-9.942727088928223,-8.473409124583212e-05,-0.0002569942193706436,-0.0004357436856141702,2.4448115873954688,8.102938603946443,0.8809907862445346
1731474136.7085814,-0.36415764689445496,0.45885133743286133,-10.01577377319336,-6.292240275928756e-05,-0.000260282271535472,-0.0005140986408420815,2.4448113010621237,8.102942268519316,0.880990751029827
1731474136.7586725,-0.3174515664577484,0.43460458517074585,-9.97563648223877,-3.074252801829844e-05,-0.0002543519449466798,-0.000600821153649948,2.4447781550828345,8.10336566074778,0.8809859247621253
1731474136.808501,-0.37348827719688416,0.42250683903694153,-9.971975326538086,1.1591196051311136e-05,-0.00023810956267284616,-0.0006956527843342045,2.4447028047941033,8.104006549789485,0.880979458934675
1731474136.858473,-0.3333224654197693,0.4560640752315521,-10.020543098449707,6.371249843069288e-05,-0.00021085378484896525,-0.0007983383773478218,2.4446659103948076,8.104427111810711,0.8809712209691383
1731474136.9084017,-0.3716474175453186,0.4254069924354553,-9.993083000183105,0.00012519732907850643,-0.0001722492845494776,-0.0009086741228545766,2.4446089618740294,8.106506200583482,0.8809604760809233
1731474136.9583972,-0.30855798721313477,0.4505065679550171,-9.975634574890137,0.00019559535873122047,-0.00012231057253727157,-0.0010265944417689953,2.4445731906772274,8.10705268571852,0.8809479499710254
1731474137.0092394,-0.33945232629776,0.44332513213157654,-10.006049156188965,0.0002743468307001155,-6.138438706114601e-05,-0.0011521335715650733,2.4444633976561536,8.10833277756439,0.8809321457397778
1731474137.0592687,-0.30693483352661133,0.45724576711654663,-9.974886894226074,0.00036064327516776223,9.85556360231777e-06,-0.001285335979299522,2.444422600375638,8.108910158951506,0.8809133070275723
1731474137.1091747,-0.3404017686843872,0.42924872040748596,-9.97957992553711,0.0004533567895358874,9.041043052774552e-05,-0.0014262166904502201,2.4443489191407246,8.110274402606601,0.8808914662345687
1731474137.159192,-0.33027854561805725,0.4503231644630432,-9.993732452392578,0.0005510872544588132,0.00017902088989651962,-0.0015747142816382443,2.4443101593379257,8.11086115685586,0.8808656357253656
1731474137.2090607,-0.3312438130378723,0.4298307001590729,-9.984983444213867,0.0006522720099239327,0.00027426592073845736,-0.0017306802597695625,2.4442730226727476,8.111446627814072,0.880835763335776
1731474137.2591295,-0.32849225401878357,0.44427555799484253,-9.991825103759766,0.0007552634461747923,0.00037463446676798363,-0.001893927317794201,2.4441964478792997,8.11309373712966,0.8808013034955384
1731474137.308942,-0.3466336131095886,0.43178790807724,-9.988767623901367,0.0008583646262575025,0.0004785721672660505,-0.0020642606477987253,2.444162400965335,8.113704944701421,0.8807620439108996
1731474137.3589773,-0.3226473927497864,0.4400995373725891,-9.986501693725586,0.0009598789865835518,0.0005845174525968518,-0.00224147998929629,2.4440535526034406,8.115405710691803,0.8807172544646555
1731474137.4088914,-0.3401765823364258,0.42628738284111023,-10.006254196166992,0.0010581486521418766,0.0006909352446078338,-0.002425386169179956,2.4440212489680913,8.116043887805274,0.8806665686209794
1731474137.4588525,-0.32638588547706604,0.4399968981742859,-9.992179870605469,0.001151553199185434,0.0007963541803854685,-0.0026158180964058237,2.443935105512043,8.117887900900545,0.8806096730657427
1731474137.50879,-0.3352645933628082,0.4304140508174896,-9.980989456176758,0.0012385081461993189,0.000899389029282247,-0.0028126773616595226,2.443907688750324,8.118547698721683,0.8805465166794307
1731474137.5588923,-0.33292460441589355,0.43939563632011414,-9.997173309326172,0.001317478157149362,0.0009987390006094183,-0.0030158807626739404,2.4438830555085396,8.119220377204835,0.8804750146439764
1731474137.6086698,-0.3363683819770813,0.4308415949344635,-9.980420112609863,0.0013870004844851987,0.0010931816645811687,-0.0032253023386836707,2.443940411914069,8.119882122078938,0.8803963051126663
1731474137.6586838,-0.3302421271800995,0.4421899914741516,-9.979595184326172,0.0014457100112193078,0.001181571671068823,-0.0034407481677534166,2.4439288392280565,8.120548815116942,0.8803099335760103
1731474137.7086177,-0.3302421271800995,0.4421899914741516,-9.979595184326172,0.0014923426064896964,0.0012628268918484463,-0.0036619172303274617,2.443848578733947,8.121237223968674,0.8802144181355759
1731474137.7086177,-0.3371421694755554,0.43059173226356506,-9.996553421020508,0.0015257249911453305,0.001335906884423476,-0.003888379883388166,2.443848212687122,8.121265258867375,0.8802102514470902
1731474137.758543,-0.3301190137863159,0.4375700056552887,-9.977168083190918,0.0015447820278729236,0.0013998252342935467,-0.004119621721362815,2.4438415824175177,8.121916550707072,0.8801087731483562
1731474137.8085432,-0.34019094705581665,0.43010377883911133,-9.982741355895996,0.0015485584865468827,0.0014536917234862523,-0.004355082559007543,2.443838450980045,8.122602294999334,0.8799920203825586
1731474137.8584952,-0.33192288875579834,0.43809831142425537,-9.991263389587402,0.001536237039896242,0.0014967373663480755,-0.00459414844435347,2.443839197637068,8.123288362142324,0.8798646364850123
1731474137.9083514,-0.34595686197280884,0.4304082989692688,-9.981121063232422,0.001507155012608588,0.0015283148412213311,-0.00483615883763688,2.44375138051798,8.124016378134447,0.8797213359487281
1731474137.9583144,-0.3420066237449646,0.443705290555954,-9.989968299865723,0.0014608313983450112,0.001547887310234062,-0.0050804365366029745,2.443756524422768,8.124683416747825,0.8795756110809985
1731474138.0092392,-0.34163692593574524,0.42966023087501526,-9.989768028259277,0.0013969963674671806,0.0015550091849857641,-0.005326306157397126,2.44360528537582,8.125420205180088,0.8794080646129542
1731474138.0592258,-0.33824580907821655,0.44014066457748413,-9.97556209564209,0.0013155910291779034,0.0015493147058600583,-0.005573103007408238,2.443612005494305,8.126126000078049,0.8792289895302073
1731474138.1091983,-0.341629296541214,0.4363786280155182,-9.98953914642334,0.0012167348916262647,0.0015305183983219195,-0.005820158548901149,2.443621842809525,8.126831101467191,0.8790368492943916
1731474138.1591976,-0.3402191698551178,0.43175989389419556,-9.978646278381348,0.0011006967287056186,0.00149841399166617,-0.0060667764820536655,2.4436345857811217,8.12754113769883,0.8788295713451825
1731474138.209059,-0.3476492762565613,0.432100772857666,-9.985774040222168,0.0009678877325454771,0.0014528846781288007,-0.006312233477017903,2.44364994406141,8.128256322357803,0.878606372967951
1731474138.2590916,-0.33999305963516235,0.4344528317451477,-9.983550071716309,0.000818867983661632,0.0013939251316376705,-0.006555791556943671,2.4435187357824395,8.12900282406996,0.8783673896763856
1731474138.3088815,-0.34422069787979126,0.4327370822429657,-9.9750337600708,0.0006543430150920582,0.0013216446010737974,-0.00679670306658375,2.4435341906317984,8.129716796989573,0.8781145664706825
1731474138.3589008,-0.3437175154685974,0.44072937965393066,-9.988846778869629,0.00047514353802716836,0.0012362462727232057,-0.007034204933744945,2.4435513808171114,8.130448507223528,0.8778391702694106
1731474138.4087975,-0.34332624077796936,0.4315757751464844,-9.98684024810791,0.00028220733204490744,0.0011379994486757506,-0.007267529177894995,2.443358343733587,8.131209102564005,0.8775505193389501
1731474138.458818,-0.33988749980926514,0.436118483543396,-9.992659568786621,7.656354507580894e-05,0.0010272249567527883,-0.007495951930545155,2.4433713494288174,8.131941884900582,0.8772408188545902
1731474138.5087607,-0.3460216820240021,0.428290456533432,-9.99396800994873,-0.00014069022796223715,0.0009043052257818215,-0.007718848376916812,2.4433842526816454,8.132675816747254,0.8769126250009887
1731474138.5588555,-0.32766076922416687,0.4385663866996765,-9.993430137634277,-0.00036841657997971296,0.0007696992959388164,-0.007935726144913932,2.4431404212410843,8.133456729584278,0.8765663937361021
1731474138.6086557,-0.3306537866592407,0.4353063106536865,-9.987985610961914,-0.0006054916787434474,0.0006239344950609428,-0.008146230954508733,2.443145222039932,8.134205167600435,0.8761937006686042
1731474138.6586676,-0.3333236277103424,0.4373985528945923,-9.995209693908691,-0.0008508748552991522,0.0004675767953717466,-0.008350124648962717,2.442822524504302,8.134991339316931,0.8758126025901833
1731474138.7086084,-0.3319365978240967,0.4339129328727722,-9.97912311553955,-0.0011036362543676874,0.00030120981028220985,-0.008547252824244964,2.442462964449812,8.135802875629386,0.8754039360712479
1731474138.758562,-0.333381712436676,0.4398839473724365,-9.9823637008667,-0.0013629384305033608,0.0001254316389019042,-0.008737499122206272,2.442443506097999,8.136545313795429,0.8749743087412136
1731474138.8085184,-0.3302189111709595,0.438150554895401,-9.991358757019043,-0.0016280178117722894,-5.915226944949976e-05,-0.008920736237930268,2.4424202650208806,8.137289842901618,0.8745214994742254
1731474138.8586066,-0.3308621346950531,0.44120118021965027,-9.983616828918457,-0.0018981811803146895,-0.0002519478374028493,-0.00909682209434093,2.442392485585106,8.138037336667749,0.8740439983916795
1731474138.8586066,-0.3308621346950531,0.44120118021965027,-9.983616828918457,-0.0021728073702340046,-0.00045239023056801265,-0.009265623303593474,2.4420458543225028,8.138333593164697,0.8738922779179594
1731474139.2399957,-0.3376094102859497,0.43933042883872986,-9.987139701843262,-0.002451337879697249,-0.0006599528399082418,-0.009427013960542336,2.4408223747898052,8.143892521267407,0.8696521609128232
1731474139.2900891,-0.3423849642276764,0.43753117322921753,-9.985186576843262,-0.002733239865437202,-0.0008741418112084126,-0.009580869203629782,2.4407203776307416,8.144632755465478,0.8689684746717116
1731474139.3398674,-0.34360605478286743,0.4366273581981659,-9.992426872253418,-0.0030179474904895734,-0.0010944755094467204,-0.009727080276792453,2.4401135523775177,8.145459916482768,0.868277270096367
1731474139.389985,-0.3389294445514679,0.4368346929550171,-9.979833602905273,-0.0033048178760179785,-0.001320462275138848,-0.009865572605092821,2.439986971122991,8.146193946258462,0.867547392329227
1731474139.4397805,-0.3331068754196167,0.42958614230155945,-9.990646362304688,-0.003593137413984852,-0.0015515825742492752,-0.009996303667700133,2.4398488886488314,8.14693898707302,0.8667770682357521
1731474139.4898527,-0.335146963596344,0.4248596131801605,-9.98840618133545,-0.003882171771513892,-0.0017872591613155183,-0.010119254531987493,2.4397086264116696,8.147642798665968,0.8660207578892553
1731474139.539713,-0.3328384459018707,0.4296468496322632,-9.984148025512695,-0.004171215208527825,-0.002026814948483266,-0.01023443694115543,2.4390625390867284,8.148474612163849,0.8652277907239762
1731474139.5897124,-0.3308675289154053,0.4361976087093353,-9.986226081848145,-0.004459614847048772,-0.00226946238033992,-0.010341893434101693,2.438294988008196,8.149336950326628,0.8643936591058905
1731474139.639718,-0.3300713300704956,0.44613346457481384,-9.986385345458984,-0.004746784959636407,-0.0025143592054645246,-0.010441681447453305,2.438100840651704,8.150041095018135,0.8635486900221595
1731474139.6895943,-0.3355879783630371,0.4400116503238678,-9.9830961227417,-0.0050322154888430455,-0.002760700627485548,-0.01053386490440218,2.437893187643515,8.15074381350197,0.8626716498995343
1731474139.7396622,-0.3371192514896393,0.4425605237483978,-9.980547904968262,-0.005315455934705412,-0.0030077807095348907,-0.010618505957630572,2.437671233852226,8.15144379545915,0.8617624833876233
1731474139.789675,-0.33719924092292786,0.4419511556625366,-9.980554580688477,-0.005596078323984321,-0.0032549991902034612,-0.0106956432415042,2.4374370036862056,8.15213180392125,0.8608321675903395
1731474139.8395355,-0.3354564905166626,0.445912629365921,-9.973817825317383,-0.005873650396329564,-0.0035018511636054246,-0.010765266788804531,2.4371876934508268,8.152813601285986,0.8598720443197244
1731474139.8896139,-0.3405797779560089,0.44538143277168274,-9.989174842834473,-0.0061477300559915765,-0.003747929564499588,-0.010827306403036637,2.4363876347056053,8.153639696194109,0.8588983230179549
1731474139.9394777,-0.33414551615715027,0.4462050497531891,-9.99086856842041,-0.006417865422216244,-0.003992932490387961,-0.010881663294569358,2.4360991792945743,8.154305213657516,0.8578843228553252
1731474139.9894018,-0.3440423011779785,0.44702938199043274,-9.984944343566895,-0.0066835930155305185,-0.004236662570243336,-0.01092827865663051,2.435216959773755,8.155136376937643,0.8568614067295791
1731474140.0392613,-0.32870543003082275,0.43953606486320496,-9.982325553894043,-0.006944439939691137,-0.004479013087402842,-0.010967166795009536,2.434886917503753,8.155781673446283,0.8557963903332951
1731474140.089296,-0.34796392917633057,0.4402678906917572,-9.993621826171875,-0.007199933127184496,-0.004719933519642202,-0.01099839651628564,2.4345362253721223,8.156420936921704,0.8546945552208748
1731474140.1402464,-0.33399584889411926,0.432169646024704,-9.98773193359375,-0.007449600783276654,-0.004959377673340197,-0.011022087476398209,2.4341623351217514,8.157055619587773,0.8535507611950106
1731474140.1902158,-0.339699923992157,0.42898687720298767,-9.98838996887207,-0.007692965208577977,-0.005197246798299044,-0.011038430670808633,2.4332626313983194,8.157868063512657,0.8524203510274703
1731474140.2401154,-0.34191736578941345,0.42445263266563416,-9.988052368164062,-0.007929547041515224,-0.00543333297228972,-0.011047687919212578,2.4328475094462925,8.158471252492879,0.8512362385503291
1731474140.2900033,-0.32970547676086426,0.4250764548778534,-9.985917091369629,-0.008158877030982954,-0.005667274462778931,-0.011050171360393591,2.4318561846714624,8.159289033714689,0.8500617768721787
1731474140.3400288,-0.32910072803497314,0.4251329004764557,-9.99003791809082,-0.008380525659892547,-0.005898540431417347,-0.01104622724149663,2.4308056536408125,8.160123119167809,0.8488470154758284
1731474140.3900661,-0.3384392559528351,0.42610400915145874,-9.983735084533691,-0.008594150154908754,-0.006126446503527036,-0.01103622737133791,2.4303109629246067,8.160689689136024,0.8475817339399904
1731474140.439955,-0.3377346694469452,0.435489296913147,-9.978569030761719,-0.008799499345487787,-0.006350195402121085,-0.011020551358248101,2.4297983090088855,8.161236492363159,0.8462984369686737
1731474140.4899478,-0.33423569798469543,0.4322376847267151,-9.991771697998047,-0.00899637319198954,-0.006568939734999137,-0.010999556568810642,2.4288643279671027,8.162048736128035,0.844999838252434
1731474140.5398195,-0.3368098735809326,0.4413033127784729,-9.979137420654297,-0.009184600624559416,-0.00678185023554298,-0.010973569863309992,2.4283058831022117,8.16256340714778,0.8436708241727834
1731474140.5896668,-0.32903242111206055,0.43979355692863464,-9.979314804077148,-0.009364050309817117,-0.0069881717195913896,-0.010942893232836393,2.427725019887465,8.163060973101981,0.8423156541679055
1731474140.6397073,-0.33598414063453674,0.4474576413631439,-9.982017517089844,-0.009534649803529053,-0.007187268984528701,-0.010907784841784077,2.4271101958682806,8.163549495030932,0.8409091869339431
1731474140.6897366,-0.341476172208786,0.44930747151374817,-9.990230560302734,-0.009696386122329969,-0.00737866842452304,-0.010868450127153012,2.4261754659428134,8.164330223294487,0.8395304717918904
1731474140.7397206,-0.3397352695465088,0.44789478182792664,-9.97748851776123,-0.00984926972994958,-0.007562090457186926,-0.010825072246533302,2.4255096289943774,8.164785526943604,0.8380715166063541
1731474140.7895658,-0.3330007493495941,0.44037196040153503,-9.997563362121582,-0.009993298529675707,-0.007737449872226236,-0.010777842603350796,2.4248254097246202,8.165217436171016,0.8365995346214725
1731474140.8395772,-0.03880907967686653,0.5903394818305969,-9.978856086730957,-0.0101287348181327,-0.00790494323652862,-0.010726978795473349,2.4241098423764385,8.16563351897528,0.8350874854463681
1731474140.8895676,-0.0758434385061264,0.5316457748413086,-10.008713722229004,-0.01025712678829049,-0.008065448285745,-0.010672750259873276,2.423136735057125,8.166395976973437,0.8336139622726587
1731474140.9393978,0.48951706290245056,0.8079436421394348,-9.981762886047363,-0.010383083867195098,-0.008221229349358093,-0.010615512836822508,2.422375743769399,8.166772775140473,0.8320653909357766
1731474140.9892786,0.7771492004394531,0.6103816628456116,-10.015816688537598,-0.010516910812913505,-0.008376731698243375,-0.010555739446377789,2.4213570092470116,8.1675463891621,0.8305397603313446
1731474141.0394018,0.1431780755519867,0.499295175075531,-10.044015884399414,-0.010677256809943638,-0.00853879871197141,-0.010494091890853551,2.420529816314073,8.167892062906109,0.8289161497332157
1731474141.0892773,0.413790225982666,0.48516714572906494,-9.909783363342285,-0.010891121600265695,-0.008715682802400402,-0.010431480488042317,2.4196882145175005,8.168211089722531,0.8272908803479692
1731474141.1401522,0.038903508335351944,0.3011943995952606,-9.996171951293945,-0.01119098871885264,-0.008915444006451603,-0.01036886223941085,2.4186474089464705,8.168968592680667,0.8256601570800727
1731474141.1902132,0.22217567265033722,0.33590275049209595,-10.001534461975098,-0.01161180258364203,-0.009144582202154854,-0.010306946654023506,2.4177429302854625,8.169250588598151,0.8239726652940794
1731474141.2402446,0.017560504376888275,0.20069876313209534,-9.97430419921875,-0.01218895203216374,-0.009407034988175071,-0.010246228534277514,2.416633387352843,8.170018870663107,0.8223203310039051
1731474141.2901216,-0.7728275656700134,-0.02461777999997139,-9.977519989013672,-0.012956112459590535,-0.009703319614835126,-0.010187138466868835,2.4156727427703406,8.170258584568098,0.8205944376731227
1731474141.3400016,-1.2074174880981445,-0.021463442593812943,-10.009428024291992,-0.013940962562577118,-0.010029444334508775,-0.010130037545207977,2.4146073521473674,8.171016932215561,0.8189115661753369
1731474141.3900766,-0.23980385065078735,0.27316224575042725,-9.937684059143066,-0.015160091417315523,-0.010376224259333143,-0.010075197678180884,2.413572457279263,8.171214711725213,0.8171273748882734
1731474141.4400213,-0.7082184553146362,0.12128511071205139,-10.163931846618652,-0.0166180118754563,-0.010730170395432025,-0.010022915808672315,2.4124941355641982,8.171386738357983,0.8153117779014981
1731474141.4898539,-0.29287877678871155,0.4290388226509094,-9.929959297180176,-0.018310408436153808,-0.011075423734345214,-0.009973839479292866,2.4115408854732574,8.172086752332621,0.8135774296504723
1731474141.5398967,-0.5628702044487,0.09986446797847748,-10.001678466796875,-0.02022717752242035,-0.011395359935319904,-0.009929118777779173,2.410368492108999,8.17221076392252,0.8117022738837484
1731474141.5897396,-0.3513105511665344,0.46714502573013306,-10.08678913116455,-0.02235391294462861,-0.011673442013880568,-0.00989013593798779,2.4091657223211995,8.172303975053648,0.8098380682514396
1731474141.6397777,-0.5107159614562988,0.16161222755908966,-9.946783065795898,-0.024672812697231324,-0.011893668675549545,-0.009858379743617805,2.407879861995134,8.172972037380257,0.8080172215615989
1731474141.6896517,-0.4068586826324463,0.43703973293304443,-9.962201118469238,-0.02716332755952709,-0.012040940767232274,-0.009835424606989232,2.4065518098979406,8.173013669753065,0.8061010184878457
1731474141.7396317,-0.49801453948020935,0.2526971399784088,-10.004266738891602,-0.029802640320924438,-0.012101349652954573,-0.009822602463042675,2.4051367925392992,8.173025621992439,0.8041375230300924
1731474141.789641,-0.37864023447036743,0.4197238087654114,-9.953781127929688,-0.03256611807612759,-0.012062419756277674,-0.00982077983975975,2.4036547531495076,8.173007444479738,0.8021641808938362
1731474141.8394883,-0.42949461936950684,0.29616859555244446,-9.941106796264648,-0.03542789586642416,-0.011913312250393245,-0.009830374998175012,2.4020904094865188,8.17361113904557,0.8002922053295474
1731474141.8893626,-0.41107162833213806,0.3372349739074707,-10.000696182250977,-0.038361521628602784,-0.01164485332253092,-0.009851314807141397,2.4004312101529948,8.174198209056163,0.7984038213265917
1731474141.9393225,-0.3805420398712158,0.7001015543937683,-9.957939147949219,-0.04134044857524928,-0.011249708999261376,-0.009883066901568963,2.3986704944094246,8.174107159461661,0.7963556963050554
1731474141.9893405,-0.4000968039035797,0.667378306388855,-9.877378463745117,-0.04433841833476371,-0.01072347719899662,-0.00992471320729059,2.396792868710238,8.232447210701224,0.7944169081869623
1731474142.0393183,-0.4872780740261078,1.1421082019805908,-9.997286796569824,-0.04732971814543086,-0.01006668284685604,-0.009974803602104926,2.3948003447468924,8.232949068606192,0.79231018578929
1731474142.0892508,-0.4453103244304657,0.9864438772201538,-9.849359512329102,-0.050289116320794865,-0.00928684184225639,-0.010031212050868496,2.3927005854891448,8.233423293006524,0.7901935416533222
1731474142.139246,-0.5104879140853882,0.7967690229415894,-10.028023719787598,-0.053191651022169814,-0.008399431898817951,-0.010091207620374746,2.3904722635743405,8.278440642095743,0.7882113953967209
1731474142.1901712,-0.3782177269458771,0.7711344957351685,-9.996058464050293,-0.056012663639391225,-0.007426707355289193,-0.010151750752950321,2.3880636913258457,8.279362841470498,0.7860064825972746
1731474142.2401364,-0.4499201774597168,0.7072227597236633,-10.010408401489258,-0.058728191123772894,-0.006395161652454115,-0.010210012963575266,2.3855516100885295,8.31351822505574,0.7839892289098845
1731474142.2900872,-0.3696022629737854,0.713841438293457,-10.044113159179688,-0.061315504870264034,-0.005333429562228797,-0.01026379841723174,2.382889971276441,8.31473054923407,0.7817722467832241
1731474142.3400176,-0.42195576429367065,0.5679761171340942,-9.984193801879883,-0.06375350901034438,-0.004270933984686581,-0.010311666899137317,2.3800565417437305,8.31593770719951,0.7795169306192874
1731474142.3899982,-0.30900314450263977,0.6061761379241943,-10.027217864990234,-0.06602300860640647,-0.0032367183723478656,-0.010352867479412352,2.377084312061895,8.317126022118794,0.7772537328739952
1731474142.4399173,-0.36433690786361694,0.5541598200798035,-9.993165969848633,-0.06810701854867085,-0.002258420757637077,-0.010387181569928496,2.3739469620953915,8.345410861700401,0.7751674725577739
1731474142.4898849,-0.3449501693248749,0.5600143671035767,-10.049895286560059,-0.06999102468364843,-0.0013616386802855662,-0.010414823945491264,2.370613349436421,8.346867086592379,0.7728388427221982
1731474142.5398262,-0.3187732696533203,0.5636372566223145,-10.002037048339844,-0.07166302907999593,-0.0005696430931686318,-0.010436456102575752,2.3671596058021627,8.364910219141082,0.7707428361015464
1731474142.5898345,-0.30297085642814636,0.5662887096405029,-10.012564659118652,-0.07311352956397044,9.67070257046672e-05,-0.010453173333015865,2.363516850856307,8.37607244911966,0.7686267421264684
1731474142.6396751,-0.3056734502315521,0.5174658894538879,-10.006267547607422,-0.07433558083232643,0.0006189566834700641,-0.010466375830804987,2.3596153701181324,8.37770274167493,0.7662087306845423
1731474142.689624,-0.32618317008018494,0.5069574117660522,-9.982719421386719,-0.07532477572882895,0.0009811435940958954,-0.010477599323601657,2.355609843132532,8.379301426245604,0.7638147103163813
1731474142.7396877,-0.273434042930603,0.514680802822113,-9.964303016662598,-0.07607907536057348,0.001169983741369278,-0.010488336618277638,2.3513378834403595,8.380933339181459,0.7613486732017289
1731474142.7895157,-0.2996521592140198,0.5227103233337402,-9.985552787780762,-0.07659866128787754,0.001174920104941401,-0.010499838904901738,2.3469927112486375,8.39157301003305,0.7591843747629161
1731474142.8395174,-0.3358599841594696,0.5379204750061035,-9.958097457885742,-0.07688580795567308,0.0009879424336855292,-0.010512998688596804,2.34233434806564,8.393271590425751,0.7566673999163139
1731474142.8894358,-0.336078017950058,0.4931144118309021,-9.98670482635498,-0.07694456908349992,0.0006033373626382227,-0.010528346366585072,2.3392637081520333,8.393529824229345,0.7544732390790355
1731474142.939421,-0.33337661623954773,0.5128029584884644,-10.005820274353027,-0.07678035101383617,1.755623525665734e-05,-0.010546128937698233,2.334258644878282,8.395202631982617,0.7519125464559977
1731474142.989331,-0.3498041331768036,0.4721747934818268,-9.94282341003418,-0.076399614784906,-0.0007707984944575255,-0.010566434986346233,2.3291234760233794,8.3968545590143,0.7493562376435146
1731474143.0392566,-0.32534632086753845,0.5132566094398499,-9.986802101135254,-0.0758097139650104,-0.0017610022543114805,-0.010589210136644987,2.323776440393432,8.398510784869119,0.746762181364378
1731474143.0892653,-0.3674081265926361,0.5218324065208435,-10.014200210571289,-0.07501877181340072,-0.0029503733825286685,-0.01061421506110364,2.319922199504484,8.398748248559166,0.7445018556121092
1731474143.1392438,-0.40713658928871155,0.5078936219215393,-9.99518871307373,-0.07403548317056867,-0.004334580220176753,-0.01064116397295454,2.3141924584849547,8.400379872817215,0.74184375713285
1731474143.1901145,-0.3748840391635895,0.5032426118850708,-9.95654582977295,-0.07286878132024192,-0.005907913100046446,-0.010669879717907014,2.3112806525373886,8.399337582430737,0.7395269140594481
1731474143.2401328,-0.41319382190704346,0.513997495174408,-10.000679969787598,-0.07152755537846779,-0.007663414913101717,-0.010700214294032473,2.3096025745874367,8.397014420812194,0.7372392462593423
1731474143.2901106,-0.4174082279205322,0.5009680390357971,-9.988465309143066,-0.07002052204187637,-0.00959298242093394,-0.010731940463065642,2.3034574147383515,8.39849668505848,0.7345192732519582
1731474143.3401623,-0.4119400978088379,0.5024043917655945,-9.968817710876465,-0.06835612778304394,-0.011687492075440585,-0.010764785649116735,2.2971051293260425,8.399960211195873,0.7317575783735201
1731474143.3899338,-0.3861069083213806,0.4877097010612488,-9.973749160766602,-0.06654251445006312,-0.013936895102957928,-0.01079843285278079,2.2906348326258903,8.401380320292443,0.7289907640099572
1731474143.4400024,-0.3813762664794922,0.4656544327735901,-10.00214672088623,-0.06458765673366845,-0.01633025480771492,-0.010832463348073577,2.287986111067227,8.399197262894061,0.7266555201973068
1731474143.489819,-0.3586125075817108,0.4547431170940399,-9.964475631713867,-0.062499593802881795,-0.018855720526280206,-0.010866389666090076,2.281267724169578,8.400490183090616,0.7238495147604929
1731474143.5397732,-0.3363964855670929,0.4302753210067749,-9.970362663269043,-0.06028665475050185,-0.021500464842266545,-0.010899694553867696,2.274334767230053,8.401744506166978,0.720990734235851
1731474143.5897393,-0.3230259418487549,0.4246014356613159,-10.018203735351562,-0.057957673070736224,-0.02425063522171006,-0.010931809195010102,2.272156175597268,8.398585596047937,0.7186381896539751
1731474143.6397502,-0.3195480704307556,0.4174511432647705,-9.99730110168457,-0.05552216126956335,-0.027091358548423757,-0.010962203173526808,2.2650011649672632,8.399668282340505,0.7157341097606729
1731474143.6896462,-0.29733991622924805,0.400546669960022,-9.969202995300293,-0.052990394599784184,-0.03000681326652021,-0.010990530509764866,2.2577445818156425,8.400675076452501,0.7128162307899435
1731474143.7396011,-0.2849956750869751,0.3818894624710083,-10.001726150512695,-0.05037344109094439,-0.032980321033036684,-0.011016599506365446,2.256561383104755,8.396070748813992,0.7104413939220314
1731474143.789569,-0.2620607912540436,0.3989132344722748,-10.011852264404297,-0.047683203718746556,-0.03599442853512359,-0.011040295023163175,2.249085293575869,8.396856419942907,0.7074577131893875
1731474143.8395295,-0.3114404082298279,0.37750130891799927,-9.98075008392334,-0.04493241850863443,-0.03903104378615166,-0.011061633337524749,2.2493068753275574,8.390639103131171,0.7050870201246304
1731474143.8895874,-0.29066282510757446,0.38888999819755554,-10.001361846923828,-0.04213447787359206,-0.042071638384149165,-0.01108079608224125,2.241677316461135,8.391152678755637,0.7020458592155852
1731474143.939539,-0.31284046173095703,0.36997202038764954,-10.00731372833252,-0.039303118513160484,-0.045097445295313524,-0.011098081363514877,2.233993993355584,8.391554354872927,0.6989960936542136
1731474143.9893997,-0.27976566553115845,0.3753986358642578,-10.026233673095703,-0.03645216796660207,-0.04808962444042803,-0.011113930176547783,2.226229428451913,8.391839824276218,0.6959238248586966
1731474144.0392823,-0.2954639196395874,0.3394887149333954,-9.958551406860352,-0.03359543101466704,-0.05102938588512254,-0.01112898542983078,2.226485675435704,8.38481658609955,0.6935297419808115
1731474144.089266,-0.5322554707527161,-0.19363191723823547,-10.011695861816406,-0.0307464181730093,-0.05389756197104808,-0.011144000221984175,2.2186156545143336,8.384775711691825,0.6903985866572679
1731474144.139285,-0.4975226819515228,-0.47324222326278687,-10.109478950500488,-0.027917457293966,-0.056672539286675615,-0.011159799155118225,2.2210688013718287,8.37540700574672,0.6879925339935768
1731474144.1902807,-0.6517626047134399,-0.1517183631658554,-10.05496883392334,-0.02511843509514208,-0.059327191552724735,-0.011177619517579746,2.213001077720196,8.37497388618349,0.6847425245618665
1731474144.2401178,-0.7958483099937439,-0.4603233337402344,-10.047149658203125,-0.02235570800847808,-0.06182749828864713,-0.011199486733453152,2.2166452682018445,8.364180654275563,0.6823474047173658
1731474144.2899477,-0.3774668574333191,0.1904527246952057,-9.920002937316895,-0.01963151689799071,-0.06413378075465169,-0.011228030731003338,2.2088111129455714,8.363345747057055,0.6791375230142996
1731474144.3399312,-0.7103548049926758,-0.2533815801143646,-10.023809432983398,-0.016944504501777886,-0.06620330101842367,-0.011265844289183445,2.21377650600246,8.350976875688222,0.6767238595856874
1731474144.389945,-0.5084047317504883,0.20593859255313873,-9.930323600769043,-0.01429087786501031,-0.0679928577669569,-0.01131497781888259,2.2059041942833457,8.349682103291695,0.6734274884653737
1731474144.4399543,-0.6116470098495483,0.06604569405317307,-9.929553985595703,-0.011665054549084205,-0.06946071219381468,-0.011376748268921735,2.2126181083013994,8.335432413427151,0.6710296945404688
1731474144.489831,-0.5259138345718384,0.24936124682426453,-9.96333122253418,-0.00905999710734982,-0.07056816716124081,-0.011451608410364867,2.220411100879104,8.320070448039933,0.6686490966966628
1731474144.5398407,-0.5633005499839783,0.1612505167722702,-9.892698287963867,-0.006467688818490458,-0.07128084786453515,-0.01153907457390709,2.212800136632583,8.317987122402382,0.6652932053899235
1731474144.5897121,-0.5227437615394592,0.1753193736076355,-9.91405963897705,-0.0038795837433770763,-0.0715692784707815,-0.011637726396481838,2.205192552751985,8.315729938937453,0.6619155698631611
1731474144.6397834,-0.530639111995697,0.1455938071012497,-9.948212623596191,-0.0012869777870241608,-0.07140882313445376,-0.011745205351265262,2.1975602738902373,8.313288415949152,0.6585005763924746
1731474144.6897333,-0.4877649247646332,0.19532594084739685,-9.93302059173584,0.001318650399713256,-0.07077937779251321,-0.011858379497330929,2.2067817819670634,8.296014507783255,0.6561236122299192
1731474144.7396362,-0.4850020408630371,0.15887004137039185,-9.961091995239258,0.003945292480309289,-0.06966516751180354,-0.011973661705869963,2.199350532758278,8.293090961791354,0.6526714028208525
1731474144.7895703,-0.042006008327007294,0.42955347895622253,-9.968608856201172,0.006599696520789669,-0.06805486714055113,-0.012087286909285132,2.191927025211105,8.289993883281296,0.6491867442289574
1731474144.8395107,0.20982344448566437,0.5299987196922302,-9.996824264526367,0.009285438842980281,-0.06594239590786312,-0.012195563846372336,2.201080437070571,8.272354385162794,0.6467967529721557
1731474144.8894217,-0.2961362600326538,0.27400559186935425,-10.028383255004883,0.012000417016403885,-0.06332802414070768,-0.012295167753082521,2.1938456582041987,8.268792466828206,0.6432540954999671
1731474144.9395008,-0.07620701938867569,0.45252323150634766,-9.962984085083008,0.014736347906754443,-0.0602184604215076,-0.012383387829370176,2.2038510807369933,8.250289685280466,0.6408935654804506
1731474144.989377,-0.3626199960708618,0.24273060262203217,-10.05359172821045,0.017480644075296932,-0.056625805958335954,-0.012458197178595016,2.196873014387741,8.246308588737076,0.6373109777600029
1731474145.0394049,-0.1496284306049347,0.48473837971687317,-10.041500091552734,0.02021841851766302,-0.05256652057389975,-0.012518281559044607,2.207717327701305,8.22695571625057,0.6349550162260745
1731474145.0892012,-0.3409866988658905,0.2217046469449997,-10.007319450378418,0.022933592652209588,-0.048060807491403644,-0.012563162732496268,2.2010202293185266,8.22259022010844,0.6313297879023485
1731474145.1393504,-0.19522902369499207,0.4383619427680969,-10.02239990234375,0.025609486304161197,-0.04313208686546584,-0.012593178281598654,2.2127208891006394,8.202388866347182,0.6289631785962645
1731474145.1891997,-0.3174585700035095,0.26658883690834045,-9.997493743896484,0.028229205065845392,-0.03780642963435008,-0.012609247711083384,2.206299453905548,8.197658272064855,0.6252752993558297
1731474145.2401588,-0.2567730247974396,0.41878947615623474,-9.975645065307617,0.03077596817827795,-0.03211210735773824,-0.012612619514709832,2.199805865200508,8.192728879797205,0.6214700068338627
1731474145.290124,-0.31867489218711853,0.322895348072052,-10.004502296447754,0.033233445395190186,-0.026079289986280722,-0.012604650187591038,2.193552772605183,8.187848311188324,0.6177271437553636
1731474145.3400424,-0.2900391221046448,0.4151308536529541,-9.99188232421875,0.035586081556829186,-0.019739812544200066,-0.012586676768113125,2.2071485398666915,8.16620687831038,0.6154196931690792
1731474145.390102,-0.2900391221046448,0.4151308536529541,-9.99188232421875,0.03781931778186227,-0.013127013924648106,-0.012560018967038645,2.2011938025420528,8.161037326397608,0.611590985193056
1731474145.390102,-0.331870973110199,0.35072141885757446,-9.961592674255371,0.03991970592772097,-0.0062755906129216745,-0.01252596006128102,2.20114602320623,8.160995375798922,0.611559885913763
1731474145.4399805,-0.31109046936035156,0.4003080129623413,-9.982954025268555,0.04187503520833933,0.0007787337934090262,-0.012485632554495073,2.215823358066857,8.138771095590505,0.6093039095592654
1731474145.4899025,-0.3297779858112335,0.40445318818092346,-9.977746963500977,0.043674491348489275,0.00799966021418784,-0.012439928971792726,2.210314055271276,8.133503228741787,0.6054642269878628
1731474145.5398126,-0.3312694728374481,0.4171616733074188,-9.975252151489258,0.045308748168083814,0.015350578513412545,-0.012389516509656914,2.2048631060206243,8.128213956275829,0.6015565516360598
1731474145.589731,-0.3365127444267273,0.42672958970069885,-9.98169231414795,0.04677000195490129,0.022794680332408068,-0.012334884843117157,2.2210763016202297,8.105152139432828,0.5993292761470279
1731474145.6397784,-0.6444383859634399,0.252627432346344,-9.986760139465332,0.04805226752579614,0.030295268409023583,-0.012276385044264638,2.216050247804698,8.099827439253213,0.595374965574222
1731474145.6896195,-0.5891392230987549,0.3251998722553253,-9.954066276550293,0.04915236880834567,0.03781650374735561,-0.012214259322828018,2.21118565695321,8.094630516879912,0.5914224638824701
1731474145.739691,-0.7718563675880432,0.09749940782785416,-9.974160194396973,0.05007128800724637,0.04532442682749891,-0.012148606360604726,2.2063938462098935,8.089482699199431,0.5873973394214139
1731474145.7895942,-0.46285444498062134,0.407083123922348,-9.982929229736328,0.05081480872231977,0.05278775089741703,-0.012079332697155458,2.2247692356611535,8.065582869205302,0.5852474464440413
1731474145.839546,0.17480438947677612,0.5993920564651489,-9.956948280334473,0.051392189731246415,0.06017759322491549,-0.012006189620346268,2.220438244937364,8.060550011478375,0.5811838737773833
1731474145.8895202,-0.4296962022781372,0.3416212499141693,-10.036373138427734,0.051812807580739875,0.06746602273183337,-0.011928871107017621,2.2354964832621347,8.036346660397367,0.5790622192103106
1731474145.9394314,-0.10667605698108673,0.5735830664634705,-9.944799423217773,0.052083608761284615,0.0746249823680753,-0.011847142441590755,2.2315584356707494,8.031465770316883,0.5749326070385277
1731474145.9893925,-0.4261827766895294,0.25164923071861267,-9.998679161071777,0.05220929256394412,0.08162649711585829,-0.011760897989001694,2.2444699550787424,8.007076517398366,0.5728757907366895
1731474146.0393891,-0.4261827766895294,0.25164923071861267,-9.998679161071777,0.05219368375928439,0.0884436523197652,-0.011670108881309382,2.2409349002133094,8.002460627493596,0.5687199538112596
1731474146.0393891,-0.1757666915655136,0.5858380794525146,-10.030649185180664,0.05204078093185602,0.09505160238669612,-0.011574877135194374,2.240902485490176,8.002418543586424,0.5686809802366255
1731474146.0892906,-0.36952340602874756,0.26452311873435974,-9.984543800354004,0.05175489609199825,0.10142762215946494,-0.011475603389486947,2.237558625203068,7.998119098010345,0.5645701925995812
1731474146.1392066,-0.2180897742509842,0.5275964140892029,-9.984308242797852,0.05134013396147799,0.10755051122377257,-0.011372995450723095,2.2343030476595467,7.994027612496689,0.5603831578780671
1731474146.1892066,-0.35027265548706055,0.3020928204059601,-9.998504638671875,0.05080017376686936,0.11340046811300883,-0.011267894863579288,2.231156408721698,7.990189105311063,0.5561432061463485
1731474146.2392662,-0.24522694945335388,0.4789474606513977,-9.97572135925293,0.05013840549517905,0.11895928166152592,-0.01116114171678776,2.2469215100544506,7.965328336639592,0.5541839379026242
1731474146.2900531,-0.32880857586860657,0.3587845265865326,-9.992473602294922,0.04935805313117193,0.12421043228436453,-0.01105353459939956,2.244130858029282,7.961858866827665,0.5498335582550131
1731474146.3401139,-0.28920209407806396,0.4533703923225403,-9.996732711791992,0.048462278576448865,0.1291391077436417,-0.010945821261652722,2.2566353164978135,7.9370320425827545,0.5479275654704191
1731474146.3900425,-0.32036682963371277,0.38436904549598694,-9.975886344909668,0.047454310367882446,0.133732178397209,-0.010838716612542227,2.254258545998512,7.934111981885633,0.5436383247154123
1731474146.4399643,-0.3222068250179291,0.4288286566734314,-9.992498397827148,0.046337580496287806,0.13797820250310405,-0.010732902905948307,2.251969967284024,7.931498137553662,0.5392670058652934
1731474146.4898868,-0.3282969295978546,0.4256960153579712,-9.982223510742188,0.04511584429463633,0.1418674338493785,-0.010628995625149034,2.249829217817946,7.9292712682873745,0.5349341554091851
1731474146.5398424,-0.3342430889606476,0.41899538040161133,-9.977553367614746,0.043793278289037355,0.14539177603679984,-0.01052752384585279,2.2638583597527786,7.904391377295485,0.5331732680689413
1731474146.5898244,-0.3272224962711334,0.4375999867916107,-9.990431785583496,0.04237452607352749,0.14854471949767253,-0.010428917309452931,2.2740635937233487,7.879671920659015,0.5314384430311747
1731474146.6398294,-0.348007470369339,0.42216381430625916,-9.980985641479492,0.04086469677660462,0.15132130591142032,-0.010333506617955552,2.2724218973274817,7.878154014726924,0.5270020257569485
1731474146.6897447,-0.3311549723148346,0.43346843123435974,-9.981561660766602,0.03926935595446551,0.1537181049710569,-0.010241543723404637,2.2709036996256637,7.877037115458312,0.5226047761056296
1731474146.7396312,-0.3635404109954834,0.40990909934043884,-9.988479614257812,0.03759452244754555,0.15573321458086375,-0.010153209543742114,2.26948015575216,7.876301709399943,0.5181820080589951
1731474146.789546,-0.32311975955963135,0.4552238881587982,-9.978585243225098,0.03584665476935995,0.15736626794281444,-0.010068618378905974,2.268143609934626,7.875951976892841,0.5137219586796824
1731474146.8395026,-0.3543110489845276,0.4205108880996704,-9.987153053283691,0.03403258933969531,0.15861837345167584,-0.009987828660999397,2.280136402224217,7.851256301331086,0.5121883991348253
1731474146.8894835,-0.33690303564071655,0.44204410910606384,-9.983466148376465,0.03215944480452599,0.1594920176815389,-0.009910849170365995,2.2790550083635406,7.851506720647097,0.507650737135853
1731474146.939377,-0.3456494212150574,0.4204249382019043,-9.974058151245117,0.030234551587622706,0.1599910221777425,-0.00983764047336734,2.2868123238939706,7.827044074451796,0.5062160695666498
1731474146.9893372,-0.32335811853408813,0.44455331563949585,-9.994388580322266,0.028265382079562296,0.16012053025016384,-0.00976810803672188,2.2859416031947783,7.827897868631635,0.5016770824854634
1731474147.0392928,-0.3419918715953827,0.4153200089931488,-9.980100631713867,0.02625944185275872,0.15988696796118856,-0.009702114532878156,2.285140857893258,7.829148823015527,0.49712409565454174
1731474147.0892532,-0.33232659101486206,0.44813141226768494,-9.970808982849121,0.024224177765466037,0.15929799089178254,-0.009639499648234141,2.2844022075749693,7.8307994661896565,0.4925418670373305
1731474147.1392598,-0.3414287269115448,0.42118310928344727,-9.989472389221191,0.02216694450532429,0.15836241742997037,-0.009580055402138032,2.29264725734315,6.009142336555243,0.49125894917297397
1731474147.1892078,-0.32821929454803467,0.43675288558006287,-9.983247756958008,0.020094987383903057,0.15709015066177162,-0.009523513202778751,2.2920812392227856,5.997825109685055,0.4866608622967342
1731474147.239118,-0.3308393657207489,0.41653814911842346,-9.989508628845215,0.018015395324456788,0.15549212445796123,-0.00946959304120914,2.291559136634969,5.986821605607569,0.4820068569088634
1731474147.2890556,-0.3233639597892761,0.44228991866111755,-9.99915599822998,0.015935028404252014,0.1535802606472696,-0.00941806420299677,2.297308535138023,5.007557629567952,0.48091468962817335
1731474147.34003,-0.3317860960960388,0.42187803983688354,-9.981391906738281,0.013860455168735061,0.1513673883196771,-0.009368786808959405,2.2968992378812527,4.989906328367751,0.4761707669734968
1731474147.389953,-0.3199501931667328,0.43816444277763367,-9.984302520751953,0.01179792041459695,0.14886713672784088,-0.009321706839590917,2.2965301387369297,4.972972404996629,0.47149451511992674
1731474147.4399762,-0.3348630368709564,0.410004585981369,-9.995926856994629,0.009753332833632137,0.14609385473901998,-0.009276808620146154,2.296185204372791,4.95627193289869,0.4667564536865648
1731474147.4898822,-0.31965500116348267,0.4335654675960541,-9.987404823303223,0.007732262826329944,0.14306256934883052,-0.009234103212594033,2.3000236012609885,4.346590782798634,0.46590856902163547
1731474147.5398347,-0.33629316091537476,0.42236918210983276,-9.98745346069336,0.005739947201989462,0.13978893173321305,-0.0091936501487456,2.29974329515661,4.326488408061179,0.4611913188283031
1731474147.5897639,-0.32917505502700806,0.4344494938850403,-9.999245643615723,0.0037813024079716125,0.1362891101959919,-0.009155557855947483,2.2982590918116856,3.9224768794573524,0.46043305243047117
1731474147.6397233,-0.3516184091567993,0.42074695229530334,-9.990751266479492,0.0018609649331698904,0.13257966781182767,-0.009119988934339518,2.297972298993294,3.9003914946492713,0.4556918666412497
1731474147.6896822,-0.3454195261001587,0.43337929248809814,-9.982441902160645,-1.6634436079170892e-05,0.12867746912527422,-0.009087167113735299,2.297686809564235,3.8785562298133014,0.45091125960605355
1731474147.739603,-0.3505779504776001,0.42843934893608093,-9.977140426635742,-0.0018471984450382708,0.12459959796549339,-0.0090573261558521,2.2960178357187893,3.5891310545037083,0.4503270437938106
1731474147.7895708,-0.3442579209804535,0.44717955589294434,-10.014467239379883,-0.003626542698183354,0.12036324926407446,-0.009030653945211296,2.295704327814997,3.5659956971460534,0.44550711184149144
1731474147.839557,-0.2940550446510315,0.5944892764091492,-9.976007461547852,-0.00535067575813898,0.11598545078384817,-0.009007329212122467,2.288497031186491,3.354291029586143,0.44500374144121124
1731474147.889536,-0.20518560707569122,0.54371577501297,-9.946371078491211,-0.007016107145319157,0.11148244885739199,-0.008987528989748026,2.2880942314355517,3.3306932120003285,0.4401984443341132
1731474147.939503,-0.43645983934402466,0.24578015506267548,-9.995434761047363,-0.008620224432904878,0.10686936050361791,-0.00897128457725193,2.2773184741047725,3.169493717373881,0.43977251039885584
1731474147.9893682,-0.2412494719028473,0.5809628963470459,-10.00178050994873,-0.010161214070973106,0.10216078863675268,-0.008958418971759738,2.2767864606017683,3.1457819305148043,0.4349836164494802
1731474148.0393229,-0.4226839542388916,0.305077463388443,-9.972904205322266,-0.011637633351634497,0.09737154565444622,-0.008948699068517703,2.2762228902819395,3.1221241355622475,0.4301330600387417
1731474148.0892675,-0.17636924982070923,0.6643232107162476,-9.994385719299316,-0.013048258459713684,0.09251653608287663,-0.008941944724908581,2.275630447586812,3.0987816225003915,0.42527635979047357
1731474148.1391916,-0.017241640016436577,0.4965020716190338,-10.021503448486328,-0.014392628165930003,0.08761007996154005,-0.008938034080384719,2.270328530734186,2.973875790015682,0.4251282010157232
1731474148.1891968,0.08745230734348297,0.6030604839324951,-10.011589050292969,-0.015672470406850533,0.08266518925607966,-0.008937000884432984,2.265624631861459,2.876881129508746,0.4249859260344293
1731474148.2391913,-0.9778934717178345,0.07814757525920868,-9.990920066833496,-0.016892368159185905,0.07769365173433698,-0.00893915210255998,2.264859364671786,2.85313950695124,0.42009948301449496
1731474148.289004,-0.13256236910820007,0.6477596163749695,-9.916261672973633,-0.018057577212878165,0.07270724099270166,-0.008944942876660355,2.2640551842365473,2.8297253488973686,0.41521972277046987
1731474148.3390393,-0.5607509613037109,0.18505153059959412,-10.030675888061523,-0.019171305058893747,0.06771862227950169,-0.008954658146031086,2.2632004474761422,2.8063682923968014,0.41029296550566846
1731474148.3899746,-0.24053697288036346,0.6703055500984192,-9.993346214294434,-0.020234567398389493,0.06274108378690053,-0.008968324527416076,2.257463263814076,2.729949811031574,0.410347151098868
1731474148.4399455,-0.4149532914161682,0.18424800038337708,-9.922703742980957,-0.02124728857067764,0.057787957813561455,-0.00898587888884253,2.2564710240254513,2.706614458865258,0.4053934289292832
1731474148.4898977,-0.32263457775115967,0.564312756061554,-10.011099815368652,-0.022208885657348326,0.05287244986785619,-0.009007148602425028,2.2505024155922593,2.6491429224147574,0.4056357502675775
1731474148.539939,-0.4096713662147522,0.33358514308929443,-9.978320121765137,-0.02311844780595998,0.048007679801966206,-0.009031743797972648,2.249367784714086,2.626080861957945,0.40067926326643527
1731474148.5898108,-0.33266475796699524,0.4822407364845276,-9.983787536621094,-0.023974729153138287,0.04320653357260587,-0.009059168914448515,2.243174466594013,2.5793822326839178,0.4010389070282821
1731474148.6398258,-0.36633315682411194,0.4079146981239319,-10.017582893371582,-0.02477618582147299,0.03848142136741253,-0.009088970194729824,2.241879400484805,2.556431040996059,0.39604258994361297
1731474148.6896837,-0.37975364923477173,0.41329842805862427,-9.984230041503906,-0.025521112458825372,0.03384417129928679,-0.009120815625733981,2.23547488203432,2.5195175649156596,0.3965246685471475
1731474148.7397082,-0.3236582279205322,0.45023560523986816,-9.957239151000977,-0.02620772886973545,0.029306010658670653,-0.009154507145291993,2.2340251902208976,2.4969340810000915,0.3915404518563177
1731474148.7895982,-0.4094269871711731,0.40006208419799805,-10.010847091674805,-0.026834237470728887,0.024877544992037162,-0.009189858928768125,2.2273505278631607,2.4683016057843705,0.3921022128682584
1731474148.8395123,-0.3341081142425537,0.49790847301483154,-9.974881172180176,-0.027398857135370328,0.02056866397767464,-0.009226621653478206,2.220549737938685,2.4453966907862856,0.39266964403185595
1731474148.8895173,-0.40162166953086853,0.3858509361743927,-9.979796409606934,-0.027899807500522743,0.01638840396115805,-0.009264530970426985,2.218820400481904,2.423263757408801,0.3876589715721795
1731474148.9394271,-0.33520281314849854,0.49349677562713623,-9.995915412902832,-0.028335325615559744,0.012344878282620878,-0.009303318444988783,2.2170326584524473,2.401319512606388,0.38265965100746646
1731474148.989394,-0.39363962411880493,0.3769837021827698,-9.9759521484375,-0.028703732471721824,0.008445312324889622,-0.009342699760870961,2.2151782404173836,2.379452322949511,0.3776488399171351
1731474149.0393794,-0.32641667127609253,0.49767252802848816,-9.984671592712402,-0.029003507982582406,0.004696107221736421,-0.009382387996167384,2.207922427182032,2.363271160188249,0.37850062592502903
1731474149.0893095,-0.39658495783805847,0.40310895442962646,-9.991823196411133,-0.02923336265059073,0.0011028463498594797,-0.009422089239140466,2.20588357710972,2.341586235642942,0.37346280271892246
1731474149.139286,-0.31508591771125793,0.49019932746887207,-9.974615097045898,-0.029392288867698714,-0.0023297548690812114,-0.00946150661729423,2.203767143357511,2.3198550022680475,0.3683909446194107
1731474149.1892076,-0.3865351676940918,0.38851404190063477,-9.984769821166992,-0.029479609064543492,-0.005597860014590259,-0.009500343179683167,2.196163042649317,2.2991590980579075,0.3694600488688789
1731474149.2392628,-0.3284973204135895,0.4553205966949463,-9.989445686340332,-0.029495017395751673,-0.008698406715507895,-0.009538286758169428,2.1938622838187185,2.277394526747988,0.364370548200866
1731474149.2891707,-0.36882221698760986,0.4021817743778229,-9.976908683776855,-0.029438585914612708,-0.011628951956327394,-0.009575020899267345,2.191482630134192,2.2555600528912003,0.35924661952263665
1731474149.3390863,-0.339903861284256,0.46282950043678284,-9.997218132019043,-0.029310759559741658,-0.01438760141376626,-0.009610248961924833,2.189057421225136,2.2339432517846807,0.3541575624755625
1731474149.3890233,-0.36403632164001465,0.4146801829338074,-9.983406066894531,-0.029112347016813617,-0.016973046926210034,-0.009643714012023748,2.1809503563013797,2.213617477054677,0.3555038657175535
1731474149.4399798,-0.3282560706138611,0.4430561661720276,-9.990992546081543,-0.02884450837977036,-0.01938460590060897,-0.009675222280619383,2.1782674682547105,2.191291257126496,0.3502508578151128
1731474149.489963,-0.34830936789512634,0.4099680185317993,-9.985173225402832,-0.02850878038207495,-0.021622184519957267,-0.009704645941173333,2.1755578322755116,2.169297812458301,0.3450637542793731
1731474149.5398574,-0.3367198407649994,0.4484230577945709,-9.979958534240723,-0.028107115621556787,-0.02368620908362563,-0.009731899373232069,2.1671091086940657,2.149764814736602,0.3466331105198723
1731474149.5898209,-0.3511849343776703,0.42940324544906616,-9.9827299118042,-0.02764186758459731,-0.025577615090568613,-0.009756901916193161,2.1642366233747596,2.127791596011399,0.34145969199909476
1731474149.639785,-0.3449540138244629,0.44740235805511475,-9.993281364440918,-0.027115721323798456,-0.027297893974829908,-0.009779556280900756,2.1612888921948508,2.1057017534679296,0.33624992790579694
1731474149.689714,-0.348348468542099,0.4309273660182953,-9.968509674072266,-0.0265316187511938,-0.028849121733214887,-0.009799759927048268,2.152501758757772,2.086466939094297,0.3380297132705619
1731474149.7397473,-0.3465837836265564,0.4344233572483063,-9.99363899230957,-0.025892707650691155,-0.030233928675114624,-0.009817403948720067,2.1493747106286576,2.0641947388551767,0.33279196727786
1731474149.7896135,-0.35121646523475647,0.43669408559799194,-9.989757537841797,-0.02520230674100671,-0.03145543411664318,-0.009832370294350913,2.1403881535945883,2.045926972632148,0.3346955626086443
1731474149.839714,-0.3436480164527893,0.4485608637332916,-9.986307144165039,-0.024463872545352074,-0.032517206803292016,-0.009844574803275009,2.1312339384353747,2.028322989588512,0.3365196479459217
1731474149.8895714,-0.3596985638141632,0.44395580887794495,-9.989258766174316,-0.02368096631543746,-0.033423279970895135,-0.009854001913023786,2.1278767570667805,2.0061197563852917,0.33133107989487187
1731474149.9394937,-0.3440133035182953,0.440993994474411,-9.989282608032227,-0.022857214303749134,-0.03417816592504564,-0.009860696601117911,2.1244477286061634,1.9837415342161653,0.3260967239404941
1731474149.9894161,-0.3629949986934662,0.4327376186847687,-9.978323936462402,-0.021996265418843843,-0.03478680787861764,-0.009864746432003219,2.1209785209509557,1.9613794341070971,0.32086166785566556
1731474150.0394707,-0.35161831974983215,0.4358040392398834,-9.977865219116211,-0.021101753272669044,-0.03525448250072791,-0.009866243369008995,2.1115268455751837,1.9436671272333783,0.3230233783121961
1731474150.0892787,-0.3588835597038269,0.44195646047592163,-9.983288764953613,-0.020177260829701366,-0.03558671815662474,-0.009865230344753994,2.1079096845465854,1.9211394882187374,0.31776871704700477
1731474150.1392915,-0.3525645434856415,0.4376795291900635,-9.988021850585938,-0.019226302155066734,-0.03578926640681118,-0.00986169155248737,2.104243874034296,1.898525676740572,0.31249012071858484
1731474150.1892414,-0.3610277473926544,0.4366692900657654,-9.989734649658203,-0.01825231909438529,-0.03586809164927107,-0.00985559935019758,2.0945534584680585,1.8816348256806512,0.3148895536083185
1731474150.239233,-0.35390523076057434,0.44004589319229126,-9.980785369873047,-0.017258672043231407,-0.03582933876990825,-0.00984696067570601,2.090746106300176,1.858818763154028,0.3095824025259611
1731474150.2891834,-0.34808841347694397,0.4356316924095154,-9.990507125854492,-0.01624863864817158,-0.03567929327506856,-0.009835821023773207,2.086918435486727,1.836041922396097,0.304280578194422
1731474150.3391497,-0.3495331108570099,0.4318283796310425,-9.987534523010254,-0.015225443915326582,-0.035424342257129975,-0.009822254105979658,2.077003629730264,1.8202107457519003,0.3068914949506195
1731474150.3889644,-0.34229859709739685,0.43807172775268555,-9.979005813598633,-0.014192302100240218,-0.03507092574543051,-0.009806361732593407,2.0730723684929186,1.7973839952511865,0.3015934776266302
1731474150.4399717,-0.35194361209869385,0.43843650817871094,-9.987793922424316,-0.013152436843622497,-0.034625502501930645,-0.00978825802474348,2.062911918867586,1.7823380417403114,0.3041817502511939
1731474150.4899325,-0.3497510850429535,0.43838438391685486,-9.9824857711792,-0.012109065850126007,-0.03409454617933459,-0.009768046604149152,2.052783766247539,1.7690570542375699,0.3068468232451941
1731474150.5399475,-0.3440338671207428,0.4448617100715637,-9.980924606323242,-0.01106536551539979,-0.03348454866730435,-0.00974581601949275,2.0486616992614386,1.7460486297880609,0.30152801024379816
1731474150.5898569,-0.3435697555541992,0.4436219334602356,-9.993441581726074,-0.010024458460250952,-0.032802022244988446,-0.00972164339300434,2.044523652702331,1.7230151478384272,0.2961982377921146
1731474150.6397717,-0.3434273302555084,0.4445556402206421,-9.981748580932617,-0.008989428953885692,-0.03205350104178528,-0.00969561157752389,2.0343362530235853,1.709841796220719,0.29909646117660404
1731474150.6896904,-0.34205594658851624,0.4357181191444397,-9.985618591308594,-0.007963329515572978,-0.031245519670823896,-0.009667827293188025,2.030121263866055,1.6867697328754567,0.29376499528873323
1731474150.7397027,-0.3368449807167053,0.4365089237689972,-9.985532760620117,-0.0069491754127644165,-0.030384555518038908,-0.009638412017823849,2.0197911205488537,1.6751495757013517,0.29670943290464813
1731474150.7896504,-0.3370206654071808,0.44003918766975403,-9.988101959228516,-0.005949948222527592,-0.029476962715751107,-0.009607491737508585,2.015505219190756,1.65204828160971,0.29137168205627156
1731474150.839731,-0.34878137707710266,0.4350849390029907,-9.995030403137207,-0.004968592366962604,-0.028528935538235687,-0.009575214456206054,2.0051210772953447,1.641725036464445,0.2944068785232212
1731474150.8894904,-0.34878137707710266,0.4350849390029907,-9.995030403137207,-0.004007965445046775,-0.027546490799471073,-0.009541788240605973,2.000798725452967,1.6187461136411985,0.28909339141505225
1731474150.8894904,-0.34958556294441223,0.43955448269844055,-9.992443084716797,-0.0030707583563507807,-0.02653544663307242,-0.00950751493269903,2.0007679433436114,1.618582411409348,0.28905551005184993
1731474150.9395454,-0.33814793825149536,0.4347154200077057,-9.992836952209473,-0.0021594526719144625,-0.025501410289896616,-0.009472791536744704,1.996411896563154,1.5953989776218007,0.2836862889067343
1731474150.9894862,-0.3534073531627655,0.43426117300987244,-9.98823356628418,-0.0012763327134491607,-0.02444977216411365,-0.009438081309017887,1.992055971689915,1.5721767978084746,0.2782989593635431
1731474151.0393903,-0.35689619183540344,0.43784937262535095,-9.982269287109375,-0.00042348475799179424,-0.023385690187425683,-0.009403869516550126,1.9816304057389738,1.5629111374662292,0.28172084468225594
1731474151.089344,-0.34376397728919983,0.4424741268157959,-9.984296798706055,0.0003972462973746382,-0.02231408623639236,-0.009370609077976402,1.9772149633251757,1.539594098979371,0.27630345875827356
1731474151.1394033,-0.34501925110816956,0.4349685609340668,-9.980411529541016,0.0011842670033655857,-0.021239665199050937,-0.009338675343101099,1.9667004671433455,1.529997205732351,0.27977731583287757
1731474151.1892505,-0.35001081228256226,0.4367660880088806,-9.98748779296875,0.0019361894111865636,-0.02016691990180707,-0.009308350724657858,1.9622961087934323,1.5069165712826367,0.2744071508015201
1731474151.2393665,-0.35077399015426636,0.4410512447357178,-9.983784675598145,0.002651807784315074,-0.019100112852054464,-0.009279837931233386,1.9578573596208804,1.4835764824411397,0.26896479051560035
1731474151.2891529,-0.3346041738986969,0.4414082169532776,-9.978825569152832,0.0033301043570411375,-0.01804327386728448,-0.009253277172921787,1.9473893118513201,1.474942858095702,0.2726735069791029
1731474151.339152,-0.3532467186450958,0.44168803095817566,-9.982125282287598,0.003970227052787757,-0.017000220151996103,-0.009228740288041987,1.9429648344599286,1.4518192360502722,0.2672696353149906
1731474151.38902,-0.3444956839084625,0.44681721925735474,-9.989038467407227,0.004571466989395827,-0.01597457369127852,-0.009206223783619441,1.9324629780859728,1.4439691200357652,0.27107872776644376
1731474151.4390323,-0.3412024676799774,0.45108357071876526,-9.988518714904785,0.005133268094142423,-0.014969780370436059,-0.009185680448572962,1.9280076762117708,1.4208105327209772,0.265651486513933
1731474151.4888942,-0.35135704278945923,0.44728460907936096,-9.988907814025879,0.005655228220820058,-0.013989138014151947,-0.009167068845071664,1.9175040389519578,1.4136774933111391,0.26953360175647045
1731474151.5399947,-0.3428148031234741,0.43845781683921814,-9.985496520996094,0.0061370928192545976,-0.013035798908701442,-0.009150375419544814,1.9129381220876085,1.390056986006396,0.26397899806598524
1731474151.589838,-0.35130253434181213,0.43799132108688354,-9.989453315734863,0.006578764101819052,-0.012112718695269222,-0.009135607301487044,1.9084928718579908,1.3669456695177071,0.25852848301419584
1731474151.6397727,-0.34227749705314636,0.4340595602989197,-9.994230270385742,0.006980305465827364,-0.011222583296682144,-0.009122789227835965,1.898096234981489,1.3609529634384783,0.26264426754622433
1731474151.6898038,-0.345090389251709,0.4354267120361328,-9.992863655090332,0.00734192822127247,-0.010367760203140518,-0.009111984983681869,1.8936325195062746,1.3378407763664943,0.2571706415037648
1731474151.7628806,-0.3515869379043579,0.4293767511844635,-9.992466926574707,0.007663974835220199,-0.00955027833817149,-0.00910332133508475,1.8811483463872405,1.3220262850527298,0.25883063433700265
1731474151.7896523,-0.3438718020915985,0.40278133749961853,-9.977875709533691,0.007946920140037547,-0.008771791868368604,-0.009096974648986856,1.8787736320947488,1.309764454278296,0.25591072897314204
1731474151.839626,-0.3230764865875244,0.15276339650154114,-9.979936599731445,0.008191354877624839,-0.00803325387950336,-0.009093106634792816,1.868356627672471,1.3052346483261643,0.26012007949985894
1731474151.8895721,-0.22208143770694733,0.187400683760643,-10.070066452026367,0.008397798731780287,-0.007333966984336626,-0.009091870285372039,1.863937697322547,1.2825350104228919,0.2546896401049978
1731474151.939552,-0.3626958727836609,-0.3957504630088806,-10.0033597946167,0.008566353349761122,-0.006669980582630229,-0.009093630123902966,1.8595132828307948,1.2596801634957266,0.2492034368490043
1731474151.989412,-0.49128592014312744,-0.6028002500534058,-10.101073265075684,0.008696778867800337,-0.006031602863108861,-0.009099252206638993,1.849227291171115,1.256523422091465,0.2536575086159451
1731474152.039409,-0.33004650473594666,0.15001556277275085,-9.991525650024414,0.008789262566966702,-0.0054010705001358225,-0.009110234240492489,1.8389270002136762,1.2538350473642403,0.2580088083703797
1731474152.0893848,-0.42409035563468933,-0.23452405631542206,-9.928579330444336,0.008844985562176165,-0.004753170237612587,-0.009128506208763567,1.8345180253227518,1.231372261929926,0.25256787217063514
1731474152.139399,-0.3635537326335907,0.16380023956298828,-9.96257495880127,0.008865981457847304,-0.004058458651508717,-0.009155841973209808,1.8301086101783355,1.2087822646913182,0.24707574476665975
1731474152.1892323,-0.3265819549560547,0.03705446049571037,-9.926668167114258,0.008854794774386797,-0.003286061508176253,-0.009193300380334212,1.825785327677101,1.1865120910193772,0.24164087801955883
1731474152.2392316,-0.34383344650268555,0.2610261142253876,-9.951214790344238,0.008814141028797746,-0.002405508892049222,-0.009241065879118302,1.821439192920736,1.1640035506457949,0.23612657152468636
1731474152.2891235,-0.35642221570014954,0.23940710723400116,-9.95168685913086,0.008746606595992218,-0.0013883076983312189,-0.00929853270139311,1.8113321769401167,1.1635972528035083,0.2410183526195456
1731474152.3392637,-0.3735845685005188,0.305618554353714,-9.976515769958496,0.0086546199361534,-0.0002091738648565128,-0.00936448323158931,1.8069822984771209,1.1411946041178747,0.2354863917785019
1731474152.389072,-0.3662432134151459,0.2762035131454468,-9.98367977142334,0.008540613363200836,0.0011532493978571503,-0.00943734371655798,1.796845837489365,1.141714901447996,0.24044410512084363
1731474152.4390504,-0.3853393793106079,0.2848801612854004,-9.992253303527832,0.008407151471286857,0.0027162181937156024,-0.00951544326864318,1.7925431188090222,1.119704133541405,0.23496031609373555
1731474152.4890246,-0.3745778203010559,0.2969180941581726,-9.987142562866211,0.00825698562928524,0.0044930581916282865,-0.009597199169199468,1.7824503090757493,1.121238676959445,0.2399702783477121
1731474152.539969,-0.36941108107566833,0.32635197043418884,-10.017279624938965,0.008093052878237238,0.006493377634705667,-0.009681222395299123,1.7780583449778617,1.0989520909932475,0.23436081243574158
1731474152.5898287,-0.3613957464694977,0.32036691904067993,-9.987659454345703,0.007918400814053263,0.00872318457857927,-0.009766394003539926,1.7737847057599756,1.077182759294866,0.2288522423356757
1731474152.6398501,-0.3558109700679779,0.3377763330936432,-10.017905235290527,0.007736059435437993,0.011184989440219863,-0.009851908433790066,1.7638189854014454,1.0802911123286505,0.2340383822669729
1731474152.6896672,0.11172740161418915,0.9410831928253174,-9.988750457763672,0.0075485025568744115,0.013877444554158787,-0.009937260939169043,1.7595821113245367,1.0589366489697072,0.2285674906015683
1731474152.7397246,0.6022413969039917,1.6053311824798584,-9.950591087341309,0.007355523180639217,0.016792907703655602,-0.010022151631761756,1.7496085698540798,1.06313255219996,0.23377644911109602
1731474152.7897217,0.45707929134368896,1.1785728931427002,-9.883322715759277,0.007150467750862191,0.019913002718231883,-0.010106184480441295,1.745353416467951,1.0419586104698895,0.22827369254650928
1731474152.8396256,0.18722468614578247,0.8254978060722351,-10.014012336730957,0.006917737684216931,0.023206389983568637,-0.010188478313266426,1.7410978328053788,1.0207488951683623,0.2227222161273185
1731474152.889567,-0.2138817459344864,0.33085402846336365,-10.020838737487793,0.006634282614282817,0.026632046134765316,-0.010267700660205149,1.7368736331626449,0.9996734973618364,0.21716410014136128
1731474152.939633,-0.84199458360672,-0.42900434136390686,-10.077438354492188,0.006274583900638555,0.030146402701170503,-0.010342656798911129,1.7270583228794907,1.0062783870710272,0.22273033214830498
1731474152.9894435,-1.1347620487213135,-0.6553553342819214,-10.159132957458496,0.005817170740685619,0.0337114111073164,-0.010413007669380992,1.7228836860061725,0.9858210656419834,0.21723470508916498
1731474153.0395005,-0.5375619530677795,0.026560742408037186,-10.053828239440918,0.005249916955375337,0.03730047964711321,-0.010479792149087164,1.7130375897510453,0.9937069866353874,0.2228194858655661
1731474153.0893981,-0.6419805884361267,-0.14039817452430725,-10.018117904663086,0.004570988742542527,0.04089909021147811,-0.010545446301921963,1.7088237735633545,0.9734992758617781,0.2172757909869111
1731474153.13939,-0.6419805884361267,-0.14039817452430725,-10.018117904663086,0.003786155467049369,0.04450150876411896,-0.010613210371870106,1.704596597870345,0.9532841882867832,0.21167432509552178
1731474153.13939,-0.48468977212905884,0.17504572868347168,-9.904268264770508,0.0029061795978424705,0.04810783985171807,-0.010686365615087918,1.7045590686404042,0.9531050145215003,0.21162441918445854
1731474153.1893013,-0.5061772465705872,0.20886747539043427,-9.975037574768066,0.001945290811582788,0.05172191026377943,-0.010767615541896302,1.7003946750113468,0.933275362693517,0.2060701944619702
1731474153.2392278,-0.504601240158081,0.35937514901161194,-9.961531639099121,0.0009198709554718112,0.05534879511810606,-0.010858731089029705,1.696169726449659,0.9132741646859694,0.2004034257869039
1731474153.2890863,-0.5235366225242615,0.4285810589790344,-9.942535400390625,-0.00015245636910388887,0.058992588504750976,-0.010960570036139677,1.6865874925291446,3.1808160091451914,0.20663301071201587
1731474153.3391986,-0.5182399153709412,0.41647854447364807,-9.95583724975586,-0.0012531942104155337,0.06265498594082597,-0.011073220091060647,1.6823206359971299,3.180256288796567,0.200947984788005
1731474153.3890479,-0.5484158992767334,0.4480695128440857,-9.937871932983398,-0.0023631727557093364,0.06633463427081242,-0.01119605082586458,1.6726715357853317,4.515551058659881,0.2071618883885967
1731474153.4390175,-0.5478430390357971,0.4370619058609009,-9.939542770385742,-0.0034627164494171773,0.07002712447332163,-0.011327750616542585,1.6683933491294014,4.526276553684884,0.2015126825240203
1731474153.4889638,-0.5263280868530273,0.4694240391254425,-9.992203712463379,-0.004531810320312357,0.07372526886891599,-0.011466425861807555,1.6587807034002027,5.40872787240901,0.20769554216821576
1731474153.5389593,-0.5467596054077148,0.46723413467407227,-9.985711097717285,-0.005550354976201943,0.07741939501463299,-0.011609845851830738,1.6544618897868486,5.426809590359838,0.20205474997444497
1731474153.5898702,-0.551529049873352,0.4757702946662903,-9.996859550476074,-0.0064984513100764685,0.08109762551393061,-0.011755776493313913,1.6448010064096676,6.054618376483353,0.20813210946248903
1731474153.6398945,-0.5152885317802429,0.4587487578392029,-9.976001739501953,-0.007356622176894727,0.08474620244726484,-0.01190218145236615,1.6403956104294422,6.0780724503203025,0.2024502299724349
1731474153.6898081,-0.5710768699645996,0.47691261768341064,-10.003650665283203,-0.008106025229741486,0.08834988156395165,-0.012047248491830306,1.6308534612197056,6.546296062042154,0.20867006592618764
1731474153.7397523,-0.525538980960846,0.48766395449638367,-9.994609832763672,-0.008728638351013372,0.09189230482759231,-0.01218938925192789,1.6212891048489457,6.907406012182289,0.21467501716294904
1731474153.789613,-0.5084438323974609,0.5185731053352356,-9.965476989746094,-0.009207423329802216,0.09535624154021835,-0.012327249720385413,1.6168230365317269,6.937177026083753,0.20907682584679008
1731474153.8396065,-0.5292466878890991,0.4623800218105316,-9.98769760131836,-0.009526580888982693,0.09872375699974045,-0.012459638837667812,1.6123034533944023,6.967390929260301,0.20340993174853875
1731474153.88953,-0.48913973569869995,0.46731847524642944,-9.979022026062012,-0.009671810233862025,0.1019765204765575,-0.012585426919845356,1.6077650604952982,6.99782081008464,0.1977182394078378
1731474153.9395475,-0.4685397744178772,0.5056860446929932,-9.99309253692627,-0.009630507848361097,0.10509623773185053,-0.01270354053914919,1.5982693502485787,7.288350236966518,0.20406885995937768
1731474153.9894257,-0.45702219009399414,0.4998912811279297,-9.956080436706543,-0.00939201395876924,0.10806491508550228,-0.012812994035210759,1.5887614677819997,7.52326456685821,0.21022500892525475
1731474154.0394197,-0.4022035002708435,0.5028836131095886,-9.970311164855957,-0.008947893100681323,0.11086492167811639,-0.01291283606502839,1.5841302600921174,7.557668257885126,0.2045773073896232
1731474154.089314,-0.42270535230636597,0.48164358735084534,-9.983999252319336,-0.008292176689740789,0.11347910381007714,-0.0130020668069481,1.5794558685368474,7.592512297706326,0.19887086881516547
1731474154.1392968,-0.38456615805625916,0.5007065534591675,-9.960416793823242,-0.007421510704397047,0.11589102104152162,-0.013079646685039852,1.5747504061615234,7.627728148501155,0.19311788094633722
1731474154.1892097,-0.3837924003601074,0.4896668791770935,-10.00211238861084,-0.006335172922514643,0.11808517131368514,-0.013144565073114798,1.5700409545144465,7.663137001545253,0.18734830575142128
1731474154.2391903,-0.3806689977645874,0.47306615114212036,-10.001392364501953,-0.005035011296698843,0.12004715787312942,-0.0131959386784078,1.5653040015393316,7.698943280241004,0.18152953617264098
1731474154.2891269,-0.5227342247962952,0.9770021438598633,-9.972333908081055,-0.0035251821136791615,0.12176342073873557,-0.01323313376233324,1.555961499515264,7.889295880116015,0.1884145068908392
1731474154.3391964,-0.6536251306533813,1.1910713911056519,-9.957026481628418,-0.0018113196968138079,0.12321950174195057,-0.013255750365260575,1.551179179484733,7.926836759543543,0.18257923101962617
1731474154.389024,-0.5680765509605408,0.5152410864830017,-9.884139060974121,0.00010075963380895049,0.12439767757779052,-0.013263357654362236,1.5464093270147683,7.964572034071334,0.1767286783770913
1731474154.438984,-0.8518714904785156,1.0223649740219116,-10.114818572998047,0.002206173502538729,0.12527683751008706,-0.013255270178530511,1.5371635469501508,8.119031766233325,0.18374259775947513
1731474154.4890203,-0.5428992509841919,0.5303182005882263,-9.948053359985352,0.004501627443820469,0.1258344550227508,-0.01323080917676622,1.5323786615008612,8.158182386619677,0.17787713358537102
1731474154.4890203,-0.5428992509841919,0.5303182005882263,-9.948053359985352,0.006985300176222762,0.12604852616585283,-0.013189688224935098,1.5308681426832051,8.170628796825348,0.17601536987516272
1731474154.8706543,-0.253031849861145,0.3442539572715759,-9.981415748596191,0.009655514094714452,0.12589955910828415,-0.01313186212208144,1.4831037088792574,8.684984801864154,0.17050131637406996
1731474154.9205117,-0.23775433003902435,1.9156547784805298,-9.855184555053711,0.012508675731725864,0.12537121365359385,-0.013057115885531817,1.4744758115759207,8.755419151625697,0.17763305216489225
1731474154.9705315,-0.4001409411430359,0.5899046659469604,-9.77047061920166,0.015537712508353209,0.12444723987903,-0.012964604251198265,1.4699031363897557,8.798047148537254,0.17174493853180406
1731474155.020408,-0.1947299689054489,1.112312912940979,-10.022409439086914,0.018731814223760294,0.12310839838469945,-0.012852330380934784,1.461458094646102,8.855168490416782,0.17886271742747728
1731474155.0704117,-0.1947299689054489,1.112312912940979,-10.022409439086914,0.022076809881214424,0.12133319685145794,-0.01271738270624036,1.4569651499339327,8.898204731173237,0.1729744066989573
1731474155.0704117,-0.21322882175445557,0.8714746236801147,-10.088143348693848,0.025555191639320175,0.11909952496523964,-0.012557123317882711,1.45692227352545,8.898619359938072,0.17291772212681045
1731474155.1203022,-0.2239534556865692,0.9041865468025208,-9.905142784118652,0.029146188552981275,0.11638546563688891,-0.012370096755718152,1.452429780112391,8.94256639648378,0.16691413110829414
1731474155.1704328,-1.3943976163864136,-0.5810168385505676,-10.084527969360352,0.032827400786318156,0.11317189671591867,-0.012155971105509478,1.4480581671752641,8.986362175318131,0.16093963795906677
1731474155.2202253,-0.5982986688613892,0.3721615672111511,-10.063822746276855,0.036578828054395676,0.10944780781565945,-0.011915266557179095,1.443634811793566,9.031859398021298,0.15474114545768322
1731474155.2702136,-0.46314603090286255,0.03619835898280144,-10.011496543884277,0.04038603636182831,0.10521453836809805,-0.011649486001252679,1.4360046740860681,9.069783231486761,0.16264063356669964
1731474155.320184,-0.5183843374252319,0.10595713555812836,-10.015792846679688,0.04423889122107151,0.10048556352850908,-0.01136115087776458,1.43175196517045,9.115717300150125,0.15641597107249516
1731474155.3702235,-0.11161405593156815,0.15249505639076233,-10.028287887573242,0.04812824240529164,0.09528427732294964,-0.011053464974962006,1.4244209296427461,9.14433177810619,0.16426226240857586
1731474155.4200754,-0.11161405593156815,0.15249505639076233,-10.028287887573242,0.05204344356504,0.08964236463122341,-0.010730049338198155,1.420516591214994,9.188963586213625,0.15822664091954033
1731474155.4200754,0.01588253118097782,0.03391246125102043,-10.020575523376465,0.05597040628632046,0.08359840609936392,-0.010394877826663002,1.4204038933099097,9.19027764835372,0.15804899029195024
1731474155.469965,-0.25383296608924866,0.3448643088340759,-9.974748611450195,0.05989060082947319,0.07719660398988534,-0.010052167017495766,1.41675457778409,9.233761695958265,0.1521707783034098
1731474155.5198517,-0.10165785253047943,0.2227284014225006,-9.922452926635742,0.06378168096494027,0.0704852849370461,-0.009706055576829279,1.4131470905040882,9.278729954586456,0.14609217048514553
1731474155.5699394,-0.1839110553264618,0.4192267656326294,-9.99095344543457,0.06761881691746952,0.06351497828454994,-0.009360171636742054,1.4064294401359343,9.2943823335167,0.15410418906277304
1731474155.6198208,-0.19280876219272614,0.3612631559371948,-9.950533866882324,0.07137568707560357,0.056336714010208094,-0.009017427253017397,1.4030191255594489,9.340861175335284,0.14780171845131965
1731474155.6698928,-0.00384950777515769,0.6912849545478821,-9.922014236450195,0.07502501713455191,0.04900056432364639,-0.008680063882920842,1.2848647867043215,9.382867649566894,0.15601285197904788
1731474155.7207956,0.744889497756958,1.6483407020568848,-9.939879417419434,0.07853792056794581,0.041553048786468434,-0.008349623314488267,1.2809235574031692,9.426221462267206,0.16361467168526167
1731474155.770732,0.3141680657863617,1.1341841220855713,-10.00156307220459,0.08188130562882893,0.034032554956092115,-0.008026917795764034,1.2777302766914453,9.470958781726663,0.15763831494190736
1731474155.8206358,-0.22723086178302765,1.8611536026000977,-9.893811225891113,0.08501629144101444,0.026465156132502804,-0.007712213161083036,1.2746791466420697,9.516744965459061,0.15151212913353387
1731474155.8706558,-0.4820658564567566,1.1263463497161865,-9.909140586853027,0.08790126895651496,0.01886337926039548,-0.007405305846499309,1.2719132346231539,9.561514494362356,0.1455107907502748
1731474155.9206085,-0.49431735277175903,1.4234706163406372,-9.892594337463379,0.09049764407591927,0.011227676602496264,-0.007105293395261204,1.2689733793222049,9.604212848917857,0.1536645445908724
1731474155.970523,-0.07631285488605499,0.5004467964172363,-10.070384979248047,0.09277335533354192,0.0035499504840599554,-0.006810542624529917,1.2662485187577692,9.645738918831825,0.16155929018757853
1731474156.0204434,-0.24069371819496155,-0.35270124673843384,-10.206377029418945,0.09470254165145728,-0.004180448986863371,-0.006519451509181803,1.2641329669325387,9.69095230152898,0.15556194267690845
1731474156.0704284,-0.6625279188156128,-0.9579870700836182,-10.202309608459473,0.09626408084800775,-0.011967888015157777,-0.006231863805000621,1.2622494939606934,9.73630528489922,0.14952739336656432
1731474156.1203353,-0.7205891013145447,-0.26662561297416687,-10.021163940429688,0.09744228333530011,-0.019801998779601527,-0.005950033930269161,1.2606200682694697,9.781301434148848,0.1435199221623068
1731474156.170457,-0.539745032787323,-0.3440362215042114,-10.02015209197998,0.09822900186857247,-0.027655153383869795,-0.005678209852562683,1.2588685637271781,9.822628937373425,0.15177603424985506
1731474156.220292,-0.539745032787323,-0.3440362215042114,-10.02015209197998,0.09862413199907036,-0.035485795948241465,-0.005421405100396735,1.2577251122179958,9.867467967746169,0.14579692885449852
1731474156.220292,-0.7099660634994507,-0.18074804544448853,-9.97559928894043,0.09863438374982622,-0.0432426269390431,-0.005184516759631936,1.2577148180462416,9.867920113755538,0.14573650845282432
1731474156.270222,-0.4648881256580353,-0.01231425255537033,-9.95477294921875,0.09827218633690965,-0.05086771388993612,-0.004971930254996613,1.2564586243501261,9.906911008623105,0.1540304415038664
1731474156.320121,-0.6345815658569336,0.11943099647760391,-9.89240837097168,0.09755492052138863,-0.058299700465504985,-0.004787160539425387,1.255794434302147,9.952035971589723,0.14800578862989205
1731474156.370157,-0.4727819561958313,0.4156271815299988,-9.890789985656738,0.09650393033914968,-0.0654773096787589,-0.0046324297238887445,1.2550164209915726,9.989576919064959,0.15627507021863685
1731474156.419992,-0.4727819561958313,0.4156271815299988,-9.890789985656738,0.0951434791450853,-0.07234264732437559,-0.004508363715290955,1.254837425422304,10.033670241436553,0.15037027387745322
1731474156.419992,-0.4746846556663513,0.4383656084537506,-9.960733413696289,0.09349973231637579,-0.07884371756884061,-0.004414021526239913,1.2548368445302498,10.034096685782544,0.15031299392780512
1731474156.4700122,-0.4082532823085785,0.4868992269039154,-9.922954559326172,0.09159985874056482,-0.08493558776360319,-0.004347283585714625,1.254891468306159,10.07796698100783,0.1444006549570092
1731474156.5199811,-0.42095184326171875,0.46034306287765503,-9.94420051574707,0.08947136345928504,-0.09058055431473708,-0.004305299721696227,1.25478899338256,10.11498466479165,0.1527925495098937
1731474156.5699735,-0.3570947051048279,0.568742036819458,-9.979055404663086,0.08714150397736667,-0.09574803018039844,-0.004284775934763472,1.2552883811922464,10.158575983196613,0.14688528078452262
1731474156.6198468,-0.35170891880989075,0.5658196806907654,-10.006991386413574,0.08463674506941662,-0.10041448110291858,-0.00428226132564974,1.2555991052878264,10.193417667042036,0.15522685729767963
1731474156.6698449,-0.35522300004959106,0.5524300336837769,-9.985919952392578,0.0819823212731606,-0.10456337821118761,-0.0042945150378946514,1.2565189678057178,10.236380501405037,0.14936140091596356
1731474156.7197773,-0.3219449818134308,0.549161434173584,-9.999293327331543,0.07920197810171083,-0.10818487879280284,-0.004318736220647438,1.2576359802648773,10.278922138870515,0.14350660608731883
1731474156.7707493,-0.28970977663993835,0.5290778875350952,-9.999696731567383,0.07631781651820929,-0.11127517362353477,-0.004352590593959235,1.258978626860895,10.322165471556671,0.13750527909091614
1731474156.8206139,-0.3143123984336853,0.5126650929450989,-10.002466201782227,0.0733501105116853,-0.11383572958361035,-0.004394187408376002,1.2600465646382129,10.355551497763953,0.14616851870649228
1731474156.870688,-0.2599155902862549,0.5240530371665955,-9.9974946975708,0.07031717852280041,-0.11587256421402503,-0.004442066892753026,1.2612605839472106,10.386501704693774,0.1546125939211802
1731474156.9205627,-0.2969132363796234,0.4891177713871002,-9.995007514953613,0.06723536361577222,-0.11739560568753822,-0.004495156636819248,1.2630806705157491,10.42707590707939,0.1489186060354667
1731474156.9705002,-0.2292598932981491,0.49995648860931396,-10.004132270812988,0.0641190455584261,-0.11841812645661629,-0.004552704911118456,1.2645854072474034,10.455931161446244,0.15733047856506283
1731474157.0204966,-0.2579132318496704,0.4924958348274231,-10.007848739624023,0.060980637269957685,-0.1189562231053728,-0.004614245140296474,1.2667558431286194,10.496536155759443,0.15156660908022018
1731474157.0704823,-0.24598565697669983,0.4703907370567322,-10.037233352661133,0.05783060172846677,-0.11902836461952368,-0.004679630709491416,1.2690878386890756,10.53706041663978,0.14575987313804223
1731474157.1203732,-0.2604096531867981,0.4892358183860779,-9.96359920501709,0.05467758705927622,-0.11865498460960623,-0.004749075145861273,1.2715283820283845,10.57675248130743,0.14001848039428036
1731474157.1703653,-0.2412901222705841,0.49372807145118713,-10.008519172668457,0.051528656075252435,-0.11785813662913049,-0.004823047308863054,1.273518358852697,10.603166218227491,0.14880900275375403
1731474157.2202988,-0.25269076228141785,0.49582356214523315,-9.967084884643555,0.048389485722556864,-0.11666127321129725,-0.004902059530727336,1.2756235410234789,10.624958697253613,0.15730812762054816
1731474157.2702527,-0.29472479224205017,0.49913355708122253,-9.967273712158203,0.04526456431005424,-0.11508908258365848,-0.004986505922559982,1.2784434388340113,10.663625755606677,0.15162025671137094
1731474157.3201697,-0.2970694601535797,0.489962100982666,-10.00029182434082,0.04215751255710504,-0.11316729155342604,-0.005076573369563431,1.2813751386623118,10.70204815958392,0.1459140093151567
1731474157.370167,-0.34497785568237305,0.48454904556274414,-9.985206604003906,0.0390715071664726,-0.1109224192198471,-0.005172263649934352,1.284408510410319,10.740196513994139,0.14019419512999556
1731474157.4200604,-0.34497785568237305,0.48454904556274414,-9.985206604003906,0.03600968774435403,-0.10838150084447123,-0.005273504024142563,1.2868089867904815,10.7617793660195,0.14907844467248793
1731474157.4200604,-0.33604687452316284,0.4833928644657135,-9.957088470458984,0.032975450673954895,-0.10557183067343491,-0.005380166957924422,1.2869318769700928,10.76323588226679,0.14885824514828466
1731474157.4700716,-0.3997398614883423,0.48361581563949585,-10.031452178955078,0.029972595967782133,-0.10252075706651,-0.0054920164822138025,1.2900229582331149,10.7993186717023,0.143377860782378
1731474157.5199513,-0.34380197525024414,0.5006750226020813,-9.992836952209473,0.02700541844710006,-0.09925553219590466,-0.005608790272036246,1.292620815823548,10.82132210495384,0.15202056599250707
1731474157.570007,-0.40116724371910095,0.47793707251548767,-9.987176895141602,0.024078764313204243,-0.09580320575104566,-0.005730358236713051,1.2958632873082478,10.857056188247793,0.14652727668040488
1731474157.6199002,-0.3695700168609619,0.49243950843811035,-9.979872703552246,0.021198004387927707,-0.09219050922109914,-0.005856706447203987,1.2984810759542265,10.877055396949874,0.15519255797079326
1731474157.6698487,-0.41193339228630066,0.5345649719238281,-9.984530448913574,0.018368994088105297,-0.08844375413903656,-0.005987790563368694,1.3018807958983654,10.91280267724133,0.14963188080444298
1731474157.7197323,-0.39578092098236084,0.5249258279800415,-9.9964017868042,0.015598062786537298,-0.08458886303486082,-0.00612346932304704,1.3044859050396074,10.930942567803813,0.15829881091514442
1731474157.7697887,-0.4148857295513153,0.5152393579483032,-10.009360313415527,0.012891996672848856,-0.08065144776913222,-0.006263564384818582,1.3080034711771682,10.966563810562626,0.1526933080441672
1731474157.8206913,-0.38384121656417847,0.5252273082733154,-9.947656631469727,0.010257965855519732,-0.07665673720348284,-0.006407928823869265,1.3107838251743473,10.984918365597206,0.16104093213196713
1731474157.8705866,-0.37471675872802734,0.512197732925415,-9.963825225830078,0.007703338307866318,-0.07262939513188932,-0.006556349066877338,1.3142554972067473,11.019051031297105,0.1556073573637355
1731474157.9205194,-0.39332878589630127,0.548274040222168,-9.980907440185547,0.005235421637401936,-0.06859337950414203,-0.006708351133546371,1.3178808125740666,11.054357431103414,0.14994199925669574
1731474157.970504,-0.3940364420413971,0.5331264734268188,-9.951216697692871,0.0028612923960374464,-0.06457189472340234,-0.006863153312737518,1.3214199306841319,11.088562865472241,0.14441027639404944
1731474158.0204077,-0.3720216453075409,0.5273372530937195,-10.012054443359375,0.0005877470504740517,-0.060587370558291345,-0.007019761104982226,1.3250730249975367,11.123668813587456,0.13868953443723211
1731474158.070431,-0.36154696345329285,0.5203379988670349,-9.981355667114258,-0.0015787900716568075,-0.05666135223778836,-0.007177115133985136,1.3275066427621323,11.136744645734767,0.14791973196153013
1731474158.1203873,-0.33269548416137695,0.5211107134819031,-9.980409622192383,-0.003632482623322634,-0.05281431762349472,-0.0073342365604089,1.331161142222322,11.171503495447485,0.14220023397312478
1731474158.170318,-0.3207956552505493,0.5135068893432617,-9.99845027923584,-0.005568349637106493,-0.049065523431978564,-0.007490263923473326,1.3335164197284277,11.183135523603042,0.15136258372277805
1731474158.2202368,-0.30687013268470764,0.5224953889846802,-9.994780540466309,-0.007382505555198825,-0.045432907677637684,-0.007644444983780776,1.336007173301355,11.19562008650544,0.1599667794454687
1731474158.2701979,-0.3119085729122162,0.5182780623435974,-9.960308074951172,-0.009072309167073208,-0.04193304021028945,-0.007796150280984743,1.3394282827010753,11.227965743633211,0.15458126309254902
1731474158.3202002,-0.3232634663581848,0.5220323204994202,-9.994431495666504,-0.01063637090002087,-0.03858111179693466,-0.007944812411130809,1.3430075262780117,11.261942202035515,0.14888702978586976
1731474158.3702445,-0.28144803643226624,0.5371149778366089,-9.997028350830078,-0.012074461325991404,-0.035390950343567214,-0.008089865303901947,1.3451622518012625,11.270960275671333,0.15786047799919972
1731474158.4200966,-0.28144803643226624,0.5371149778366089,-9.997028350830078,-0.01338747452727093,-0.03237507838736923,-0.00823081700882701,1.3485799871475468,11.303635076944103,0.15233673111240809
1731474158.4200966,-0.31811031699180603,0.5085797905921936,-9.998974800109863,-0.014577448329530694,-0.029544765919744198,-0.008367352217890102,1.3486660909847452,11.30446135215764,0.15219660634681206
1731474158.4701083,-0.2963423728942871,0.5248386859893799,-9.973089218139648,-0.015647448903016933,-0.026909985424706635,-0.008499333682983135,1.3507051894679,11.31213959609713,0.16108325880832977
1731474158.5199509,-0.2880183458328247,0.5108221173286438,-10.006240844726562,-0.01660135806268928,-0.024479316767606493,-0.008626727255199695,1.3540354409635744,11.34440427250145,0.15558331312103332
1731474158.5699735,-0.2980497181415558,0.49068212509155273,-9.973512649536133,-0.01744376313999519,-0.022259886510863018,-0.00874954471784641,1.3573502685806218,11.376874098182519,0.15001666055127905
1731474158.6198955,-0.2980497181415558,0.49068212509155273,-9.973512649536133,-0.018179901524335077,-0.020257295083625722,-0.008867807402843248,1.3606196063037794,11.40928351146545,0.14442905784208332
1731474158.6198955,-0.31672346591949463,0.5230117440223694,-9.992152214050293,-0.018815528692769236,-0.018475566970793337,-0.008981481642214763,1.3606507340022254,11.409594032043527,0.1443753716191129
1731474158.6698563,-0.3087119460105896,0.5085582733154297,-10.039146423339844,-0.0193567309224839,-0.01691725556420205,-0.009090509924450998,1.362395874307965,11.414984101190495,0.15352254624112302
1731474158.719787,-0.37044280767440796,0.5171928405761719,-9.983965873718262,-0.01980971229489702,-0.015583639056926078,-0.009195006740021067,1.3655542626847006,11.446985153591783,0.14796271025615387
1731474158.769825,-0.35450124740600586,0.50801682472229,-9.950888633728027,-0.020180515072831286,-0.014474847223707961,-0.009295324580778254,1.3672181723117507,11.451528957242395,0.1569217065662749
1731474158.8206687,-0.3457523584365845,0.5308553576469421,-10.02107048034668,-0.020474757884850498,-0.013589929758986855,-0.009391846962708046,1.3703149856284402,11.483695031835163,0.15128870611320966
1731474158.8708599,-0.3598632216453552,0.5240755081176758,-9.973990440368652,-0.02069756218553217,-0.01292695808047245,-0.00948485542077993,1.373331183868774,11.515533931337176,0.14568308700370752
1731474158.9206185,-0.3598632216453552,0.5240755081176758,-9.973990440368652,-0.020853602159065093,-0.01248315048528092,-0.009574582934897486,1.3762530939242537,11.546889547174109,0.14013339368995212
1731474158.9206185,-0.37419551610946655,0.5006221532821655,-9.971975326538086,-0.020947109263996986,-0.012254929854176751,-0.00966118597555658,1.3762725935841027,11.547100564299164,0.1400959470671394
1731474158.970634,-0.3892771303653717,0.5268489718437195,-10.022506713867188,-0.020981815160496253,-0.012237900469081494,-0.009744686783753833,1.3775737988582164,11.548853065905567,0.14938319286632395
1731474159.0204418,-0.3892771303653717,0.5268489718437195,-10.022506713867188,-0.02096087178138879,-0.012426864104281427,-0.009825122481482021,1.3803896516342355,11.57994471972399,0.14383413670272807
1731474159.0204418,-0.42074161767959595,0.5047159194946289,-9.953629493713379,-0.02088677256462738,-0.012815918967459176,-0.009902746282339834,1.380414435806883,11.580220802274615,0.1437847297731067
1731474159.0705018,-0.4061630666255951,0.5313308238983154,-9.978107452392578,-0.020761286934481628,-0.013398533102069279,-0.009977946466508009,1.3815931729561735,11.580565699539097,0.1529648397264882
1731474159.1203768,-0.4061630666255951,0.5313308238983154,-9.978107452392578,-0.020585449480361687,-0.014167597692663576,-0.010050983610263629,1.382737185755734,11.580336869828718,0.16179784763973723
1731474159.1203768,-0.40526318550109863,0.5140536427497864,-10.022367477416992,-0.02035965690761512,-0.015115529273566254,-0.010121931160948904,1.3827644001673325,11.58064722903911,0.16174187133442075
1731474159.170345,-0.3965300917625427,0.502784788608551,-9.966509819030762,-0.020083827417878276,-0.01623431920724561,-0.01019083805229219,1.3854006725096528,11.610975431114564,0.1562556434972784
1731474159.2203305,-0.38581791520118713,0.508468508720398,-9.955740928649902,-0.019757566280864468,-0.01751547487552385,-0.010257782193076225,1.3880099670798687,11.641520365078204,0.15069724282517874
1731474159.2702694,-0.3934820294380188,0.535594642162323,-9.982986450195312,-0.019380334048840035,-0.018950004845064615,-0.01032270903730939,1.390572912455163,11.67204921811223,0.145107787795428
1731474159.3201983,-0.35386738181114197,0.5342658758163452,-9.970437049865723,-0.018951608164938898,-0.020528564328057847,-0.01038532015575511,1.3913935371169939,11.668882691124214,0.15423495227913506
1731474159.3701587,-0.3599652647972107,0.5136325359344482,-9.988588333129883,-0.018471064867870795,-0.022241648590302632,-0.01044514343709332,1.3938514306844165,11.698991521361606,0.14865754381179624
1731474159.4200087,-0.32312655448913574,0.5253065824508667,-10.006949424743652,-0.0179387969703926,-0.024079661164316625,-0.010501668207518166,1.394585853024471,11.6945498401615,0.1576287901883592
1731474159.4701254,-0.32851725816726685,0.5242536067962646,-9.958294868469238,-0.017355517634927563,-0.026032894253610113,-0.01055445788137056,1.3969354842374961,11.724110009159332,0.15208182103124515
1731474159.5200732,-0.2989529073238373,0.5134327411651611,-9.978981018066406,-0.016722715374437466,-0.02809154216556982,-0.010603142124538154,1.399258493404824,11.753802992785234,0.14647082447120963
1731474159.5699933,-0.2976040542125702,0.528435468673706,-10.035711288452148,-0.01604276187555665,-0.030245736354680846,-0.010647358330071143,1.4015284165748316,11.78326552094131,0.14086326183404602
1731474159.6201284,-0.2584826648235321,0.5214108228683472,-9.999695777893066,-0.015318999852348258,-0.032485583950974894,-0.010686881496694887,1.4019735030321565,9.084562170491147,0.1501168619249566
1731474159.6698892,-0.29298895597457886,0.5123870372772217,-9.98195743560791,-0.014555809669370888,-0.034801216999097814,-0.010721799370639704,1.404153621312898,9.090894406494892,0.14452757112190087
1731474159.7198591,-0.2805013358592987,0.5189118385314941,-9.997715950012207,-0.013758562537096867,-0.0371828106745828,-0.010752444924849135,1.4063185596486716,9.09719536174591,0.13885947213167196
1731474159.7697053,-0.25231388211250305,0.526025652885437,-9.983038902282715,-0.01293346261049232,-0.03962059267047474,-0.010779226588275632,1.406574570354616,7.474811674494011,0.14826673158694972
1731474159.8196115,-0.2625800669193268,0.5331252813339233,-9.989421844482422,-0.012087444215219848,-0.0421049143668895,-0.010802555561234082,1.4086957017584016,7.467260758774719,0.14252291915005869
1731474159.870672,-0.25197145342826843,0.5226522088050842,-10.016423225402832,-0.01122813996724405,-0.04462635610081068,-0.010822850860426707,1.4107538804821245,7.459719463607089,0.1368424463331624
1731474159.9206076,-0.2829984724521637,0.5082409381866455,-9.991646766662598,-0.010363769948355762,-0.04717576799329207,-0.010840605129539523,1.4127823312982863,7.452073260922768,0.13114236031816087
1731474159.9705005,-0.28480449318885803,0.5353925824165344,-9.947487831115723,-0.00950290087446483,-0.04974423519077159,-0.01085639533230861,1.4128342715177271,6.357893659615296,0.14080210258045034
1731474160.0204332,-0.2747306227684021,0.5366898775100708,-10.02096939086914,-0.008654164194581352,-0.052323092191488625,-0.010870740427252033,1.4130949254007985,5.5981928339784455,0.14959377300819
1731474160.0705328,-0.2890772521495819,0.5572153329849243,-9.990310668945312,-0.007826058289170598,-0.05490405535904862,-0.010884038192732303,1.4148598325618549,5.577467579951149,0.1444445651798428
1731474160.120394,-0.30816128849983215,0.5108066201210022,-9.969518661499023,-0.007026816615842278,-0.05747935095938926,-0.010896665472383701,1.4167793349534927,5.554585844459244,0.13876692360911919
1731474160.1703773,-0.3075338900089264,0.5318730473518372,-9.989680290222168,-0.006264231806196813,-0.060041690386520186,-0.010908979506423421,1.418686696618266,5.53150381085171,0.13304877879097574
1731474160.220353,-0.3376113772392273,0.514896035194397,-9.994827270507812,-0.005545447301062596,-0.062584141050998,-0.010921237404547665,1.4185881156046871,4.951619470205436,0.14261559387693942
1731474160.2703774,-0.34983736276626587,0.5286862254142761,-9.962014198303223,-0.00487675660426669,-0.0651000482211318,-0.010933603480947088,1.42046967334263,4.9236164321069475,0.1368673056108845
1731474160.3201654,-0.3544542193412781,0.5517596006393433,-9.99022388458252,-0.0042634109109763695,-0.06758306578290667,-0.010946150016206682,1.4203304271400194,4.893157306724559,0.14639494557654828
1731474160.370143,-0.3516252934932709,0.5374683141708374,-9.990341186523438,-0.0037095022884762294,-0.07002727232615963,-0.010958831242454906,1.4202353101314253,4.862619144137402,0.15549938627887838
1731474160.4202018,-0.35329899191856384,0.519231379032135,-9.9598970413208,-0.0032179756743410184,-0.0724272571166487,-0.010971513355652473,1.422059303277011,4.834215037232649,0.14981467999288667
1731474160.4702244,-0.3345542550086975,0.5284436941146851,-9.966591835021973,-0.002790736050050468,-0.07477806070377813,-0.010983958423656001,1.4238721375951262,4.805683106198912,0.14411379229719096
1731474160.5200076,-0.3611922562122345,0.5078816413879395,-10.020652770996094,-0.002428791896116911,-0.07707504733034391,-0.010995777281387006,1.4256755727093637,4.777006989480781,0.1383945329653289
1731474160.570008,-0.3498118817806244,0.5143244862556458,-10.008946418762207,-0.002132357909693343,-0.07931381369612746,-0.011006567907084817,1.4254322215276662,4.7458449774428635,0.14779688265917515
1731474160.6198819,-0.33152875304222107,0.5191381573677063,-9.96742057800293,-0.0019009182505951329,-0.08149014230891993,-0.011016131454376805,1.4272154493751816,4.716754227738134,0.1420812600385512
1731474160.6699362,-0.3189314603805542,0.520063042640686,-9.994635581970215,-0.001733368335096408,-0.08360001689088126,-0.011024456883369825,1.426981235005229,4.686503257988251,0.1513374899409379
1731474160.7198498,-0.31146132946014404,0.49782794713974,-9.991044998168945,-0.0016282500559302888,-0.085639663042956,-0.011031570476736953,1.4287550537525537,4.656849786703555,0.14559682473140914
1731474160.7696915,-0.27925825119018555,0.5191643238067627,-9.976333618164062,-0.0015839877325771572,-0.0876055363843796,-0.011037491305090658,1.4284681997521496,4.627283080912696,0.15480217610973399
1731474160.8196826,-0.26903486251831055,0.5131709575653076,-9.989280700683594,-0.0015991170667794862,-0.08949430457027809,-0.011042232601629749,1.4302176332968228,4.597316131703996,0.14908692652896252
1731474160.8696597,-0.26903486251831055,0.5131709575653076,-9.989280700683594,-0.0016724996915953676,-0.09130288783608045,-0.011045781876706759,1.429931958418898,4.567448479261258,0.1580912909773817
1731474160.8696597,-0.2614664137363434,0.5186227560043335,-10.001703262329102,-0.0018034369497435792,-0.09302850817673713,-0.011048130469391616,1.429941957493854,4.567273723810573,0.1580584199535174
1731474160.9207711,-0.2614664137363434,0.5186227560043335,-10.001703262329102,-0.0019916692015630485,-0.0946687181615569,-0.01104935169844126,1.4317110647766413,4.536184521124485,0.1522195097332631
1731474160.9207711,-0.2740640342235565,0.5009732246398926,-9.956851959228516,-0.0022373150298293926,-0.09622141495316389,-0.011049626500944858,1.4317223078491605,4.535985855915898,0.1521822545074937
1731474160.9705622,-0.274027019739151,0.5083372592926025,-10.000702857971191,-0.0025407574592422547,-0.09768480513828885,-0.01104914833933304,1.4313948384875124,4.507418519161815,0.16114723318739096
1731474161.02048,-0.2422710508108139,0.5382094979286194,-10.02502155303955,-0.0029025287386373255,-0.09905737373893708,-0.011048068222897972,1.4311415280715594,4.479380447926085,0.1696850905523862
1731474161.070523,-0.2966766655445099,0.5066756010055542,-9.966814994812012,-0.0033232622308979054,-0.1003379489646877,-0.011046609977263182,1.432819956626841,4.448537806410745,0.16404707741718108
1731474161.1204453,-0.24885393679141998,0.5543649792671204,-9.974495887756348,-0.003803636419415937,-0.10152580087094844,-0.01104510285220868,1.4345053773947136,4.4171504613773545,0.15832801065247862
1731474161.1704516,-0.2737577557563782,0.5325854420661926,-10.017370223999023,-0.004344288511337016,-0.10262071611335238,-0.011043840750729082,1.436171173349446,4.385685304575109,0.1526135855908833
1731474161.2202854,-0.2737577557563782,0.5325854420661926,-10.017370223999023,-0.004945771331783944,-0.10362305309406764,-0.011043092045362494,1.4357402464876172,4.356771062094633,0.1614688465102559
1731474161.2202854,-0.2906055152416229,0.5151991844177246,-9.989680290222168,-0.0056084888637309765,-0.10453370064497028,-0.011043281459695858,1.4357569421504592,4.35644671455738,0.16141076256525191
1731474161.2703397,-0.3137006163597107,0.5183002948760986,-9.986680030822754,-0.006332540806826566,-0.10535393217969147,-0.01104501946431245,1.4373736013123874,4.324758045133764,0.1557456304571613
1731474161.3202085,-0.3137006163597107,0.5183002948760986,-9.986680030822754,-0.007117525061074382,-0.1060852707983121,-0.011048944276634269,1.436909501199516,4.297079648529705,0.1644890065918289
1731474161.3202085,-0.3133438229560852,0.5345419645309448,-10.003192901611328,-0.007962387040007539,-0.10672944315798616,-0.011055607729831305,1.436923570349357,4.296794690880993,0.16443874376588655
1731474161.370244,-0.3098906874656677,0.528404951095581,-10.000290870666504,-0.008865390453316904,-0.1072884176618337,-0.011065501043794857,1.4364421978663346,4.270329053824724,0.17294162573096516
1731474161.4202275,-0.33454248309135437,0.49304723739624023,-9.936529159545898,-0.009824166151192183,-0.10776442214565914,-0.011079074623646332,1.4380081577389707,4.237367991528112,0.16720266260609706
1731474161.470167,-0.3619610667228699,0.5299280881881714,-10.047443389892578,-0.01083569706155161,-0.10815985046324225,-0.011096650634955248,1.4395240679796248,4.204654940636256,0.161525970525295
1731474161.5199888,-0.36124423146247864,0.5293492674827576,-9.995766639709473,-0.011896189543919244,-0.10847718356967045,-0.011118448790297487,1.4410239517542296,4.17140847640018,0.1557758326249209
1731474161.570011,-0.3769206404685974,0.5511707663536072,-9.91990852355957,-0.013000948403869655,-0.10871907098084886,-0.011144708708323892,1.4403410111564157,4.144263200216442,0.16450449057037944
1731474161.6198852,-0.3783719837665558,0.543317973613739,-9.976374626159668,-0.014144354221247326,-0.1088884826590565,-0.011175521861455463,1.4417658318122195,4.110529143901524,0.15875494994731656
1731474161.6698837,-0.24439649283885956,0.7247949242591858,-9.980547904968262,-0.015320041107400921,-0.10898894781596295,-0.011210561475441964,1.4431506002582641,4.07660437088361,0.15299125399089017
1731474161.7198694,0.5133981704711914,1.6614665985107422,-9.919093132019043,-0.01652215010651495,-0.10902599554714149,-0.011249091991581544,1.4423130136445617,4.050439396286193,0.16179336543982498
1731474161.769799,0.2999531030654907,1.1952157020568848,-10.016883850097656,-0.01774852545993792,-0.10901073847452852,-0.011290061583812464,1.4436058883042617,4.016025817258822,0.15602712892384857
1731474161.8197489,0.4892212450504303,1.505788803100586,-9.938413619995117,-0.019004116499334523,-0.1089632211041951,-0.011332176190364062,1.4448556854534715,3.981265202026886,0.15022010037157696
1731474161.8706505,-0.516516387462616,-0.022402653470635414,-9.965340614318848,-0.020301276242916538,-0.10891160245565962,-0.011374002868234066,1.4438461620655356,3.9550346779986576,0.15900074046268803
1731474161.9206002,-0.9550522565841675,-0.21024510264396667,-10.16689682006836,-0.021655372883568502,-0.10888576782587893,-0.011414158859412578,1.4427935658153657,3.931591263647061,0.16758019879710076
1731474161.9705899,-0.7593311667442322,-0.04050649330019951,-10.03207015991211,-0.02307776039498804,-0.10890862641652473,-0.011451875413690969,1.4438610718669234,3.8963020855417763,0.161817094567603
1731474162.0203743,-0.5015047788619995,0.2697582244873047,-10.028075218200684,-0.024571314866807952,-0.10899152410480706,-0.011487539702186824,1.4426728548516157,3.870883419628307,0.170330441300736
1731474162.0706327,-0.6376875638961792,0.10086476802825928,-9.939265251159668,-0.026131000207891695,-0.10913565098808427,-0.011522443330850042,1.4436190286805455,3.8346953515949664,0.16449559085347648
1731474162.1203902,-0.4812456965446472,0.29825708270072937,-9.977543830871582,-0.02774641694473817,-0.10933521141856398,-0.011558019854582203,1.4444881232781919,3.7985946193130666,0.15869006855483722
1731474162.1703827,-0.5795964598655701,0.24074093997478485,-9.958183288574219,-0.02940352710979207,-0.109579531897322,-0.011595310894252163,1.4452804876793823,3.762476901798602,0.1528967092793979
1731474162.2203078,-0.5795964598655701,0.24074093997478485,-9.958183288574219,-0.031085559564840493,-0.1098544288643129,-0.01163482532725159,1.3502149318555923,3.7366830334967642,0.16163043608724356
1731474162.2203078,-0.508014976978302,0.46040502190589905,-9.957934379577637,-0.032773562685241744,-0.11014333554379743,-0.011676565111089573,1.3502176030662518,3.73625197477978,0.1615620634250855
1731474162.2702415,-0.508804440498352,0.4490143060684204,-9.982624053955078,-0.0344469804125179,-0.11042860141446072,-0.011720086232341276,1.3503992031784613,3.7000141535436706,0.15582126874236832
1731474162.320172,-0.48865872621536255,0.4541880786418915,-9.978496551513672,-0.03608444187576103,-0.11069296473313286,-0.011764636256465743,1.350496342632903,3.6629314540408675,0.14996091981543308
1731474162.370213,-0.5410983562469482,0.4174778163433075,-9.919493675231934,-0.03766441980204506,-0.11092042514642453,-0.011809273282985385,1.3249038868373957,3.637254665804031,0.15879254295565723
1731474162.4201007,-0.47556886076927185,0.47924375534057617,-9.938119888305664,-0.03916556669897048,-0.1110963729253665,-0.011852776315378582,1.3246935600476224,3.5996352141833996,0.15291885848772158
1731474162.47022,-0.47460830211639404,0.529241681098938,-10.030539512634277,-0.04056699640271112,-0.11120766050213704,-0.011893541627698725,1.3243842717303882,3.5618355150284757,0.1470307131397659
1731474162.5199964,-0.4850676357746124,0.5224998593330383,-9.974165916442871,-0.04184868259282271,-0.1112429559890944,-0.011929827346100493,1.3124591308507907,3.5362515634809437,0.1559584067107
1731474162.5699408,-0.48955443501472473,0.4771479666233063,-9.996931076049805,-0.04299177492051589,-0.11119304306789607,-0.011960127601034551,1.3118922035314644,3.4980512755567705,0.15007726775819372
1731474162.6199024,-0.4665283262729645,0.4885329604148865,-9.979948997497559,-0.04397872453896176,-0.11105070891683745,-0.01198326965154373,1.3050321884163967,3.4723050203604346,0.15885939541753713
1731474162.669962,-0.46965348720550537,0.5105751752853394,-9.998185157775879,-0.044793395836939684,-0.11081042118684375,-0.011998340017812834,1.3002852870058972,3.4466248304015195,0.16735178487777944
1731474162.7198188,-0.4509274959564209,0.5246589779853821,-10.004263877868652,-0.04542124116411593,-0.1104681854163567,-0.012004671410521996,1.2993489952245503,3.407664000392177,0.16147436585931818
1731474162.7698064,-0.4414564073085785,0.5083518624305725,-9.974061965942383,-0.04584947448354167,-0.11002157993949646,-0.012001870991049688,1.2983013214129346,3.368530333300107,0.15558241748072316
1731474162.8197534,-0.41812509298324585,0.5166147947311401,-9.975350379943848,-0.046067235403099545,-0.10946972856637656,-0.011989764605756471,1.2949141234549388,3.342963690159746,0.16414850756543647
1731474162.8696876,-0.38708367943763733,0.5227304100990295,-9.974908828735352,-0.046065776245736295,-0.10881316418639567,-0.011968251031959061,1.2936373845515763,3.3034310596225,0.15825910674536894
1731474162.9196005,-0.36882284283638,0.5231413841247559,-9.979649543762207,-0.04583868072711908,-0.10805370036484713,-0.01193720449355367,1.2907468186068607,3.277805589665008,0.16672111416900906
1731474162.970591,-0.3273898661136627,0.5379171371459961,-10.020581245422363,-0.04538208616509422,-0.10719434909464834,-0.011896514840994363,1.2892071254591888,3.2369418637083403,0.16069542003719606
1731474163.0204976,-0.3707225024700165,0.505232036113739,-9.976547241210938,-0.04469482498943524,-0.10623922873143331,-0.01184622540081901,1.287584319844465,3.196619987962715,0.15475938162889716
1731474163.070438,-0.3476724922657013,0.5362069010734558,-9.949875831604004,-0.043778357033439456,-0.10519341305631752,-0.011786570610372813,1.2858567702695263,3.156165651377518,0.14881315899546674
1731474163.1203568,-0.3835640251636505,0.5246970653533936,-9.991329193115234,-0.0426364830945852,-0.1040627712111269,-0.011717805923062449,1.2837696931527771,3.1310192994084893,0.15757165971473866
1731474163.1703653,-0.3614824414253235,0.5287243723869324,-9.99287223815918,-0.0412749887913367,-0.10285386681319422,-0.011640092933562272,1.28183798418594,3.0900393374483874,0.15160595772278024
1731474163.2202575,-0.377625972032547,0.5039097666740417,-9.963214874267578,-0.039701336730040164,-0.10157384826074589,-0.011553584919336684,1.279882911839438,3.064804933348159,0.16024908196789514
1731474163.2702463,-0.3766827881336212,0.5053097605705261,-10.006082534790039,-0.03792442195447047,-0.1002302535750924,-0.011458497879044176,1.277766455362002,3.0234301209342407,0.15428161482178512
1731474163.3201778,-0.37935033440589905,0.516689121723175,-9.970401763916016,-0.03595435227528043,-0.09883080195158472,-0.011355109700083642,1.27591069147287,2.9980473875334943,0.16279664052835066
1731474163.3702471,-0.40080633759498596,0.4964871406555176,-10.002296447753906,-0.03380222099805065,-0.09738327009542216,-0.011243780060441981,1.2736304415072635,2.956330950122802,0.1568334909405307
1731474163.4201424,-0.38300633430480957,0.5083088278770447,-10.015450477600098,-0.03147987360515141,-0.09589542011183678,-0.011125001422482721,1.2712684591618841,2.9143692141426527,0.15084184448945173
1731474163.470025,-0.443865567445755,0.4779611825942993,-10.014248847961426,-0.028999667681788917,-0.09437490091503317,-0.010999507419263742,1.2699401135631576,2.8899472575716714,0.15948641200162775
1731474163.5200374,-0.3783123791217804,0.5307408571243286,-9.943964958190918,-0.026374229787561862,-0.09282915318563814,-0.010868319164489843,1.2674552401170003,2.847567313059475,0.15348571797977406
1731474163.569949,-0.4149475693702698,0.529784619808197,-9.995633125305176,-0.02361630326938259,-0.09126543712925654,-0.010732557814390744,1.2660905222812724,2.8232027403219524,0.16201922642176553
1731474163.6199312,-0.4006003737449646,0.5575022101402283,-9.984058380126953,-0.020738724777134333,-0.08969101223441887,-0.010593224331619888,1.2646091320733197,2.7987689443146904,0.17022466913498935
1731474163.6698508,-0.4396592080593109,0.5405032634735107,-9.956144332885742,-0.01775436543552185,-0.088113319790966,-0.010451167813424844,1.262014622634724,2.7561385892839207,0.16427843051378122
1731474163.719805,-0.4295702874660492,0.5543187260627747,-9.9859037399292,-0.014675947916598622,-0.0865400343884414,-0.010307088381190132,1.2593692005644075,2.713120226807662,0.1582825838288427
1731474163.7697442,-0.42668965458869934,0.5741111636161804,-9.961564064025879,-0.01151586061099304,-0.08497903006835955,-0.01016149392537862,1.2567062310961261,2.670133241081534,0.152295387964899
1731474163.8196783,-0.4360142648220062,0.5671287775039673,-9.956544876098633,-0.008286079893100986,-0.08343837300939821,-0.010014683756467989,1.255918101630738,2.6466994161199064,0.16081867260594065
1731474163.8696399,-0.4315682351589203,0.557338535785675,-9.982433319091797,-0.004998161471885643,-0.08192631203108436,-0.009866735263141406,1.2532419177130532,2.6033372801750496,0.15482357228363164
1731474163.9195507,-0.42473089694976807,0.5397765636444092,-10.009066581726074,-0.001663236345078398,-0.08045115084935274,-0.00971756854912735,1.250556398167915,2.5597559287792953,0.14880173968718405
1731474163.9695463,-0.42673540115356445,0.5290296673774719,-9.97465991973877,0.0017079687531656694,-0.07902100583629282,-0.009567138536867689,1.2500654130478883,2.536944773157819,0.15743810051854037
1731474164.0205133,-0.41879597306251526,0.5388911366462708,-9.974834442138672,0.005105086258432031,-0.07764356432176893,-0.009415541751617686,1.247362108822794,2.4920885505650614,0.15128408944624047
1731474164.070491,-0.38974595069885254,0.5596628785133362,-10.005626678466797,0.008518042821770797,-0.07632596961614858,-0.009262958354379802,1.244743639250644,2.4481624045484076,0.14526075862650634
1731474164.1204576,-0.38453778624534607,0.5208667516708374,-9.979079246520996,0.011936927843730894,-0.075074839317256,-0.00910962808682624,1.2446359596553602,3.886932717811719,0.1539985296119062
1731474164.1704335,-0.3518224358558655,0.524154782295227,-9.996140480041504,0.01535180501155654,-0.07389624514100986,-0.008955896610310056,1.2442186595946276,4.589173582222877,0.1624534479339638
1731474164.2203336,-0.34355854988098145,0.5191760063171387,-10.006608963012695,0.018752525378113415,-0.07279557826756755,-0.008802236145481758,1.241763360440659,4.561002964546154,0.15645504785570366
1731474164.270315,-0.3270731568336487,0.5440074801445007,-9.949302673339844,0.022128576372262107,-0.07177745873676833,-0.008649233110192379,1.2414841031255288,4.9874273210887115,0.16480990718838856
1731474164.3202639,-0.3096349239349365,0.5479848384857178,-10.00139331817627,0.025468988548480728,-0.07084580560040496,-0.008497500272633652,1.2391715484541885,4.962224265719067,0.15882553412695488
1731474164.3701947,-0.3083556592464447,0.5252760648727417,-10.021833419799805,0.028762298847792935,-0.07000397130677634,-0.008347616361546477,1.2369389301609397,4.936983286547942,0.1528527775119089
1731474164.4201214,-0.32990550994873047,0.5256478190422058,-9.975671768188477,0.03199659864615169,-0.06925477147629278,-0.008200241527396724,1.2347737592540662,4.911475516615223,0.14683732733932883
1731474164.4701505,-0.3092363774776459,0.5399481058120728,-9.969268798828125,0.03515970814049653,-0.0686004171444752,-0.008056171914631552,1.2352637490133875,5.214217483629786,0.15549664636428098
1731474164.520042,-0.2887982428073883,0.5596032738685608,-9.972800254821777,0.038239364506242206,-0.06804252659770955,-0.00791616112066073,1.2333155363562753,5.190865477596704,0.14950875300883287
1731474164.5699935,-0.3595009446144104,0.7189980745315552,-9.982955932617188,0.041223342604518765,-0.0675824191373954,-0.007780756902804339,1.2337709743312122,5.394062025084654,0.15810132823067669
1731474164.6199439,-0.6427477598190308,1.415651559829712,-9.925313949584961,0.044099954005525,-0.06722245040714275,-0.007650264223909968,1.2320537539110916,5.371927503030582,0.1521150903669296
1731474164.6699345,-0.6165494918823242,0.5551245808601379,-9.866538047790527,0.046859412356750986,-0.06696844696268606,-0.007524579048949766,1.2304517089810638,5.349644839599341,0.14611517508344196
1731474164.719879,-1.4786083698272705,0.4926488995552063,-10.089213371276855,0.049496135818053434,-0.06683024906942375,-0.007402968312240006,1.2313727026434864,5.510671607145886,0.1548029585015327
1731474164.7698503,-0.5003513693809509,0.51936936378479,-9.853687286376953,0.05201137123111858,-0.06681872528966959,-0.007284247218585194,1.2300543226909653,5.489533864989599,0.14883874442502
1731474164.8198128,0.04512631148099899,0.05102386325597763,-10.057523727416992,0.05441298125535339,-0.0669422828394263,-0.007167136123849761,1.2310020505147792,5.606388178311894,0.15745197836576166
1731474164.869673,0.020476045086979866,0.24266284704208374,-10.213884353637695,0.05671024148151195,-0.06720469309113808,-0.007050642005966595,1.2299813197917187,5.585944515071756,0.15151095974766365
1731474164.9197352,0.020476045086979866,0.24266284704208374,-10.213884353637695,0.05890794846920045,-0.06760386694795997,-0.006935042840401293,1.230969181162923,5.674913448237628,0.16003315281345962
1731474164.9197352,-0.06659018248319626,0.2546806335449219,-9.995284080505371,0.061004438098199276,-0.0681320669177984,-0.006822860360155674,1.2309651656117513,5.674811309038853,0.16000281907186828
1731474164.9696233,-0.22866807878017426,0.2495405673980713,-9.991610527038574,0.06299267011542974,-0.06877708006228789,-0.006718445434004298,1.2302648358104904,5.654933616188602,0.1541163884461249
1731474165.0195842,-0.17199070751667023,0.28089892864227295,-9.977840423583984,0.06486218539048606,-0.06952321321673707,-0.006626581694084948,1.2297165213389532,5.634662598315737,0.14814798610381832
1731474165.0705101,-0.17834487557411194,0.4154818058013916,-9.964560508728027,0.06660078162814428,-0.070352189843866,-0.006551489095286777,1.2311657768020707,5.710384665408917,0.15670563118042977
1731474165.1204085,-0.16542883217334747,0.4964807629585266,-9.969206809997559,0.06819534319537096,-0.07124442060997126,-0.006496521979854591,1.2309760772575922,5.6906211295362255,0.1507845627147935
1731474165.1703877,-0.23587629199028015,0.5165247917175293,-9.943984985351562,0.06963219272365907,-0.07218053287226016,-0.0064641181791963076,1.2324032926295339,5.746507912677358,0.15937838009852426
1731474165.220306,-0.22092512249946594,0.4952094256877899,-9.973434448242188,0.07089755549751488,-0.07314253525534499,-0.006455796303222393,1.2325738433875804,5.726870741105857,0.15346022971181808
1731474165.2703137,-0.2323492467403412,0.5198451280593872,-9.967941284179688,0.07197811875779689,-0.07411426343149366,-0.006472232300683339,1.2329219041023156,5.707139174308931,0.14755287728365982
1731474165.3203123,-0.25136658549308777,0.5174309611320496,-9.953958511352539,0.07286143464575794,-0.07508139617543735,-0.006513404179300136,1.233452248432053,5.68715866202634,0.14161062552867695
1731474165.37022,-0.22930991649627686,0.5732638835906982,-9.989588737487793,0.07353616228165372,-0.07603145447184856,-0.006578718276185489,1.2341642625767224,5.667032852373195,0.13566493534901447
1731474165.4201612,-0.27895158529281616,0.5520592331886292,-10.02342414855957,0.07399224516357496,-0.07695390821215839,-0.006667177807049981,1.2360933900032194,5.723190601967191,0.144816357007732
1731474165.4701998,-0.257144570350647,0.5125899314880371,-9.987648010253906,0.07422107817147727,-0.07784021442280445,-0.00677766758674504,1.2378655483749867,5.75993966804626,0.15361526649656823
1731474165.520094,-0.27159884572029114,0.5109673142433167,-10.002777099609375,0.07421566147858401,-0.0786835691896791,-0.006909153961374903,1.239137526655761,5.740296618189431,0.14772637151480866
1731474165.5700138,-0.2805241048336029,0.5076335072517395,-10.030702590942383,0.07397068008254955,-0.07947849212234746,-0.007060711077788747,1.2405839785262134,5.72059782621475,0.14186219270757902
1731474165.6199641,-0.29612553119659424,0.549163281917572,-9.971040725708008,0.07348254664111858,-0.08022056491200807,-0.007231532045031751,1.242225249515273,5.700552732843138,0.13593641907580453
1731474165.6699429,-0.11691132932901382,0.7504041194915771,-9.982314109802246,0.07274930772085804,-0.08090661505313482,-0.007420875495976575,1.244043327555804,5.680373530067779,0.130012107648689
1731474165.7198658,0.6160908341407776,1.6543776988983154,-9.985828399658203,0.07176940005569898,-0.08153633438141253,-0.007627887130015913,1.2459341592938924,5.719436367603132,0.1393736220346251
1731474165.7698388,0.2742922902107239,1.1484307050704956,-9.935419082641602,0.07053853908823396,-0.08211589820818901,-0.00785145268051243,1.24809360293882,5.699419998927561,0.13347582918866058
1731474165.8198068,0.2742922902107239,1.1484307050704956,-9.935419082641602,0.069046993936372,-0.0826607449008606,-0.008090062621852584,1.2498240282304447,5.725101833421504,0.14271293179658617
1731474165.8198068,0.5598775744438171,1.5156831741333008,-9.900559425354004,0.06727949439203881,-0.0831950302525041,-0.00834159782390776,1.249843682231995,5.724938036290591,0.14266481205604606
