Timestamp,IMU_Linear_Acc_X,IMU_Linear_Acc_Y,IMU_Linear_Acc_Z,Filtered_X,Filtered_Y,Filtered_Z,Pose_X,Pose_Y,Pose_Z
1730865946.8840554,-1.6525182723999023,1.072100281715393,-9.886634826660156,-4.7251719039025905e-09,-3.139443264491465e-07,-4.0718137432849964e-08,0.8695718941877395,3.820500851678344,0.895721168402437
1730865947.2339377,-1.6475468873977661,1.4503509998321533,-9.745635986328125,-3.728407403962627e-08,-3.1138103280733445e-06,-2.3309285400038403e-07,0.8194860828111501,-12.720574990868274,0.8749738363441898
1730865947.2838902,-1.7597566843032837,1.3032793998718262,-9.741059303283691,-2.4739062017812586e-07,-1.5231314286171853e-05,-4.796659523377378e-07,0.8305810057141422,-10.677291178191716,0.87523140568232
1730865947.3337905,-1.6816997528076172,1.2365984916687012,-9.753911018371582,-1.2155105122336022e-06,-5.007014142398683e-05,9.485143909216614e-08,0.8043901446830227,-4.078543575600857,0.8795513300479973
1730865947.3838024,-1.757475733757019,1.2633165121078491,-9.788309097290039,-4.259451094921343e-06,-0.0001270991463688096,3.4282760360315454e-06,0.7779001221356203,-6.236051961008764,0.8756406466484717
1730865947.4338114,-1.9410609006881714,1.2342725992202759,-9.715015411376953,-1.172074617612011e-05,-0.00027019363340974377,1.2350950520656688e-05,0.7515817516020831,-8.37958137323492,0.8829062612143904
1730865947.4836771,-1.7980672121047974,1.2204742431640625,-9.816902160644531,-2.7538631305116462e-05,-0.000506293224467342,3.035720357621511e-05,0.7252592217261302,-10.523447302520884,0.8816103596596343
1730865947.5337312,-1.6201061010360718,1.2407430410385132,-9.861479759216309,-5.747327272029734e-05,-0.0008644014482987637,6.131056053443531e-05,0.6988749062069503,-12.67234369053569,0.8803114462852201
1730865947.5837328,-1.6417081356048584,1.2559638023376465,-9.932706832885742,-0.00010808828505282066,-0.0013747767228811378,0.00010879199667295103,0.6725408406787052,-14.817147003392064,0.8845577507932696
1730865947.6336718,-1.4783844947814941,1.2720919847488403,-9.962823867797852,-0.00018515918468799483,-0.002068381811036381,0.00017526527506859233,0.6462151793201096,-16.96125657299954,0.8841936016408268
1730865947.6836586,-1.4127205610275269,1.249739170074463,-9.95790958404541,-0.00029261927971736894,-0.00297599146825985,0.0002615694172546678,0.6198195384933319,-19.111055060396495,0.8838286233150618
1730865947.7336457,-1.4345476627349854,1.2176520824432373,-9.960887908935547,-0.00043243548295911026,-0.004125866147880651,0.0003671173916124015,0.5935107671490306,-21.253766667851824,0.8850068394320768
1730865947.7836764,-1.6071974039077759,1.2252144813537598,-9.856568336486816,-0.0006054377546758061,-0.005540633364929192,0.0004906722884167269,0.567150870621405,-23.40061455455274,0.8848711245892162
1730865947.8337014,-1.532752275466919,1.1856809854507446,-9.923158645629883,-0.0008125908290765831,-0.007235550019101006,0.0006311571318048008,0.5407620193993755,-25.549788465177702,0.8847356141368843
1730865947.8835726,-1.49844229221344,1.2116985321044922,-9.878271102905273,-0.0010558017391031442,-0.00921855885363386,0.0007880936866673391,0.5144877205827104,-27.689596554589546,0.8848804227802123
1730865947.9345996,-1.521494746208191,1.106750726699829,-9.946966171264648,-0.001337865625871365,-0.011490887658838937,0.000961618594562846,0.4875740005980374,-29.881417900095666,0.8847980015843945
1730865947.9846032,-1.521235466003418,1.066617727279663,-9.89339542388916,-0.0016620558349335459,-0.014047441623199269,0.001152274065003421,0.46117773242983395,-0.3730931616181394,0.8845392386532824
1730865948.034629,-1.6524330377578735,0.9745575785636902,-9.893824577331543,-0.00203203357247944,-0.016876885395318536,0.0013608504511348565,0.4348607345840307,0.3085585949935174,0.8847212141715238
1730865948.0845356,-1.714928388595581,0.9513433575630188,-9.833707809448242,-0.0024522910112260324,-0.019961603981657722,0.001588460340635659,0.40852858649588913,0.17877535057949212,0.884718623671215
1730865948.1347377,-1.6118273735046387,0.9223973155021667,-9.884674072265625,-0.002928794598752253,-0.023277829974520305,0.001836760641104045,0.3820057214648213,0.048046850870162,0.8847170941357542
1730865948.1846237,-1.3661701679229736,0.9260615110397339,-9.857068061828613,-0.0034688666712415737,-0.02679608814811782,0.0021080467132719794,0.35564223181459836,-0.08190191257100712,0.8847168097318409
1730865948.2345996,-1.2212275266647339,0.8862243294715881,-9.932165145874023,-0.004079792049790757,-0.03048223086348676,0.0024050600499713574,0.3294197172291399,0.6828824203737522,0.8849809913110873
1730865948.2835228,-1.0323896408081055,0.8774198889732361,-9.941996574401855,-0.004767044150749701,-0.03429945929833591,0.0027305165871732316,0.3035263627891198,0.6609959315627112,0.8850059249768328
1730865948.3344536,-1.2495695352554321,0.9381879568099976,-9.924843788146973,-0.005533230399162327,-0.038210795123538595,0.003086546224491938,0.2767235170393359,0.7892167038516686,0.8850043472325413
1730865948.3844686,-1.4342632293701172,1.0002256631851196,-9.9284086227417,-0.006378312621300874,-0.042180838461355306,0.003474400611215438,0.25031003378932776,0.7841999479193107,0.8850142723645404
1730865948.4344435,-1.6491162776947021,1.1198151111602783,-9.88106918334961,-0.007301340770923928,-0.04617678420285592,0.003894543079774049,0.22404045031582062,0.7791838844311919,0.8850264306963247
1730865948.4846096,-1.8150001764297485,1.2128596305847168,-9.911548614501953,-0.008303071565108799,-0.050169412832625826,0.004346913881440182,0.19740575000746569,0.7740685740152462,0.8850413625418544
1730865948.5345068,-1.8747748136520386,1.2866096496582031,-9.855307579040527,-0.009388307567014847,-0.0541341693801215,0.0048311836197457575,0.17116603470154476,0.8296416354857368,0.885006976679318
1730865948.5845046,-1.8972151279449463,1.2438414096832275,-9.890105247497559,-0.010567229258286268,-0.05805192794374761,0.0053469459971906925,0.14473570828617396,0.8400990669513705,0.8850053972123667
1730865948.6345894,-1.8699368238449097,1.2726092338562012,-9.829380989074707,-0.011855553073028007,-0.06190908420190549,0.005893874288880519,0.11827196490862943,0.8407572305363162,0.8850126624105327
1730865948.6844258,-1.9649289846420288,1.1705948114395142,-9.842905044555664,-0.013273892149011968,-0.06569699398510814,0.006471880452998617,0.09196938899716933,0.8479160512753651,0.8850062890368315
1730865948.7343395,-1.755480170249939,1.117276906967163,-9.814167976379395,-0.014846808938999565,-0.06941096600817699,0.0070812836602067875,0.065615893214996,0.8489381229511281,0.8850149946165786
1730865948.7843802,-1.648979902267456,1.0715574026107788,-9.870731353759766,-0.016601007776514583,-0.07304882567783008,0.007722829004595645,0.03918406011634367,0.8551623597281336,0.8850072955984533
1730865948.8343627,-1.619248390197754,1.0923936367034912,-9.766934394836426,-0.018561796520971147,-0.07660911255009217,0.0083974160478941,0.01279253449799187,0.8564449647488929,0.8850176549927372
1730865948.8843756,-1.5719029903411865,1.1600306034088135,-9.814069747924805,-0.02074914539548546,-0.08008959075234609,0.00910582124638178,-0.01375034040457048,0.8621881147009445,0.8850086099682369
1730865948.9342463,-1.4718180894851685,1.2043366432189941,-9.855443000793457,-0.023175560824189444,-0.08348690698558969,0.009848631993945943,-0.04005339347697784,0.8637085515309942,0.8850207836423687
1730865948.9843962,-1.5622344017028809,1.2559999227523804,-9.844598770141602,-0.025845769143024947,-0.08679723767066669,0.010626111349471093,-0.0666928646674961,0.86747609496428,0.885010138997137
1730865949.0343103,-1.6065484285354614,1.3037285804748535,-9.91126537322998,-0.028757285259303635,-0.09001713892375213,0.011437892457628307,-0.09314990163514593,0.8689674188031294,0.8850244643251439
1730865949.084335,-1.6464300155639648,1.3352413177490234,-9.848318099975586,-0.03190163260241338,-0.09314423566164369,0.012282731096108062,-0.11973258069954115,0.8704073678117403,0.8850462794957537
1730865949.1342292,-1.7890230417251587,1.2793657779693604,-9.847938537597656,-0.0352659176972403,-0.09617764356970596,0.013158491191837148,-0.14642819392304848,0.8728787553357914,0.8879779391414364
1730865949.1843033,-1.9112098217010498,1.1769911050796509,-9.826825141906738,-0.03883455660947956,-0.09911786014424485,0.014062405001620487,-0.17282838299420272,0.8736989005081164,0.8883297375802363
1730865949.2342906,-1.7468112707138062,1.169215440750122,-9.872337341308594,-0.04259094425109568,-0.10196604148349162,0.014991376303028714,-0.19932251750147725,0.8744588815586763,0.8886914532389393
1730865949.2843397,-1.7610691785812378,1.1731765270233154,-9.90518856048584,-0.04651827595261832,-0.10472315247983913,0.01594201839280711,-0.22601427410419334,0.8787944738645596,0.8914758332173907
1730865949.3341703,-1.772855281829834,1.1963719129562378,-9.869773864746094,-0.05059925692791333,-0.10738946043840744,0.016910456624468717,-0.2525311410352069,0.879755353523966,0.8920597085160928
1730865949.3842542,-1.7723252773284912,1.1582468748092651,-9.856871604919434,-0.05481543052981981,-0.10996415407290036,0.017892238745345665,-0.27929296880019594,0.8806558539638802,0.8926591491294917
1730865949.4341888,-1.5951693058013916,1.1924304962158203,-9.84045124053955,-0.059146576859541694,-0.11244488624436531,0.01888254241421409,-0.3058864392535404,0.886178662877956,0.8949536308312935
1730865949.4842129,-1.4303251504898071,1.1096744537353516,-9.871488571166992,-0.06356991810811034,-0.11482753549532032,0.019876465553543974,-0.3327339866188486,0.8872988889584481,0.895572090999713
1730865949.5342839,-1.4494115114212036,1.127644419670105,-9.831385612487793,-0.06805903198744273,-0.11710622240769897,0.020869171836887954,-0.35955659010847524,0.8938505456016365,0.8984393476776585
1730865949.5842733,-1.374488115310669,1.0864741802215576,-9.847817420959473,-0.07258309679223021,-0.11927334511336131,0.021855958498993876,-0.3864243970262376,0.895563268404798,0.8993209420149084
1730865949.634126,-1.4525998830795288,1.0719263553619385,-9.802490234375,-0.07710699838606455,-0.12131963543532756,0.022832383503067346,-0.4131664127925093,0.9002560346442883,0.9018742548826745
1730865949.684152,-1.5784028768539429,1.0320987701416016,-9.840079307556152,-0.08159225169795009,-0.12323424496800524,0.023794428745212405,-0.44028476319845844,0.9017953290566857,0.9027846328641271
1730865949.734146,-1.5448294878005981,0.9901504516601562,-9.828018188476562,-0.08599852716177679,-0.12500477422860234,0.024738576236473315,-0.4670180897982832,0.9067934947917392,0.9021750808601844
1730865949.7841535,-1.495914340019226,0.9905200004577637,-9.897010803222656,-0.09028512908295228,-0.12661726217851044,0.02566169877155154,-0.4941454400016569,0.9080870513921484,0.9024723782072266
1730865949.8341901,-1.5989469289779663,0.96947181224823,-9.889765739440918,-0.09441181111608618,-0.12805626117077168,0.026560766889249496,-0.5212009569818625,0.9141063637389617,0.902209095709747
1730865949.8841543,-1.5671354532241821,0.9694827198982239,-9.91878890991211,-0.09833948569297428,-0.1293052736893471,0.027432553572801065,-0.5483631531207288,0.9186372625909824,0.8993354951889796
1730865949.9341342,-1.4966825246810913,0.9941743016242981,-9.964380264282227,-0.10203149358468269,-0.13034789219118903,0.028273539527068008,-0.5755687911105652,0.9202802793555503,0.8986754778020276
1730865949.984129,-1.4800490140914917,0.969645619392395,-9.981051445007324,-0.10545476103279165,-0.13116930453865144,0.02907989900990804,-0.6029782803343186,0.9218494305492544,0.8980301336024042
1730865950.0342054,-1.459653377532959,1.016774296760559,-9.992463111877441,-0.10858002525269635,-0.1317572331742871,0.02984736367590126,-0.630352018510837,0.9233302715229277,0.8974056830548722
1730865950.0840492,-1.5144121646881104,1.049118995666504,-9.973414421081543,-0.11138153050156016,-0.13210218678873908,0.03057109338622819,-0.657705835399226,0.926669233542453,0.8958283841180252
1730865950.1340241,-1.6105612516403198,1.0086636543273926,-9.94045639038086,-0.11383700817943729,-0.13219755827917692,0.031245772308725554,-0.685089304403976,0.9277285838418169,0.8953819859990219
1730865950.1840804,-1.5536221265792847,1.06661057472229,-9.94149398803711,-0.11592808679220606,-0.13203964070438,0.03186592858236782,-0.7128001384942899,0.9340130084612398,0.8930707064318646
1730865950.2339597,-1.603241205215454,1.065562129020691,-9.964529037475586,-0.11764064390285096,-0.13162753087714127,0.032426258678834106,-0.7402437822658492,0.9355963119661457,0.8924559080997421
1730865950.2839465,-1.879683494567871,1.0326447486877441,-9.866992950439453,-0.11896504466380674,-0.13096303261677192,0.03292182791661055,-0.7680002375894864,0.9371114428063383,0.8918561536711545
1730865950.3339956,-2.0737950801849365,0.9914940595626831,-9.809025764465332,-0.11989710363971412,-0.1300503926566626,0.03334840944909245,-0.795737641123632,0.9422022579254279,0.8903530214937603
1730865950.3840535,-1.8243703842163086,0.9407444000244141,-9.798154830932617,-0.12043961673150622,-0.12889571436743363,0.03370312264724124,-0.823803169651026,0.9432884039290687,0.8899644580889516
1730865950.4339852,-1.6435387134552002,1.0102969408035278,-9.805895805358887,-0.12060244639687401,-0.12750626265528772,0.0339848740152731,-0.8515062354696288,0.9509279260963546,0.8874999935237153
1730865950.4839067,-1.5730770826339722,1.1460793018341064,-9.76155948638916,-0.12040016451503567,-0.1258901310559595,0.03419409916910958,-0.8795096994068511,0.952792842034861,0.8868696426983943
1730865950.5338778,-1.402429223060608,1.2469379901885986,-9.80485725402832,-0.11984886295085778,-0.12405668767873874,0.03433212653722782,-0.907558647616649,0.9545778654109149,0.8862613204728486
1730865950.5837739,-1.2801685333251953,1.27745521068573,-9.844583511352539,-0.11896368803925705,-0.12201760121219478,0.034400689503094245,-0.9356084836472282,0.9562818419790177,0.8856759223123114
1730865950.6338754,-1.3144124746322632,1.2810062170028687,-9.876189231872559,-0.11775719455173837,-0.11978767061142806,0.034401529947945174,-0.963889583676625,0.9579197807320805,0.8851087510516603
1730865950.6837897,-1.3720238208770752,1.2254197597503662,-9.91110610961914,-0.11623862974857997,-0.11738492667613719,0.03433594042406175,-0.9922155739018446,0.9594818365098569,0.8845636648383691
1730865950.7338083,-1.4993278980255127,1.1518988609313965,-9.931300163269043,-0.11441443926605707,-0.11483001279591519,0.03420436051886952,-1.0206579816153107,0.9587704507013969,0.8873248585469321
1730865950.78379,-1.6006672382354736,1.0863429307937622,-9.86929702758789,-0.11228969007416909,-0.11214508170612145,0.03400618669794511,-1.049085576651223,0.959461077042076,0.8872882675829056
1730865950.8337855,-1.6006672382354736,1.0863429307937622,-9.86929702758789,-0.10986971196648879,-0.10935258403633923,0.03373993938028899,-1.0774542769612199,0.9653059995295803,0.8875286535769727
1730865950.8837059,-1.9375649690628052,0.9927679896354675,-9.77560806274414,-0.10716155838602882,-0.10647430203991201,0.033403771580188715,-1.106054930155414,0.9664476449487085,0.887553426363551
1730865950.9336746,-2.0457820892333984,0.9714118242263794,-9.726194381713867,-0.1041756534491627,-0.10353062079893076,0.03299617837734499,-1.1347098234004673,0.967523177080949,0.8875989436118301
1730865950.9836621,-2.0869340896606445,1.0083929300308228,-9.737180709838867,-0.10092729469808644,-0.1005399677841775,0.03251667765199684,-1.1634175467535148,0.9761742600502492,0.8876083053759843
1730865951.0336392,-2.0562994480133057,1.051559329032898,-9.758321762084961,-0.09743625025227529,-0.09751868324190746,0.03196600753509873,-1.192114855302631,0.9777243599256873,0.887650272876296
1730865951.083622,-2.0562994480133057,1.051559329032898,-9.758321762084961,-0.09372444673477208,-0.09448140327513503,0.0313457382075774,-1.2209428505093045,0.9865946243453948,0.8876266426825071
1730865951.133597,-1.9302725791931152,1.1401413679122925,-9.887577056884766,-0.08981393168771826,-0.0914416262017161,0.030657704206346358,-1.2498495440002304,0.9889268730983167,0.8876695905064114
1730865951.1835477,-1.8705997467041016,1.1601102352142334,-9.892549514770508,-0.08572578182986663,-0.08841229262479522,0.02990337495516491,-1.2787150043149487,0.9970840273085904,0.8876319459301529
1730865951.233644,-1.852792739868164,1.1702474355697632,-9.919771194458008,-0.08147921936294664,-0.08540634754512925,0.029083183616497123,-1.3077491663314267,0.9997505778893347,0.8876738073155502
1730865951.2836158,-1.850260853767395,1.1229956150054932,-9.914119720458984,-0.07709097216173508,-0.08243703219332808,0.028196144882233938,-1.3367242467689728,1.0092182556969622,0.8878197363841487
1730865951.3335752,-1.8229795694351196,1.0839333534240723,-9.910886764526367,-0.07257513699746809,-0.07951770092285478,0.027239875952543947,-1.3657630487453893,1.0119003025456537,0.8878917286540787
1730865951.3836124,-1.7985893487930298,1.0479875802993774,-9.888747215270996,-0.06794329508746982,-0.07666128182382458,0.02621085089386445,-1.3949449690945555,1.019531166104853,0.8880359412714787
1730865951.4335694,-1.7985893487930298,1.0479875802993774,-9.888747215270996,-0.06320462697490327,-0.0738796883098622,0.025104766620723553,-1.4239542399682616,1.02845290446697,0.8880396974706997
1730865951.4836032,-1.7225205898284912,0.9698752164840698,-9.863229751586914,-0.05836599499055523,-0.0711833777771718,0.023916932625318833,-1.4532453954442601,1.0315561469370267,0.8880914587259747
1730865951.533507,-1.668954610824585,0.9353963732719421,-9.8529052734375,-0.05343228080615158,-0.06858102384009307,0.022642738754963466,-1.48250219481553,1.034608308453613,0.8881576669147182
1730865951.583536,-1.6359572410583496,0.9215210676193237,-9.852986335754395,-0.04840760059251879,-0.06607933641439935,0.021278378063421078,-1.5117896926907854,1.0376182679821986,0.8882375988411148
1730865951.6334298,-1.6144894361495972,0.9229671359062195,-9.850465774536133,-0.043297049560836874,-0.06368313328869632,0.019821616769015112,-1.5409196989198426,1.0411251651366074,0.8880399639954534
1730865951.6834772,-1.6067534685134888,0.9610587358474731,-9.857247352600098,-0.03810759477512726,-0.061395574009282534,0.018272136418999232,-1.5702821183364062,1.0428707798635777,0.8880733920462258
1730865951.7344527,-1.5976148843765259,1.0084751844406128,-9.867647171020508,-0.032847884853973885,-0.059218514228231815,0.0166314168800386,-1.6001312716928267,1.0527134896412387,0.8880272173564198
1730865951.7843916,-1.6114647388458252,1.0301212072372437,-9.874835968017578,-0.02752783806455953,-0.05715303543791837,0.014902451437074426,-1.6294188489991777,1.0554881258043127,0.8880526000349439
1730865951.8344188,-1.5975745916366577,1.018343448638916,-9.889068603515625,-0.022158382319438626,-0.055199974727480616,0.013089440811353041,-1.6588898892290183,1.0582434814868291,0.8880868937385618
1730865951.8845086,-1.5975745916366577,1.018343448638916,-9.889068603515625,-0.01675126064520432,-0.05336019314296497,0.01119750104735869,-1.6882232790921698,1.0655101331752872,0.8880206542919411
1730865951.934418,-1.626556634902954,0.905511736869812,-9.897462844848633,-0.011318857689161087,-0.051634477511364,0.009232416609299974,-1.7176700911553182,1.067476129853708,0.8880386388963633
1730865951.9844997,-1.6508206129074097,0.8503293991088867,-9.890620231628418,-0.005874133615431628,-0.05002302243612487,0.007200458255783952,-1.747063434506776,1.079124382481303,0.8880138753520664
1730865952.034278,-1.668717384338379,0.7852784395217896,-9.882685661315918,-0.00043071220577373657,-0.048524598523813384,0.005108275211152853,-1.776281746822369,1.0822623616303133,0.888025390487395
1730865952.0843859,-1.666137456893921,0.7490000128746033,-9.847501754760742,0.0049970079439881614,-0.04713593666030444,0.0029628843748401223,-1.805748512348977,1.089595647581802,0.8880087695178291
1730865952.134316,-1.6244356632232666,0.7482098340988159,-9.854060173034668,0.010393903483331557,-0.04585192093733918,0.0007717523435938951,-1.835075287319335,1.0923877062962712,0.8880143796605963
1730865952.1843207,-1.5937052965164185,0.7874472141265869,-9.882034301757812,0.015744450035629753,-0.04466644614433479,-0.0014571585997373946,-1.8645530281006903,1.0951665716428225,0.8880198037180776
1730865952.2342668,-1.5707736015319824,0.8576775789260864,-9.910017013549805,0.021033260327640184,-0.043573282154547976,-0.0037155549578345875,-1.8938445854062915,1.1010929657268094,0.8880028821360096
1730865952.2842512,-1.5707736015319824,0.8576775789260864,-9.910017013549805,0.02624560783755358,-0.04256672626991945,-0.005995161325180381,0.907866658963821,1.1105507121873668,0.8879988883752926
1730865952.3342435,-1.5839658975601196,0.9715844392776489,-9.951668739318848,0.031367734752796195,-0.041642177742661546,-0.008288067614903787,0.9075772156091964,1.1133435585705351,0.8879920742901681
1730865952.3842833,-1.6285433769226074,0.9795622229576111,-9.949352264404297,0.03638687373825736,-0.04079669636835124,-0.010587002299932547,0.9120837410863862,1.121028784883993,0.8877884786050363
1730865952.4342704,-1.6731714010238647,0.9589577913284302,-9.931402206420898,0.04129098993554738,-0.04002944003601636,-0.012885512595312492,0.9114555041378345,1.123840433679331,0.8877272582358704
1730865952.4843504,-1.7608195543289185,0.9085907340049744,-9.892904281616211,0.04606828577572087,-0.039341655679726945,-0.015177924064213772,0.910851800951883,1.1266400629903481,0.8876569508628567
1730865952.5342863,-1.8198007345199585,0.8613375425338745,-9.845653533935547,0.050706532833608785,-0.03873610777347479,-0.01745901370812994,0.9113856388342948,1.1341621944594835,0.8875775356820244
1730865952.5842535,-1.8743910789489746,0.8098325729370117,-9.812735557556152,0.05519236590198652,-0.03821622119470698,-0.019723505255506237,0.9109981483561483,1.1363492725276305,0.8875206018451108
1730865952.634168,-1.8814746141433716,0.8248398900032043,-9.78154468536377,0.0595109595793321,-0.03778520313358573,-0.02196562209279587,0.9098654889167096,1.1478005049612758,0.8875680089631645
1730865952.6841817,-1.8178749084472656,0.9012826681137085,-9.799697875976562,0.06364668532682555,-0.03744534882257038,-0.02417897333740036,0.90945552404395,1.150983719110558,0.8875299869483015
1730865952.7341259,-1.7743693590164185,0.9895063042640686,-9.821540832519531,0.06758461108215355,-0.037197902002041955,-0.026356820893956176,0.9080383851982192,1.1579428855869582,0.8875696528232877
1730865952.7841399,-1.7426655292510986,1.0704177618026733,-9.879551887512207,0.0713118628226235,-0.03704368568797345,-0.02849252704893663,0.9076098723723963,1.1607195566382016,0.887532132446255
1730865952.834016,-1.7173658609390259,1.144403100013733,-9.899643898010254,0.07481832528485202,-0.036984156684133636,-0.030580054454143732,0.9078438753464513,1.1702236130177988,0.887568773721865
1730865952.884022,-1.7238008975982666,1.201750636100769,-9.902915954589844,0.07809689482923392,-0.03702237691364267,-0.03261442924284984,0.9077713364519097,1.1731576902290837,0.8875270817406277
1730865952.9340377,-1.7645459175109863,1.1820310354232788,-9.86949348449707,0.08114342501679833,-0.03716363291052463,-0.03459196023560419,0.908351317478598,1.1800510004131648,0.8881513683015644
1730865952.9839852,-1.83077871799469,1.1543887853622437,-9.82955265045166,0.08395629939581052,-0.03741552468899332,-0.036510080164192216,0.9089660326365877,1.1884550824126952,0.8887206193859896
1730865953.0339887,-1.8594506978988647,1.0799541473388672,-9.79504680633545,0.08653567997049007,-0.03778745506471288,-0.03836688877644989,0.9092137704801098,1.1913705002026898,0.8888417242059972
1730865953.0839276,-1.8404059410095215,1.018115758895874,-9.759230613708496,0.08888273980963542,-0.038289675746054894,-0.040160595257351855,0.9095158041552971,1.1942574202026188,0.8889381433189331
1730865953.1339393,-1.7897979021072388,0.9865586757659912,-9.764646530151367,0.09099928216960651,-0.03893218224315722,-0.041889050956611995,0.9098748991426059,1.1971277523651427,0.8890091486451251
1730865953.1840162,-1.7897979021072388,0.9865586757659912,-9.764646530151367,0.09288776683880216,-0.03972365589616974,-0.043549524529730294,0.909730568646573,1.2037270585744984,0.8892067362043571
1730865953.2339149,-1.6195176839828491,1.096706748008728,-9.849236488342285,0.09455142576594483,-0.040670517812694394,-0.04513884531227341,0.909953708080374,1.2057952754375667,0.8892204874117139
1730865953.2839737,-1.5690386295318604,1.1863417625427246,-9.894932746887207,0.09599457623879293,-0.04177652462403013,-0.04665395042701002,0.9102380355615844,1.2078497571279656,0.8892054749854442
1730865953.3338645,-1.5596836805343628,1.2637195587158203,-9.941064834594727,0.09722333579284057,-0.04304339359940482,-0.048092654424369614,0.909251638157849,1.2166747008868741,0.8895857393000051
1730865953.384044,-1.59630286693573,1.3051685094833374,-9.960204124450684,0.09824618519784509,-0.04447202772773855,-0.04945431533115425,0.909330651163685,1.2190709466896623,0.88959632317174
1730865953.4338489,-1.6284863948822021,1.3273265361785889,-9.94701862335205,0.09907383739025041,-0.046063520304648525,-0.050740179919400365,0.9094701339685515,1.2214135568994346,0.8895756636095872
1730865953.4840422,-1.6553434133529663,1.316172480583191,-9.920696258544922,0.0997186131769536,-0.04781964666005132,-0.05195334726116754,0.9087193262933382,1.2308911998439755,0.8899664656545897
1730865953.5338588,-1.6553434133529663,1.316172480583191,-9.920696258544922,0.10019375242743445,-0.0497429159043002,-0.053098420124392594,0.9106743338298123,1.243599081748934,0.8899744155635015
1730865953.583919,-1.6765570640563965,1.1801283359527588,-9.819402694702148,0.10051289395832541,-0.05183623872703051,-0.054180981557191185,0.911209492831585,1.2471196941096014,0.8899289978413905
1730865953.6338382,-1.6720153093338013,1.0732054710388184,-9.787087440490723,0.1006897384457129,-0.05410209679726358,-0.055206900066582215,0.9133056104149208,1.2550797716331896,0.8899576338165492
1730865953.6838663,-1.6663193702697754,0.9791675806045532,-9.763050079345703,0.10073783623870779,-0.056541232221371245,-0.05618152602591785,0.9140103954302863,1.2578892569282405,0.8898886144671737
1730865953.7339408,-1.6707918643951416,0.9239218235015869,-9.750232696533203,0.10067037789994165,-0.059151369174095,-0.057109097929534086,0.9147793875782445,1.2606672794906166,0.889784030891475
1730865953.7837968,-1.6994575262069702,0.9047927856445312,-9.781537055969238,0.100499715467353,-0.061926557206486724,-0.057992570598296,0.9159983983657984,1.2682024116149762,0.889939821414377
1730865953.8338177,-1.6994575262069702,0.9047927856445312,-9.781537055969238,0.1002366580982928,-0.06485720083097089,-0.058833792445446745,0.9166344759895753,1.2706355680442758,0.8898593582817007
1730865953.8838098,-1.7199853658676147,1.0237822532653809,-9.900525093078613,0.0998900206250021,-0.06793054101105048,-0.059633922969514266,0.9185059865762514,1.2809599577293205,0.8899373807614698
1730865953.933771,-1.7121604681015015,1.109671950340271,-9.941783905029297,0.09946659165870819,-0.07113160435152338,-0.06039411413203277,0.9209595353001179,1.2897615764571377,0.8899430897648977
1730865953.9838536,-1.7125602960586548,1.1412822008132935,-9.991416931152344,0.09897130030730261,-0.07444456095877458,-0.06111637234857214,0.9219337067685024,1.2930225655054752,0.8898629019464833
1730865954.033785,-1.7383090257644653,1.1559922695159912,-9.991555213928223,0.09840743085566264,-0.07785395080678836,-0.06180424504866733,0.9229627425665992,1.2962144856008835,0.8897450392045779
1730865954.0837812,-1.7700742483139038,1.0934906005859375,-9.966474533081055,0.09777676656741564,-0.08134529274513258,-0.06246305514768459,0.9233336329962446,1.3037440967313718,0.8899276586474966
1730865954.1337168,-1.7931220531463623,1.0574482679367065,-9.924484252929688,0.0970795753114374,-0.08490502702280898,-0.06309966338785515,0.9239045032686396,1.3059777612098706,0.8898395824255914
1730865954.1838078,-1.8051255941390991,0.9757516384124756,-9.861323356628418,0.09631452687747855,-0.088519990587585,-0.06372185822623394,0.9253971912568859,1.3175679573569892,0.8899299467536905
1730865954.233678,-1.8243852853775024,0.909440279006958,-9.807530403137207,0.0954786797236175,-0.09217667362437558,-0.06433752859567245,0.9260695534567277,1.3208117374837176,0.8898417332669603
1730865954.2837088,-1.831785798072815,0.8526820540428162,-9.77783489227295,0.09456770670507762,-0.09586050766051496,-0.06495378917808414,0.9276715548117468,1.3266178339212589,0.8899290365863965
1730865954.3335953,-1.7967559099197388,0.8678164482116699,-9.767488479614258,0.09357663013748072,-0.0995555160220532,-0.06557623219706804,0.9283783464924826,1.3290366926370343,0.8898392008167553
1730865954.3836603,-1.7605763673782349,0.9291214346885681,-9.799591064453125,0.09250094809094794,-0.10324453712219739,-0.06620851027556765,0.9303952560363329,1.3384903451459145,0.8899275559116172
1730865954.433618,-1.710945725440979,1.0032237768173218,-9.818702697753906,0.09133757993998459,-0.10690992354777203,-0.06685239354675758,0.9311537788565888,1.3411501279545064,0.889835427106897
1730865954.4836576,-1.7012803554534912,1.053971767425537,-9.838756561279297,0.0900854023559487,-0.11053450065009694,-0.06750818834451447,0.9335025600130403,1.3437311832007885,0.8899262895149498
1730865954.5335536,-1.6881037950515747,1.0379717350006104,-9.849413871765137,0.08874551195081881,-0.11410247643598445,-0.06817522955069925,0.9344010967096327,1.3462430761233468,0.8898328934956691
1730865954.5836434,-1.7113316059112549,0.9963055849075317,-9.854170799255371,0.08732123566856861,-0.11759990553688943,-0.06885226785055756,0.9351775720644715,1.3486997193082082,0.8899244497482514
1730865954.6335702,-1.745736837387085,0.9328804016113281,-9.85682487487793,0.08581785831833647,-0.12101452559475062,-0.06953772397662003,0.9358667998606193,1.3510621103139127,0.8898291049834278
1730865954.683587,-1.7479357719421387,0.8603179454803467,-9.831171989440918,0.08424213489492671,-0.12433512070311774,-0.07022981152878342,0.9366112199112597,1.3533553290750273,0.88968986599604
1730865954.733575,-1.7491909265518188,0.843873918056488,-9.839099884033203,0.08260178467635784,-0.1275507245157668,-0.07092653210739935,0.9364996671427136,1.3555692786225308,0.8899171031354446
1730865954.7836032,-1.719849944114685,0.8954249024391174,-9.856204986572266,0.08090517828795252,-0.13065006117733668,-0.07162563832828037,0.9369018542169254,1.3577118587260195,0.8898159047599653
1730865954.8335345,-1.69038987159729,1.013269066810608,-9.893735885620117,0.07916115400041297,-0.13362149271490512,-0.07232463134374564,0.9381278353972586,1.3597579459024907,0.8899208482466121
1730865954.8834958,-1.6407148838043213,1.1782209873199463,-9.94733715057373,0.07737868643489643,-0.13645339517383415,-0.07302068341874374,0.9399486164704787,1.3617275364968968,0.8899296434562688
1730865954.9335127,-1.5968351364135742,1.3148117065429688,-9.980710983276367,0.07556652391470349,-0.13913499382922617,-0.07371058249346005,0.9408270077747712,1.363611255166149,0.8898325732744207
1730865954.9834745,-1.5788203477859497,1.3853707313537598,-9.986942291259766,0.0737332257200696,-0.14165775066563235,-0.07439097124277762,0.9417510979399044,1.3654050984182005,0.8896893109926646
1730865955.0333755,-1.5788203477859497,1.3853707313537598,-9.986942291259766,0.07188750480593825,-0.14401672997587284,-0.07505873011188052,0.9414596000356437,1.3671090226498535,0.889912892632274
1730865955.0834413,-1.6471034288406372,1.241713523864746,-9.92891788482666,0.07003837069489491,-0.1462110647272249,-0.07571112648578521,0.9418980665344575,1.368728491071262,0.8898061676144967
1730865955.1334794,-1.7504501342773438,1.1041513681411743,-9.85863208770752,0.06819476973521627,-0.14824315181360426,-0.07634556951972868,0.9423788687768284,1.3702520086345034,0.8896520250792977
1730865955.1834555,-1.7504501342773438,1.1041513681411743,-9.85863208770752,0.06636478605515785,-0.15011698866091133,-0.07695906164544791,0.943803475650991,1.3716887484827236,0.8899095310455286
1730865955.2333221,-1.9156988859176636,0.9128645658493042,-9.670672416687012,0.0645547414096643,-0.15183651795566408,-0.07754754361662558,0.9443174593806063,1.373022094496443,0.8898001763070154
1730865955.2834413,-1.9563443660736084,0.903839647769928,-9.61693286895752,0.06276833658306312,-0.15340433434021908,-0.07810508213398093,0.9448724867642098,1.3742630233794797,0.8896418547454835
1730865955.3332965,-1.9563443660736084,0.903839647769928,-9.61693286895752,0.06100588553482088,-0.15482073579799732,-0.07862296611842438,0.9454632209888598,1.3754018833166781,0.8894355911135915
1730865955.3834836,-1.923431158065796,1.0500279664993286,-9.705564498901367,0.059264300305868566,-0.15608358035231834,-0.07908960407000169,0.9473974586559947,1.376464498762389,0.8899022944237336
1730865955.4342368,-1.8367159366607666,1.1513241529464722,-9.823517799377441,0.05753854970378851,-0.1571893623639251,-0.07949215018513908,0.9479712439760338,1.3774255030395994,0.8897857771748888
1730865955.4842105,-1.7143102884292603,1.2665013074874878,-9.948857307434082,0.055824080008196685,-0.15813508073024202,-0.07981929318198812,0.9508410987826084,1.378287468248895,0.8899110610552663
1730865955.5342638,-1.5934988260269165,1.3747628927230835,-10.055098533630371,0.054118941710359525,-0.15892005861600217,-0.08006366433022837,0.9517364275134192,1.379038491822534,0.889799393969048
1730865955.5842412,-1.4835880994796753,1.4298890829086304,-10.111140251159668,0.05242521976312739,-0.15954728639098023,-0.08022322686457047,0.9539602158239862,6.676439888328428,0.8899108577189196
1730865955.6342456,-1.443881630897522,1.4316983222961426,-10.103753089904785,0.05075001478388942,-0.16002420130054584,-0.08030186433151015,0.9548628824359022,6.817391924040759,0.8897992659052655
1730865955.6842623,-1.4952565431594849,1.3775787353515625,-10.049909591674805,0.049105843825669244,-0.16036275222926377,-0.08030920457934541,0.9565455666042078,6.70818025443022,0.8859490082748243
1730865955.7341847,-1.6399167776107788,1.2702287435531616,-9.953142166137695,0.04751007675871921,-0.16057866149862612,-0.08025965107683289,0.957209982292892,6.742782181417403,0.8852510854172372
1730865955.7842758,-1.8158236742019653,1.1555479764938354,-9.814238548278809,0.04598327184932007,-0.16069000651002172,-0.0801707797768707,0.9596530480875991,6.682125656862874,0.8807602126023908
1730865955.8341494,-1.987913966178894,1.0372942686080933,-9.684324264526367,0.04454670955595735,-0.16071541314729934,-0.0800613318784617,0.9627879594613088,6.665247159080048,0.8767909765289009
1730865955.8841746,-2.1046435832977295,0.9711049795150757,-9.589987754821777,0.04321975525644747,-0.16067225935413404,-0.07994912691314544,0.963930031900828,6.66686920851005,0.8752829003540181
1730865955.9341092,-2.1483964920043945,0.9394667744636536,-9.553539276123047,0.0420178843667146,-0.16057529847639795,-0.07984939581355283,0.9650959476024233,6.668387221311652,0.8737286107714628
1730865955.9841945,-2.121264934539795,0.9565346837043762,-9.586009979248047,0.04095214387353065,-0.16043599526216593,-0.07977403929226118,0.96629395631126,6.669812375274352,0.872116154144201
1730865956.0340698,-2.039263963699341,0.9619608521461487,-9.645097732543945,0.04002996787417394,-0.16026256498101812,-0.07973188080222196,0.9657546673307298,6.650869975308734,0.872004544304811
1730865956.0840585,-1.9312196969985962,0.9948458671569824,-9.719782829284668,0.03925649451328862,-0.1600604241150015,-0.07972950458669914,0.9662940133042736,6.650223872346351,0.8711564986254733
1730865956.1340225,-1.8107657432556152,1.0069457292556763,-9.799466133117676,0.038635936157638495,-0.15983277637123264,-0.079772299001596,0.9668567089474172,6.649479049456937,0.8702601778178743
1730865956.184022,-1.7375962734222412,1.0039891004562378,-9.883305549621582,0.03817298840542332,-0.15958118002116295,-0.0798655511459278,0.967443142813122,6.648634915458986,0.8693144182944799
1730865956.2339506,-1.6901278495788574,0.9899908900260925,-9.963652610778809,0.03787403160922119,-0.1593059608604512,-0.08001549185120917,0.9700195844951529,6.642056217553589,0.8682020009227499
1730865956.2840056,-1.6511867046356201,1.0167818069458008,-10.022025108337402,0.037747836978320695,-0.1590064434995028,-0.08023018860131839,0.9706670440024838,6.641028111782241,0.8675070995906387
1730865956.3338845,-1.6511867046356201,1.0167818069458008,-10.022025108337402,0.037805766163747305,-0.1586811507278474,-0.0805201444830076,0.974199341998342,6.640112192680594,0.8686142475478325
1730865956.3839247,-1.6089198589324951,1.1275053024291992,-10.08283519744873,0.03806161711527172,-0.15832815352486773,-0.08089848723924861,0.9750407212841914,6.639470287556968,0.8684066400176702
1730865956.433835,-1.548673152923584,1.161179542541504,-10.08017635345459,0.038531357221970895,-0.15794569602066247,-0.08138085364676421,0.9787189756588349,6.63849740287394,0.8691937778151568
1730865956.4838657,-1.5168516635894775,1.1840696334838867,-10.051786422729492,0.039232410044822676,-0.15753275604937075,-0.08198464974567618,0.9818108457259699,6.6385921439140825,0.8734782049461666
1730865956.533793,-1.4813148975372314,1.1318827867507935,-9.987784385681152,0.04018143163460522,-0.15708870590927793,-0.08272674620609372,0.9830697009568368,6.638257439707925,0.8745534389667619
1730865956.5838237,-1.4938756227493286,1.0512200593948364,-9.905617713928223,0.04139120427067495,-0.15661205001041859,-0.08362016555833601,0.9843587861999316,6.637823432857907,0.8755807263395833
1730865956.6337664,-1.5253958702087402,0.9455553293228149,-9.82075309753418,0.04286891541824274,-0.15609916758990722,-0.08467179418500463,0.9856723212909901,6.637292353028691,0.8765539369441986
1730865956.683823,-1.6069215536117554,0.8572342395782471,-9.72569751739502,0.0446160749210114,-0.15554342627371362,-0.0858815840961861,0.9852484708209912,6.638130963234099,0.8782878662957996
1730865956.7337284,-1.7038275003433228,0.803158164024353,-9.66273307800293,0.046628611033344036,-0.1549344792012136,-0.08724228553029212,0.9858896710803173,6.637824489442959,0.878868194064068
1730865956.7837372,-1.8090814352035522,0.8006678223609924,-9.635173797607422,0.04889657448327877,-0.15425786794417368,-0.08873937567699768,0.9898809466361382,6.6376880325374525,0.8821633891262282
1730865956.8336544,-1.8927173614501953,0.8072279691696167,-9.634767532348633,0.05140367055155627,-0.15349516286056536,-0.09035137853911207,0.99413073507296,6.638636272870631,0.8856154826814485
1730865956.883653,-1.9440635442733765,0.8602471947669983,-9.668485641479492,0.05412690656693922,-0.15262463338415203,-0.09205065688017018,0.9954610100225835,6.638582464421186,0.8865488068112042
1730865956.9336395,-1.9826576709747314,0.9154075980186462,-9.733817100524902,0.05703658458038762,-0.15162230492826162,-0.09380462735807416,0.9968269391806549,6.638433333546761,0.8874245098113274
1730865956.9837236,-1.9989776611328125,0.9727869033813477,-9.810914993286133,0.0600967012529166,-0.15046323785520324,-0.09557730741155415,1.00047675338507,6.639421202607597,0.8901768114686401
1730865957.033659,-1.9968469142913818,1.0430967807769775,-9.891023635864258,0.06326611463810417,-0.14912297416354162,-0.0973311967405778,1.0016656832279236,6.639327780495156,0.8908644717759505
1730865957.083661,-1.9078164100646973,1.1033395528793335,-9.982389450073242,0.06650125215152286,-0.14757925492408117,-0.09902957637951504,1.0028996696707364,6.639141150362934,0.8914932439383307
1730865957.1336153,-1.811535358428955,1.1505705118179321,-10.037453651428223,0.06975983473763114,-0.1458137519070099,-0.10063885597623912,1.0052853150250733,6.640045159703212,0.8902591912121093
1730865957.1835968,-1.684177279472351,1.158101201057434,-10.068291664123535,0.07300379189983058,-0.14381316158974605,-0.10213018946517029,1.006248013232062,6.639939625558629,0.8902891667216896
1730865957.2335598,-1.607757568359375,1.1402833461761475,-10.083259582519531,0.07620084671432974,-0.1415694435091357,-0.10348011982430076,1.0072679970381824,6.639742146497937,0.8902539692503951
1730865957.2836456,-1.5794684886932373,1.0847864151000977,-10.054425239562988,0.07932542409907026,-0.1390794453990055,-0.1046705847308886,1.0083123950191484,6.639462510472858,0.8901552707070358
1730865957.3335211,-1.6266781091690063,1.0333889722824097,-10.00820255279541,0.08235895896455803,-0.13634410841359595,-0.10568849045169372,1.0108908597055803,6.632511525332296,0.8900082931739423
1730865957.3835816,-1.6266781091690063,1.0333889722824097,-10.00820255279541,0.08528944124774018,-0.13336747704558394,-0.10652496420070756,1.014480346050755,6.625594450447966,0.889950593380672
1730865957.4335127,-1.7534598112106323,0.9991579055786133,-9.872818946838379,0.08811038880777411,-0.1301558403151821,-0.1071744553551684,1.015625527562301,6.623728121795173,0.8898190554784017
1730865957.4836228,-1.761965274810791,1.019677996635437,-9.80775260925293,0.09081950470066431,-0.1267171596257608,-0.10763366235777946,1.0168279331682437,6.621779428615066,0.8896200182714635
1730865957.5335631,-1.7332777976989746,1.0601274967193604,-9.740081787109375,0.0934173668312144,-0.12306078014164495,-0.10790027054012671,1.018085937532416,6.619755902559525,0.8893538641292755
1730865957.5835302,-1.7360866069793701,1.0578792095184326,-9.706241607666016,0.09590637790070741,-0.11919740505994808,-0.10797199434427622,1.0194028012496144,6.617657165909961,0.8890202976031751
1730865957.633568,-1.7078824043273926,1.0534155368804932,-9.675688743591309,0.0982895758731499,-0.11513913219945024,-0.10784650802261612,1.0193517703257597,6.6107744149063015,0.8898749382736009
1730865957.683474,-1.7233083248138428,1.0290294885635376,-9.678693771362305,0.10056929045485796,-0.11089930208532976,-0.1075220017228885,1.0200520594734126,6.609043981617098,0.8897189176688277
1730865957.733404,-1.7296462059020996,1.0342074632644653,-9.693284034729004,0.10274641911429332,-0.10649218282793155,-0.10699758694819565,1.023459039262157,6.5971241582711375,0.8898830683303257
1730865957.7834828,-1.7782323360443115,1.0552161931991577,-9.738544464111328,0.10482037659734769,-0.10193269214821175,-0.10627342706575986,1.0245947672420708,6.593839090575266,0.889733844699333
1730865957.833414,-1.7782323360443115,1.0552161931991577,-9.738544464111328,0.10678911806133043,-0.0972362841954587,-0.10535092761584802,1.0258021094055654,6.590476890983909,0.8895173366050265
1730865957.8834038,-1.8970963954925537,1.1459044218063354,-9.80887222290039,0.10864901264184386,-0.09241901962291561,-0.10423302241332189,1.0270650625168936,6.587087447144913,0.8892376743258027
1730865957.933347,-1.8970963954925537,1.1459044218063354,-9.80887222290039,0.11039455695097339,-0.08749782470920586,-0.10292446508279932,1.0276552858092174,6.581438483551649,0.8900568379873088
1730865957.983341,-1.93211030960083,1.2210768461227417,-9.855461120605469,0.1120180511388504,-0.082490861580956,-0.10143208746093554,1.0283611402134565,6.579359473398061,0.8899237002647175
1730865958.0332818,-1.8952357769012451,1.1917591094970703,-9.863088607788086,0.1135095529109495,-0.07741781245436662,-0.09976495769698798,1.032540345337303,6.566183980701825,0.8902866419911533
1730865958.0833924,-1.8420480489730835,1.143674373626709,-9.883455276489258,0.11485727806945874,-0.07229986026470803,-0.09793441751217159,1.033848984211902,6.562457582843628,0.8901910687854324
1730865958.1332362,-1.7618697881698608,1.129366159439087,-9.8805570602417,0.11604844623259865,-0.06715916636667098,-0.09595384443742896,1.036191986091881,6.550751600273503,0.8899146347743015
1730865958.1833367,-1.694387674331665,1.115341305732727,-9.905627250671387,0.11707049020610372,-0.062017922656672705,-0.09383786187915957,1.0373357030472228,6.546772411429872,0.8897143743089936
1730865958.2332082,-1.6100733280181885,1.094612956047058,-9.931663513183594,0.11791237392703813,-0.05689742122948663,-0.09160132061997399,1.0385503339339177,6.542764606929667,0.8894566482705915
1730865958.2832747,-1.5418109893798828,1.0807050466537476,-9.972339630126953,0.11856574421910798,-0.05181747968170433,-0.08925883335132107,1.040362149138508,6.532446423021523,0.8894697017988117
1730865958.3331993,-1.499990701675415,1.0729589462280273,-10.015694618225098,0.11902580157034606,-0.04679617716334287,-0.0868249852900242,1.0431613893886218,6.517897916652692,0.8891445958688677
1730865958.383289,-1.4388550519943237,1.0682786703109741,-10.016959190368652,0.11929186320876778,-0.04184974216727224,-0.08431474199086214,1.0442270470497055,6.513475645450967,0.8889285983284787
1730865958.4332135,-1.4234479665756226,1.0768064260482788,-10.036955833435059,0.1193676373616685,-0.03699254381616502,-0.08174371663687369,1.04726533752352,6.496920563223748,0.8884346683475777
1730865958.4831707,-1.4432932138442993,1.1116139888763428,-10.005428314208984,0.11926120193155998,-0.032237213245743995,-0.07912819766293444,1.0486261244928732,6.490855246506868,0.8881253514286319
1730865958.5341525,-1.5085569620132446,1.1484904289245605,-9.962830543518066,0.11898456293154633,-0.027594942924780756,-0.07648491213963249,1.0500844404195162,6.484676793549007,0.887761314405004
1730865958.5831633,-1.5824558734893799,1.1850098371505737,-9.87814998626709,0.11855271955387929,-0.02307594895638903,-0.07383048445677887,1.05023552670651,6.486135108301595,0.8878496708597432
1730865958.6341417,-1.7026240825653076,1.1562330722808838,-9.797066688537598,0.11798234275938403,-0.01868992499898576,-0.0711805926605533,1.0510372944145294,6.483471164662208,0.8876259227599973
1730865958.6841717,-1.8434793949127197,1.0966352224349976,-9.701960563659668,0.11729027296264885,-0.01444622238434111,-0.06854910268091631,1.0518979216845252,6.480848110259396,0.8873623432319632
1730865958.7341104,-1.9647480249404907,1.0394996404647827,-9.635427474975586,0.11649207705341044,-0.010353627847935486,-0.06594766218599427,1.0528288078376806,6.478225089807264,0.8870576573341795
1730865958.7841659,-2.0362460613250732,0.9632866978645325,-9.589738845825195,0.1156008080367186,-0.006419823852777354,-0.06338571750531624,1.0526203965592449,6.476055758085898,0.8880481917731969
1730865958.8331368,-2.0580220222473145,0.9396564364433289,-9.595098495483398,0.1146260433093838,-0.00265070098003122,-0.060870455337346925,1.0531644995246472,6.474383495998144,0.8879583170480436
1730865958.8841126,-2.0260348320007324,0.9472898840904236,-9.640368461608887,0.11357343351028461,0.000950202452114351,-0.058406716222994856,1.0549379951419928,6.465304293226745,0.8882956486797068
1730865958.9341154,-1.9630955457687378,1.0134309530258179,-9.721592903137207,0.11244497738552181,0.004381799207703421,-0.05599733708117854,1.0555791887340544,6.463109188932669,0.8882412426001162
1730865958.984118,-1.895137906074524,1.0919886827468872,-9.815616607666016,0.11123992825726253,0.007644948508451831,-0.053644021807377554,1.0569437104876922,6.452868135223169,0.888530170932946
1730865959.0339692,-1.8222602605819702,1.1473636627197266,-9.905097961425781,0.10995602527236084,0.010741507326001678,-0.05134851701995487,1.057589574015361,6.450004795808259,0.8884997274855565
1730865959.0840662,-1.7455374002456665,1.1361726522445679,-9.956357955932617,0.10859076674545708,0.013673352382275294,-0.049113790789226654,1.059564574191221,6.4418301848514155,0.8887656761415273
1730865959.1339521,-1.700907826423645,1.1482601165771484,-10.000899314880371,0.1071425535658333,0.016441797397863465,-0.04694492584540886,1.060467307437219,6.438549404006738,0.8887594053443991
1730865959.1839936,-1.7207727432250977,1.1174755096435547,-10.020934104919434,0.10561152024821126,0.01904749287957845,-0.044849590908908575,1.0614410802848435,6.435264539293027,0.8887242647245176
1730865959.233999,-1.7523990869522095,1.134559988975525,-9.988039016723633,0.10399974124064734,0.021490630807966916,-0.04283783339914245,1.0612042402105788,6.429097470912974,0.8914206284533124
1730865959.2839696,-1.8286563158035278,1.1376848220825195,-9.950651168823242,0.10231059495790804,0.02377127610941449,-0.0409207116369836,1.0617167184335483,6.426805643245518,0.891707814676444
1730865959.3339097,-1.8731988668441772,1.1633003950119019,-9.883402824401855,0.1005475878446139,0.025889624986922443,-0.03910817761261693,1.0631757509644035,6.415731433503528,0.8941923152295168
1730865959.3839538,-1.87714421749115,1.2097761631011963,-9.829784393310547,0.09871332729698129,0.0278459987677668,-0.03740746904821113,1.0644641268620647,6.406220775742787,0.8965399783399238
1730865959.43391,-1.8527741432189941,1.2444229125976562,-9.779115676879883,0.09680907739185261,0.02964055865384095,-0.03582237014435597,1.0650445097906986,6.403163475033753,0.8971686183944578
1730865959.483997,-1.7791498899459839,1.2536530494689941,-9.761033058166504,0.09483491905426121,0.03127291837721652,-0.03435288135438131,1.0656953519744725,6.400069266492873,0.8977868495188086
1730865959.5338774,-1.7433054447174072,1.2289862632751465,-9.7857084274292,0.09279037139882752,0.03274191510915668,-0.03299517700215794,1.0661573114230176,6.383982350704569,0.8995259674844714
1730865959.583923,-1.7001326084136963,1.2023404836654663,-9.813427925109863,0.09067520165264986,0.03404571190302679,-0.031741971285844814,1.0666114135344316,6.380232630299668,0.9000102802225636
1730865959.6338441,-1.658395528793335,1.1724835634231567,-9.855494499206543,0.08849013439878964,0.03518219095530015,-0.03058324767983911,1.0680341585525706,6.362260950443573,0.9021644771092536
1730865959.6838272,-1.589672565460205,1.1396898031234741,-9.88569164276123,0.08623740944469724,0.03614946386586326,-0.029507155745592234,1.0693198606485783,6.3460903975270355,0.9022029245889305
1730865959.733828,-1.5081108808517456,1.1046420335769653,-9.922158241271973,0.08392132966140867,0.03694637283247782,-0.028500889777514752,1.0699320327154178,6.340206099364679,0.9024082806788939
1730865959.7838185,-1.4295170307159424,1.1049782037734985,-9.95274543762207,0.08154859949910404,0.03757288908363241,-0.027551491709992118,1.0705930837562534,6.334373933709149,0.9025950609094867
1730865959.833836,-1.4276865720748901,1.1359474658966064,-9.951932907104492,0.07912779495834829,0.038030230902542414,-0.026646590839072726,1.0713034518558857,6.3285727136330685,0.902764689568057
1730865959.8838398,-1.4848183393478394,1.1582427024841309,-9.916403770446777,0.07666803213110783,0.03832061489809364,-0.025774930520122828,1.0709148773176564,6.323015317307378,0.9019137345075071
1730865959.9337692,-1.5948827266693115,1.1681678295135498,-9.850994110107422,0.07417773386105947,0.03844683910184869,-0.02492640786291574,1.0722658108004575,6.3088092207364355,0.9016586435108911
1730865959.9839382,-1.7093874216079712,1.1369863748550415,-9.79179573059082,0.07166366680102552,0.03841198887904966,-0.02409159675098098,1.0727590854498774,6.304488739139216,0.9015958073675551
1730865960.0338023,-1.8193243741989136,1.1080282926559448,-9.737626075744629,0.06912985280887245,0.03821942706006436,-0.02326102125209649,1.0741326705695247,6.289713822677726,0.9013925432825579
1730865960.083812,-1.884267807006836,1.1029753684997559,-9.714607238769531,0.06657646613715988,0.03787302688963025,-0.02242448610196876,1.0746657279616616,6.2851961702849986,0.901313125645418
1730865960.1337838,-1.9105286598205566,1.1115912199020386,-9.716594696044922,0.06399910206552678,0.037377412124967195,-0.021570680349579145,1.0752362193274394,6.280730537946165,0.901220463053676
1730865960.1837988,-1.9257912635803223,1.116139531135559,-9.744019508361816,0.061388618651772045,0.03673800571679081,-0.020687165721975792,1.075849869461007,6.266387276818042,0.9011601568014597
1730865960.2337227,-1.9447674751281738,1.1083884239196777,-9.78177261352539,0.05873147626641533,0.03596092439598152,-0.019760740090762806,1.0762803747179739,6.2620104576523286,0.9010889210654572
1730865960.28374,-1.942165493965149,1.0875669717788696,-9.824285507202148,0.0560103324123928,0.035052886489704525,-0.018778059865596018,1.0774197596561557,6.247700332352539,0.9009605021674016
1730865960.3336928,-1.9253342151641846,1.0885087251663208,-9.844911575317383,0.05320519372189125,0.03402120562797274,-0.017726442334183672,1.0779129237865523,6.242820746393556,0.9008824939392371
1730865960.383695,-1.8715403079986572,1.0781447887420654,-9.8873929977417,0.0502959721881608,0.032873781560681575,-0.016594864135767724,1.0784424028799076,6.237922993894959,0.9007931288322559
1730865960.4336674,-1.8378441333770752,1.0401469469070435,-9.917705535888672,0.047265825310296,0.031619058876852735,-0.015374965752722947,1.0789996133377189,6.233070056556266,0.9006942516851363
1730865960.48365,-1.7672381401062012,1.032460331916809,-9.951805114746094,0.04410330233138028,0.030266078133430116,-0.014061687034736332,1.0797328555864132,6.225917463102551,0.8977448852803426
1730865960.5337403,-1.7021394968032837,1.0370874404907227,-9.975760459899902,0.040802937137402705,0.028824602591704655,-0.012653477854939307,1.0800844028183612,6.223119157652471,0.8974146936182029
1730865960.5838394,-1.65043306350708,1.073177456855774,-10.0149564743042,0.037365366572182555,0.027305100910281113,-0.011152313212535368,1.0825258376088784,6.220336634929951,0.8941697946212354
1730865960.6337297,-1.6014059782028198,1.14634108543396,-10.020565032958984,0.03379739275575905,0.025718422039410018,-0.009563636049310207,1.0832006377557981,6.217582013925047,0.8934096688719277
1730865960.6836996,-1.5850491523742676,1.22859787940979,-9.987622261047363,0.030111861260401475,0.02407512686054205,-0.007896158490307534,1.085428797298144,6.214836427001459,0.890585003114722
1730865960.733647,-1.6096011400222778,1.2526041269302368,-9.945744514465332,0.026327256914983402,0.022384614850388417,-0.006161367585320085,1.0861980719011042,6.212098108056734,0.8896954629507339
1730865960.7837098,-1.665219783782959,1.2559261322021484,-9.857342720031738,0.022466910322709192,0.020654409697305406,-0.004372677744594068,1.0869806826281327,6.209380062813988,0.8888048454172806
1730865960.8336103,-1.7471556663513184,1.2027697563171387,-9.769553184509277,0.018557777578285233,0.018889945163792637,-0.002544297547318588,1.0877764023555982,6.206673342471749,0.8879117312332581
1730865960.8836133,-1.8258168697357178,1.1118991374969482,-9.667461395263672,0.014628820869102215,0.017094976626447458,-0.0006900820420079172,1.0879266707842765,6.203969160193241,0.8868551233228195
1730865960.9335773,-1.8815194368362427,1.0185134410858154,-9.608986854553223,0.010709067246659841,0.015272580898270612,0.0011771503964870544,1.0883555874328212,6.201298415554395,0.886283733810514
1730865960.9835758,-1.8734042644500732,0.954424262046814,-9.58102798461914,0.0068257997138942905,0.013426461093795382,0.0030458061183259023,1.0902983774361747,6.198620548476358,0.8836301128081033
1730865961.033538,-1.824157476425171,0.9195178747177124,-9.613903045654297,0.0030035840177773604,0.011562070766651722,0.004905637911050497,1.090792946858833,6.195953205757243,0.8829824255506374
1730865961.0836797,-1.7324042320251465,0.9404146075248718,-9.695297241210938,-0.0007356556592488241,0.009687210569254688,0.006747745714414345,1.0912915252609725,6.193274771377905,0.8823340941472256
1730865961.133535,-1.6441199779510498,0.9858413338661194,-9.814929962158203,-0.004371843616131021,0.007811997714045877,0.008564040221371284,1.0931068056762445,6.190631511250742,0.8862618980625233
1730865961.1836119,-1.5686087608337402,1.074684739112854,-9.920032501220703,-0.007885660053108916,0.005948246854436026,0.0103461509801234,1.093580231706255,6.187970752169905,0.8865499699312194
1730865961.2334654,-1.542607307434082,1.151999592781067,-10.003628730773926,-0.011257537182076026,0.00410841238491803,0.01208414501212308,1.0953687424297416,6.185323515598747,0.8895934072703086
1730865961.283573,-1.5542049407958984,1.2301385402679443,-10.041191101074219,-0.014467078685141582,0.002304343892188261,0.013765480837006131,1.0959336546545924,6.182662358809817,0.8902987655758668
1730865961.3333614,-1.6225168704986572,1.2406723499298096,-10.066964149475098,-0.017493093387535175,0.0005461718506451511,0.015374470520847564,1.096481073422638,6.180037962737321,0.8910036234064406
1730865961.3834236,-1.7253564596176147,1.2138913869857788,-10.027120590209961,-0.020314275429980006,-0.0011583491617255788,0.01689231139822307,1.0970222742440372,6.177386632705986,0.8917257287692906
1730865961.4334004,-1.7253564596176147,1.2138913869857788,-10.027120590209961,-0.022910405504678738,-0.0028038007160838736,0.018297934552400613,1.097543864179836,6.174732292093918,0.8927493527527373
1730865961.4834306,-1.8791604042053223,1.118408203125,-9.90227222442627,-0.025263835141566084,-0.004386334624326693,0.0195701420870606,1.097819108420575,6.172073741876483,0.8931724200231168
1730865961.5334456,-1.8791604042053223,1.118408203125,-9.90227222442627,-0.02736094454488988,-0.005902515996926028,0.020690451011566042,1.0996112068998636,6.1694140482541355,0.8959728739929183
1730865961.5833516,-1.7904411554336548,0.9940613508224487,-9.860814094543457,-0.029193019966143204,-0.007348302150889403,0.02164501752346355,1.1016561104945701,6.166745146052622,0.8991179970739052
1730865961.6333067,-1.6464136838912964,0.9628157019615173,-9.86606502532959,-0.03075593945901525,-0.008718294213583156,0.02242510147795558,1.1023691162007585,6.164083011347118,0.9002836025063894
1730865961.683353,-1.5627888441085815,0.9482263922691345,-9.848698616027832,-0.03204872917094456,-0.010005150991889053,0.02302682247773685,1.1030643961776454,6.161407716766128,0.9014666426278991
1730865961.7333167,-1.562458872795105,0.9341247081756592,-9.841981887817383,-0.033071841250098016,-0.01119932174594529,0.023450755502789036,1.1037383019740172,6.158729577065715,0.902662556742919
1730865961.783527,-1.5797141790390015,0.9555282592773438,-9.840194702148438,-0.03382604115987469,-0.012289199467108611,0.02370148454845495,1.1026885533441477,1.7005275619485165,0.8993471686639238
1730865961.8334281,-1.656130313873291,1.0449622869491577,-9.828990936279297,-0.03431219590234186,-0.01326161902999497,0.02378714768857228,1.1028668649584188,1.6381696664149052,0.899558518283027
1730865961.883437,-1.7408385276794434,1.130565881729126,-9.812065124511719,-0.03453176492954321,-0.014102757354429687,0.023718999997290983,1.103024584416303,1.5754719371990697,0.8997858538939012
1730865961.933372,-1.8037424087524414,1.1793253421783447,-9.80042552947998,-0.034487679683531836,-0.0147993630947343,0.023511039785931238,1.1031598550854402,1.5131641929972632,0.9000264180180388
1730865961.9834905,-1.8700915575027466,1.1633671522140503,-9.820185661315918,-0.034185141968583015,-0.015339913551373407,0.02317947912743332,1.1028995703829263,1.620953231384464,0.8987936417279223
1730865962.0333447,-1.9134926795959473,1.100498914718628,-9.80792236328125,-0.03363184159743093,-0.01571529454736087,0.022741618694958533,1.1029352677984852,1.6104849539120771,0.8988347297659416
1730865962.083408,-1.9817607402801514,0.9967160820960999,-9.799867630004883,-0.03283773745284849,-0.015918756502672708,0.02221442755052313,1.1031207257332687,1.6272376572164808,0.8984750131165196
1730865962.1332574,-2.009242534637451,0.8998187184333801,-9.762540817260742,-0.031815023718464855,-0.015945104647626593,0.0216137714942768,1.1031537643675486,1.6245583235742467,0.8984701941795323
1730865962.1833553,-2.0146119594573975,0.8520634174346924,-9.732019424438477,-0.03057834863022224,-0.015789483991975366,0.020954484525154388,1.1033956117715014,1.6314800932189963,0.8982327906281025
1730865962.2332752,-1.9653370380401611,0.8578269481658936,-9.763777732849121,-0.029144815207448365,-0.015446376859183623,0.020250711151005407,1.10357647273996,1.6333034323480993,0.8980357356384285
1730865962.2832632,-1.8760980367660522,0.9307280778884888,-9.811843872070312,-0.027533469200741487,-0.01490927176358962,0.019516023863608324,1.1036072536285169,1.6331052499333558,0.8980038560660689
1730865962.3331802,-1.7786275148391724,1.0387083292007446,-9.875558853149414,-0.025764270738820528,-0.014171145201687971,0.018763115718314197,1.1036213313061416,1.6328986600079263,0.8979840047883365
1730865962.3832405,-1.7020138502120972,1.1243410110473633,-9.926508903503418,-0.023856758702287807,-0.013225588101724365,0.018003180368200932,1.1036199284964705,1.632682308847164,0.8979755708756433
1730865962.4332123,-1.6601722240447998,1.1989141702651978,-9.964488983154297,-0.021828782171395025,-0.012068149175522439,0.017245256353262177,1.1037921989786652,1.63458447311276,0.8980013305964221
1730865962.4832904,-1.6342209577560425,1.2611186504364014,-9.975395202636719,-0.01969562200356016,-0.010697471777138062,0.016495760399532773,1.1037934092897659,1.634580017021269,0.8980168308736697
1730865962.5331616,-1.622498869895935,1.2675787210464478,-9.962905883789062,-0.017469816569125017,-0.00911592831192278,0.015758467633967196,1.1042511323969908,1.6351799346782625,0.89819390236811
1730865962.5832772,-1.639206886291504,1.2061913013458252,-9.937066078186035,-0.015162014601253385,-0.007329446266801551,0.015035209277436172,1.1043051552684953,1.6352267326338172,0.8982423110549225
1730865962.6331246,-1.6860491037368774,1.1449236869812012,-9.880510330200195,-0.01278245600885438,-0.005346531042394178,0.01432705411310957,1.1043499665773286,1.6352691409848172,0.8982994062708478
1730865962.6834114,-1.7109571695327759,1.0855287313461304,-9.83228588104248,-0.010342090804412398,-0.0031770155195826625,0.013635346259155929,1.1047926020109502,1.635777849275745,0.8984181287458285
1730865962.7330935,-1.709753394126892,1.0741137266159058,-9.788422584533691,-0.007853022193191044,-0.0008310172953232819,0.012962397447420159,1.1048638237029633,1.6358559563189616,0.8984730692179672
1730865962.7832174,-1.6724727153778076,1.0828081369400024,-9.795247077941895,-0.005328529089905439,0.001681719276263892,0.012311949127809056,1.105209584683499,1.635930813056408,0.9015498523333535
1730865962.8330767,-1.6206578016281128,1.0981696844100952,-9.837224006652832,-0.002782728485432245,0.004352036401079287,0.011689305129347622,1.1053025129571534,1.636011348749796,0.9022089582437955
1730865962.8830912,-1.5427521467208862,1.13316011428833,-9.84755802154541,-0.0002298871326376201,0.007171215690828958,0.011101027462914081,1.1056271743574697,1.636091929065744,0.9049599285044341
1730865962.933006,-1.5629488229751587,1.1618047952651978,-9.863628387451172,0.0023164096618810575,0.010130634741710267,0.010554391583337652,1.1057334050462357,1.636179619583776,0.9057960300668809
1730865962.9830446,-1.629149079322815,1.215698003768921,-9.845447540283203,0.004843794510095131,0.013221329844860009,0.010056919514536975,1.105841872310031,1.6362746138080453,0.9066385505718183
1730865963.0340078,-1.6967530250549316,1.2590280771255493,-9.838217735290527,0.007340977248885074,0.016433508827017333,0.009616140066402105,1.1059565317668387,1.6363811606427894,0.9075049090032425
1730865963.084012,-1.7413307428359985,1.2730633020401,-9.82457160949707,0.009797164782750093,0.01975608995494973,0.009239414652611536,1.1061396415935996,1.636498163334078,0.9049899326361045
1730865963.1339903,-1.7646113634109497,1.2583575248718262,-9.81188678741455,0.012201730793479769,0.023176448988547378,0.008933494532172669,1.1062244968550297,1.6366271473308984,0.9051245193132136
1730865963.1839724,-1.7786732912063599,1.2127102613449097,-9.802888870239258,0.014544316502479155,0.026680543367914332,0.008703918207315657,1.106814777513646,1.6367744998961213,0.9043640303512556
1730865963.233917,-1.8130278587341309,1.14822256565094,-9.807696342468262,0.01681491752648743,0.0302534297780174,0.008554741434443722,1.106974171388035,1.6369368935562387,0.9043383234977711
1730865963.2838762,-1.809478998184204,1.100132703781128,-9.810400009155273,0.01900374789540475,0.033880056599848205,0.008488630174612549,1.1071448618625674,1.6371194180503144,0.9043179126530956
1730865963.333905,-1.797210454940796,1.1131501197814941,-9.829365730285645,0.02110110905678867,0.037546065498570536,0.008506982283299786,1.1078130423004253,1.6373281000286914,0.9038524140574085
1730865963.383851,-1.7991148233413696,1.125964879989624,-9.836786270141602,0.023097442920731792,0.041238258692141816,0.008609954468297045,1.1079857182492812,1.6375579300961343,0.9038106704267675
1730865963.4338167,-1.7826963663101196,1.1695894002914429,-9.845488548278809,0.02498351271822797,0.04494459031297794,0.00879644674641612,1.1088653923712335,1.63782057077996,0.9004150669392331
1730865963.4838102,-1.7767739295959473,1.2048052549362183,-9.856528282165527,0.026750604953552557,0.04865381549468014,0.009064102920007928,1.1091419320128366,1.6381063496561978,0.8997154183434353
1730865963.5337822,-1.8129676580429077,1.1983704566955566,-9.851751327514648,0.028390681328201578,0.052355036775934255,0.00940935221242934,1.1097201083455461,1.6384417287920219,0.8967817908738962
1730865963.5838563,-1.865580439567566,1.1427628993988037,-9.82577133178711,0.029896336397996964,0.05603745011054182,0.009827529362274852,1.1099782283171646,1.6387838708650309,0.8959401880417857
1730865963.633715,-1.881205439567566,1.0834192037582397,-9.824111938476562,0.0312606118117912,0.059690371543538984,0.010313121134036641,1.1102781047243153,1.6391929138348522,0.8950355148334374
1730865963.68373,-1.881205439567566,1.0834192037582397,-9.824111938476562,0.03247711403927721,0.06330313630797042,0.010860066942342409,1.1106654661260809,1.6396057669156991,0.8968130251230054
1730865963.7337158,-1.8265241384506226,1.0528087615966797,-9.850543975830078,0.033540572455339285,0.0668647274959692,0.011461952007166303,1.1108733886102564,1.640086594059375,0.8966599843597916
1730865963.7837036,-1.7715882062911987,1.0776413679122925,-9.877630233764648,0.03444745236863636,0.07036361107389186,0.012112006447202974,1.1110908387678322,1.6405833554509552,0.8965223293494994
1730865963.8336518,-1.7354477643966675,1.0973707437515259,-9.941924095153809,0.03519644963367668,0.07378788138790587,0.012802907224206926,1.1115969732356752,5.511287879451736,0.8972654236912001
1730865963.8837056,-1.689695954322815,1.1317925453186035,-9.966397285461426,0.03578891366790292,0.07712533049591974,0.013526422933563504,1.11181777485617,5.592437698304681,0.8972796481590678
1730865963.9335935,-1.6389662027359009,1.1293141841888428,-9.971222877502441,0.03622916340938427,0.08036335514170118,0.014273061825985775,1.1120590285383514,5.672918398656822,0.8973023948215796
1730865963.9836588,-1.6623183488845825,1.1505361795425415,-9.938908576965332,0.03652465488682494,0.083488892037275,0.015031977971975814,1.1124889652835193,5.98622377941424,0.9006688765787795
1730865964.0335605,-1.685981035232544,1.114296793937683,-9.907242774963379,0.036685861048007105,0.0864884949224651,0.015791262714455138,1.1127030803772564,6.06235700746868,0.9011570906800896
1730865964.0836053,-1.7127622365951538,1.098321795463562,-9.828071594238281,0.03672575224419061,0.0893485942097064,0.016538558778586742,1.113093840375693,5.9906326893522746,0.9042761167860828
1730865964.1335196,-1.7381293773651123,1.0863145589828491,-9.812661170959473,0.03665904588494695,0.09205591007616806,0.017261855281079645,1.1133077520888877,6.007914845965514,0.9051084005817004
1730865964.1835907,-1.7394286394119263,1.1070185899734497,-9.751754760742188,0.036501356312229366,0.09459786295059716,0.017950199337948964,1.113694667614049,5.965469195300986,0.9113250654217323
1730865964.2335656,-1.7783422470092773,1.099996566772461,-9.74980354309082,0.03626812142415016,0.09696285142279074,0.018594035882368902,1.113902793447491,5.96790035288691,0.912900521219585
1730865964.2834716,-1.775434136390686,1.1180026531219482,-9.734968185424805,0.03597346572835437,0.09914039626371393,0.019185213739150674,1.1141340916804834,5.97040046794045,0.9144928528361661
1730865964.3334875,-1.775434136390686,1.1180026531219482,-9.734968185424805,0.03562953161264586,0.10112116998921873,0.019716930656519447,1.1142761417871516,5.945398231302079,0.9181943450477544
1730865964.3834748,-1.8024729490280151,1.096219539642334,-9.761283874511719,0.03524638887106613,0.10289697224651159,0.02018369164606816,1.1144272133880306,5.944789850501094,0.9193035978605244
1730865964.4334664,-1.8024729490280151,1.096219539642334,-9.761283874511719,0.03483213310200667,0.10446077252579233,0.020581169347539233,1.1149424580004101,5.931271709427907,0.924655821559926
1730865964.4834557,-1.8906596899032593,1.113863468170166,-9.796687126159668,0.034392888184154445,0.1058068048749402,0.02090595405499146,1.115133499088215,5.929367605227134,0.9260600732528861
1730865964.533443,-1.8843986988067627,1.1354656219482422,-9.818350791931152,0.03393264298387991,0.10693054948837588,0.02115525256692683,1.115345176198121,5.927537426901241,0.9274720464853461
1730865964.5834439,-1.8520234823226929,1.1645499467849731,-9.829914093017578,0.033453097048904756,0.10782853301624423,0.021326566409514462,1.1155781480598652,5.92577249687486,0.9288987812581776
1730865964.6334517,-1.8085271120071411,1.176212191581726,-9.861815452575684,0.03295387709353567,0.10849803613206857,0.021417406296182804,1.1155023826485926,5.9168639492688575,0.9286015370784202
1730865964.6834452,-1.7181299924850464,1.1627516746520996,-9.876137733459473,0.03243322944175746,0.10893685588212394,0.0214250670489236,1.1156402545461361,5.915070462552564,0.929311638939769
1730865964.7333987,-1.6924563646316528,1.1392431259155273,-9.905946731567383,0.0318889325507791,0.10914329410697826,0.021346568806663496,1.1159759808480074,5.904510754378601,0.9297776908999479
1730865964.7834475,-1.6710063219070435,1.1597439050674438,-9.915834426879883,0.03131903190153047,0.10911642057945255,0.021179022053907495,1.1161366114444817,5.901861916254094,0.9302423463965017
1730865964.8333828,-1.6623401641845703,1.1732234954833984,-9.910504341125488,0.030722180421398067,0.10885635703077626,0.020920263002339103,1.1163254785714474,5.899147791919351,0.9307443720935824
1730865964.8834436,-1.664509892463684,1.188157320022583,-9.918722152709961,0.03009773664060241,0.10836429613523901,0.020569219486804315,1.1165222920015792,5.896650832200833,0.9312310258486323
1730865964.933397,-1.6572636365890503,1.1673773527145386,-9.908549308776855,0.02944579407231017,0.10764233597925577,0.020125902090739986,1.1164713808542834,5.889382396699264,0.9275802062877474
1730865964.9834638,-1.6591688394546509,1.130024790763855,-9.90406608581543,0.028767157233926012,0.10669342283776469,0.019591306798079217,1.1165830109821722,5.887606159693569,0.927479899680484
1730865965.0333724,-1.6591688394546509,1.130024790763855,-9.90406608581543,0.028063281740864702,0.10552151348227809,0.018967360812296958,1.1168618703994577,5.877114014572103,0.9248851064824051
1730865965.0834715,-1.6542800664901733,1.1127800941467285,-9.890379905700684,0.0273362010964592,0.1041317991853061,0.0182568848774085,1.1173114407805305,5.865969988499774,0.9227412183863477
1730865965.1333466,-1.6624219417572021,1.1077226400375366,-9.87459659576416,0.026588448408360638,0.10253082223694336,0.017463573041179452,1.1174935253836458,5.862385247391863,0.9220949897346088
1730865965.183495,-1.6803877353668213,1.1172305345535278,-9.872438430786133,0.025822952040156187,0.10072647436993495,0.01659201177507444,1.117693283180141,5.858840356167124,0.9214551323516219
1730865965.2333581,-1.6642932891845703,1.1443051099777222,-9.851571083068848,0.02504288514799369,0.09872787195593838,0.015647708127249665,1.1178593558537593,5.851254979169487,0.920299907346275
1730865965.2835011,-1.676072597503662,1.1518168449401855,-9.866317749023438,0.024251520639498612,0.09654509163306879,0.014637046292997042,1.1179866790549295,5.848947872677285,0.9199158601708267
1730865965.3333554,-1.676072597503662,1.1518168449401855,-9.866317749023438,0.023452107987839945,0.09418888404156915,0.013567069562606088,1.1184585756356804,5.837284862504184,0.9200530880074616
1730865965.3832452,-1.7406500577926636,1.1670211553573608,-9.839791297912598,0.02264768539607647,0.09167048412895934,0.01244515266531546,1.118636308358322,5.834000840077977,0.9199245849296773
1730865965.4331973,-1.7592371702194214,1.1434805393218994,-9.807424545288086,0.021840753873452346,0.08900149267877458,0.011278856265908792,1.119175517540238,5.82308070648754,0.9199227726104258
1730865965.4832108,-1.7919294834136963,1.1425443887710571,-9.786770820617676,0.02103287169922987,0.08619381439444895,0.01007607875473098,1.1193858066624969,5.8195176949377245,0.9198594780105547
1730865965.5332005,-1.8289555311203003,1.1339582204818726,-9.734051704406738,0.020224307404542282,0.08325967203563951,0.00884533925902436,1.1196095935130548,5.815996562639641,0.9198018840544595
1730865965.5832748,-1.906752586364746,1.1017496585845947,-9.722082138061523,0.019413739826918155,0.08021166168880699,0.007596066003105731,1.1198933353729275,5.806910192765861,0.919766117215644
1730865965.6332035,-1.9440362453460693,1.0649313926696777,-9.711519241333008,0.018597880814148912,0.07706287328001625,0.006338813032982557,1.120061484118028,5.803921334675651,0.9197322107973697
1730865965.6832056,-1.954621434211731,1.0486096143722534,-9.747272491455078,0.017771102475969938,0.0738271133400117,0.005085262788375085,1.1192897345342443,5.790976030285028,0.9195826044135346
1730865965.733109,-1.9300211668014526,1.0519165992736816,-9.785317420959473,0.01692534826178573,0.0705191038574517,0.0038479139857606967,1.119228875251039,5.786920375876695,0.9195369158311264
1730865965.7832572,-1.8917458057403564,1.0662336349487305,-9.863221168518066,0.01605048358516393,0.06715447922069481,0.0026394639388267922,1.1191804012969924,5.783057559783905,0.919494921524296
1730865965.8331983,-1.8261340856552124,1.0515388250350952,-9.917787551879883,0.015135155463191293,0.06374948530736943,0.0014720180784356456,1.1191407800084954,5.779174792766928,0.9194535361780539
1730865965.8832433,-1.8261340856552124,1.0515388250350952,-9.917787551879883,0.01416821189780176,0.060320380283886574,0.0003564256254996262,1.1186317811030337,5.774880252817858,0.9193902066251944
1730865965.9331484,-1.6438817977905273,1.0134690999984741,-9.997303009033203,0.013140336840655086,0.05688281725505752,-0.0006980783051056128,1.118585888258952,5.772819979630595,0.9193654902647332
1730865965.9832146,-1.6068297624588013,1.0392526388168335,-10.010113716125488,0.012045433300036561,0.053451593541986295,-0.0016841391881287277,1.1180981304497608,5.758532064071751,0.9191891802634093
1730865966.0331244,-1.5930547714233398,1.1113393306732178,-9.983500480651855,0.01088158647152389,0.05004061728341226,-0.0025965668352988997,1.117996337522683,5.754709964234015,0.9191401097010392
1730865966.0831685,-1.6152253150939941,1.2080261707305908,-9.939994812011719,0.009651394884537754,0.046662562453892976,-0.003432320524488613,1.1175803363240213,5.744707787170964,0.9187891619247338
1730865966.1329873,-1.6628810167312622,1.2549554109573364,-9.904179573059082,0.008361560418040698,0.04332809463372051,-0.004190038556333789,1.1174672496535039,5.741158168646828,0.9186960884062002
1730865966.183079,-1.7237470149993896,1.2498868703842163,-9.840123176574707,0.007021976211318571,0.04004510069661236,-0.004869330179806658,1.117357886681319,5.73760018564515,0.9185992674192245
1730865966.232996,-1.7540323734283447,1.1959750652313232,-9.810408592224121,0.005644601441303987,0.03681843251649809,-0.0054700390110987585,1.117057353194713,5.726192653137323,0.918560255446022
1730865966.282932,-1.7540323734283447,1.1959750652313232,-9.810408592224121,0.004242417020452249,0.0336502868113634,-0.005991626717018127,1.1164661524846662,5.710819106185921,0.9184005895067949
1730865966.3329697,-1.7739691734313965,1.080772876739502,-9.734260559082031,0.002828705249765028,0.03054096219894599,-0.006432785042446371,1.116310168194595,5.706326925374069,0.9183393136707055
1730865966.3838212,-1.7863746881484985,1.0190056562423706,-9.72805404663086,0.001416588018889841,0.027489792024647,-0.006791335734285175,1.1156002522725401,5.693645706763108,0.9179404273724717
1730865966.4338863,-1.7863746881484985,1.0190056562423706,-9.72805404663086,1.858909825042408e-05,0.024496083125802554,-0.007064654136635083,1.1153584090568545,5.688608215268463,0.917802116936425
1730865966.4838243,-1.7485802173614502,0.980993390083313,-9.72205638885498,-0.0013537342761187178,0.021559743557753815,-0.007250524745542761,1.1151174350078839,5.683611882612756,0.9176600695629961
1730865966.5338418,-1.7739217281341553,0.9647471904754639,-9.749009132385254,-0.0026898728250708557,0.01868156119100444,-0.007347748291575074,1.1152081650752022,5.676836922640996,0.9175551863990657
1730865966.5839176,-1.776928424835205,1.0090956687927246,-9.792386054992676,-0.003980272825119008,0.01586331809099402,-0.007356321102051495,1.1151083304900702,5.673751273596046,0.9174719818974405
1730865966.6337254,-1.7719019651412964,1.0469619035720825,-9.85647201538086,-0.005216322509911912,0.013107654671057256,-0.007277642886135033,1.11475207270112,5.659318699191285,0.9173626746067983
1730865966.6840096,-1.742720127105713,1.0767850875854492,-9.918389320373535,-0.006390356877470722,0.010417601354640468,-0.007114950516157167,1.1146235921409062,5.655062652228509,0.9172946318218438
1730865966.733826,-1.7308605909347534,1.0838773250579834,-9.983128547668457,-0.007495517546464229,0.007796020666235049,-0.0068738581603572735,1.11444478170169,5.645166414138058,0.9171671222476456
1730865966.7839155,-1.7244657278060913,1.1198302507400513,-10.016728401184082,-0.008525517047947927,0.005245201172899304,-0.00656284428137301,1.114341832125947,5.641282265778325,0.9171014954896769
1730865966.8337839,-1.7244657278060913,1.1198302507400513,-10.016728401184082,-0.009474461372707502,0.0027666033830399785,-0.00619351011285091,1.115085319634909,5.627616421204989,0.9169840220141102
1730865966.8839517,-1.6949405670166016,1.091368556022644,-10.003122329711914,-0.010336765688770365,0.0003607404038083982,-0.005780462517455761,1.1151484758059953,5.623843601821811,0.9169313928423956
1730865966.9338105,-1.6541407108306885,1.079060673713684,-9.937772750854492,-0.011107155821193938,-0.001972660924751314,-0.005340595895481839,1.1158662863513267,5.612222419057216,0.9173639453852902
1730865966.9837117,-1.6971153020858765,1.0559735298156738,-9.882655143737793,-0.011780930042173109,-0.00423414441966802,-0.004891481479302136,1.1160049168672308,5.608432752720149,0.917420646799576
1730865967.0336804,-1.7184339761734009,1.0200108289718628,-9.829143524169922,-0.01235453649763227,-0.006423878729017281,-0.0044492855552009745,1.1172432024309482,5.595636046536846,0.9178445940914891
1730865967.0837424,-1.7796587944030762,0.9819168448448181,-9.78043270111084,-0.012826157723325411,-0.008541148898891975,-0.0040272543901184975,1.1176112656522992,5.590430642784406,0.9179698945728981
1730865967.1336548,-1.7767276763916016,0.9837790727615356,-9.749464988708496,-0.013196091674139744,-0.010584033597859439,-0.003635053442453699,1.117968038993178,5.585264338782445,0.9180917235708045
1730865967.1838517,-1.7815088033676147,1.03798508644104,-9.75819206237793,-0.013466920787710154,-0.012549325191172706,-0.003278572731977636,1.1183999301914316,5.577659266299391,0.9180456506329181
1730865967.2337184,-1.7815088033676147,1.03798508644104,-9.75819206237793,-0.0136434291708167,-0.014432816101892433,-0.002960052710779962,1.1186020508443257,5.5742985665033284,0.9180915644561968
1730865967.283684,-1.7306779623031616,1.2181533575057983,-9.794438362121582,-0.013732288184782325,-0.016229948498426704,-0.002678516773308053,1.1187958044173254,5.5709258356746005,0.9181357581237863
1730865967.3336196,-1.73723566532135,1.2622041702270508,-9.825244903564453,-0.013741577297116463,-0.017936830756213225,-0.002430414270703239,1.1189815732129924,5.567531871843015,0.9181784926297684
1730865967.3837023,-1.7728885412216187,1.2536513805389404,-9.841352462768555,-0.013680304958409769,-0.019551382493573695,-0.0022103659096115906,1.1196699605390634,5.563213765317027,0.9182219248672887
1730865967.4336104,-1.7957485914230347,1.2329119443893433,-9.852080345153809,-0.013558201998239896,-0.021073951773729286,-0.0020118566256812536,1.119837846831284,5.560932347649201,0.9182501210554156
1730865967.4835632,-1.8130037784576416,1.187165379524231,-9.869086265563965,-0.013385656425249862,-0.022507036191956317,-0.001827822592150626,1.1208677085422014,5.5446680150585115,0.9182142149737714
1730865967.5335834,-1.8403993844985962,1.1168467998504639,-9.861696243286133,-0.013173292716588018,-0.02385423955730684,-0.0016512589685941277,1.1210864123065776,5.541092058420103,0.9182197760567237
1730865967.5836523,-1.8365612030029297,1.1099493503570557,-9.855596542358398,-0.012931279185529082,-0.02511892082795977,-0.0014757770853298976,1.1229037670980486,5.523283678834395,0.9178168695793384
1730865967.6335382,-1.8015090227127075,1.1125519275665283,-9.858222961425781,-0.012668908476760665,-0.026303247294326537,-0.0012958487435044091,1.124567764545958,5.507780375183873,0.9174188385865991
1730865967.683565,-1.7416749000549316,1.0947171449661255,-9.853496551513672,-0.012394403880285669,-0.027407943791758045,-0.0011067708983271622,1.125123565806795,5.502142533784733,0.9172934182373054
1730865967.7336876,-1.707353949546814,1.0896289348602295,-9.870576858520508,-0.012114568510938555,-0.02843239031714066,-0.0009045897674768449,1.1256768073702554,5.496434222094908,0.9171661868977137
1730865967.7836096,-1.6856294870376587,1.0882185697555542,-9.87708854675293,-0.01183433012537431,-0.029374752758414207,-0.0006860915952399628,1.126214570070461,5.490790682798541,0.9170403046129258
1730865967.833548,-1.6856732368469238,1.1131680011749268,-9.89499282836914,-0.011556460017144131,-0.030232151508771593,-0.0004488591718482555,1.12650646454261,5.485889702490975,0.9169540389655132
1730865967.8835711,-1.6620116233825684,1.1451038122177124,-9.884458541870117,-0.011281553264883502,-0.031000968418672777,-0.00019134199213666287,1.126798357714933,5.4824376046995225,0.9168824143160382
1730865967.9334772,-1.6606212854385376,1.1801331043243408,-9.870457649230957,-0.011008158345219598,-0.03167731426848189,8.715582522428615e-05,1.128236456410389,5.46668559197541,0.9165666695026508
1730865967.9834714,-1.653437852859497,1.1797866821289062,-9.851520538330078,-0.010732949367086886,-0.032257547368297,0.0003866342056533425,1.1286646107990725,5.461757889400638,0.9164674415029277
1730865968.0334425,-1.6758476495742798,1.1824043989181519,-9.821070671081543,-0.010451080356759828,-0.032738659393461766,0.0007066355015251029,1.1290866006951017,5.456804795018162,0.9163684516409935
1730865968.0835173,-1.7237505912780762,1.1566532850265503,-9.81063461303711,-0.010157033726797085,-0.033118422967240164,0.00104641088815977,1.129503061241309,5.451820227700862,0.9162697940710637
1730865968.1334534,-1.7996176481246948,1.1426687240600586,-9.782665252685547,-0.009845873728585535,-0.03339531896606368,0.0014050057071701284,1.1300102411055348,5.447677949280331,0.9161727243276169
1730865968.1835039,-1.8628112077713013,1.1092867851257324,-9.77823543548584,-0.009514387374348867,-0.03356831084486463,0.0017814007337245254,1.1302417370761606,5.444977814775332,0.9161195589564581
1730865968.2334023,-1.8774480819702148,1.0935637950897217,-9.79169750213623,-0.009161843926121058,-0.03363654684272502,0.0021746948564494582,1.131991430315273,5.428732581269202,0.9157782444835236
1730865968.2834685,-1.8534674644470215,1.108945369720459,-9.822172164916992,-0.008790332621787413,-0.03359910641284626,0.0025841406263886458,1.133517450455666,5.410633503377696,0.9154012491584831
1730865968.3333826,-1.7973651885986328,1.1064001321792603,-9.855999946594238,-0.008404564256894703,-0.03345491968288082,0.0030089433066296176,1.134064105339658,5.404269434327346,0.9152728995510747
1730865968.3833833,-1.749116063117981,1.0848197937011719,-9.900351524353027,-0.008011165997856297,-0.033202835271256836,0.0034478924989065607,1.134603667362919,5.397907641643326,0.9151470256880258
1730865968.4334073,-1.6887575387954712,1.0780417919158936,-9.944061279296875,-0.007617717746429133,-0.032841656945824624,0.003898922564341073,1.1351420746946568,5.391480821045426,0.9150225845392984
1730865968.4834383,-1.660573959350586,1.0784896612167358,-9.943114280700684,-0.007231796044184027,-0.03237009813453768,0.00435870938422854,1.13531299719812,5.388501077157198,0.9151493264019358
1730865968.5333052,-1.6808581352233887,1.0688133239746094,-9.9386625289917,-0.006860251549780892,-0.03178675891155805,0.0048224715391416316,1.1364208146512516,5.372649102202429,0.9150047748652895
1730865968.5834394,-1.6925055980682373,1.0484857559204102,-9.91047477722168,-0.006508888993664544,-0.031090259685786395,0.005284169853990916,1.1367494825365592,5.368066771943589,0.9149606545414259
1730865968.6333168,-1.7340891361236572,1.0040960311889648,-9.874168395996094,-0.006182521612615493,-0.03027964259084174,0.005737209085397773,1.1383450491893827,5.356485434191889,0.9149872181145062
1730865968.6832635,-1.7513102293014526,0.9668171405792236,-9.831408500671387,-0.00588523850795096,-0.029354782415132192,0.006175420372059014,1.138783214381132,5.352466031135138,0.9149811267372234
1730865968.7332773,-1.7555934190750122,0.9132131338119507,-9.825553894042969,-0.005620742139104888,-0.028316320058468455,0.006593855136863808,1.139219721876735,5.348410698903675,0.914979009330881
1730865968.783267,-1.7511773109436035,0.8991687297821045,-9.808719635009766,-0.005392595845088572,-0.027165156216424548,0.0069891686618708156,1.1395702238140766,5.3364881418955274,0.9149977814877406
1730865968.833155,-1.7669599056243896,0.9138646125793457,-9.811017036437988,-0.005204304410262109,-0.025901983288721297,0.007359701874347309,1.139825805929925,5.332640351661344,0.9150044222057776
1730865968.8833268,-1.7647291421890259,0.9623916149139404,-9.817171096801758,-0.005059321645679462,-0.02452718657856588,0.007705391749166374,1.1400798785219695,5.328751099395358,0.9150158261090671
1730865968.9331322,-1.774051547050476,0.9942019581794739,-9.836055755615234,-0.004961066445069856,-0.023041154571731295,0.008027554174932441,1.1409719355800896,5.317744535727821,0.9150053534723275
1730865968.9830694,-1.7563841342926025,1.0308074951171875,-9.850176811218262,-0.004912919106653141,-0.021444809004781094,0.008328561387312864,1.1412106763050305,5.3144594420868385,0.915015722030282
1730865969.0331802,-1.7418923377990723,1.052126407623291,-9.863423347473145,-0.00491813753293428,-0.019740110026657022,0.008611472583239459,1.1414502796711103,5.3111071715460225,0.9150315723999821
1730865969.0830772,-1.7634446620941162,1.1164103746414185,-9.859697341918945,-0.004979708573975344,-0.017930452504810054,0.008879705471862148,1.1416844136340611,5.307776584945506,0.9150527094549127
1730865969.1331055,-1.7613576650619507,1.1499154567718506,-9.857751846313477,-0.005100199558378303,-0.01602093986613746,0.009136773858946788,1.142484201439931,5.296103342058472,0.9148127141017937
1730865969.1830616,-1.7668864727020264,1.152148723602295,-9.854114532470703,-0.005281552824686127,-0.01401836307115175,0.009386013846622188,1.1438512026694028,5.277698105195337,0.9146322857880347
1730865969.2330203,-1.7597706317901611,1.146106243133545,-9.849930763244629,-0.005524814185404224,-0.011930832336203198,0.009630315836322265,1.1442065934088559,5.272755270304277,0.914600741164792
1730865969.2830868,-1.7832831144332886,1.1196283102035522,-9.831854820251465,-0.005830006173981472,-0.009767338678433582,0.009872028069359131,1.145644493654152,5.258256848364424,0.9144059736246427
1730865969.3329446,-1.7911642789840698,1.0579688549041748,-9.824539184570312,-0.006196251584336484,-0.007537350711191089,0.010113069819714007,1.1460527364458162,5.2535861588192985,0.914367842999074
1730865969.3830001,-1.793712854385376,1.0126854181289673,-9.833224296569824,-0.006622016257946919,-0.005250273541283803,0.010355104237126482,1.1480199189251739,5.238441102204244,0.911556250438738
1730865969.432937,-1.7517714500427246,1.0202561616897583,-9.849518775939941,-0.007105278421853984,-0.0029148215212304197,0.010599615205291697,1.1485302471178513,5.233802090775265,0.9110472924431111
1730865969.4829564,-1.7155946493148804,1.0792349576950073,-9.881749153137207,-0.007643466528681253,-0.0005386696122533554,0.010847819719630107,1.1503464259855967,5.21778938063986,0.9083139954390285
1730865969.532836,-1.6973638534545898,1.1483683586120605,-9.885079383850098,-0.008233177681660167,0.0018713276764385856,0.011100456508431101,1.1509160205136257,5.212559592617194,0.9075874238341843
1730865969.5827827,-1.6990910768508911,1.1914793252944946,-9.90003490447998,-0.00886989885298567,0.004308449143309121,0.011357577761312132,1.151481720379711,5.207318528577264,0.9068660200129699
1730865969.6338701,-1.7048535346984863,1.1952179670333862,-9.894710540771484,-0.009547938590690575,0.006765367636828582,0.01161844876305465,1.152056237884218,5.201943971900329,0.9061332031568837
1730865969.6838133,-1.7279154062271118,1.140415906906128,-9.889106750488281,-0.010260623453011443,0.009233777260185668,0.0118816008334509,1.1526079343167723,5.196729655826184,0.9054289425795725
1730865969.7338028,-1.727390170097351,1.0967813730239868,-9.850716590881348,-0.011000720731339737,0.011704564993056646,0.012145094469746258,1.1525943646039354,5.199084582688644,0.9028513868390264
1730865969.7837937,-1.7448590993881226,1.0502889156341553,-9.854978561401367,-0.011760924950252449,0.014168397229131262,0.012406949276457914,1.1528512204654897,5.196776117971578,0.9023022085858032
1730865969.8337355,-1.7205950021743774,1.0371060371398926,-9.837763786315918,-0.01253418126643344,0.01661640868446804,0.012665516097079978,1.1549930634920367,5.181730398778597,0.8974663749197297
1730865969.8838043,-1.7044275999069214,1.004769206047058,-9.838481903076172,-0.01331375570133289,0.019040737663146155,0.01291965448635788,1.155532728083987,5.1775898465031185,0.8962870074178536
1730865969.9337204,-1.6762114763259888,1.0011883974075317,-9.852025985717773,-0.014093101405787324,0.02143484521480158,0.013168765664597334,1.1560582317883406,5.173505038034048,0.8951280551336201
1730865969.9836867,-1.6579885482788086,0.9812003374099731,-9.872231483459473,-0.014865622236000232,0.023793671664273396,0.013412704439030095,1.1565756030206842,5.169427550552842,0.8939754522408754
1730865970.0337353,-1.6579885482788086,0.9812003374099731,-9.872231483459473,-0.015624455615187228,0.026113679843060084,0.013651579036565713,1.1575193381135371,5.159920689297959,0.8919392863135476
1730865970.0836577,-1.7302862405776978,0.9892690777778625,-9.866273880004883,-0.016362444007321036,0.028392799149191246,0.01388555803652242,1.157834014174643,5.157132640008465,0.8912332238225085
1730865970.1336935,-1.7561147212982178,1.0005706548690796,-9.84821891784668,-0.017072460173996783,0.03063025555359988,0.014114811524095501,1.1600220161243662,5.143213099526962,0.889313622298703
1730865970.1836424,-1.7561147212982178,1.0005706548690796,-9.84821891784668,-0.017747961372462387,0.032826310613883254,0.014339587110529328,1.160567720951158,5.126753944530352,0.8867809562889418
1730865970.2335315,-1.7292639017105103,1.0034098625183105,-9.847564697265625,-0.018383357685833907,0.03498189943546664,0.014560274208138695,1.1609073878659628,5.120514960423467,0.8857833134267364
1730865970.283596,-1.7082710266113281,1.0320013761520386,-9.856908798217773,-0.01897396061421418,0.03709801763270022,0.014777282470175259,1.161234932598613,5.114307142558699,0.884796208460219
1730865970.3336132,-1.7297741174697876,1.0265306234359741,-9.872505187988281,-0.019515695994093203,0.03917495656999561,0.014990766780273283,1.161552015567346,5.108092533036195,0.8838135612045118
1730865970.3835676,-1.7297741174697876,1.0265306234359741,-9.872505187988281,-0.020004917106394474,0.04121184625552936,0.015200400098656367,1.161056192048693,5.110955734048644,0.8865339165632521
1730865970.4335475,-1.7507237195968628,1.0402652025222778,-9.899032592773438,-0.02043843505531609,0.0432066455647086,0.015405269046914938,1.1611501787414997,5.108242270260841,0.8863753347801613
1730865970.4835615,-1.7441734075546265,1.067531943321228,-9.886956214904785,-0.02081364220911054,0.04515626035282687,0.01560382468554998,1.1612312702709595,5.105555436764344,0.8862264115512059
1730865970.5335526,-1.7646288871765137,1.0706843137741089,-9.89332103729248,-0.021128611523302865,0.04705656884422413,0.015793879049970594,1.1634885034936444,5.098570043163377,0.8868501507142058
1730865970.583584,-1.8092890977859497,1.0768513679504395,-9.85693645477295,-0.02138220108127098,0.04890241548708458,0.01597271028070285,1.1637721079444405,5.096545289511438,0.8868356076752723
1730865970.6335008,-1.8451093435287476,1.0780317783355713,-9.835271835327148,-0.02157427944908062,0.05068768474187543,0.01613731596258333,1.1640478677464117,5.094512220078245,0.8868307565750583
1730865970.6835158,-1.8778879642486572,1.068177342414856,-9.794242858886719,-0.021706073934175125,0.05240546587207582,0.01628479681967267,1.1663429510848045,5.080735552516577,0.8869698364907129
1730865970.7335863,-1.8792659044265747,1.0619271993637085,-9.761591911315918,-0.021780474222569218,0.054048281562167774,0.016412802770469553,1.1667839803426627,5.077692539654522,0.8869852415765359
1730865970.7835293,-1.8781741857528687,1.0342954397201538,-9.767451286315918,-0.021802000408648242,0.05560838197307777,0.0165198619924798,1.168690795699982,5.064657550022521,0.8872160769791125
1730865970.8334446,-1.8452465534210205,1.0448501110076904,-9.792409896850586,-0.021776147268945962,0.05707809088891913,0.01660529745514616,1.1705167242906105,5.051995318461535,0.8874046487196358
1730865970.8834481,-1.7909832000732422,1.0523160696029663,-9.833215713500977,-0.02170829680190908,0.05845009566522955,0.016668704731947908,1.1711760425959914,5.0473012771561265,0.8874871739940356
1730865970.9334626,-1.7380390167236328,1.0403714179992676,-9.891928672790527,-0.02160276428685294,0.05971757723533451,0.016709323429211373,1.1718228099895514,5.042637081254859,0.8875802690235071
1730865970.9834626,-1.6841381788253784,1.027842402458191,-9.939653396606445,-0.02146215331276699,0.060874268462441115,0.01672547458004482,1.172456234231171,5.038009600038204,0.887683858896867
1730865971.0333781,-1.598343849182129,1.0370818376541138,-9.97574520111084,-0.021286825073753807,0.06191455939135927,0.01671404462362744,1.172823126654298,5.036135701725476,0.887639723300345
1730865971.083417,-1.5712602138519287,1.0332560539245605,-9.993497848510742,-0.021074394072604183,0.06283359272309225,0.016670106077439944,1.1731501967390896,5.03376020637117,0.887697046644963
1730865971.133399,-1.550557255744934,1.039259433746338,-9.944525718688965,-0.020819377994751122,0.06362728058775237,0.016586832980972223,1.1750523314979282,5.022247565644022,0.8878340876126654
1730865971.1834455,-1.5575945377349854,1.0153611898422241,-9.915091514587402,-0.020513190867275863,0.0642922978930899,0.016455829522177678,1.1755854288125678,5.018756519170573,0.8879067507839082
1730865971.233443,-1.6128383874893188,0.9890211224555969,-9.859123229980469,-0.020144540408441554,0.06482615528255709,0.016267823217499713,1.17610594488572,5.015304996698541,0.8879896602772069
1730865971.283348,-1.700724482536316,0.9786924719810486,-9.800239562988281,-0.019700233329079404,0.06522738624245294,0.016013518915287097,1.1766131307159586,5.011900035076341,0.8880824910122194
1730865971.3333108,-1.7688379287719727,1.0146944522857666,-9.755945205688477,-0.019166453617258244,0.06549569123920829,0.01568444992299571,1.1769661509916045,5.008123346934263,0.8878439040251743
1730865971.3833656,-1.7688379287719727,1.0146944522857666,-9.755945205688477,-0.01853040073307795,0.06563181028453499,0.015273666477075893,1.1789533989155372,4.995800037094507,0.8876484418758189
1730865971.433279,-1.8217395544052124,1.0340009927749634,-9.765320777893066,-0.01778172956936003,0.06563717536112207,0.01477607414927486,1.179490128029135,4.99232403953402,0.8876321469179186
1730865971.48329,-1.782911777496338,1.0537012815475464,-9.80487060546875,-0.01691325250759572,0.06551358680519685,0.014188373981243566,1.1831711311379567,4.979694509286156,0.8874111157868946
1730865971.5332751,-1.7525897026062012,1.0612386465072632,-9.85537052154541,-0.015920908644889178,0.06526298106201225,0.013508683009396342,1.184174123534457,4.9756292300697265,0.8873762653190467
1730865971.5832372,-1.7406247854232788,1.1116029024124146,-9.87990665435791,-0.014803287141472814,0.06488721634112632,0.012735955651920348,1.1851644415841538,4.971617073593936,0.8873497114511022
1730865971.633259,-1.770524501800537,1.115897536277771,-9.90289306640625,-0.013561060529587747,0.06438782668046278,0.011869403316207325,1.1861517055680701,4.967621808132896,0.8873307334585767
1730865971.683197,-1.7900440692901611,1.1545110940933228,-9.899785995483398,-0.012196668212336864,0.06376576529086891,0.010908103111740784,1.1876308275598253,4.9656913296218,0.8873928781304816
1730865971.7331789,-1.7900440692901611,1.1545110940933228,-9.899785995483398,-0.010714271252879395,0.06302121174582037,0.009850852166059229,1.1890200540059088,4.954481513577008,0.8874014831252818
1730865971.783353,-1.8653908967971802,1.1624170541763306,-9.862640380859375,-0.009119800931394542,0.062153493167058996,0.008696241255346468,1.1895430301317644,4.951336453154551,0.8874118850877836
1730865971.8332534,-1.84821355342865,1.119704008102417,-9.858514785766602,-0.007421059363517498,0.061161173133867146,0.00744290426158171,1.1900574032549702,4.948250555332074,0.8874272532390174
1730865971.8832345,-1.8270213603973389,1.114829421043396,-9.805334091186523,-0.00562771742903946,0.06004244223456047,0.006089913849384246,1.190568932648084,4.945195110614329,0.8874468791689841
1730865971.9334147,-1.793975830078125,1.0453251600265503,-9.822367668151855,-0.0037508586137975043,0.05879592802161685,0.004637312909722521,1.1913506850101105,4.939008032681183,0.887600720322341
1730865971.9832606,-1.7209333181381226,1.0137131214141846,-9.828447341918945,-0.0018020999673416843,0.057421728644024776,0.003086580555932452,1.191670028571262,4.937058796985585,0.8876295024261275
1730865972.0332992,-1.6012029647827148,0.9719731211662292,-9.870986938476562,0.0002074086324704254,0.055922224759987205,0.0014406966425130224,1.1934618835684034,4.924880595466749,0.887811844329394
1730865972.0832047,-1.5673483610153198,0.9927900433540344,-9.874567985534668,0.002268029254110466,0.0543024454973126,-0.0002962004417127655,1.1939904752151433,4.921485608458308,0.8878627509924134
1730865972.133241,-1.5617990493774414,1.0194441080093384,-9.915316581726074,0.004372528750791088,0.052570002098276725,-0.002119277343191665,1.1956081948331783,4.910626016364219,0.8880182619828118
1730865972.1831715,-1.576568603515625,1.0584110021591187,-9.886327743530273,0.006516431592820608,0.05073463053856604,-0.004023391211371097,1.1961818037477534,4.906943036315341,0.8880699694231836
1730865972.2332606,-1.631142258644104,1.0728533267974854,-9.91388988494873,0.008697759788105622,0.04880750402508237,-0.006003315668424107,1.1967640940618018,4.903266209854976,0.8881188808759387
1730865972.283102,-1.7173388004302979,1.079965353012085,-9.86382007598877,0.01091632261421828,0.04680057813967008,-0.008053791644904473,1.1976325849850893,4.896956358324696,0.8880211720460666
1730865972.3331964,-1.82231605052948,1.1077828407287598,-9.826631546020508,0.013172648245207768,0.0447261102927619,-0.010169393159099621,1.198001585866973,4.894641192675642,0.8880228708179436
1730865972.383157,-1.8533849716186523,1.1184059381484985,-9.800682067871094,0.015466734726432844,0.0425962997407401,-0.012344196145486104,1.20033498109249,4.882695241979076,0.8880021103140172
1730865972.4330823,-1.8954871892929077,1.0949914455413818,-9.761144638061523,0.017797062562195626,0.040422987817885475,-0.014571415219538926,1.200991775131688,4.879271341528904,0.8879894437861828
1730865972.4830406,-1.8989217281341553,1.0262970924377441,-9.779446601867676,0.020160257778596084,0.03821753603277162,-0.016843268483495218,1.2016570729101799,4.875889124168204,0.8879670698571652
1730865972.5331557,-1.8536771535873413,1.0082930326461792,-9.78778076171875,0.022551325015878136,0.035991030509089375,-0.01915113583203984,1.202345503089667,4.872481699420913,0.8879329564232505
1730865972.5831227,-1.783974289894104,1.004658818244934,-9.84261703491211,0.02496417660645545,0.03375467507957478,-0.021485907585443755,1.2031416323599495,4.867903454042235,0.8879859668019812
1730865972.6330674,-1.783974289894104,1.004658818244934,-9.84261703491211,0.027392330226936983,0.03152003563761012,-0.02383843186408744,1.2059306450093006,4.851847430244841,0.8879831272927386
1730865972.6830595,-1.7219197750091553,1.080628514289856,-9.910914421081543,0.029829594520707024,0.029298953863174576,-0.026199991221228028,1.2083093683490278,4.838144503500993,0.8908467333794943
1730865972.7331333,-1.7219197750091553,1.080628514289856,-9.910914421081543,0.032270573979582835,0.027103142012356796,-0.028562753421815086,1.2094998088327449,4.831571455372776,0.891669456957988
1730865972.7830756,-1.6880874633789062,1.1303209066390991,-9.951221466064453,0.03471100417744899,0.024943626313112408,-0.03092015141157766,1.2107046616511754,4.8250507029752425,0.8924690790142912
1730865972.8330402,-1.6880874633789062,1.1303209066390991,-9.951221466064453,0.03714794206324454,0.022830275331757566,-0.033267130947443845,1.211933621376712,4.818535898436552,0.8932497498522581
1730865972.8830557,-1.6928538084030151,1.1137971878051758,-9.93874454498291,0.039579802418033674,0.020771537714785248,-0.03560022259668848,1.2131840132507645,4.812047829530106,0.8940073830594121
1730865972.9329422,-1.7044410705566406,1.0738990306854248,-9.894899368286133,0.04200623350492647,0.01877446910294993,-0.037917379007269734,1.2105245135871452,4.8233692330439855,0.8941938272211462
1730865972.9829872,-1.7288248538970947,1.0470776557922363,-9.854463577270508,0.04442769422487402,0.01684501909730343,-0.04021745156584867,1.2109199239956403,4.8212871197425,0.8945053394024819
1730865973.0330038,-1.782965898513794,1.0143132209777832,-9.822835922241211,0.04684447902145241,0.014988342978588837,-0.04249925479366558,1.2113439139353193,4.819215082403636,0.8947909183466095
1730865973.082945,-1.8363450765609741,1.0109021663665771,-9.767317771911621,0.04925538881826629,0.013209009045227066,-0.044760510768186004,1.2131731283303953,4.810396399153683,0.8971370446382199
1730865973.132889,-1.8869452476501465,0.9894759058952332,-9.760782241821289,0.05165671432453521,0.01151118073103646,-0.046997125678005736,1.2137641684735685,4.80774387791584,0.8976204085157172
1730865973.1829495,-1.8473352193832397,1.0347927808761597,-9.739604949951172,0.05404183200557588,0.009898757749777939,-0.04920292106341467,1.2143899741246909,4.805090206326104,0.8980751487313975
1730865973.232936,-1.816389560699463,1.0465000867843628,-9.774761199951172,0.05640135784799989,0.008375325901664494,-0.05136970305162536,1.2155317889165742,4.796848078562107,0.8999066462309594
1730865973.2828844,-1.783855676651001,1.0769073963165283,-9.79489803314209,0.05872378444755489,0.006943897473672255,-0.05348761550758545,1.217485274597818,4.7848382132947425,0.902322178257453
1730865973.3328242,-1.7646828889846802,1.053520679473877,-9.82564926147461,0.060996328323810814,0.005606633461361149,-0.055545716957645486,1.2181321129964546,4.781449165531577,0.9029325110495503
1730865973.3828576,-1.7351040840148926,1.0145779848098755,-9.854711532592773,0.06320569237619769,0.004364782895420654,-0.057532635517635086,1.2188175397216257,4.77806485290833,0.9035071409982787
1730865973.432912,-1.683071255683899,0.9749651551246643,-9.900102615356445,0.06533871123470428,0.0032189498208155015,-0.05943719997313666,1.2195453228732422,4.774673354961739,0.9040466168155186
1730865973.4828544,-1.6453770399093628,0.9578630328178406,-9.910890579223633,0.06738298337617224,0.0021695685112503877,-0.06124902369408352,1.2203106985257746,4.771301544597855,0.90454553224151
1730865973.532847,-1.649688720703125,0.9565423130989075,-9.945751190185547,0.0693273928175014,0.001217238561963248,-0.06295890473232264,1.221119167727104,4.7679287429817405,0.9050060202468331
1730865973.5828483,-1.6442580223083496,0.9954084157943726,-9.940225601196289,0.07116220135226299,0.0003625636568435973,-0.06455883257851583,1.220169053654915,4.766655052907876,0.9026127405158897
1730865973.632834,-1.6689367294311523,1.0497392416000366,-9.937795639038086,0.07287872530571196,-0.00039447344221407536,-0.0660416993709754,1.2205255493137117,4.7649570107097174,0.9025934722012282
1730865973.682793,-1.6859419345855713,1.0834542512893677,-9.915569305419922,0.07446898477345991,-0.0010552030655942744,-0.0674010448042034,1.2226162574922201,4.755461816709215,0.902240546338923
1730865973.7328548,-1.71327543258667,1.1262437105178833,-9.893120765686035,0.0759254704730446,-0.001622772662791373,-0.06863090524358534,1.2231771130286826,4.7532311673116,0.9021379704546582
1730865973.782775,-1.7269731760025024,1.1472166776657104,-9.872698783874512,0.07724093464179231,-0.0021024641690355478,-0.06972563616619323,1.2237891633550178,4.750985150093399,0.9019917237441805
1730865973.8327966,-1.735066294670105,1.1401067972183228,-9.833118438720703,0.07840821557204261,-0.002501820676773074,-0.07067968336145422,1.2244087494230338,4.738910685154822,0.9023332399165972
1730865973.8827624,-1.717958927154541,1.1496965885162354,-9.815305709838867,0.07942018005252109,-0.002830533799723784,-0.07148733599204832,1.2248393708554013,4.736194743898127,0.9022590824076956
1730865973.9327734,-1.6673269271850586,1.18075430393219,-9.812365531921387,0.08026987120546292,-0.003100175049869411,-0.0721425197851935,1.2263160006300697,4.725852588205445,0.902731909829864
1730865973.9827108,-1.718985915184021,1.200554609298706,-9.816550254821777,0.08095083501266837,-0.003323975723316674,-0.0726387418552572,1.2268987606147754,4.722584007136697,0.9027205825543264
1730865974.032757,-1.777178168296814,1.1863377094268799,-9.796299934387207,0.08145730031545227,-0.003516692419396621,-0.07296919988083689,1.2280466225955775,4.713209858827203,0.9029485643613068
1730865974.0837018,-1.8267006874084473,1.1075407266616821,-9.833602905273438,0.08178406418258109,-0.0036941817801375842,-0.07312706092785111,1.2286266289674543,4.70984749485408,0.9029084131310902
1730865974.1328225,-1.8129234313964844,1.0744457244873047,-9.833734512329102,0.08192658579651191,-0.003872214657581259,-0.07310608786327802,1.229236831172344,4.7065999860007315,0.9028246320969802
1730865974.1827915,-1.7848941087722778,1.034195899963379,-9.854951858520508,0.08188155312250547,-0.004064867667668083,-0.07290148561182212,1.229907263398688,4.703299361720443,0.9026943437400613
1730865974.2327878,-1.7069191932678223,1.0519814491271973,-9.866008758544922,0.08164749802199868,-0.004283451952560262,-0.07251045681837687,1.2300728841588653,4.6970071626671634,0.9031352739466274
1730865974.2827125,-1.7330290079116821,1.0380792617797852,-9.891645431518555,0.08122522038471172,-0.004536285527638482,-0.07193235951566385,1.2304968836592147,4.694606102478013,0.9030634271619437
1730865974.333654,-1.723747968673706,1.0607243776321411,-9.90710735321045,0.08061799877856193,-0.004828913911524147,-0.0711687479291734,1.2319464876242099,4.684791229703593,0.9033256940036904
1730865974.383695,-1.6333900690078735,1.1029419898986816,-9.92292594909668,0.07983157110502129,-0.00516450743034365,-0.0702234069973299,1.2324737783346082,4.682007380288004,0.9032671222816314
1730865974.4336932,-1.7185343503952026,1.0912126302719116,-9.885492324829102,0.07887408286412588,-0.005544381858751151,-0.06910229685789132,1.2330510063237285,4.679218506994423,0.9031649546507909
1730865974.4835937,-1.7632367610931396,1.0811116695404053,-9.884361267089844,0.07775588809544345,-0.00596847728214177,-0.06781329808744083,1.233488819080821,4.668484937383074,0.9031439888673078
1730865974.533778,-1.7660847902297974,1.066494345664978,-9.817702293395996,0.07648890995803,-0.006435594678782984,-0.06636574669451367,1.2338721853346566,4.665877981730971,0.9030298234048996
1730865974.583637,-1.76335608959198,1.0730304718017578,-9.786660194396973,0.07508588984600931,-0.006943445830731591,-0.06476981984700056,1.234969180644842,4.655131585234949,0.902930378017325
1730865974.6336203,-1.755035638809204,1.0663394927978516,-9.755593299865723,0.07355990878679575,-0.0074887438332907645,-0.0630359280593029,1.2354332290940466,4.651948866534898,0.9027966443089848
1730865974.683558,-1.7797462940216064,1.05051851272583,-9.727736473083496,0.07192398540819069,-0.008067447976713374,-0.06117439469681095,1.2362064205057783,4.64176560994958,0.9029150632789759
1730865974.7336075,-1.7905184030532837,1.0506978034973145,-9.733460426330566,0.07019058235893262,-0.008675038825507466,-0.059195431773396624,1.2366431794525279,4.638313836466714,0.9028170202281932
1730865974.7834837,-1.7196898460388184,1.0897799730300903,-9.776664733886719,0.06837128758693649,-0.009306700337673501,-0.057109179895966956,1.237325194915223,4.62570418745683,0.9029243544223787
1730865974.8335426,-1.7713710069656372,1.1019127368927002,-9.835098266601562,0.06647688679287797,-0.009957526568872003,-0.05492586931295608,1.237685828358645,4.622290115556078,0.902840080682056
1730865974.8835092,-1.8028919696807861,1.1387075185775757,-9.852670669555664,0.0645175319623187,-0.010622848057567875,-0.052656224467754115,1.2369904069168254,4.607888133502262,0.9027384199854853
1730865974.9336016,-1.8285831212997437,1.182466745376587,-9.922863006591797,0.06250261012023928,-0.011298612227435733,-0.05031194367380917,1.2370758596267395,4.603695125857735,0.9026243390203013
1730865974.9834633,-1.8077365159988403,1.2220063209533691,-9.935257911682129,0.060440441037764164,-0.011981793197782743,-0.04790609389188599,1.2371990072046104,4.59951934521348,0.9024804105293828
1730865975.0335941,-1.8268399238586426,1.19771409034729,-9.958266258239746,0.05833815466336405,-0.01267075818017478,-0.045453374693832586,1.237360398907653,4.595301747474165,0.9023060385784262
1730865975.0834959,-1.7553056478500366,1.1827597618103027,-9.942646980285645,0.05620182577543392,-0.013365365776198858,-0.04297015879851936,1.2375561911216475,4.5911085733520185,0.9021054927106098
1730865975.1334362,-1.7702215909957886,1.131227731704712,-9.93575382232666,0.05403680318804534,-0.0140666789709239,-0.04047426284551546,1.2365046838659903,4.5906472184641185,0.9025228107449074
1730865975.1834197,-1.7350672483444214,1.0756663084030151,-9.8892240524292,0.05184809840538872,-0.014776379944800449,-0.037984378813187177,1.2365494773438144,4.58849502049806,0.9024353263397226
1730865975.2334309,-1.6980245113372803,1.014807939529419,-9.849322319030762,0.049640668555451406,-0.015495999534291247,-0.035518990994829566,1.2374603077375275,4.574670038069536,0.9023399461379354
1730865975.2833824,-1.74787175655365,0.9247363805770874,-9.83838939666748,0.04741958801134428,-0.016226057351772738,-0.03309504107317621,1.2377270110334577,4.57073323704988,0.9022406792087844
1730865975.3333728,-1.7218077182769775,0.9190731048583984,-9.835184097290039,0.04519009410121886,-0.016965255652675416,-0.03072705590558449,1.238510970081195,4.557936220386076,0.9021419436326003
1730865975.3833628,-1.710154414176941,0.9689270853996277,-9.809120178222656,0.04295751803922468,-0.017710016198836914,-0.028426939228281704,1.2388309034866,4.553537176580311,0.9020439360902793
1730865975.4333987,-1.6837084293365479,0.9878154993057251,-9.841340065002441,0.04072730020334335,-0.018454642309130628,-0.026204060818768523,1.2391891842983436,4.5426905565421904,0.9019602592325946
1730865975.483403,-1.650559425354004,1.0081390142440796,-9.836055755615234,0.03850517481880291,-0.019191951796777712,-0.024065462666850616,1.2394137512628611,4.539219423086357,0.9018797556173409
1730865975.5333564,-1.6746716499328613,1.0141290426254272,-9.857386589050293,0.03629738844780641,-0.01991393708204947,-0.022016184964654566,1.2415769422442924,4.525736568795847,0.9019542332807072
1730865975.5833364,-1.6851810216903687,1.004333734512329,-9.852632522583008,0.034110758104389946,-0.02061222087312847,-0.020059621755799794,1.2436179581123468,4.513641097255952,0.9019679561239413
1730865975.6333683,-1.6851810216903687,1.004333734512329,-9.852632522583008,0.03195249638763776,-0.021278304683941603,-0.01819781096637817,1.244368492773741,4.508985868722644,0.9019360625900859
1730865975.683324,-1.7228114604949951,1.0327458381652832,-9.875347137451172,0.02982993120332266,-0.021903712015887436,-0.01643165324452265,1.245135755177619,4.504332806562973,0.901893488500124
1730865975.7333395,-1.8088876008987427,1.0366780757904053,-9.752493858337402,0.027750203397154984,-0.022480213460637267,-0.014761139044883787,1.2459253435302098,4.499639915454477,0.9018408977921379
1730865975.7832942,-1.8492463827133179,1.0879586935043335,-9.823813438415527,0.02571992074255766,-0.023000254059806786,-0.013185686947084233,1.2463091560010857,4.4953236059068375,0.9017760735002509
1730865975.8332365,-1.8476037979125977,1.0733569860458374,-9.768607139587402,0.02374481396289857,-0.023457472956550807,-0.011704567676089652,1.2467680408258472,4.492398911883346,0.9017295466205943
1730865975.8832293,-1.7965223789215088,1.0459142923355103,-9.815152168273926,0.021829552606641944,-0.02384700889883267,-0.010317199780764333,1.2487271486098628,4.478918907926426,0.9015760126999435
1730865975.933179,-1.7969716787338257,1.0425485372543335,-9.871280670166016,0.01997787770284915,-0.024165408488606044,-0.009023288445541518,1.2508216975228352,4.469800032001414,0.9014077535482331
1730865975.9832678,-1.7303887605667114,1.079399585723877,-9.879664421081543,0.0181929897461065,-0.024410358456735833,-0.00782307559253428,1.2514880219185265,4.466451846151529,0.901344605456599
1730865976.0331671,-1.6776671409606934,1.154143214225769,-9.950304985046387,0.01647804773081788,-0.024580650091127476,-0.0067177321224454285,1.2521618612831447,4.463104991802288,0.9012772314508755
1730865976.0831647,-1.6643404960632324,1.210000991821289,-9.945380210876465,0.01483672563917432,-0.024676548443313295,-0.005709701764813207,1.2556762109709225,4.453495042025936,0.9011759833711489
1730865976.1330926,-1.6949403285980225,1.204162359237671,-9.977410316467285,0.013273614037376341,-0.024700335792361493,-0.0048029088526023896,1.2565298137570144,4.450451586241745,0.9011251211359699
1730865976.1830785,-1.715383529663086,1.1504161357879639,-9.959513664245605,0.011794195221785722,-0.024656553763485314,-0.00400277436067059,1.2603646405573634,4.441407602284132,0.9009740433886546
1730865976.2331274,-1.7309974431991577,1.0735752582550049,-9.935346603393555,0.010404456908771176,-0.02455162033289153,-0.0033160051735588994,1.2631995469391777,4.430563231514661,0.8983854673253151
1730865976.2831085,-1.751832365989685,1.0295008420944214,-9.867960929870605,0.009110376405111894,-0.02439293512501549,-0.00275002477987295,1.2643719787861971,4.426461463605793,0.8976826480559791
1730865976.333172,-1.7894331216812134,1.0231446027755737,-9.804779052734375,0.007917313613676591,-0.024187923637575187,-0.00231183260485528,1.2655552063203002,4.422325369742494,0.8969749702564097
1730865976.3830342,-1.7894331216812134,1.0231446027755737,-9.804779052734375,0.006829368214276965,-0.023943426995118693,-0.0020065993185862732,1.2663341076492918,4.4149012866757955,0.8953317143723789
1730865976.4331918,-1.7807178497314453,0.9962002635002136,-9.770801544189453,0.005848986267203569,-0.02366547387171903,-0.0018367578748646964,1.2669485565517757,4.412188533690835,0.8948483127190766
1730865976.4830334,-1.7849152088165283,0.9251965284347534,-9.751386642456055,0.004976954750657285,-0.023359137270353145,-0.0018017811502298382,1.2675572222099023,4.409501560635155,0.8943709744653362
1730865976.5330846,-1.784656286239624,0.8895010352134705,-9.759675979614258,0.004212590952495037,-0.023028200442891396,-0.0018982561948038131,1.268176745041804,4.406764826384817,0.8938862202466433
1730865976.583109,-1.7826882600784302,0.8732828497886658,-9.80506706237793,0.0035539329078579764,-0.02267470294957035,-0.002120128415914115,1.2697344826079218,4.402899892008114,0.8926463487286265
1730865976.6331296,-1.7952266931533813,0.8966658711433411,-9.827330589294434,0.0029978946971591213,-0.02229868912465665,-0.002459226282986529,1.270241607138403,4.401067202862627,0.8922656814121398
1730865976.6830444,-1.813761830329895,0.8992002606391907,-9.887080192565918,0.002540368290685253,-0.021898335042931857,-0.0029059985604414727,1.270745162280194,4.399239903267628,0.8918873194625839
1730865976.7331476,-1.7603381872177124,1.0126773118972778,-9.927574157714844,0.00217629839588875,-0.021470420301619202,-0.0034503116308397808,1.2715346284599935,4.387634601072787,0.8900306319886658
1730865976.7829556,-1.7603381872177124,1.0126773118972778,-9.927574157714844,0.001899886755628403,-0.02101109176721446,-0.0040821843565002755,1.273861024199082,4.374414630475307,0.887810275792278
1730865976.8330567,-1.752147912979126,1.1004984378814697,-9.94594955444336,0.0017049294300491115,-0.020516704960909897,-0.004792208632047054,1.2744958014403742,4.370673678319692,0.8871727730998077
1730865976.882986,-1.7777737379074097,1.0999888181686401,-9.936602592468262,0.0015850269220082892,-0.01998440197423912,-0.005571430428522897,1.2768905659498655,4.360332266196508,0.887632286704991
1730865976.9328961,-1.7552416324615479,1.0999363660812378,-9.89273738861084,0.0015335742318927895,-0.01941234900670526,-0.006410879458051378,1.2777118352313916,4.356394823271973,0.8875039209040091
1730865976.9829338,-1.7443795204162598,1.0299259424209595,-9.859451293945312,0.0015437513238114346,-0.018799697181882936,-0.007301113981337762,1.2785374160738099,4.352429369000278,0.8873707403240261
1730865977.0329692,-1.738450288772583,0.9913241267204285,-9.821126937866211,0.0016086675290217668,-0.018146219786356742,-0.008231869874583068,1.2793521172958866,4.346001309338907,0.8878997537478154
1730865977.0829315,-1.72636079788208,1.0042277574539185,-9.780694961547852,0.0017215716660186333,-0.01745174879969122,-0.009191753137404458,1.2798300301910648,4.3433583302350645,0.8878873415303727
1730865977.1329029,-1.7019740343093872,1.0301756858825684,-9.777835845947266,0.0018760398186938763,-0.016715811868490887,-0.010168004934317701,1.2819038308600663,4.3312520349793715,0.8879660690307999
1730865977.1829247,-1.7100615501403809,1.0236696004867554,-9.772236824035645,0.002066153869211632,-0.01593767422970644,-0.011146438594451762,1.2825544496599712,4.3275631886073995,0.8879522329534043
1730865977.2328663,-1.6848812103271484,1.0475960969924927,-9.79813289642334,0.0022866469770669827,-0.015116572857894573,-0.012111620621196981,1.2832092407417903,4.323848690685531,0.8879310501987046
1730865977.282879,-1.6928070783615112,1.0816024541854858,-9.839337348937988,0.0025329862417034148,-0.01425195318804502,-0.013047293925914593,1.2838612948375057,4.320149086402972,0.887902183092313
1730865977.3328586,-1.6928070783615112,1.0816024541854858,-9.839337348937988,0.0028013980359639632,-0.013343733221973936,-0.013936968559842378,1.2837267575233566,4.316921823739687,0.8879820176792905
1730865977.382834,-1.7058701515197754,1.1514695882797241,-9.901827812194824,0.0030887657763843225,-0.01239256190836997,-0.014764617212100567,1.2840156363201338,4.314894840841777,0.887962971429474
1730865977.4328403,-1.718064785003662,1.188222885131836,-9.899704933166504,0.0033923090416777078,-0.01140002401079672,-0.015515537146889174,1.2855465647805935,4.302813181444416,0.8879839957063117
1730865977.4828014,-1.7559535503387451,1.210862636566162,-9.879318237304688,0.003709126832953829,-0.010368862501353143,-0.016177188750838442,1.2860098164710596,4.299380252524279,0.8879630502764395
1730865977.5329611,-1.7530285120010376,1.21330988407135,-9.857230186462402,0.004035812268655816,-0.009303196903553555,-0.016739501898352847,1.2873974083269288,4.287158324180089,0.8879829035435521
1730865977.5827668,-1.771667242050171,1.2144695520401,-9.824956893920898,0.00436824896817622,-0.00820859125597196,-0.017194584043348532,1.2879609866349024,4.28256726966126,0.8879601981279396
1730865977.6327608,-1.7904527187347412,1.173574447631836,-9.815088272094727,0.00470154508734358,-0.007091895463870841,-0.017536223096455326,1.2885295529332512,4.27795386961416,0.8879265652648033
1730865977.6826727,-1.791128396987915,1.1400463581085205,-9.794534683227539,0.005030012685694247,-0.005960854681860809,-0.01775944394294464,1.291442799587824,4.273534607292553,0.8879801464892274
1730865977.732706,-1.7754602432250977,1.096877932548523,-9.804055213928223,0.005347201415390284,-0.00482353101076607,-0.017860192987657914,1.2920780059715313,4.27084730565689,0.8879552519089421
1730865977.7826765,-1.7451756000518799,1.0755596160888672,-9.820162773132324,0.005646089880743411,-0.0036876767180116115,-0.01783519118937863,1.2954163024638512,4.259349455509794,0.8879805380311776
