Timestamp,IMU_Linear_Acc_X,IMU_Linear_Acc_Y,IMU_Linear_Acc_Z,Filtered_X,Filtered_Y,Filtered_Z,Pose_X,Pose_Y,Pose_Z
1730865946.8840554,-1.6525182723999023,1.072100281715393,-9.886634826660156,-0.07749874235677738,-0.24127456134554245,0.16943434631077608,-0.01972579024732113,-0.0832614079117775,-0.019649745896458626
1730865946.9339588,-1.6460669040679932,1.1705397367477417,-9.888028144836426,-0.03824946128254915,-0.2676478957989781,0.5016726522806727,-0.02219243533909321,-0.09367021173238754,-0.022108344361186028
1730865946.9839773,-1.5448205471038818,1.3515266180038452,-9.916738510131836,-0.04059553645770843,-0.2912228050393063,0.578041887179182,-0.004378626123070717,-0.018481703475117683,-0.004361789207905531
1730865947.0338826,-1.4505513906478882,1.3764179944992065,-9.885746955871582,-0.06582578253676756,-0.31184267567328894,0.47598241409291786,-0.0017115551745519042,-0.007224213797599077,-0.0017042754916474223
1730865947.083904,-1.4505513906478882,1.3764179944992065,-9.885746955871582,-0.08987162040485593,-0.3375653708628841,0.29623179323639925,-0.0029840285424143076,-0.012592569924890995,-0.0029431283473968506
1730865947.083904,-1.483825922012329,1.3574954271316528,-9.83907413482666,-0.09374177828925513,-0.3753200046248558,0.12532563499591093,-0.003034280613064766,-0.012804490514099598,-0.0029912670142948627
1730865947.1338828,-1.5220105648040771,1.4168083667755127,-9.791072845458984,-0.07195897142095525,-0.42386216263773785,0.015945284603451754,-0.0019790339283645153,-0.00849457923322916,-0.0018100334564223886
1730865947.1838188,-1.466209888458252,1.5062932968139648,-9.781386375427246,-0.03299755085576404,-0.4759333889477151,-0.015737379657535255,-0.0035652900114655495,-0.01590503752231598,-0.0030990331433713436
1730865947.2339377,-1.466209888458252,1.5062932968139648,-9.781386375427246,0.00867025494711651,-0.5250679904909795,0.018204800683225393,-0.005179114639759064,-0.024555273354053497,-0.004382588900625706
1730865947.2339377,-1.6475468873977661,1.4503509998321533,-9.745635986328125,0.040788134759156075,-0.5684957905203694,0.09021351587903981,-0.005193134769797325,-0.024636752903461456,-0.004393610171973705
1730865947.2838902,-1.7597566843032837,1.3032793998718262,-9.741059303283691,0.05433458428313464,-0.6037474517551202,0.17050878189706162,-0.0008440669625997543,-0.00509018125012517,-0.0005588930798694491
1730865947.3337905,-1.6816997528076172,1.2365984916687012,-9.753911018371582,0.041989121992121375,-0.6245013897230193,0.23698433203934377,-0.0002782694937195629,-0.003278277348726988,0.00014268909581005573
1730865947.3838024,-1.757475733757019,1.2633165121078491,-9.788309097290039,0.0018493507973905924,-0.6222066093960279,0.2786901428421788,-0.00022080536291468889,-0.006718530785292387,0.0011579247657209635
1730865947.4338114,-1.9410609006881714,1.2342725992202759,-9.715015411376953,-0.05955506371957459,-0.5931232938269408,0.29445921889761,-0.0001290725776925683,-0.0029662817250937223,0.00080991315189749
1730865947.4836771,-1.7980672121047974,1.2204742431640625,-9.816902160644531,-0.1318106377526784,-0.5429531683111537,0.2900824888453997,-0.00042786472477018833,-0.006294088438153267,0.0022881238255649805
1730865947.5337312,-1.6201061010360718,1.2407430410385132,-9.861479759216309,-0.2037346212365745,-0.4842484716058644,0.2739663972871872,-0.0011473592603579164,-0.01090522762387991,0.004471718333661556
1730865947.5837328,-1.6417081356048584,1.2559638023376465,-9.932706832885742,-0.26063982682771913,-0.43063042869460916,0.25181844977539214,-0.0005346145480871201,-0.002674231305718422,0.0011782271321862936
1730865947.6336718,-1.4783844947814941,1.2720919847488403,-9.962823867797852,-0.2863496489004757,-0.3925125283711914,0.22463757302462953,-0.001745446352288127,-0.005333073437213898,0.0026169440243393183
1730865947.6836586,-1.4127205610275269,1.249739170074463,-9.95790958404541,-0.27094070318072644,-0.3747187792541943,0.19133426930947817,-0.0036712458822876215,-0.008984399028122425,0.004593612160533667
1730865947.7336457,-1.4345476627349854,1.2176520824432373,-9.960887908935547,-0.2151445487706334,-0.37548380223716177,0.15259818459471802,-0.0009414618834853172,-0.0021716367918998003,0.0010581731330603361
1730865947.7836764,-1.6071974039077759,1.2252144813537598,-9.856568336486816,-0.1313492619473411,-0.38747127721454394,0.11302257293851861,-0.002113453345373273,-0.0044497158378362656,0.002040617633610964
1730865947.8337014,-1.532752275466919,1.1856809854507446,-9.923158645629883,-0.0423873948461004,-0.40115443574217025,0.08040696046966614,-0.003503914922475815,-0.007720871362835169,0.0032664365135133266
1730865947.8835726,-1.49844229221344,1.2116985321044922,-9.878271102905273,0.026966705333522703,-0.4088334990219594,0.06200550680915834,-0.0006403916049748659,-0.001962837064638734,0.0007044283556751907
1730865947.9345996,-1.521494746208191,1.106750726699829,-9.946966171264648,0.06263513792230233,-0.4067084570082791,0.06000049301921296,-0.0007958569331094623,-0.004320819396525621,0.0012189717963337898
1730865947.9846032,-1.521235466003418,1.066617727279663,-9.89339542388916,0.06594406563954172,-0.3938966899042196,0.07029781938086002,-0.00013101365766488016,-0.0018197356257587671,0.00044748434447683394
1730865948.034629,-1.6524330377578735,0.9745575785636902,-9.893824577331543,0.04745003884568228,-0.3700461932218331,0.08562937704051453,4.6676585043314844e-05,-0.0015426559839397669,0.00034930475521832705
1730865948.0845356,-1.6524330377578735,0.9745575785636902,-9.893824577331543,0.01779051518022668,-0.33466039377885604,0.09989654387126873,0.00024067980120889843,-0.0035143429413437843,0.0008072641212493181
1730865948.0845356,-1.714928388595581,0.9513433575630188,-9.833707809448242,-0.01709223075326404,-0.2888315787719326,0.110441634554607,0.00024204139481298625,-0.003529411507770419,0.0008109402260743082
1730865948.1347377,-1.6118273735046387,0.9223973155021667,-9.884674072265625,-0.054479711404868084,-0.23681055053318828,0.11781884014610464,0.00039009860483929515,-0.006217951886355877,0.0015419566771015525
1730865948.1846237,-1.3661701679229736,0.9260615110397339,-9.857068061828613,-0.0894342581945363,-0.1850853146262448,0.12396001394893383,0.0003578914038371295,-0.009455183520913124,0.0025821514427661896
1730865948.2345996,-1.2212275266647339,0.8862243294715881,-9.932165145874023,-0.10975918934873263,-0.1397869330933717,0.12974425733600164,-6.823515286669135e-05,-0.001269173575565219,0.0004365334170870483
1730865948.2835228,-1.0323896408081055,0.8774198889732361,-9.941996574401855,-0.09742301393552434,-0.10449028615407183,0.13365302953895372,-0.0004732690576929599,-0.0022415064740926027,0.0010872819693759084
1730865948.3344536,-1.2495695352554321,0.9381879568099976,-9.924843788146973,-0.038990557991133205,-0.07977040682064923,0.1326309006666581,-0.00021026430476922542,-0.00076175422873348,0.0005111119826324284
1730865948.3844686,-1.4342632293701172,1.0002256631851196,-9.9284086227417,0.06040013535764518,-0.06525600158968589,0.12482703979916147,-0.0003727540315594524,-0.0013394601410254836,0.0012230598367750645
1730865948.4344435,-1.6491162776947021,1.1198151111602783,-9.88106918334961,0.17097086061089034,-0.06249828992689582,0.11184356305017909,-0.0002474599750712514,-0.002069244859740138,0.0022206895519047976
1730865948.4846096,-1.8150001764297485,1.2128596305847168,-9.911548614501953,0.24872334508626498,-0.07577526461275419,0.09827353115395326,0.0004146016435697675,-0.0029897200874984264,0.0035053915344178677
1730865948.5345068,-1.8747748136520386,1.2866096496582031,-9.855307579040527,0.25665387344998575,-0.11004398343859098,0.08919124509087079,0.00028487294912338257,-0.000545873714145273,0.0005688660894520581
1730865948.5845046,-1.8972151279449463,1.2438414096832275,-9.890105247497559,0.1824177925651086,-0.1668498103007171,0.08777210420250306,0.9503915309906006,-0.0004985111299902201,0.9650696516036987
1730865948.6345894,-1.8699368238449097,1.2726092338562012,-9.829380989074707,0.04499169880820912,-0.23853253800666535,0.09385958357886044,1.2689584493637085,-0.0013741396833211184,1.2882804870605469
1730865948.6844258,-1.8699368238449097,1.2726092338562012,-9.829380989074707,-0.10988758774782717,-0.3039322871347376,0.10332756639222909,1.0059971809387207,-0.0008603534661233425,1.0253971815109253
1730865948.6844258,-1.9649289846420288,1.1705948114395142,-9.842905044555664,-0.22829416607566252,-0.33447376580779287,0.10941960745475518,1.0066825151443481,-0.0008690645918250084,1.026106357574463
1730865948.7343395,-1.755480170249939,1.117276906967163,-9.814167976379395,-0.2751760529878056,-0.31018400557536213,0.10603487869127577,1.0904192924499512,-0.002319025807082653,1.1132453680038452
1730865948.7843802,-1.648979902267456,1.0715574026107788,-9.870731353759766,-0.2469053048892079,-0.23064094462671142,0.09061135700660072,0.9169133305549622,-0.0008726223604753613,0.9374496340751648
1730865948.8343627,-1.619248390197754,1.0923936367034912,-9.766934394836426,-0.1624555187179231,-0.11444642079805079,0.06555604742392399,0.9327976703643799,-0.0019854665733873844,0.9559056758880615
1730865948.8843756,-1.5719029903411865,1.1600306034088135,-9.814069747924805,-0.05195361247477431,0.0065317825901022065,0.03829836469047132,0.8841886520385742,-0.0006065909983590245,0.9049870371818542
1730865948.9342463,-1.4718180894851685,1.2043366432189941,-9.855443000793457,0.05162219560824462,0.09728290555129065,0.017922214699336907,0.8877912163734436,-0.0007993138860911131,0.9098353981971741
1730865948.9843962,-1.5622344017028809,1.2559999227523804,-9.844598770141602,0.12331710178853227,0.13460227186344195,0.008503906922625003,0.8708289265632629,1.1554172039031982,0.8918173909187317
1730865949.0343103,-1.6065484285354614,1.3037285804748535,-9.91126537322998,0.1528961417934604,0.11699155291797966,0.006272249487238594,0.8717562556266785,1.5795772075653076,0.8930456042289734
1730865949.084335,-1.6464300155639648,1.3352413177490234,-9.848318099975586,0.14243599317373032,0.06175882727280626,0.004196677712417268,0.8730587959289551,2.0055551528930664,0.8942915797233582
1730865949.1342292,-1.7890230417251587,1.2793657779693604,-9.847938537597656,0.10075722353377736,-0.005736350914899411,-0.0017656589699120225,0.874651312828064,2.4275050163269043,0.8955286145210266
1730865949.1843033,-1.9112098217010498,1.1769911050796509,-9.826825141906738,0.037991855878040624,-0.0620838174688778,-0.010393284132348373,0.8662062287330627,1.0895261764526367,0.8885015845298767
1730865949.2342906,-1.7468112707138062,1.169215440750122,-9.872337341308594,-0.03590050997582034,-0.09149506717504592,-0.017657158786546893,0.8664872646331787,1.1649187803268433,0.8890381455421448
1730865949.2843397,-1.7610691785812378,1.1731765270233154,-9.90518856048584,-0.10439115261798323,-0.0891375265983999,-0.021261712615620768,0.8657142519950867,0.9515576362609863,0.8890146017074585
1730865949.3341703,-1.772855281829834,1.1963719129562378,-9.869773864746094,-0.14332323617950085,-0.062298061881422256,-0.0224839148849181,0.8655100464820862,0.9730527997016907,0.8895295858383179
1730865949.3842542,-1.7723252773284912,1.1582468748092651,-9.856871604919434,-0.1374751562810046,-0.025950263755232992,-0.02289580219989706,0.8649550080299377,0.9945111274719238,0.8899896740913391
1730865949.4341888,-1.5951693058013916,1.1924304962158203,-9.84045124053955,-0.09353916227744313,0.0054364635899328195,-0.020801739204936814,0.8644434809684753,0.9050101637840271,0.8904902935028076
1730865949.4842129,-1.4303251504898071,1.1096744537353516,-9.871488571166992,-0.03095587459462523,0.02395995458676481,-0.013234899319140295,0.8638479113578796,0.9125811457633972,0.8909856677055359
1730865949.5342839,-1.4494115114212036,1.127644419670105,-9.831385612487793,0.033376053262088895,0.030026442588198872,-0.0007377384413071631,0.8635962009429932,0.900155782699585,0.8923506140708923
1730865949.5842733,-1.374488115310669,1.0864741802215576,-9.847817420959473,0.08891695007461693,0.029845942877843513,0.01190827143619085,0.8633381128311157,0.9065361618995667,0.8931835889816284
1730865949.634126,-1.4525998830795288,1.0719263553619385,-9.802490234375,0.1279682739027627,0.029933231750453315,0.01966145193373502,0.864456295967102,0.903719425201416,0.8941711783409119
1730865949.684152,-1.5784028768539429,1.0320987701416016,-9.840079307556152,0.14357906251761726,0.03315077721818612,0.02066017972139256,0.8650686740875244,0.9088549017906189,0.8951188921928406
1730865949.734146,-1.5448294878005981,0.9901504516601562,-9.828018188476562,0.1308031012654425,0.039020119255725044,0.015870197890648433,0.866332471370697,0.9090656638145447,0.8957393169403076
1730865949.7841535,-1.495914340019226,0.9905200004577637,-9.897010803222656,0.09111648348714868,0.04572815275750024,0.0068669212573128635,0.8673866987228394,0.9129623174667358,0.8965368866920471
1730865949.8341901,-1.5989469289779663,0.96947181224823,-9.889765739440918,0.03624419185679925,0.050912543627010434,-0.005300941355670948,0.8671062588691711,0.9158312082290649,0.8975793719291687
1730865949.8841543,-1.5671354532241821,0.9694827198982239,-9.91878890991211,-0.0157733292161544,0.05192340868533807,-0.019586783737337552,0.8675296306610107,0.9226887822151184,0.897458553314209
1730865949.9341342,-1.4966825246810913,0.9941743016242981,-9.964380264282227,-0.04976989753702903,0.0470051045051454,-0.03389816677850358,0.8679570555686951,0.9277593493461609,0.8977895379066467
1730865949.984129,-1.4800490140914917,0.969645619392395,-9.981051445007324,-0.058386816381112164,0.036275897138830684,-0.04542068143146446,0.8682527542114258,0.9329809546470642,0.8980240225791931
1730865950.0342054,-1.459653377532959,1.016774296760559,-9.992463111877441,-0.042017156016017354,0.021562331210927117,-0.05258373124062794,0.8684217929840088,0.9382700324058533,0.8981350064277649
1730865950.0840492,-1.5144121646881104,1.049118995666504,-9.973414421081543,-0.007626459552383762,0.0052174476766073015,-0.05608328378913798,0.8667704463005066,0.9302106499671936,0.8972732424736023
1730865950.1340241,-1.6105612516403198,1.0086636543273926,-9.94045639038086,0.032588695919368464,-0.010913802841027338,-0.05721288333112366,0.8667139410972595,0.9329949617385864,0.8971193432807922
1730865950.1840804,-1.5536221265792847,1.06661057472229,-9.94149398803711,0.0634691299880935,-0.02451207474323412,-0.05525122953477368,0.8662182688713074,0.9373909831047058,0.8973878622055054
1730865950.2339597,-1.603241205215454,1.065562129020691,-9.964529037475586,0.07256763999090897,-0.03229132619492737,-0.04777524612270845,0.8663108348846436,0.9408938884735107,0.8972455263137817
1730865950.2839465,-1.879683494567871,1.0326447486877441,-9.866992950439453,0.05561575433285976,-0.032207841621909275,-0.03397360904286581,0.8665639162063599,0.9443476796150208,0.8970000743865967
1730865950.3339956,-2.0737950801849365,0.9914940595626831,-9.809025764465332,0.01323541430336169,-0.024496342990509165,-0.015315627906734759,0.8678761124610901,0.9448283910751343,0.8959251642227173
1730865950.3840535,-2.0737950801849365,0.9914940595626831,-9.809025764465332,-0.05331380262402555,-0.010610740351249662,0.006712285654278873,0.8682264685630798,0.9472655057907104,0.8955602049827576
1730865950.3840535,-1.8243703842163086,0.9407444000244141,-9.798154830932617,-0.13228117424327157,0.00670387279075879,0.02967976853602657,0.8682283163070679,0.9472813606262207,0.8955578804016113
1730865950.4339852,-1.6435387134552002,1.0102969408035278,-9.805895805358887,-0.19125881737392803,0.023139725335584112,0.048148128877054885,0.869529128074646,0.9544193744659424,0.8943443298339844
1730865950.4839067,-1.5730770826339722,1.1460793018341064,-9.76155948638916,-0.19244830116005598,0.03353001133691854,0.056586063673163996,0.8695231676101685,0.9586877822875977,0.8938987851142883
1730865950.5338778,-1.402429223060608,1.2469379901885986,-9.80485725402832,-0.12317014276050728,0.031636504712356704,0.05387264723278232,0.8691210150718689,0.9630619883537292,0.8935894966125488
1730865950.5837739,-1.2801685333251953,1.27745521068573,-9.844583511352539,-0.0055058779354924745,0.010619760430382558,0.0431608339114947,0.8685643672943115,0.9674305319786072,0.8934042453765869
1730865950.6338754,-1.3144124746322632,1.2810062170028687,-9.876189231872559,0.12385195512449519,-0.03303803980271511,0.02808191340238384,0.8681498169898987,0.9718217849731445,0.8933055996894836
1730865950.6837897,-1.3720238208770752,1.2254197597503662,-9.91110610961914,0.2355389318270972,-0.09499157218035968,0.010131368059580401,0.8681883215904236,0.9760759472846985,0.8932546973228455
1730865950.7338083,-1.4993278980255127,1.1518988609313965,-9.931300163269043,0.31243071293547986,-0.1623293619825802,-0.010960759490188281,0.8718038201332092,0.9610106945037842,0.8929554224014282
1730865950.78379,-1.6006672382354736,1.0863429307937622,-9.86929702758789,0.34518591493265116,-0.21682222023923842,-0.03459535842720059,0.8734289407730103,0.9620620608329773,0.8926343321800232
1730865950.8337855,-1.81550133228302,1.01986563205719,-9.81452465057373,0.3276896768408455,-0.23978256872820508,-0.055427353989198666,0.8755400776863098,0.9670788049697876,0.8913766145706177
1730865950.8837059,-1.9375649690628052,0.9927679896354675,-9.77560806274414,0.2575526454729232,-0.2190416624655406,-0.06343251330266161,0.878014087677002,0.9685542583465576,0.8906317949295044
1730865950.9336746,-2.0457820892333984,0.9714118242263794,-9.726194381713867,0.14363846556687265,-0.15726524988145107,-0.05132979809410109,0.8809853196144104,0.9695591330528259,0.8897448182106018
1730865950.9836621,-2.0869340896606445,1.0083929300308228,-9.737180709838867,0.009424806725266542,-0.0734056202559204,-0.02106263255774076,0.8787314295768738,0.9784120917320251,0.8897764682769775
1730865951.0336392,-2.0562994480133057,1.051559329032898,-9.758321762084961,-0.11545270766892868,0.006464643654096963,0.017615957942723304,0.8800219297409058,0.9812605381011963,0.8891716599464417
1730865951.083622,-1.9736506938934326,1.1039338111877441,-9.822582244873047,-0.20389706294538712,0.060463437915225175,0.0515412374143822,0.8847342133522034,0.9902852177619934,0.8883538842201233
1730865951.133597,-1.9302725791931152,1.1401413679122925,-9.887577056884766,-0.23602219759854393,0.07754699438115904,0.06811376914641515,0.8865333199501038,0.9953194856643677,0.8878490924835205
1730865951.1835477,-1.8705997467041016,1.1601102352142334,-9.892549514770508,-0.20707718997986602,0.05989675384524183,0.060557636234193364,0.8908140659332275,1.0017950534820557,0.886959433555603
1730865951.233644,-1.852792739868164,1.1702474355697632,-9.919771194458008,-0.13226516398900173,0.020807678922683304,0.031822652883826796,0.8929638266563416,1.0076106786727905,0.8864414095878601
1730865951.2836158,-1.850260853767395,1.1229956150054932,-9.914119720458984,-0.04013985578722329,-0.02164209117869907,-0.006866894925427131,0.8962241411209106,1.014158844947815,0.8873592019081116
1730865951.3335752,-1.8229795694351196,1.0839333534240723,-9.910886764526367,0.040014145378228255,-0.05143712942666993,-0.04165588004881559,0.8985486030578613,1.0197112560272217,0.8871951699256897
1730865951.3836124,-1.7985893487930298,1.0479875802993774,-9.888747215270996,0.08920897571501851,-0.05935633327824621,-0.061901674606129636,0.9031252264976501,1.0242555141448975,0.8875938653945923
1730865951.4335694,-1.7535266876220703,0.9978740811347961,-9.872357368469238,0.10372182358846116,-0.0448575486814846,-0.06337608913796915,0.909336507320404,1.0334135293960571,0.8876040577888489
1730865951.4836032,-1.7225205898284912,0.9698752164840698,-9.863229751586914,0.09220403502005152,-0.014928179619831,-0.04852393474616186,0.9136715531349182,1.0396223068237305,0.8873211741447449
1730865951.533507,-1.668954610824585,0.9353963732719421,-9.8529052734375,0.06849481861625861,0.019392738678728396,-0.024557031934521058,0.9181852340698242,1.0458053350448608,0.8869485855102539
1730865951.583536,-1.6359572410583496,0.9215210676193237,-9.852986335754395,0.04583177220645817,0.04802082509922933,2.5873901801690656e-05,0.922856867313385,1.052093267440796,0.8865441679954529
1730865951.6334298,-1.6144894361495972,0.9229671359062195,-9.850465774536133,0.03411513440097492,0.06599788934617892,0.0188825534235009,0.9134838581085205,1.045150637626648,0.8876402974128723
1730865951.6834772,-1.6067534685134888,0.9610587358474731,-9.857247352600098,0.0376491852149917,0.07332590070635198,0.029245380024652566,0.9153668284416199,1.0490790605545044,0.8876526951789856
1730865951.7344527,-1.5976148843765259,1.0084751844406128,-9.867647171020508,0.05270292799385317,0.07083592508538526,0.03111964443076049,0.9151276350021362,1.0576709508895874,0.8878052830696106
1730865951.7843916,-1.6114647388458252,1.0301212072372437,-9.874835968017578,0.06888560585672983,0.05773568419376207,0.025928225097708632,0.9168677926063538,1.0637367963790894,0.8879294991493225
1730865951.8344188,-1.5975745916366577,1.018343448638916,-9.889068603515625,0.07562761860106469,0.034545453129587365,0.015968000206959616,0.9187926650047302,1.0699321031570435,0.8881063461303711
1730865951.8845086,-1.6075562238693237,0.9683912396430969,-9.893061637878418,0.06824427571443593,0.006767158190593103,0.004071254335816747,0.9161738157272339,1.069778323173523,0.887971043586731
1730865951.934418,-1.626556634902954,0.905511736869812,-9.897462844848633,0.04901188617143623,-0.016323291615703332,-0.007141803826475918,0.9172179698944092,1.073955774307251,0.8880353569984436
1730865951.9844997,-1.6508206129074097,0.8503293991088867,-9.890620231628418,0.024142739831751095,-0.02607357335086328,-0.01561781351027743,0.9182939529418945,1.0843896865844727,0.8880447745323181
1730865952.034278,-1.668717384338379,0.7852784395217896,-9.882685661315918,-6.545238332610667e-05,-0.018207652930772467,-0.019814608195309596,0.919527530670166,1.0907363891601562,0.8880361914634705
1730865952.0843859,-1.668717384338379,0.7852784395217896,-9.882685661315918,-0.019216200376486442,0.005100392482989596,-0.019052090630569916,0.9204744100570679,1.0946658849716187,0.8879830241203308
1730865952.0843859,-1.666137456893921,0.7490000128746033,-9.847501754760742,-0.030880399357360727,0.0356724355124849,-0.013848332855952005,0.9204826354980469,1.0947062969207764,0.8879826068878174
1730865952.134316,-1.6244356632232666,0.7482098340988159,-9.854060173034668,-0.03410703552364239,0.06299348463146268,-0.0054871864019357414,0.921595573425293,1.100457787513733,0.8879193663597107
1730865952.1843207,-1.6244356632232666,0.7482098340988159,-9.854060173034668,-0.028903446280628943,0.07902264372916994,0.00456251941731508,0.9226414561271667,1.1064457893371582,0.8878543972969055
1730865952.1843207,-1.5937052965164185,0.7874472141265869,-9.882034301757812,-0.016069941920815668,0.08093752368285594,0.014574218645116354,0.9226491451263428,1.106492042541504,0.8878539204597473
1730865952.2342668,-1.5707736015319824,0.8576775789260864,-9.910017013549805,0.0026879459515568253,0.07025000567791848,0.02221537627329048,0.9183281064033508,1.1053341627120972,0.8880066275596619
1730865952.2842512,-1.587791085243225,0.9232023358345032,-9.935588836669922,0.02450969152865725,0.04982672533096755,0.024813727189416553,0.9169837236404419,1.115188479423523,0.8880439400672913
1730865952.3342435,-1.5839658975601196,0.9715844392776489,-9.951668739318848,0.04450997276857796,0.02260560052465522,0.02069481741972948,0.9166364073753357,1.1210954189300537,0.8881482481956482
1730865952.3842833,-1.6285433769226074,0.9795622229576111,-9.949352264404297,0.05623444409385432,-0.0073197886774241175,0.010675657119476784,0.9137582778930664,1.1260600090026855,0.8879330158233643
1730865952.4342704,-1.6731714010238647,0.9589577913284302,-9.931402206420898,0.05485167594608389,-0.034268719326005434,-0.001853761052723946,0.9127299785614014,1.131821632385254,0.8879448771476746
1730865952.4843504,-1.7608195543289185,0.9085907340049744,-9.892904281616211,0.03950917269474709,-0.05189858751630914,-0.012132684133685645,0.9118238687515259,1.137450933456421,0.8879392743110657
1730865952.5342863,-1.8198007345199585,0.8613375425338745,-9.845653533935547,0.012124585058663916,-0.054417385297944244,-0.015311522834906255,0.9111905097961426,1.1384319067001343,0.8877795934677124
1730865952.5842535,-1.8743910789489746,0.8098325729370117,-9.812735557556152,-0.02422223048659139,-0.038910466116173784,-0.008087601938156407,0.9103847742080688,1.1426901817321777,0.8877027630805969
1730865952.634168,-1.8814746141433716,0.8248398900032043,-9.78154468536377,-0.063715178007742,-0.008530953363669408,0.00894052134253263,0.9091070890426636,1.1529597043991089,0.8877796530723572
1730865952.6841817,-1.8178749084472656,0.9012826681137085,-9.799697875976562,-0.09633221343875933,0.02660696527218776,0.030400020013871994,0.9078670144081116,1.1593769788742065,0.8878170847892761
1730865952.7341259,-1.7743693590164185,0.9895063042640686,-9.821540832519531,-0.11065983361918964,0.05229643520709524,0.04813227473741288,0.9068905711174011,1.162989854812622,0.8878704309463501
1730865952.7841399,-1.7426655292510986,1.0704177618026733,-9.879551887512207,-0.09935047940256404,0.05581469136169793,0.054468257090778474,0.9053415656089783,1.1688674688339233,0.8880801796913147
1730865952.834016,-1.7173658609390259,1.144403100013733,-9.899643898010254,-0.06408916400670299,0.032526098029947846,0.04537728297109646,0.9069979190826416,1.1754727363586426,0.8879517912864685
1730865952.884022,-1.7238008975982666,1.201750636100769,-9.902915954589844,-0.016262315666211044,-0.011068144321196585,0.022488692278437847,0.9063039422035217,1.181570053100586,0.8881664872169495
1730865952.9340377,-1.7645459175109863,1.1820310354232788,-9.86949348449707,0.028148432023120146,-0.06055220610324091,-0.006779351259214319,0.908013641834259,1.1847760677337646,0.8881522417068481
1730865952.9839852,-1.83077871799469,1.1543887853622437,-9.82955265045166,0.05518922213158015,-0.09965425620844463,-0.031557968507270266,0.9090209007263184,1.1931378841400146,0.8882744312286377
1730865953.0339887,-1.8594506978988647,1.0799541473388672,-9.79504680633545,0.05786283320332711,-0.11583345713218013,-0.0425043842561485,0.9094967246055603,1.1986218690872192,0.8882721066474915
1730865953.0839276,-1.8404059410095215,1.018115758895874,-9.759230613708496,0.03867550367776332,-0.10376729220713513,-0.03632648698030782,0.9100909233093262,1.203816294670105,0.888171911239624
1730865953.1339393,-1.7897979021072388,0.9865586757659912,-9.764646530151367,0.008356160499707981,-0.06565046192390653,-0.01614903955148253,0.9107450842857361,1.2088124752044678,0.8880062699317932
1730865953.1840162,-1.698754072189331,1.0258070230484009,-9.786855697631836,-0.018733775919415045,-0.009562368832768467,0.011231731948239135,0.909896731376648,1.2077608108520508,0.8884218335151672
1730865953.2339149,-1.6195176839828491,1.096706748008728,-9.849236488342285,-0.02998645482535274,0.05150736785350853,0.037559853975722104,0.9100639224052429,1.2118639945983887,0.8885085582733154
1730865953.2839737,-1.5690386295318604,1.1863417625427246,-9.894932746887207,-0.019416780730108874,0.09985457067577494,0.05388596792674134,0.9101699590682983,1.216173529624939,0.8887101411819458
1730865953.3338645,-1.5596836805343628,1.2637195587158203,-9.941064834594727,0.010269462396257603,0.11662872427297097,0.0521439822563328,0.9091278910636902,1.2210512161254883,0.8887567520141602
1730865953.384044,-1.59630286693573,1.3051685094833374,-9.960204124450684,0.049576246405012264,0.0912200352086026,0.029178449898739165,0.9090766906738281,1.2264255285263062,0.8890432119369507
1730865953.4338489,-1.6284863948822021,1.3273265361785889,-9.94701862335205,0.08472117221881924,0.030497988274295562,-0.008976492025500254,0.909192681312561,1.2318623065948486,0.889350414276123
1730865953.4840422,-1.6553434133529663,1.316172480583191,-9.920696258544922,0.10095850986229843,-0.042568986740752844,-0.047959047347821866,0.9086681008338928,1.2354475259780884,0.888913631439209
1730865953.5338588,-1.6599690914154053,1.2806527614593506,-9.860176086425781,0.08964516097236527,-0.10171661834436098,-0.07246590364147212,0.9112837314605713,1.248943567276001,0.8890773057937622
1730865953.583919,-1.6765570640563965,1.1801283359527588,-9.819402694702148,0.05441883330385071,-0.12921761416129135,-0.0739199118223599,0.9125038981437683,1.25575590133667,0.8889129757881165
1730865953.6338382,-1.6720153093338013,1.0732054710388184,-9.787087440490723,0.009420682934480527,-0.11877273160802335,-0.05311208717499824,0.9142772555351257,1.2599809169769287,0.8893254399299622
1730865953.6838663,-1.6663193702697754,0.9791675806045532,-9.763050079345703,-0.029209919774775682,-0.07392688243237287,-0.018267943785055953,0.9155170917510986,1.2651644945144653,0.8892195224761963
1730865953.7339408,-1.6707918643951416,0.9239218235015869,-9.750232696533203,-0.05099193158229997,-0.006902845483317002,0.019068550080207705,0.9166759252548218,1.2703319787979126,0.8891132473945618
1730865953.7837968,-1.6994575262069702,0.9047927856445312,-9.781537055969238,-0.05375232701907744,0.0645602485822698,0.04833146964737843,0.9167712926864624,1.2727227210998535,0.8896364569664001
1730865953.8338177,-1.7137017250061035,0.9450106620788574,-9.824131965637207,-0.04245509993894295,0.12342945424947054,0.0628680672735973,0.9175623655319214,1.2779566049575806,0.8898788690567017
1730865953.8838098,-1.7199853658676147,1.0237822532653809,-9.900525093078613,-0.025638900426646485,0.1565074110901359,0.060254037448395185,0.9193264245986938,1.286553978919983,0.8900191783905029
1730865953.933771,-1.7121604681015015,1.109671950340271,-9.941783905029297,-0.010941333414511955,0.15471035502785135,0.04125396968306299,0.9220366477966309,1.2955187559127808,0.8902419209480286
1730865953.9838536,-1.7125602960586548,1.1412822008132935,-9.991416931152344,-0.0021537500689885127,0.11729353210156047,0.010298061366817806,0.9236539006233215,1.3029961585998535,0.890566349029541
1730865954.033785,-1.7383090257644653,1.1559922695159912,-9.991555213928223,0.0007573161249860203,0.05605554730289235,-0.02418598523921489,0.925244152545929,1.3105735778808594,0.8908688426017761
1730865954.0837812,-1.7700742483139038,1.0934906005859375,-9.966474533081055,-0.0007006198433042886,-0.008712425699747995,-0.05280631558872454,0.9241049289703369,1.3088622093200684,0.8901159763336182
1730865954.1337168,-1.7931220531463623,1.0574482679367065,-9.924484252929688,-0.005589490487086566,-0.0575192189958105,-0.06889970659680378,0.9249438643455505,1.3136850595474243,0.88995760679245
1730865954.1838078,-1.8051255941390991,0.9757516384124756,-9.861323356628418,-0.013217625478006235,-0.07830507874084189,-0.06910032714431442,0.926177442073822,1.3231878280639648,0.8898851275444031
1730865954.233678,-1.8243852853775024,0.909440279006958,-9.807530403137207,-0.021946335169145854,-0.06841441278705898,-0.052674505555973944,0.9271867275238037,1.3296666145324707,0.889582097530365
1730865954.2837088,-1.831785798072815,0.8526820540428162,-9.77783489227295,-0.029419490737429194,-0.03388776570720568,-0.022511147974366496,0.9284751415252686,1.331321120262146,0.8898313641548157
1730865954.3335953,-1.7967559099197388,0.8678164482116699,-9.767488479614258,-0.03350967441376556,0.012872213464897728,0.014030238968238264,0.9294841885566711,1.3362557888031006,0.8896941542625427
1730865954.3836603,-1.7605763673782349,0.9291214346885681,-9.799591064453125,-0.03228752267282869,0.056184429909908844,0.046786084324029066,0.9312300682067871,1.3433592319488525,0.8899673223495483
1730865954.433618,-1.710945725440979,1.0032237768173218,-9.818702697753906,-0.02385995236611648,0.08084696140655101,0.06618089160822306,0.932322084903717,1.3491389751434326,0.890134871006012
1730865954.4836576,-1.7012803554534912,1.053971767425537,-9.838756561279297,-0.007799994542101667,0.07754031286073504,0.06698428957655295,0.9345687031745911,2.0126845836639404,0.8901393413543701
1730865954.5335536,-1.6881037950515747,1.0379717350006104,-9.849413871765137,0.013143545664257648,0.04747247613626431,0.05056267998701455,0.9360624551773071,2.2328741550445557,0.8904365301132202
1730865954.5836434,-1.7113316059112549,0.9963055849075317,-9.854170799255371,0.0333021007025789,0.0029722319265373127,0.023952529985028607,0.9361336827278137,1.9901015758514404,0.8901749849319458
1730865954.6335702,-1.745736837387085,0.9328804016113281,-9.85682487487793,0.04614538641178968,-0.03706284464009872,-0.0034672911854339607,0.9373981952667236,2.048964738845825,0.8903269171714783
1730865954.683587,-1.7479357719421387,0.8603179454803467,-9.831171989440918,0.04701389162571193,-0.055904851823721284,-0.023647491108845977,0.9387819766998291,2.107848644256592,0.8904452919960022
1730865954.733575,-1.7491909265518188,0.843873918056488,-9.839099884033203,0.035264579824745394,-0.04607944710861189,-0.03213144066022635,0.9371641874313354,1.9230766296386719,0.8900508880615234
1730865954.7836032,-1.719849944114685,0.8954249024391174,-9.856204986572266,0.014837089864819936,-0.011337226802424667,-0.02881243824458957,0.9378966689109802,1.9349886178970337,0.889953076839447
1730865954.8335345,-1.69038987159729,1.013269066810608,-9.893735885620117,-0.006626270427407408,0.03327797051497985,-0.017936567623813175,0.9388218522071838,1.8928018808364868,0.8899561762809753
1730865954.8834958,-1.6407148838043213,1.1782209873199463,-9.94733715057373,-0.020334510328893583,0.0650045372519028,-0.00669241034988588,0.9409807920455933,1.8833612203598022,0.8899564146995544
1730865954.9335127,-1.5968351364135742,1.3148117065429688,-9.980710983276367,-0.020553563217269782,0.06469678341957219,-0.0017536962570810569,0.9424652457237244,1.8847689628601074,0.8899081945419312
1730865954.9834745,-1.5788203477859497,1.3853707313537598,-9.986942291259766,-0.007557262191345034,0.028174118921239458,-0.005710957160879973,0.9439122676849365,1.8862905502319336,0.8898507356643677
1730865955.0333755,-1.59587824344635,1.345052719116211,-9.986001014709473,0.013372327096924996,-0.03338266045736697,-0.016386253568639892,0.9421246647834778,1.8770021200180054,0.8899486660957336
1730865955.0834413,-1.6471034288406372,1.241713523864746,-9.92891788482666,0.03480257581876154,-0.10039095702241425,-0.028727647994501088,0.942844033241272,1.8767918348312378,0.889857828617096
1730865955.1334794,-1.7504501342773438,1.1041513681411743,-9.85863208770752,0.04837239698043451,-0.14936833276038064,-0.036175899556388294,0.9436715841293335,1.876265287399292,0.8896846175193787
1730865955.1834555,-1.8304283618927002,0.9711137413978577,-9.74976921081543,0.04517235411900036,-0.1568882249227276,-0.031143017458874565,0.9445479512214661,1.8751715421676636,0.8899033069610596
1730865955.2333221,-1.9156988859176636,0.9128645658493042,-9.670672416687012,0.019118660405515926,-0.1100762210092992,-0.007768682384742041,0.9455640912055969,1.8744933605194092,0.8897705674171448
1730865955.2834413,-1.9156988859176636,0.9128645658493042,-9.670672416687012,-0.02680711751682633,-0.01913547201863104,0.032365294777124715,0.946570873260498,1.873653531074524,0.8896685242652893
1730865955.2834413,-1.9563443660736084,0.903839647769928,-9.61693286895752,-0.07917556231713459,0.08341025370838143,0.07822966036569678,0.946576714515686,1.8736482858657837,0.8896681666374207
1730865955.3332965,-1.9662718772888184,0.9583784937858582,-9.625625610351562,-0.12220724553369525,0.16119879805510473,0.11623335099836339,0.9473924040794373,1.8729898929595947,0.889751672744751
1730865955.3834836,-1.923431158065796,1.0500279664993286,-9.705564498901367,-0.14698705244320445,0.19261423164771846,0.13834610115657348,0.9480434060096741,1.8732348680496216,0.8901193141937256
1730865955.4342368,-1.8367159366607666,1.1513241529464722,-9.823517799377441,-0.1521319275159803,0.17488161797365415,0.14211422092485546,0.9484189748764038,1.87350594997406,0.8906895518302917
1730865955.4842105,-1.7143102884292603,1.2665013074874878,-9.948857307434082,-0.13764282489819904,0.11834555498866875,0.1254050088499318,0.9516246318817139,1.8736772537231445,0.8903777003288269
1730865955.5342638,-1.5934988260269165,1.3747628927230835,-10.055098533630371,-0.1015596558438433,0.039592330323733604,0.08525744603778632,0.9525868892669678,1.8741493225097656,0.8909901976585388
1730865955.5842412,-1.4835880994796753,1.4298890829086304,-10.111140251159668,-0.04432659437182346,-0.043164978773412827,0.023854236339552096,0.9548808336257935,1.8736588954925537,0.8903486132621765
1730865955.6342456,-1.443881630897522,1.4316983222961426,-10.103753089904785,0.025909435879937312,-0.11281192249081436,-0.04656600579710893,0.9562528729438782,1.8735482692718506,0.890542209148407
1730865955.6842623,-1.4952565431594849,1.3775787353515625,-10.049909591674805,0.09337260927389197,-0.15549041463230845,-0.1066008368979244,0.957527220249176,1.871588110923767,0.8876698017120361
1730865955.7341847,-1.6399167776107788,1.2702287435531616,-9.953142166137695,0.13883540193817268,-0.162534749724299,-0.1374380501125047,0.9590545296669006,1.8705025911331177,0.8866811394691467
1730865955.7842758,-1.8158236742019653,1.1555479764938354,-9.814238548278809,0.14574430479134914,-0.1323820341242641,-0.1284331502754811,0.9613054990768433,1.8712612390518188,0.8842001557350159
1730865955.8341494,-1.987913966178894,1.0372942686080933,-9.684324264526367,0.10646419542646071,-0.07146595426628399,-0.0808038167901639,0.9647361636161804,1.8714148998260498,0.8820630311965942
1730865955.8841746,-2.1046435832977295,0.9711049795150757,-9.589987754821777,0.027935401535744836,0.00605907968566765,-0.007302600120611392,0.9673842191696167,1.8709970712661743,0.8802767395973206
1730865955.9341092,-2.1483964920043945,0.9394667744636536,-9.553539276123047,-0.06735917627801395,0.08054010094694194,0.07120113805486086,0.9699760675430298,1.8706881999969482,0.8785749077796936
1730865955.9841945,-2.121264934539795,0.9565346837043762,-9.586009979248047,-0.15126253095983305,0.13379966866279838,0.13382764448550422,0.9723068475723267,1.870646595954895,0.8771215677261353
1730865956.0340698,-2.039263963699341,0.9619608521461487,-9.645097732543945,-0.20358607435926857,0.1570541293177108,0.1681062720721441,0.9668422937393188,1.8699438571929932,0.8802534341812134
1730865956.0840585,-1.9312196969985962,0.9948458671569824,-9.719782829284668,-0.21664571901805588,0.15217832390162006,0.17133750623995894,0.9670140743255615,1.8701579570770264,0.8801788091659546
1730865956.1340225,-1.8107657432556152,1.0069457292556763,-9.799466133117676,-0.1908052640359162,0.1265487908301368,0.14626989792376666,0.9666768908500671,1.8707196712493896,0.880500853061676
1730865956.184022,-1.7375962734222412,1.0039891004562378,-9.883305549621582,-0.12981359569897294,0.0881089792712744,0.09727606550361101,0.9659393429756165,1.8715496063232422,0.8811270594596863
1730865956.2339506,-1.6901278495788574,0.9899908900260925,-9.963652610778809,-0.040457612703656956,0.04449187087582935,0.02938018169952626,0.9705408215522766,1.870383858680725,0.8789664506912231
1730865956.2840056,-1.6511867046356201,1.0167818069458008,-10.022025108337402,0.06446959521725516,0.0035789988067581116,-0.049981570003222744,0.9713815450668335,1.8706620931625366,0.8786548376083374
1730865956.3338845,-1.626352071762085,1.0566904544830322,-10.058816909790039,0.16331207739386383,-0.027938537704774898,-0.12737961959405592,0.9753928184509277,1.8740230798721313,0.876763641834259
1730865956.3839247,-1.6089198589324951,1.1275053024291992,-10.08283519744873,0.23007811153590363,-0.047216186866205906,-0.18435058612361896,0.9775990843772888,1.8749253749847412,0.8755518794059753
1730865956.433835,-1.548673152923584,1.161179542541504,-10.08017635345459,0.24783861917237038,-0.056245676577613264,-0.2062696447482469,0.9808840751647949,1.8739465475082397,0.8739896416664124
1730865956.4838657,-1.5168516635894775,1.1840696334838867,-10.051786422729492,0.2185937469012867,-0.05974657349767103,-0.19023932589411824,0.9843108654022217,1.8736718893051147,0.8741639852523804
1730865956.533793,-1.4813148975372314,1.1318827867507935,-9.987784385681152,0.16019720744035124,-0.060883429907339054,-0.1447130942347236,0.9877958297729492,1.873476505279541,0.8728803396224976
1730865956.5838237,-1.4938756227493286,1.0512200593948364,-9.905617713928223,0.09534168247196648,-0.05785682141501458,-0.08345594010289079,0.9915902018547058,1.873133659362793,0.871315598487854
1730865956.6337664,-1.5253958702087402,0.9455553293228149,-9.82075309753418,0.041741890213703225,-0.044403180850359145,-0.01864097779721352,0.9955567121505737,1.8726632595062256,0.869623064994812
1730865956.683823,-1.6069215536117554,0.8572342395782471,-9.72569751739502,0.007187811705513187,-0.013428687906642655,0.04360363661787273,0.9872192144393921,1.8727844953536987,0.8745147585868835
1730865956.7337284,-1.7038275003433228,0.803158164024353,-9.66273307800293,-0.010860856368935874,0.03760512424118132,0.1019659299174806,0.9886621236801147,1.872563123703003,0.874448299407959
1730865956.7837372,-1.8090814352035522,0.8006678223609924,-9.635173797607422,-0.021715325739090102,0.10021097290496564,0.15294348380946152,0.9917979836463928,1.8730000257492065,0.8752723932266235
1730865956.8336544,-1.8927173614501953,0.8072279691696167,-9.634767532348633,-0.03545270983935883,0.15467381860680177,0.1869124237279563,0.9960623383522034,1.8732410669326782,0.8779425024986267
1730865956.883653,-1.9440635442733765,0.8602471947669983,-9.668485641479492,-0.05657601865403876,0.1806669698527109,0.19360517149767625,0.9984481334686279,1.8739311695098877,0.8795817494392395
1730865956.9336395,-1.9826576709747314,0.9154075980186462,-9.733817100524902,-0.08110209558751666,0.16843947504536794,0.16936853815523614,1.0006462335586548,1.8750526905059814,0.8816635012626648
1730865956.9837236,-1.9989776611328125,0.9727869033813477,-9.810914993286133,-0.10090171859334099,0.12113520506649915,0.11849978383251689,1.0022251605987549,1.8729841709136963,0.881084680557251
1730865957.033659,-1.9968469142913818,1.0430967807769775,-9.891023635864258,-0.11048230171155622,0.05110474591521501,0.050733605115572775,1.0039583444595337,1.8734906911849976,0.8825982213020325
1730865957.083661,-1.9078164100646973,1.1033395528793335,-9.982389450073242,-0.10781646144175322,-0.02454036999016248,-0.02118966768266832,1.0054153203964233,1.8740293979644775,0.8841456174850464
1730865957.1336153,-1.811535358428955,1.1505705118179321,-10.037453651428223,-0.09079773626911763,-0.08933846356572009,-0.08496250468373823,1.006500005722046,1.8726890087127686,0.8829656839370728
1730865957.1835968,-1.684177279472351,1.158101201057434,-10.068291664123535,-0.05687651930350854,-0.13310394651988547,-0.13286413196538585,1.007741928100586,1.872405767440796,0.8834842443466187
1730865957.2335598,-1.607757568359375,1.1402833461761475,-10.083259582519531,-0.0070369782037350646,-0.15222157450241325,-0.16114444005603162,1.008905053138733,1.8717658519744873,0.8836358785629272
1730865957.2836456,-1.5794684886932373,1.0847864151000977,-10.054425239562988,0.052174156049507266,-0.14607652638899196,-0.16708159263710318,1.0101265907287598,1.8707513809204102,0.8833766579627991
1730865957.3335211,-1.6266781091690063,1.0333889722824097,-10.00820255279541,0.1115693863418016,-0.11640165584392953,-0.15042289622962735,1.0121508836746216,1.8608344793319702,0.8843996524810791
1730865957.3835816,-1.7076492309570312,0.985153317451477,-9.948284149169922,0.1613113990113854,-0.06883735026724254,-0.11553202384898142,1.0162127017974854,1.8612191677093506,0.8861646056175232
1730865957.4335127,-1.7534598112106323,0.9991579055786133,-9.872818946838379,0.18943278182267104,-0.01372327993904221,-0.0698792551510162,1.0189876556396484,1.8600395917892456,0.8865137100219727
1730865957.4836228,-1.761965274810791,1.019677996635437,-9.80775260925293,0.18467970889535307,0.03491636892689177,-0.02122695331312264,1.0222419500350952,1.8588826656341553,0.8867496848106384
1730865957.5335631,-1.7332777976989746,1.0601274967193604,-9.740081787109375,0.1453108981462385,0.06376404331127436,0.02493891668681328,1.0258911848068237,1.8578548431396484,0.8869889378547668
1730865957.5835302,-1.7360866069793701,1.0578792095184326,-9.706241607666016,0.08305246261988586,0.06588433673306812,0.06715974710621031,1.0298383235931396,1.8569858074188232,0.8873443007469177
1730865957.633568,-1.7078824043273926,1.0534155368804932,-9.675688743591309,0.017264736744019727,0.04332433826145135,0.10722261296237615,1.021040916442871,1.8591822385787964,0.8884929418563843
1730865957.683474,-1.7233083248138428,1.0290294885635376,-9.678693771362305,-0.034282903577812426,0.0059909837237625465,0.1458859949321056,1.0224555730819702,1.8587191104888916,0.8893944621086121
1730865957.733404,-1.7296462059020996,1.0342074632644653,-9.693284034729004,-0.06190174280752339,-0.03169623543248255,0.17714781191897916,1.0250880718231201,1.8596769571304321,0.8911512494087219
1730865957.7834828,-1.7782323360443115,1.0552161931991577,-9.738544464111328,-0.06594314206062296,-0.05631334598864905,0.18845835693063007,1.0269054174423218,1.8594090938568115,0.8929200768470764
1730865957.833414,-1.8271551132202148,1.1032934188842773,-9.756502151489258,-0.05474204929408154,-0.06193153678445776,0.1699755339359345,1.028576374053955,1.8589916229248047,0.8951451182365417
1730865957.8834038,-1.8970963954925537,1.1459044218063354,-9.80887222290039,-0.04057232893295633,-0.05298251215203942,0.12272267729542537,1.0301203727722168,1.8584322929382324,0.8977261781692505
1730865957.933347,-1.9201931953430176,1.1988476514816284,-9.833016395568848,-0.03542871921966431,-0.04094865839905169,0.05734533243609316,1.0285800695419312,1.857486605644226,0.8912307024002075
1730865957.983341,-1.93211030960083,1.2210768461227417,-9.855461120605469,-0.04614069896830558,-0.037144624763814096,-0.011733124818683547,1.029437780380249,1.8568389415740967,0.891850471496582
1730865958.0332818,-1.8952357769012451,1.1917591094970703,-9.863088607788086,-0.06920895066172357,-0.045183277753947704,-0.07007523232648084,1.0339741706848145,1.857525110244751,0.8906316757202148
1730865958.0833924,-1.8952357769012451,1.1917591094970703,-9.863088607788086,-0.09133372260037992,-0.0585920752200873,-0.10589353997360013,1.0359108448028564,1.8571549654006958,0.8905217051506042
1730865958.0833924,-1.8420480489730835,1.143674373626709,-9.883455276489258,-0.09846233558278016,-0.06656939826233531,-0.1139586737276575,1.0359220504760742,1.8571522235870361,0.8905202150344849
1730865958.1332362,-1.7618697881698608,1.129366159439087,-9.8805570602417,-0.08421516708587058,-0.0615903077730226,-0.09786340418299468,1.03746497631073,1.8576282262802124,0.8898733854293823
1730865958.1833367,-1.694387674331665,1.115341305732727,-9.905627250671387,-0.05050726108877415,-0.042529092211432196,-0.06793380621738518,1.039036750793457,1.8573285341262817,0.8894097805023193
1730865958.2332082,-1.6100733280181885,1.094612956047058,-9.931663513183594,-0.004614094522440829,-0.014311223262722909,-0.03649025709011529,1.0405296087265015,1.8569597005844116,0.8888188600540161
1730865958.2832747,-1.5418109893798828,1.0807050466537476,-9.972339630126953,0.04434552175585423,0.014765135142974837,-0.013715771967225834,1.0416148900985718,1.8545079231262207,0.8895168304443359
1730865958.3331993,-1.499990701675415,1.0729589462280273,-10.015694618225098,0.08905403870323328,0.03734300058887618,-0.005399223218567225,1.044573426246643,1.8548003435134888,0.889426589012146
1730865958.383289,-1.4388550519943237,1.0682786703109741,-10.016959190368652,0.12372400471104433,0.04951281398452652,-0.011417651326795878,1.0467790365219116,1.8546392917633057,0.8892443776130676
1730865958.4332135,-1.4234479665756226,1.0768064260482788,-10.036955833435059,0.1424683325601137,0.050566560643051726,-0.025588205733221413,1.0493853092193604,1.855100154876709,0.8891700506210327
1730865958.4831707,-1.4234479665756226,1.0768064260482788,-10.036955833435059,0.14201279699335131,0.042309199193930155,-0.039061911001482916,1.0524526834487915,1.8552523851394653,0.8888925909996033
1730865958.4831707,-1.4432932138442993,1.1116139888763428,-10.005428314208984,0.12413300899290032,0.028312295755377186,-0.045073883861940965,1.0524715185165405,1.8552535772323608,0.8888906836509705
1730865958.5341525,-1.5085569620132446,1.1484904289245605,-9.962830543518066,0.09357035001965978,0.01216728277386082,-0.04071228844620385,1.0558663606643677,1.8554764986038208,0.8885088562965393
1730865958.5831633,-1.5824558734893799,1.1850098371505737,-9.87814998626709,0.05493949505706747,-0.004468304043608437,-0.02556380979647951,1.051685094833374,1.8509596586227417,0.8889991641044617
1730865958.6341417,-1.7026240825653076,1.1562330722808838,-9.797066688537598,0.011472947861689061,-0.021506409931248645,-0.00037473818361943856,1.0532339811325073,1.8500075340270996,0.8888080716133118
1730865958.6841717,-1.8434793949127197,1.0966352224349976,-9.701960563659668,-0.03443759558469367,-0.03679447925170814,0.03236851148358148,1.054721713066101,1.8490022420883179,0.8886609077453613
1730865958.7341104,-1.9647480249404907,1.0394996404647827,-9.635427474975586,-0.08157778209071069,-0.04360538554432621,0.0685722843227266,1.0560638904571533,1.8478976488113403,0.8886395692825317
1730865958.7841659,-2.0362460613250732,0.9632866978645325,-9.589738845825195,-0.13201394821930731,-0.03355729190238076,0.10548358891745752,1.05331552028656,1.8508843183517456,0.8891178369522095
1730865958.8331368,-2.0580220222473145,0.9396564364433289,-9.595098495483398,-0.1880533267786915,-0.0029392383579086726,0.14183417991412342,1.0535249710083008,1.8506042957305908,0.8895359039306641
1730865958.8841126,-2.0260348320007324,0.9472898840904236,-9.640368461608887,-0.24184331854780688,0.04177756187727392,0.17178034194794653,1.0551294088363647,1.847547173500061,0.8893660306930542
1730865958.9341154,-1.9630955457687378,1.0134309530258179,-9.721592903137207,-0.2725731153816637,0.0842271575061759,0.18244649810168362,1.0549280643463135,1.8467179536819458,0.8901598453521729
1730865958.984118,-1.895137906074524,1.0919886827468872,-9.815616607666016,-0.26030736573747393,0.10610687608080543,0.16204333455270356,1.0567768812179565,1.8478093147277832,0.8894664645195007
1730865959.0339692,-1.8222602605819702,1.1473636627197266,-9.905097961425781,-0.2011057095077551,0.09658177757661479,0.1092111528667836,1.0564583539962769,1.8480008840560913,0.8902395963668823
1730865959.0840662,-1.7455374002456665,1.1361726522445679,-9.956357955932617,-0.10915047607350903,0.057655521983890734,0.034752589063353684,1.059774398803711,1.848170518875122,0.8890964388847351
1730865959.1339521,-1.700907826423645,1.1482601165771484,-10.000899314880371,-0.008698418955500775,0.003625974314393019,-0.0429465009568251,1.060579538345337,1.8484044075012207,0.8892709612846375
1730865959.1839936,-1.7207727432250977,1.1174755096435547,-10.020934104919434,0.07598783836950863,-0.04603188459599726,-0.10517894261127507,1.0614688396453857,1.848584771156311,0.889258861541748
1730865959.233999,-1.7523990869522095,1.134559988975525,-9.988039016723633,0.12772319034222918,-0.07585485297110053,-0.139492658241897,1.061598300933838,1.8440271615982056,0.8898624181747437
1730865959.2839696,-1.8286563158035278,1.1376848220825195,-9.950651168823242,0.13988491587544633,-0.08009024733465853,-0.14279165519051618,1.0627087354660034,1.8428698778152466,0.8895716667175293
1730865959.3339097,-1.8731988668441772,1.1633003950119019,-9.883402824401855,0.11612103328402729,-0.06332508407847282,-0.11959537445382629,1.064113736152649,1.8438348770141602,0.8912817239761353
1730865959.3839538,-1.8731988668441772,1.1633003950119019,-9.883402824401855,0.0673734877711564,-0.03662150844687575,-0.07819572793299272,1.0656532049179077,1.843298077583313,0.8913099765777588
1730865959.3839538,-1.87714421749115,1.2097761631011963,-9.829784393310547,0.00951832615659781,-0.01160505669161462,-0.029146712840704067,1.064588189125061,1.8442165851593018,0.8924202919006348
1730865959.43391,-1.87714421749115,1.2097761631011963,-9.829784393310547,-0.03986554475693509,0.0039973580039439835,0.01573788740642197,1.065592646598816,1.8440663814544678,0.8929993510246277
1730865959.43391,-1.8527741432189941,1.2444229125976562,-9.779115676879883,-0.06776884910228208,0.007917050775314021,0.04697696269937986,1.0656006336212158,1.8440651893615723,0.893004298210144
1730865959.483997,-1.7791498899459839,1.2536530494689941,-9.761033058166504,-0.07004961954388544,0.0023552538370455334,0.06115162918232911,1.066471815109253,1.8439222574234009,0.8936843872070312
1730865959.5338774,-1.7433054447174072,1.2289862632751465,-9.7857084274292,-0.04977240180482674,-0.00851522107314669,0.06151982620915114,1.066497802734375,1.831958532333374,0.8945421576499939
1730865959.583923,-1.7001326084136963,1.2023404836654663,-9.813427925109863,-0.013747975134597433,-0.020206950869931975,0.05454856245358357,1.0669618844985962,1.8286701440811157,0.8953320384025574
1730865959.6338441,-1.658395528793335,1.1724835634231567,-9.855494499206543,0.028541802183865553,-0.027959129431543397,0.04456475510331086,1.0686182975769043,1.8324229717254639,0.8962117433547974
1730865959.6838272,-1.589672565460205,1.1396898031234741,-9.88569164276123,0.06635071861041354,-0.027475435255682308,0.03168378747991918,1.0700665712356567,1.833229660987854,0.8976074457168579
1730865959.733828,-1.5081108808517456,1.1046420335769653,-9.922158241271973,0.09165657314214402,-0.017263329971724813,0.014854786820778995,1.0713424682617188,1.832797884941101,0.8986794948577881
1730865959.7838185,-1.4295170307159424,1.1049782037734985,-9.95274543762207,0.10250743763542382,-1.7061628765843717e-05,-0.004719387670167784,1.07285737991333,1.8323458433151245,0.8997607827186584
1730865959.833836,-1.4276865720748901,1.1359474658966064,-9.951932907104492,0.10339887153928465,0.018776107925337616,-0.0240796762831996,1.0746378898620605,1.8319154977798462,0.9008104801177979
1730865959.8838398,-1.4848183393478394,1.1582427024841309,-9.916403770446777,0.10221129909625305,0.03329302258526323,-0.04062334241357139,1.0717284679412842,1.829734206199646,0.8987516164779663
1730865959.9337692,-1.5948827266693115,1.1681678295135498,-9.850994110107422,0.10352903985667171,0.03919870019405558,-0.05196272149828207,1.0731457471847534,1.8301525115966797,0.8995636701583862
1730865959.9839382,-1.7093874216079712,1.1369863748550415,-9.79179573059082,0.10289836850437833,0.035309415689470845,-0.054579025962678815,1.0744646787643433,1.8299832344055176,0.8999193906784058
1730865960.0338023,-1.8193243741989136,1.1080282926559448,-9.737626075744629,0.08900445039492841,0.02482011596754316,-0.044746155284291315,1.075181245803833,1.8304510116577148,0.900813102722168
1730865960.083812,-1.884267807006836,1.1029753684997559,-9.714607238769531,0.05325076154260294,0.014015550142629268,-0.02179628198567042,1.0765190124511719,1.8304965496063232,0.9012137055397034
1730865960.1337838,-1.9105286598205566,1.1115912199020386,-9.716594696044922,-0.0015833324253174356,0.008046114243055413,0.009354804579048375,1.0779181718826294,1.8305696249008179,0.9015977382659912
1730865960.1837988,-1.9257912635803223,1.116139531135559,-9.744019508361816,-0.06142153805116458,0.007543549851484297,0.0391520527927696,1.0766210556030273,1.8248668909072876,0.9021236896514893
1730865960.2337227,-1.9447674751281738,1.1083884239196777,-9.78177261352539,-0.1095132982088326,0.009552237141047729,0.05781551081034799,1.0771229267120361,1.8234223127365112,0.9027503132820129
1730865960.28374,-1.942165493965149,1.0875669717788696,-9.824285507202148,-0.13461273923088604,0.011046448220423437,0.0595636433103353,1.0778602361679077,1.8250904083251953,0.9018995761871338
1730865960.3336928,-1.9253342151641846,1.0885087251663208,-9.844911575317383,-0.13331521903564592,0.011116662568231347,0.04412867480608319,1.078104853630066,1.8247531652450562,0.9022483229637146
1730865960.383695,-1.8715403079986572,1.0781447887420654,-9.8873929977417,-0.109078850740816,0.01040542098094861,0.016588370345127838,1.0780460834503174,1.824445128440857,0.9026702642440796
1730865960.4336674,-1.8378441333770752,1.0401469469070435,-9.917705535888672,-0.06947890189622508,0.009764468585949652,-0.014817209373114032,1.077763557434082,1.8241603374481201,0.9030970931053162
1730865960.48365,-1.7672381401062012,1.032460331916809,-9.951805114746094,-0.022456084433095935,0.01028683413219535,-0.043144818099393134,1.079851746559143,1.8214223384857178,0.899772584438324
1730865960.5337403,-1.7021394968032837,1.0370874404907227,-9.975760459899902,0.025655707069660645,0.013262116633890653,-0.0653168053087615,1.0801875591278076,1.8207272291183472,0.8993340730667114
1730865960.5838394,-1.7021394968032837,1.0370874404907227,-9.975760459899902,0.06890439337487804,0.018413671670491908,-0.08004417675804412,1.0833309888839722,1.263905644416809,0.8972423672676086
1730865960.5838394,-1.65043306350708,1.073177456855774,-10.0149564743042,0.10050706559133966,0.02285740287419284,-0.08550656006382859,1.0833407640457153,1.2626404762268066,0.8972349166870117
1730865960.6337297,-1.6014059782028198,1.14634108543396,-10.020565032958984,0.1154430907972058,0.022430550500782607,-0.08093394872471056,1.0848468542099,1.086478590965271,0.8960955142974854
1730865960.6836996,-1.5850491523742676,1.22859787940979,-9.987622261047363,0.11441121144250481,0.013004431472788541,-0.06872789944954463,1.0867825746536255,1.3474348783493042,0.8950315117835999
1730865960.733647,-1.6096011400222778,1.2526041269302368,-9.945744514465332,0.1034237178551403,-0.008125987530276652,-0.052949339468711706,1.0887483358383179,1.3244949579238892,0.8937587141990662
1730865960.7837098,-1.665219783782959,1.2559261322021484,-9.857342720031738,0.08796058477184951,-0.0383940099101124,-0.03572505984796401,1.090957760810852,1.3014626502990723,0.8923724293708801
1730865960.8336103,-1.7471556663513184,1.2027697563171387,-9.769553184509277,0.06784202962105237,-0.0679797376499413,-0.015113177076364722,1.0933501720428467,1.2784212827682495,0.8909299969673157
1730865960.8836133,-1.8258168697357178,1.1118991374969482,-9.667461395263672,0.038332595340009934,-0.08435934532537206,0.01416557813148161,1.0891170501708984,1.4244099855422974,0.893221914768219
1730865960.9335773,-1.8815194368362427,1.0185134410858154,-9.608986854553223,-0.004039372803499256,-0.0787494829253955,0.056269565137318726,1.0901908874511719,1.4280128479003906,0.8926345705986023
1730865960.9835758,-1.8815194368362427,1.0185134410858154,-9.608986854553223,-0.05503181489200723,-0.049895837698282486,0.10682185699522743,1.0912243127822876,1.4697933197021484,0.8918165564537048
1730865960.9835758,-1.8734042644500732,0.954424262046814,-9.58102798461914,-0.10141205692957335,-0.005045301962028849,0.15086670214281117,1.091230034828186,1.4698529243469238,0.8918139934539795
1730865961.033538,-1.8734042644500732,0.954424262046814,-9.58102798461914,-0.12805021225259594,0.042870520136813466,0.17202729300872746,1.0919580459594727,1.4791367053985596,0.8916335105895996
1730865961.033538,-1.824157476425171,0.9195178747177124,-9.613903045654297,-0.12670897842705955,0.08121174356927888,0.1633702829092969,1.0919634103775024,1.4792245626449585,0.8916338086128235
1730865961.0836797,-1.7324042320251465,0.9404146075248718,-9.695297241210938,-0.09862672594868505,0.10308828382170593,0.1292561862970038,1.0924108028411865,1.4887219667434692,0.8918288946151733
1730865961.133535,-1.6441199779510498,0.9858413338661194,-9.814929962158203,-0.050662808299027876,0.1085816327740758,0.07927218907143477,1.093813180923462,1.5093034505844116,0.8920732736587524
1730865961.1836119,-1.5686087608337402,1.074684739112854,-9.920032501220703,0.008941186845499044,0.10104072787942309,0.021866220605597703,1.0945535898208618,1.5202680826187134,0.8922930359840393
1730865961.2334654,-1.542607307434082,1.151999592781067,-10.003628730773926,0.07011682281119568,0.08208128100049797,-0.03650191878158586,1.0963032245635986,1.5445526838302612,0.8918690085411072
1730865961.283573,-1.5542049407958984,1.2301385402679443,-10.041191101074219,0.11989053360246377,0.050738458596382464,-0.08895973638670981,1.0977225303649902,1.5601779222488403,0.891649067401886
1730865961.3333614,-1.6225168704986572,1.2406723499298096,-10.066964149475098,0.1456873364149777,0.00820637924549755,-0.12763290744344025,1.0994641780853271,1.5758030414581299,0.8911619186401367
1730865961.3834236,-1.7253564596176147,1.2138913869857788,-10.027120590209961,0.1396209500187608,-0.03823433806112784,-0.14574189127975523,1.1015760898590088,1.5915124416351318,0.8903290033340454
1730865961.4334004,-1.8377536535263062,1.1672279834747314,-9.96264362335205,0.10002318732012841,-0.07759850354702579,-0.14070340195783204,1.0985581874847412,1.5679858922958374,0.8913405537605286
1730865961.4834306,-1.8791604042053223,1.118408203125,-9.90227222442627,0.032328175851670075,-0.10018719908047152,-0.11509553555787272,1.0996547937393188,1.575297236442566,0.890629768371582
1730865961.5334456,-1.8703622817993164,1.049418330192566,-9.87574577331543,-0.04830766711316838,-0.10024746509190356,-0.07491575919835106,1.1006355285644531,1.5955255031585693,0.8910239338874817
1730865961.5833516,-1.7904411554336548,0.9940613508224487,-9.860814094543457,-0.11796322737057267,-0.07702061787039897,-0.02809607688185998,1.1026999950408936,1.6247836351394653,0.8909178972244263
1730865961.6333067,-1.6464136838912964,0.9628157019615173,-9.86606502532959,-0.15330861931944884,-0.03615575194885286,0.015898727471447854,1.1037213802337646,1.643341302871704,0.8905808329582214
1730865961.683353,-1.5627888441085815,0.9482263922691345,-9.848698616027832,-0.14194528336122303,0.010534175184614586,0.04759920732922963,1.1043754816055298,1.6619051694869995,0.8903225660324097
1730865961.7333167,-1.562458872795105,0.9341247081756592,-9.841981887817383,-0.08589975829940455,0.0498928803644977,0.06128320975915702,1.1047441959381104,1.6805392503738403,0.890200674533844
1730865961.783527,-1.5797141790390015,0.9555282592773438,-9.840194702148438,0.0005043739045953177,0.0736850112678559,0.05788410373359795,1.103037714958191,1.6471686363220215,0.8927733302116394
1730865961.8334281,-1.656130313873291,1.0449622869491577,-9.828990936279297,0.09437321539658501,0.08011321281388953,0.0437761748965538,1.1033920049667358,1.6562076807022095,0.8932977914810181
1730865961.883437,-1.7408385276794434,1.130565881729126,-9.812065124511719,0.1677990757503083,0.06989228505924266,0.02686985791267598,1.104063630104065,1.6652756929397583,0.8939007520675659
1730865961.933372,-1.8037424087524414,1.1793253421783447,-9.80042552947998,0.19461569444293397,0.04258030129851201,0.0134838064451192,1.1051939725875854,1.6745778322219849,0.8945600986480713
1730865961.9834905,-1.8700915575027466,1.1633671522140503,-9.820185661315918,0.16145099526967183,-0.002077762582111918,0.007090327930364632,1.103385329246521,1.6396548748016357,0.8945475220680237
1730865962.0333447,-1.9134926795959473,1.100498914718628,-9.80792236328125,0.07573447461564317,-0.05874692472146703,0.007928527466333721,1.1042104959487915,1.6412312984466553,0.8950144052505493
1730865962.083408,-1.9134926795959473,1.100498914718628,-9.80792236328125,-0.03488224134655667,-0.1122448586085013,0.013343998154092802,1.1035475730895996,1.6359052658081055,0.8960983753204346
1730865962.083408,-1.9817607402801514,0.9967160820960999,-9.799867630004883,-0.13320030952484568,-0.14175272387519366,0.019432055751170497,1.1035501956939697,1.6359074115753174,0.8961049914360046
1730865962.1332574,-2.009242534637451,0.8998187184333801,-9.762540817260742,-0.19055486252696263,-0.13271946002960736,0.023262538761546013,1.1035784482955933,1.6359635591506958,0.8968212604522705
1730865962.1833553,-2.0146119594573975,0.8520634174346924,-9.732019424438477,-0.19963698873919022,-0.08424739375271173,0.02451403715165925,1.1033203601837158,1.6346021890640259,0.897736132144928
1730865962.2332752,-1.9653370380401611,0.8578269481658936,-9.763777732849121,-0.17205821376940061,-0.008102029489401783,0.025090738958964576,1.1032878160476685,1.6346510648727417,0.8992062211036682
1730865962.2832632,-1.8760980367660522,0.9307280778884888,-9.811843872070312,-0.1254717894230277,0.07343815155844065,0.025887615481978724,1.1026304960250854,1.634810209274292,0.9002365469932556
1730865962.3331802,-1.7786275148391724,1.0387083292007446,-9.875558853149414,-0.07237459881559735,0.13209278805060015,0.024074111454128553,1.1017374992370605,1.6352208852767944,0.9013137817382812
1730865962.3832405,-1.7020138502120972,1.1243410110473633,-9.926508903503418,-0.017288729678264968,0.14450267695847246,0.014429035957145526,1.1007225513458252,1.6359822750091553,0.9024514555931091
1730865962.4332123,-1.6601722240447998,1.1989141702651978,-9.964488983154297,0.04033550663514447,0.10225167136186782,-0.007341114460184222,1.1034661531448364,1.6352496147155762,0.8989649415016174
1730865962.4832904,-1.6342209577560425,1.2611186504364014,-9.975395202636719,0.1004310513731031,0.015023084328053254,-0.04126937508665238,1.1035560369491577,1.6357829570770264,0.899075448513031
1730865962.5331616,-1.622498869895935,1.2675787210464478,-9.962905883789062,0.15546253426285486,-0.0907817252717395,-0.07978643554837309,1.104492425918579,1.6354904174804688,0.898480236530304
1730865962.5832772,-1.639206886291504,1.2061913013458252,-9.937066078186035,0.19031104394393972,-0.1798045686635772,-0.1088230192247342,1.1053184270858765,1.6352955102920532,0.8981593251228333
1730865962.6331246,-1.6860491037368774,1.1449236869812012,-9.880510330200195,0.1920035969920025,-0.22235406983610492,-0.11561927204059899,1.106618046760559,1.6345998048782349,0.897559642791748
1730865962.6834114,-1.7109571695327759,1.0855287313461304,-9.83228588104248,0.15843516460027096,-0.2059675606268492,-0.0956150537619185,1.105521559715271,1.6354985237121582,0.8981237411499023
1730865962.7330935,-1.709753394126892,1.0741137266159058,-9.788422584533691,0.09902266205940102,-0.1381692061322461,-0.053217450518114405,1.1065329313278198,1.6347222328186035,0.8976480960845947
1730865962.7832174,-1.6724727153778076,1.0828081369400024,-9.795247077941895,0.031198930040501387,-0.04343852996907207,0.00012498769665330103,1.1058437824249268,2.169523000717163,0.8999951481819153
1730865962.8330767,-1.6206578016281128,1.0981696844100952,-9.837224006652832,-0.025078606203858593,0.045645139243442906,0.04896355246447833,1.106339931488037,2.3398730754852295,0.900498628616333
1730865962.8830912,-1.5427521467208862,1.13316011428833,-9.84755802154541,-0.054533612780356414,0.1021827703402667,0.07900656970202194,1.105968713760376,2.158508539199829,0.9020621180534363
1730865962.933006,-1.5629488229751587,1.1618047952651978,-9.863628387451172,-0.05218276006878021,0.11513110217797623,0.08263398423191114,1.106054663658142,2.2041678428649902,0.9031237363815308
1730865962.9830446,-1.629149079322815,1.215698003768921,-9.845447540283203,-0.025619256556345844,0.08994297439725957,0.06215327187087199,1.1060433387756348,2.2500102519989014,0.9043644666671753
1730865963.0340078,-1.6967530250549316,1.2590280771255493,-9.838217735290527,0.006988080227797524,0.04184976540061394,0.0286182730682706,1.1060081720352173,2.297072172164917,0.9057503938674927
1730865963.084012,-1.7413307428359985,1.2730633020401,-9.82457160949707,0.02482953786773393,-0.012974293419189209,-0.0038738415058037186,1.1062642335891724,2.1057655811309814,0.9018911123275757
1730865963.1339903,-1.7646113634109497,1.2583575248718262,-9.81188678741455,0.015255064440215198,-0.062299249396593426,-0.024596142885663922,1.1064512729644775,2.1130406856536865,0.9020705223083496
1730865963.1839724,-1.7786732912063599,1.2127102613449097,-9.802888870239258,-0.018903676603467784,-0.09661429782159768,-0.029575222609954564,1.1070072650909424,2.0833740234375,0.9013547897338867
1730865963.233917,-1.8130278587341309,1.14822256565094,-9.807696342468262,-0.06135035027687932,-0.10769997433685122,-0.021360728324084272,1.1071807146072388,2.0848548412323,0.901258111000061
1730865963.2838762,-1.809478998184204,1.100132703781128,-9.810400009155273,-0.09349087783551177,-0.09176249033171105,-0.006538323630670928,1.107161283493042,2.086087942123413,0.9011266231536865
1730865963.333905,-1.797210454940796,1.1131501197814941,-9.829365730285645,-0.10487064637154475,-0.05268304838635293,0.0074204633445058964,1.1078382730484009,2.072091817855835,0.9010888338088989
1730865963.383851,-1.7991148233413696,1.125964879989624,-9.836786270141602,-0.09541919917256186,-0.001326017853551225,0.014973540962412654,1.1076579093933105,2.0715198516845703,0.9010735154151917
1730865963.4338167,-1.7826963663101196,1.1695894002914429,-9.845488548278809,-0.07179688366357014,0.04701385157885162,0.014260434678291441,1.1089094877243042,2.0701239109039307,0.9009854197502136
1730865963.4838102,-1.7767739295959473,1.2048052549362183,-9.856528282165527,-0.042662702092630476,0.07693414498800742,0.007066585828233184,1.109007716178894,2.070185422897339,0.900989830493927
1730865963.5337822,-1.8129676580429077,1.1983704566955566,-9.851751327514648,-0.01567519538461174,0.07976107017047573,-0.0028333547085135735,1.109842300415039,2.0698750019073486,0.9008691906929016
1730865963.5838563,-1.865580439567566,1.1427628993988037,-9.82577133178711,0.0033406797960737773,0.058345082704461475,-0.011493418790924687,1.1101335287094116,2.070183277130127,0.9008126854896545
1730865963.633715,-1.881205439567566,1.0834192037582397,-9.824111938476562,0.010609975147828505,0.025856279640765104,-0.015734099832436187,1.110461950302124,2.0706193447113037,0.9007171392440796
1730865963.68373,-1.863053321838379,1.0553536415100098,-9.826824188232422,0.005235251250225585,-0.00024514707195762327,-0.013767362191006275,1.1108436584472656,2.0664823055267334,0.9008498191833496
1730865963.7337158,-1.8265241384506226,1.0528087615966797,-9.850543975830078,-0.009612689029398382,-0.006789316966178501,-0.006166438474806258,1.1111407279968262,2.06587290763855,0.9007832407951355
1730865963.7837036,-1.7715882062911987,1.0776413679122925,-9.877630233764648,-0.02620194186377532,0.007384830697041928,0.003482891722883776,1.1113808155059814,2.0652918815612793,0.900716245174408
1730865963.8336518,-1.7354477643966675,1.0973707437515259,-9.941924095153809,-0.03416654317911429,0.03086064644696475,0.009342182550446661,1.11178457736969,2.0663068294525146,0.9007565379142761
1730865963.8837056,-1.689695954322815,1.1317925453186035,-9.966397285461426,-0.025652211739579617,0.04803881584013095,0.006005943646333829,1.111987829208374,2.066322088241577,0.900743305683136
1730865963.9335935,-1.6389662027359009,1.1293141841888428,-9.971222877502441,-0.0005720312629210363,0.04902572161708205,-0.0075979512129535805,1.1121565103530884,2.066457509994507,0.9007283449172974
1730865963.9836588,-1.6623183488845825,1.1505361795425415,-9.938908576965332,0.03332160868474995,0.033382080433693465,-0.02642634975546765,1.1126983165740967,2.0629920959472656,0.9024630188941956
1730865964.0335605,-1.685981035232544,1.114296793937683,-9.907242774963379,0.0652155807153344,0.007893832840564819,-0.042116956626111916,1.1131556034088135,2.0622780323028564,0.9027461409568787
1730865964.0836053,-1.7127622365951538,1.098321795463562,-9.828071594238281,0.08512613245552633,-0.01720715603546596,-0.04723548312920694,1.1134685277938843,2.0630478858947754,0.9023741483688354
1730865964.1335196,-1.7381293773651123,1.0863145589828491,-9.812661170959473,0.08614562470875006,-0.03208385165876282,-0.03786754641861622,1.114172339439392,2.0627834796905518,0.902268648147583
1730865964.1835907,-1.7394286394119263,1.1070185899734497,-9.751754760742188,0.06749697961343856,-0.03199171983858109,-0.015393356259472642,1.1141794919967651,2.0631747245788574,0.9044409394264221
1730865964.2335656,-1.7783422470092773,1.099996566772461,-9.74980354309082,0.0356303238568411,-0.019794024589786206,0.01344435794563296,1.1148377656936646,2.0629899501800537,0.9050720930099487
1730865964.2834716,-1.775434136390686,1.1180026531219482,-9.734968185424805,0.0007138073363812721,-0.003172803916930317,0.03954980429158059,1.1155405044555664,2.062776565551758,0.9057685136795044
1730865964.3334875,-1.775434136390686,1.1180026531219482,-9.734968185424805,-0.028343856223786847,0.010384846259468406,0.055472909160239364,1.1145973205566406,2.0610299110412598,0.9082612991333008
1730865964.3334875,-1.7961090803146362,1.0978853702545166,-9.74190616607666,-0.04659870783771321,0.01672807307995482,0.05817189220439278,1.1145987510681152,2.0610268115997314,0.9082682728767395
1730865964.3834748,-1.8024729490280151,1.096219539642334,-9.761283874511719,-0.053206631546644755,0.015966988235688144,0.049226414200373395,1.1147407293319702,2.0605666637420654,0.909390926361084
1730865964.4334664,-1.8024729490280151,1.096219539642334,-9.761283874511719,-0.05039116809169668,0.01151528320356854,0.032697394353595054,1.1151068210601807,2.061142683029175,0.912212073802948
1730865964.4334664,-1.8615046739578247,1.0873790979385376,-9.789366722106934,-0.042279896460737286,0.007463561648046055,0.013067004724613425,1.1151080131530762,2.0611422061920166,0.912225067615509
1730865964.4834557,-1.8906596899032593,1.113863468170166,-9.796687126159668,-0.03393052543657069,0.005977528573094304,-0.005697530613049916,1.1152026653289795,2.061086416244507,0.9137495160102844
1730865964.533443,-1.8843986988067627,1.1354656219482422,-9.818350791931152,-0.030197589786105886,0.006297645201666967,-0.02088264782371516,1.1152175664901733,2.0610458850860596,0.9152424931526184
1730865964.5834439,-1.8520234823226929,1.1645499467849731,-9.829914093017578,-0.03382987272798513,0.005482221364172863,-0.03176919225080649,1.1151527166366577,2.0610201358795166,0.9166678190231323
1730865964.6334517,-1.8085271120071411,1.176212191581726,-9.861815452575684,-0.04348980836362991,0.0001849299890495557,-0.03969270158512635,1.1154972314834595,2.0564467906951904,0.9157063364982605
1730865964.6834452,-1.7181299924850464,1.1627516746520996,-9.876137733459473,-0.053379612022370834,-0.011024833115519132,-0.04676314023601539,1.115439534187317,2.0553598403930664,0.9166616201400757
1730865964.7333987,-1.6924563646316528,1.1392431259155273,-9.905946731567383,-0.055091844858917154,-0.025334853648166077,-0.05354927884184297,1.1159480810165405,2.0566933155059814,0.9179394841194153
1730865964.7834475,-1.6710063219070435,1.1597439050674438,-9.915834426879883,-0.041945106051443845,-0.036221311170073496,-0.05817095627797549,1.115916132926941,2.056307792663574,0.9188634157180786
1730865964.8333828,-1.6623401641845703,1.1732234954833984,-9.910504341125488,-0.014421884786597018,-0.03848006707198916,-0.058057896635672464,1.115810751914978,2.0558066368103027,0.9196837544441223
1730865964.8834436,-1.664509892463684,1.188157320022583,-9.918722152709961,0.01879927600959362,-0.0327240746285943,-0.052032646896681765,1.1157150268554688,2.055244207382202,0.9203273057937622
1730865964.933397,-1.664509892463684,1.188157320022583,-9.918722152709961,0.04652198982557436,-0.024332574803772454,-0.041107392889220704,1.1164716482162476,2.0538547039031982,0.9198818206787109
1730865964.933397,-1.6572636365890503,1.1673773527145386,-9.908549308776855,0.06145038097097763,-0.018743861245204003,-0.028036075333868666,1.1164733171463013,2.0538485050201416,0.9198856949806213
1730865964.9834638,-1.6591688394546509,1.130024790763855,-9.90406608581543,0.06214456849279053,-0.017253372426593458,-0.015679290327614084,1.1167473793029785,2.053117036819458,0.9203150868415833
1730865965.0333724,-1.6591688394546509,1.130024790763855,-9.90406608581543,0.051612131040493836,-0.01621605675578732,-0.0055419949538938005,1.1170769929885864,2.0540854930877686,0.9223390817642212
1730865965.0333724,-1.6374982595443726,1.1253414154052734,-9.897210121154785,0.035223002605602224,-0.010717003070108576,0.0021586813436983063,1.1170793771743774,2.054084300994873,0.9223456978797913
1730865965.0834715,-1.6542800664901733,1.1127800941467285,-9.890379905700684,0.01879307447022944,0.0005237031518629974,0.007610581329312233,1.117613434791565,2.054279088973999,0.9246888160705566
1730865965.1333466,-1.6624219417572021,1.1077226400375366,-9.87459659576416,0.006624900439481834,0.014065354375835693,0.011023469032408518,1.118019938468933,2.054246187210083,0.9261032342910767
1730865965.183495,-1.6803877353668213,1.1172305345535278,-9.872438430786133,-9.347511351373182e-06,0.02479802048656972,0.012814900233428256,1.1184362173080444,2.0542619228363037,0.9275522232055664
1730865965.2333581,-1.6642932891845703,1.1443051099777222,-9.851571083068848,-0.0027206598229597323,0.029036438837930167,0.013766515315296095,1.1180773973464966,2.049110174179077,0.925075888633728
1730865965.2835011,-1.676072597503662,1.1518168449401855,-9.866317749023438,-0.004098694416095622,0.025563376864086954,0.014734114638989505,1.1182734966278076,2.048064708709717,0.9255807399749756
1730865965.3333554,-1.688549518585205,1.173169493675232,-9.839729309082031,-0.005844825474239782,0.01564260992648498,0.015825266090256484,1.118677020072937,2.0491456985473633,0.9253655672073364
1730865965.3832452,-1.7406500577926636,1.1670211553573608,-9.839791297912598,-0.00861227108797579,0.002514496168517012,0.016158243611429965,1.1189407110214233,2.048922300338745,0.9258003830909729
1730865965.4331973,-1.7592371702194214,1.1434805393218994,-9.807424545288086,-0.013019149560662625,-0.0095893886487179,0.015027765286109475,1.119418978691101,2.049389600753784,0.9236289262771606
1730865965.4832108,-1.7919294834136963,1.1425443887710571,-9.786770820617676,-0.01987149189978539,-0.016670869827360043,0.013026602135121424,1.1197116374969482,2.049285888671875,0.9233207106590271
1730865965.5332005,-1.8289555311203003,1.1339582204818726,-9.734051704406738,-0.029083235275309843,-0.016688483324154114,0.011912405275189126,1.1199451684951782,2.0491397380828857,0.923041582107544
1730865965.5832748,-1.8289555311203003,1.1339582204818726,-9.734051704406738,-0.03929126303496112,-0.010692767072489819,0.013895554395352604,1.120042085647583,2.044461727142334,0.921985924243927
1730865965.5832748,-1.906752586364746,1.1017496585845947,-9.722082138061523,-0.04903181288192175,-0.0017289590358613679,0.020435255668150666,1.120043396949768,2.044450044631958,0.9219823479652405
1730865965.6332035,-1.9440362453460693,1.0649313926696777,-9.711519241333008,-0.05778920277326604,0.007587616719464788,0.030369219842212494,1.1201175451278687,2.0431528091430664,0.9216230511665344
1730865965.6832056,-1.954621434211731,1.0486096143722534,-9.747272491455078,-0.06622341049219824,0.016735328799618292,0.03958372304843718,1.118992567062378,2.04481840133667,0.9206119179725647
1730865965.733109,-1.9300211668014526,1.0519165992736816,-9.785317420959473,-0.07501856589428771,0.026573638256110782,0.04326725378375869,1.1184567213058472,2.0446183681488037,0.9201631546020508
1730865965.7832572,-1.8917458057403564,1.0662336349487305,-9.863221168518066,-0.0817335336609166,0.03637667994716284,0.03794259134296087,1.117754578590393,2.044504404067993,0.9198348522186279
1730865965.8331983,-1.8261340856552124,1.0515388250350952,-9.917787551879883,-0.07952653576223132,0.04246239384504376,0.021534753008437234,1.1168341636657715,2.044485330581665,0.9195714592933655
1730865965.8832433,-1.7325536012649536,1.0188775062561035,-9.973783493041992,-0.060780021524122756,0.04125511886629098,-0.007094007429029282,1.118187665939331,2.040531873703003,0.9195787906646729
1730865965.9331484,-1.6438817977905273,1.0134690999984741,-9.997303009033203,-0.02237583257888702,0.03304192759182599,-0.04657248891884515,1.117726445198059,2.0399043560028076,0.91925048828125
1730865965.9832146,-1.6068297624588013,1.0392526388168335,-10.010113716125488,0.03059419990855347,0.021521932526841515,-0.08937197620610474,1.1177517175674438,2.0406315326690674,0.9193440079689026
1730865966.0331244,-1.5930547714233398,1.1113393306732178,-9.983500480651855,0.08503431530465536,0.010066840938118153,-0.12196401002399766,1.117602825164795,2.0405454635620117,0.9187872409820557
1730865966.0831685,-1.6152253150939941,1.2080261707305908,-9.939994812011719,0.12513219736172607,-0.0013774563938254015,-0.13172511740203063,1.1175129413604736,2.0407981872558594,0.9188727140426636
1730865966.1329873,-1.6628810167312622,1.2549554109573364,-9.904179573059082,0.13905410046688127,-0.015988404947980272,-0.11395017521342254,1.1177961826324463,2.040755271911621,0.9180977940559387
1730865966.183079,-1.7237470149993896,1.2498868703842163,-9.840123176574707,0.12307223193737107,-0.03559520597466892,-0.07353985619388206,1.1184070110321045,2.0406479835510254,0.9170879125595093
1730865966.232996,-1.7540323734283447,1.1959750652313232,-9.810408592224121,0.08165175151239185,-0.05639813120346668,-0.02157598987013936,1.117250680923462,2.035149097442627,0.9186788201332092
1730865966.282932,-1.7761001586914062,1.1373709440231323,-9.77637004852295,0.025009027351248707,-0.07028977553232986,0.030134259802975384,1.11648428440094,2.0353636741638184,0.9187583923339844
1730865966.3329697,-1.7739691734313965,1.080772876739502,-9.734260559082031,-0.0326954311030574,-0.06987446652545978,0.07183315575074856,1.116331696510315,2.0345067977905273,0.9187275767326355
1730865966.3838212,-1.7863746881484985,1.0190056562423706,-9.72805404663086,-0.076138161976996,-0.05233988583671051,0.0965171456406359,1.1152499914169312,2.035576343536377,0.9186218976974487
1730865966.4338863,-1.7863746881484985,1.0190056562423706,-9.72805404663086,-0.09490931514509537,-0.02078420122497853,0.10173529986138223,1.114487648010254,2.0351595878601074,0.9188398718833923
1730865966.4338863,-1.763444423675537,0.9958710074424744,-9.702902793884277,-0.08812707482718843,0.016254872822151233,0.09033367390767638,1.1144604682922363,2.0351459980010986,0.9188505411148071
1730865966.4838243,-1.7485802173614502,0.980993390083313,-9.72205638885498,-0.06293619009017046,0.04768951839744823,0.06861555485979486,1.113521695137024,2.0347723960876465,0.9192742109298706
1730865966.5338418,-1.7739217281341553,0.9647471904754639,-9.749009132385254,-0.02963034780473394,0.06551038006808867,0.04374150961742418,1.1148563623428345,2.031003713607788,0.918508768081665
1730865966.5839176,-1.776928424835205,1.0090956687927246,-9.792386054992676,0.002025901320338242,0.06829252662181591,0.021124487406057782,1.1145075559616089,2.0301220417022705,0.9186637997627258
1730865966.6337254,-1.7719019651412964,1.0469619035720825,-9.85647201538086,0.024653409440407652,0.0586436991266716,0.002552186878844161,1.1144890785217285,2.031308889389038,0.9181166887283325
1730865966.6840096,-1.742720127105713,1.0767850875854492,-9.918389320373535,0.03478688094077274,0.03930069738986115,-0.013562366043272878,1.1143096685409546,2.031297445297241,0.918036699295044
1730865966.733826,-1.7308605909347534,1.0838773250579834,-9.983128547668457,0.0338906813101125,0.01344569534934969,-0.02981358763403459,1.1143296957015991,2.031611919403076,0.9177918434143066
1730865966.7839155,-1.7244657278060913,1.1198302507400513,-10.016728401184082,0.027121468190777046,-0.013578310564109457,-0.047208632526774805,1.1142911911010742,2.0316388607025146,0.9175519347190857
1730865966.8337839,-1.7244657278060913,1.1198302507400513,-10.016728401184082,0.019826122323930905,-0.035734650793853004,-0.06384513116984727,1.1152338981628418,2.025735855102539,0.9174863696098328
1730865966.8337839,-1.6922295093536377,1.1217204332351685,-10.01152515411377,0.014841275292430131,-0.04903696093902371,-0.07528240905399074,1.1152355670928955,2.0257251262664795,0.9174844026565552
1730865966.8839517,-1.6949405670166016,1.091368556022644,-10.003122329711914,0.012813854780205908,-0.052155922658953024,-0.07691456782906063,1.1155015230178833,2.0240187644958496,0.9170903563499451
1730865966.9338105,-1.6541407108306885,1.079060673713684,-9.937772750854492,0.013844371575291607,-0.04543301793126587,-0.06655317017148789,1.116189956665039,2.0256803035736084,0.917466402053833
1730865966.9837117,-1.6971153020858765,1.0559735298156738,-9.882655143737793,0.01774820428307899,-0.030475516580482285,-0.04503197090044455,1.116592288017273,2.025155544281006,0.9171411991119385
1730865967.0336804,-1.7184339761734009,1.0200108289718628,-9.829143524169922,0.022373703482826506,-0.010448548650866958,-0.015552521941540682,1.1178898811340332,2.025944232940674,0.9175053238868713
1730865967.0837424,-1.7796587944030762,0.9819168448448181,-9.78043270111084,0.02286529032490399,0.010533960331776946,0.017088413439737528,1.1187793016433716,2.0257821083068848,0.9173865914344788
1730865967.1336548,-1.7767276763916016,0.9837790727615356,-9.749464988708496,0.01471760950827657,0.028771295624336835,0.047369920779861435,1.1197056770324707,2.0256707668304443,0.9173492789268494
1730865967.1838517,-1.7815088033676147,1.03798508644104,-9.75819206237793,-0.002414770714478086,0.04145528278259737,0.0703886457938257,1.1189322471618652,2.0210721492767334,0.9177140593528748
1730865967.2337184,-1.7815088033676147,1.03798508644104,-9.75819206237793,-0.024251553422666397,0.046441935517698596,0.08324975821710089,1.119375467300415,2.020118474960327,0.9179978370666504
1730865967.2337184,-1.7619465589523315,1.1153185367584229,-9.77953052520752,-0.04379063031563332,0.04247755738411359,0.08486367795483746,1.1193788051605225,2.020111322402954,0.9180009365081787
1730865967.283684,-1.7306779623031616,1.2181533575057983,-9.794438362121582,-0.05382488976199252,0.028981738279462467,0.07497386329603499,1.1197237968444824,2.0192534923553467,0.9184819459915161
1730865967.3336196,-1.73723566532135,1.2622041702270508,-9.825244903564453,-0.04987611529276173,0.004709166144679376,0.05459091348271603,1.1199405193328857,2.018436908721924,0.9191237688064575
1730865967.3837023,-1.7728885412216187,1.2536513805389404,-9.841352462768555,-0.0325273568428569,-0.03188241390189254,0.02661261454096211,1.1199921369552612,2.02117657661438,0.9178727269172668
1730865967.4336104,-1.7957485914230347,1.2329119443893433,-9.852080345153809,-0.007810152004212463,-0.07823799217768558,-0.00449302826987775,1.120231032371521,2.020880937576294,0.9180383086204529
1730865967.4835632,-1.8130037784576416,1.187165379524231,-9.869086265563965,0.014959171996538987,-0.1227921470825804,-0.03291777877467109,1.121238350868225,2.014800786972046,0.917645275592804
1730865967.5335834,-1.8403993844985962,1.1168467998504639,-9.861696243286133,0.027370781358911966,-0.1474443941182837,-0.052502434055026845,1.1217468976974487,2.0125231742858887,0.917509913444519
1730865967.5836523,-1.8365612030029297,1.1099493503570557,-9.855596542358398,0.025894892001685894,-0.1387588405083171,-0.05916245290181929,1.1236181259155273,2.0145649909973145,0.9174866676330566
1730865967.6335382,-1.8015090227127075,1.1125519275665283,-9.858222961425781,0.013300105012614685,-0.09755467605827758,-0.05269690574049096,1.1254676580429077,2.0149857997894287,0.91744464635849
1730865967.683565,-1.7416749000549316,1.0947171449661255,-9.853496551513672,-0.002780746265408014,-0.038617862853956755,-0.03679775344641685,1.126666784286499,2.0143299102783203,0.9171949028968811
1730865967.7336876,-1.707353949546814,1.0896289348602295,-9.870576858520508,-0.013146841587831958,0.017727494720920722,-0.017559887426001577,1.1278644800186157,2.0136377811431885,0.9168723225593567
1730865967.7836096,-1.6856294870376587,1.0882185697555542,-9.87708854675293,-0.010871292274222056,0.05587812208172892,-0.001128784412581343,1.129013180732727,2.0130481719970703,0.9165314435958862
1730865967.833548,-1.6856732368469238,1.1131680011749268,-9.89499282836914,0.006081212707373068,0.07039527816696406,0.008203201780273268,1.1272268295288086,2.0109786987304688,0.9173397421836853
1730865967.8835711,-1.6620116233825684,1.1451038122177124,-9.884458541870117,0.03403043291934053,0.06450076268112993,0.009004504786553916,1.1279009580612183,2.010190486907959,0.9172862768173218
1730865967.9334772,-1.6606212854385376,1.1801331043243408,-9.870457649230957,0.06418243322198697,0.04517547683574988,0.00328770197793704,1.1290982961654663,2.0114665031433105,0.9173204302787781
1730865967.9834714,-1.653437852859497,1.1797866821289062,-9.851520538330078,0.08578315651314972,0.01945342149325712,-0.004113749152720798,1.130286455154419,2.0114195346832275,0.9172718524932861
1730865968.0334425,-1.6758476495742798,1.1824043989181519,-9.821070671081543,0.09130388212703908,-0.006166200978756345,-0.008055871893759628,1.1316925287246704,2.0113892555236816,0.917208194732666
1730865968.0835173,-1.7237505912780762,1.1566532850265503,-9.81063461303711,0.07936602712034035,-0.02543384060818625,-0.0054750732446812965,1.1333097219467163,2.011319637298584,0.917127788066864
1730865968.1334534,-1.7996176481246948,1.1426687240600586,-9.782665252685547,0.05315870535823912,-0.03369368852682302,0.004204589317662103,1.1308302879333496,2.0066001415252686,0.9171517491340637
1730865968.1835039,-1.8628112077713013,1.1092867851257324,-9.77823543548584,0.017455567797931948,-0.0296109722520554,0.019398240870431106,1.1316184997558594,2.0055642127990723,0.9171338677406311
1730865968.2334023,-1.8774480819702148,1.0935637950897217,-9.79169750213623,-0.02196133978553539,-0.015457880915453427,0.0359459882947842,1.1328802108764648,2.006613254547119,0.9167264699935913
1730865968.2834685,-1.8534674644470215,1.108945369720459,-9.822172164916992,-0.05743883919421996,0.0037979139076700034,0.04753720988620186,1.134359359741211,2.0068511962890625,0.9163300395011902
1730865968.3333826,-1.7973651885986328,1.1064001321792603,-9.855999946594238,-0.08024435923190519,0.021814176050873657,0.04862853514492988,1.1352462768554688,2.0067713260650635,0.9162899851799011
1730865968.3833833,-1.749116063117981,1.0848197937011719,-9.900351524353027,-0.08318651771311456,0.032975154375924604,0.03743655086133408,1.1359245777130127,2.0067601203918457,0.9163575172424316
1730865968.4334073,-1.749116063117981,1.0848197937011719,-9.900351524353027,-0.06366231311447695,0.03515502480714709,0.016084180003619393,1.136421799659729,2.0068342685699463,0.9164921641349792
1730865968.4334073,-1.6887575387954712,1.0780417919158936,-9.944061279296875,-0.025196925501954376,0.030579069513811653,-0.011296218987275772,1.1364256143569946,2.0068352222442627,0.9164935946464539
1730865968.4834383,-1.660573959350586,1.0784896612167358,-9.943114280700684,0.02432559707836605,0.023718874587501132,-0.0404845427454779,1.135800838470459,2.0010621547698975,0.9160094261169434
1730865968.5333052,-1.6808581352233887,1.0688133239746094,-9.9386625289917,0.0752995390710406,0.018451374378767385,-0.06756716282269469,1.1370187997817993,2.0013575553894043,0.9156374931335449
1730865968.5834394,-1.6925055980682373,1.0484857559204102,-9.91047477722168,0.11630655396024438,0.016378042424968965,-0.08735629223842296,1.138003945350647,2.0009913444519043,0.9152060151100159
1730865968.6333168,-1.7340891361236572,1.0040960311889648,-9.874168395996094,0.13517262242927552,0.017118687590324214,-0.09316115370262076,1.1393836736679077,2.001641273498535,0.9152268171310425
1730865968.6832635,-1.7513102293014526,0.9668171405792236,-9.831408500671387,0.1251106756356537,0.020030727687787436,-0.08051067246463425,1.140899419784546,2.001614809036255,0.9146662950515747
1730865968.7332773,-1.7555934190750122,0.9132131338119507,-9.825553894042969,0.08991888360714428,0.02513666691249453,-0.051176249898474246,1.1426841020584106,2.0016448497772217,0.9139411449432373
1730865968.783267,-1.7511773109436035,0.8991687297821045,-9.808719635009766,0.04224842795309519,0.03288239020724633,-0.012974930003190346,1.140531063079834,1.9954594373703003,0.9150188565254211
1730865968.833155,-1.7669599056243896,0.9138646125793457,-9.811017036437988,-0.0029592195159835726,0.043283548109252626,0.024017052120859254,1.1413723230361938,1.9939424991607666,0.9147882461547852
1730865968.8833268,-1.7647291421890259,0.9623916149139404,-9.817171096801758,-0.034745754251154906,0.05361116420058583,0.05099858148641348,1.1421667337417603,1.9925460815429688,0.9146513938903809
1730865968.9331322,-1.7647291421890259,0.9623916149139404,-9.817171096801758,-0.04899115462203543,0.05735738475570158,0.06239894947623126,1.1415812969207764,1.9957966804504395,0.9150991439819336
1730865968.9331322,-1.774051547050476,0.9942019581794739,-9.836055755615234,-0.04780714396003894,0.04836069195639631,0.05737876539593574,1.1415842771530151,1.995795726776123,0.9150997996330261
1730865968.9830694,-1.7563841342926025,1.0308074951171875,-9.850176811218262,-0.03687489947525285,0.02623345098559228,0.03991295518874578,1.1419538259506226,1.9956974983215332,0.9152374863624573
1730865969.0331802,-1.7418923377990723,1.052126407623291,-9.863423347473145,-0.022234541883542507,-0.0034973477054633705,0.01644383260804199,1.1422579288482666,1.9956251382827759,0.9154492616653442
1730865969.0830772,-1.7634446620941162,1.1164103746414185,-9.859697341918945,-0.00815438363735691,-0.034108081705204074,-0.007029415844079258,1.142518162727356,1.9955079555511475,0.915668785572052
1730865969.1331055,-1.7613576650619507,1.1499154567718506,-9.857751846313477,0.003014101789548362,-0.06206902629373502,-0.026447191674282236,1.1428641080856323,1.9891624450683594,0.9149760007858276
1730865969.1830616,-1.7668864727020264,1.152148723602295,-9.854114532470703,0.010027218414022201,-0.08690123704248967,-0.039585405070607566,1.1443907022476196,1.9895129203796387,0.9147087335586548
1730865969.2330203,-1.7597706317901611,1.146106243133545,-9.849930763244629,0.012511367131098601,-0.1064509769340363,-0.04522261564652414,1.1451493501663208,1.9885823726654053,0.9144513010978699
1730865969.2830868,-1.7832831144332886,1.1196283102035522,-9.831854820251465,0.011119247307067384,-0.11437232614825035,-0.04282602997731825,1.1463499069213867,1.9896671772003174,0.9145017266273499
1730865969.3329446,-1.7911642789840698,1.0579688549041748,-9.824539184570312,0.0071677377437905365,-0.10454949757609444,-0.033165556469381546,1.147230863571167,1.988963007926941,0.9142287373542786
1730865969.3830001,-1.793712854385376,1.0126854181289673,-9.833224296569824,0.002004272940652801,-0.07630884731140544,-0.018887335313738682,1.1488912105560303,1.986145257949829,0.9127868413925171
1730865969.432937,-1.7517714500427246,1.0202561616897583,-9.849518775939941,-0.0029633378145285847,-0.03509758498037446,-0.00414595550426421,1.1499497890472412,1.984594702720642,0.9121384620666504
1730865969.4829564,-1.7155946493148804,1.0792349576950073,-9.881749153137207,-0.00553034643875767,0.008555071849713755,0.006587713164754038,1.151314377784729,1.986393690109253,0.9110202193260193
1730865969.532836,-1.6973638534545898,1.1483683586120605,-9.885079383850098,-0.0029061699993168707,0.04112117493430779,0.010082827414038821,1.1524615287780762,1.9860413074493408,0.9102726578712463
1730865969.5827827,-1.6990910768508911,1.1914793252944946,-9.90003490447998,0.0058617423809248885,0.05149121446353993,0.005935869881871992,1.153608798980713,1.9858051538467407,0.9095473289489746
1730865969.6338701,-1.7048535346984863,1.1952179670333862,-9.894710540771484,0.01794474223868419,0.03640702792155158,-0.0030685313662765033,1.1548219919204712,1.9856758117675781,0.9088034629821777
1730865969.6838133,-1.7279154062271118,1.140415906906128,-9.889106750488281,0.0282817573923959,0.001445379684435819,-0.012720134249719193,1.1560544967651367,1.9855988025665283,0.9080635905265808
1730865969.7338028,-1.727390170097351,1.0967813730239868,-9.850716590881348,0.03263947621379161,-0.04134193459547494,-0.019405320813879273,1.153289556503296,1.9830207824707031,0.9082226753234863
1730865969.7837937,-1.7448590993881226,1.0502889156341553,-9.854978561401367,0.02934169118272146,-0.07722093275691173,-0.020868476160106113,1.1539661884307861,1.9822020530700684,0.9075634479522705
1730865969.8337355,-1.7205950021743774,1.0371060371398926,-9.837763786315918,0.019631768041822255,-0.09367178182549812,-0.016710941996114077,1.1559501886367798,1.9830676317214966,0.9050449132919312
1730865969.8838043,-1.7044275999069214,1.004769206047058,-9.838481903076172,0.007162108541718596,-0.0851213073825516,-0.008703535838565632,1.1571552753448486,1.9824895858764648,0.9037368893623352
1730865969.9337204,-1.6762114763259888,1.0011883974075317,-9.852025985717773,-0.0032984832863557556,-0.0552990496264584,3.2420123598044144e-05,1.1583644151687622,1.9817371368408203,0.9024190306663513
1730865969.9836867,-1.6579885482788086,0.9812003374099731,-9.872231483459473,-0.007508563947554463,-0.015110145814975433,0.006269673298887038,1.1595604419708252,1.9808965921401978,0.9011086225509644
1730865970.0337353,-1.6788157224655151,1.0039273500442505,-9.869159698486328,-0.0032447539056186673,0.023125828761760912,0.007552218156816463,1.158292293548584,1.9793448448181152,0.9023423790931702
1730865970.0836577,-1.7302862405776978,0.9892690777778625,-9.866273880004883,0.008170026584517116,0.05056799504005607,0.0031838563635280042,1.1589797735214233,1.9786248207092285,0.9016020894050598
1730865970.1336935,-1.7561147212982178,1.0005706548690796,-9.84821891784668,0.02083179699791608,0.0632459464120261,-0.004811239082631274,1.1610239744186401,1.9796799421310425,0.8992858529090881
1730865970.1836424,-1.7367112636566162,1.0267400741577148,-9.844929695129395,0.026661026268419687,0.0613424752144378,-0.012246084465827757,1.161307454109192,1.9799565076828003,0.8959962725639343
1730865970.2335315,-1.7292639017105103,1.0034098625183105,-9.847564697265625,0.021574931078193985,0.04814806114456156,-0.015380194216737536,1.1621482372283936,1.9801647663116455,0.8938286304473877
1730865970.283596,-1.7082710266113281,1.0320013761520386,-9.856908798217773,0.008971048665912406,0.029172406529871138,-0.01337251512755609,1.1630220413208008,1.9804675579071045,0.8916378021240234
1730865970.3336132,-1.7297741174697876,1.0265306234359741,-9.872505187988281,-0.0036527338178243703,0.01064112590064092,-0.008386724337832706,1.1639161109924316,1.9808253049850464,0.8893850445747375
1730865970.3835676,-1.73284912109375,1.026072382926941,-9.879054069519043,-0.010442441816038518,-0.0028256213164381257,-0.0039333914158625445,1.1614879369735718,1.975697636604309,0.8933906555175781
1730865970.4335475,-1.7507237195968628,1.0402652025222778,-9.899032592773438,-0.010098513362025309,-0.009612119728090385,-0.002932008586569654,1.1617190837860107,1.9748443365097046,0.8923614621162415
1730865970.4835615,-1.7441734075546265,1.067531943321228,-9.886956214904785,-0.0053149689918649936,-0.010956983834839503,-0.006186411018474192,1.1619328260421753,1.9739583730697632,0.8913125395774841
1730865970.5335526,-1.7646288871765137,1.0706843137741089,-9.89332103729248,-0.00033612827321833597,-0.010106610801307144,-0.01204222255967707,1.162137746810913,1.9730535745620728,0.8902497887611389
1730865970.583584,-1.8092890977859497,1.0768513679504395,-9.85693645477295,0.0011723304226301215,-0.010778141012909411,-0.017521679441617956,1.1641464233398438,1.9756673574447632,0.8912301063537598
1730865970.6335008,-1.8451093435287476,1.0780317783355713,-9.835271835327148,-0.0030301716520634396,-0.015052669737374335,-0.019757996244409725,1.1647956371307373,1.9754633903503418,0.8903611302375793
1730865970.6835158,-1.8778879642486572,1.068177342414856,-9.794242858886719,-0.013154092396422106,-0.021844674157685737,-0.01676586903148126,1.1668914556503296,1.9720594882965088,0.8887627720832825
1730865970.7335863,-1.8792659044265747,1.0619271993637085,-9.761591911315918,-0.026853298914239952,-0.027434850833140664,-0.007877784343875666,1.1677510738372803,1.970929503440857,0.8877204656600952
1730865970.7835293,-1.8781741857528687,1.0342954397201538,-9.767451286315918,-0.039679959274239326,-0.028047446365686683,0.005673477586726645,1.1696109771728516,1.972032904624939,0.887363612651825
1730865970.8334446,-1.8452465534210205,1.0448501110076904,-9.792409896850586,-0.04657247338452959,-0.022247601933126773,0.02034839554062278,1.1714656352996826,1.9722728729248047,0.8864668011665344
1730865970.8834481,-1.7909832000732422,1.0523160696029663,-9.833215713500977,-0.043860171890186275,-0.011752350715369375,0.030950126443192207,1.172622561454773,1.9720637798309326,0.8857254981994629
1730865970.9334626,-1.7380390167236328,1.0403714179992676,-9.891928672790527,-0.030471106375908524,-0.0005505959691726376,0.032395046514512055,1.1736890077590942,1.9718388319015503,0.8850618600845337
1730865970.9834626,-1.6841381788253784,1.027842402458191,-9.939653396606445,-0.007342106948289758,0.007594047676084883,0.021375549873396585,1.1747111082077026,1.971622109413147,0.8844638466835022
1730865971.0333781,-1.598343849182129,1.0370818376541138,-9.97574520111084,0.024190831738325223,0.011342542747604198,-0.0029973789385168044,1.1735320091247559,1.968646764755249,0.8868806958198547
1730865971.083417,-1.5712602138519287,1.0332560539245605,-9.993497848510742,0.0622810119053638,0.011636298208333284,-0.03820155339128166,1.1743179559707642,1.9678900241851807,0.8867486715316772
1730865971.133399,-1.550557255744934,1.039259433746338,-9.944525718688965,0.10109077459426939,0.01007619108961113,-0.07592961815928484,1.1761276721954346,1.9688236713409424,0.8871755003929138
1730865971.1834455,-1.5575945377349854,1.0153611898422241,-9.915091514587402,0.12952134477965482,0.007904996373743027,-0.10270249496892478,1.1777105331420898,1.9686646461486816,0.8868510723114014
1730865971.233443,-1.6128383874893188,0.9890211224555969,-9.859123229980469,0.13679314630734835,0.006313655325242872,-0.10672620758634568,1.1796382665634155,1.968522548675537,0.8862608671188354
1730865971.283348,-1.700724482536316,0.9786924719810486,-9.800239562988281,0.11829180103888948,0.007044683193091376,-0.08444596440566365,1.1818636655807495,1.9683984518051147,0.8854386806488037
1730865971.3333108,-1.7688379287719727,1.0146944522857666,-9.755945205688477,0.07575659963650695,0.011723960049771602,-0.040336915550259256,1.1780368089675903,1.9653602838516235,0.8871060013771057
1730865971.3833656,-1.8208271265029907,1.02140212059021,-9.763900756835938,0.015736126929006753,0.019935935421489543,0.01607932797881783,1.1800678968429565,1.965522289276123,0.8872594237327576
1730865971.433279,-1.8217395544052124,1.0340009927749634,-9.765320777893066,-0.04941121732860465,0.028288072602136415,0.07087004304216057,1.1813114881515503,1.9653668403625488,0.8872954249382019
1730865971.48329,-1.782911777496338,1.0537012815475464,-9.80487060546875,-0.10203760545625822,0.0321153857928757,0.10788146006781486,1.1846997737884521,1.9657106399536133,0.8875171542167664
1730865971.5332751,-1.7525897026062012,1.0612386465072632,-9.85537052154541,-0.12624610972045514,0.028433193845502035,0.11583159855015904,1.1863644123077393,1.9657940864562988,0.8879682421684265
1730865971.5832372,-1.7406247854232788,1.1116029024124146,-9.87990665435791,-0.11647066914106567,0.017521850778259553,0.09397106298302556,1.1877095699310303,1.9659337997436523,0.8886750936508179
1730865971.633259,-1.770524501800537,1.115897536277771,-9.90289306640625,-0.07972285624470618,0.0019749013298140327,0.05095180273821754,1.188826322555542,1.9660998582839966,0.8895740509033203
1730865971.683197,-1.7900440692901611,1.1545110940933228,-9.899785995483398,-0.031223487525104853,-0.015559926962845558,-0.0004618318353139302,1.188689112663269,1.962114691734314,0.8877900242805481
1730865971.7331789,-1.8505797386169434,1.163799524307251,-9.896068572998047,0.01220284775718222,-0.03323167943420164,-0.04793530986927611,1.1898711919784546,1.962159276008606,0.8876911401748657
1730865971.783353,-1.8653908967971802,1.1624170541763306,-9.862640380859375,0.037905834773871064,-0.04850796268693476,-0.08115380980507705,1.1909325122833252,1.96174955368042,0.8875707387924194
1730865971.8332534,-1.84821355342865,1.119704008102417,-9.858514785766602,0.04148467208862511,-0.057097974223765724,-0.09277831555706098,1.192088007926941,1.961209774017334,0.8872333765029907
1730865971.8832345,-1.8270213603973389,1.114829421043396,-9.805334091186523,0.027833372380018883,-0.054718610562560804,-0.08077575477721428,1.1933306455612183,1.9605302810668945,0.8866792321205139
1730865971.9334147,-1.793975830078125,1.0453251600265503,-9.822367668151855,0.007866218444356993,-0.039690329243119084,-0.04946273576580147,1.1920877695083618,1.9579646587371826,0.8875479698181152
1730865971.9832606,-1.7209333181381226,1.0137131214141846,-9.828447341918945,-0.007016503654357843,-0.013844541155784193,-0.008026687446633879,1.1927874088287354,1.956913709640503,0.8873202800750732
1730865972.0332992,-1.6012029647827148,0.9719731211662292,-9.870986938476562,-0.008802495464056901,0.017578302583124615,0.03134379925079897,1.1943423748016357,1.958187222480774,0.8876252174377441
1730865972.0832047,-1.5673483610153198,0.9927900433540344,-9.874567985534668,0.0056628955608427345,0.0468338630403961,0.056540770569567314,1.1953974962234497,1.958010196685791,0.8877110481262207
1730865972.133241,-1.5673483610153198,0.9927900433540344,-9.874567985534668,0.03299239695497006,0.06593595721025888,0.060992255125432944,1.1966036558151245,1.9585899114608765,0.8877922296524048
1730865972.133241,-1.5617990493774414,1.0194441080093384,-9.915316581726074,0.06283552668381226,0.06943164334690079,0.046911609320318064,1.1966112852096558,1.9585907459259033,0.8877934217453003
1730865972.1831715,-1.576568603515625,1.0584110021591187,-9.886327743530273,0.08279331099323586,0.056563046842945996,0.022530314244325073,1.1979225873947144,1.95879328250885,0.8880147337913513
1730865972.2332606,-1.631142258644104,1.0728533267974854,-9.91388988494873,0.0850055475195416,0.031201289535912263,-0.0031177342960353087,1.1994637250900269,1.9591084718704224,0.888263463973999
1730865972.283102,-1.631142258644104,1.0728533267974854,-9.91388988494873,0.06839205110720561,-0.0005277810502416005,-0.02356757188305421,1.1984577178955078,1.9546096324920654,0.8877564072608948
1730865972.283102,-1.7173388004302979,1.079965353012085,-9.86382007598877,0.03725452136047753,-0.03209672295264615,-0.035736584760997045,1.1984633207321167,1.9546048641204834,0.8877562880516052
1730865972.3331964,-1.7173388004302979,1.079965353012085,-9.86382007598877,-0.0010460261166536367,-0.05687481761616094,-0.03839908628438602,1.1994075775146484,1.9537320137023926,0.8876913785934448
1730865972.3331964,-1.82231605052948,1.1077828407287598,-9.826631546020508,-0.03910219278759568,-0.06934017366069258,-0.0306768026335638,1.1994138956069946,1.9537256956100464,0.8876906037330627
1730865972.383157,-1.8533849716186523,1.1184059381484985,-9.800682067871094,-0.07298438304433975,-0.06807035301445716,-0.01265225479848902,1.2014029026031494,1.9546473026275635,0.8876767754554749
1730865972.4330823,-1.8954871892929077,1.0949914455413818,-9.761144638061523,-0.10264411754196451,-0.056759575612055545,0.013313109296784278,1.2024805545806885,1.9542441368103027,0.8876425623893738
1730865972.4830406,-1.8989217281341553,1.0262970924377441,-9.779446601867676,-0.12694547288126673,-0.04058277685132108,0.041731942170080666,1.2032597064971924,1.953725814819336,0.8876766562461853
1730865972.5331557,-1.8536771535873413,1.0082930326461792,-9.78778076171875,-0.14023863667037273,-0.021680056345328443,0.06470436695563234,1.2037168741226196,1.9531170129776,0.8878470659255981
1730865972.5831227,-1.783974289894104,1.004658818244934,-9.84261703491211,-0.13599986788197693,0.001001437271762341,0.0751327149785917,1.2036495208740234,1.9506847858428955,0.8879033923149109
1730865972.6330674,-1.783974289894104,1.004658818244934,-9.84261703491211,-0.11214534047483851,0.027647421272801887,0.06998616009364161,1.207155704498291,1.950981855392456,0.8881421089172363
1730865972.6330674,-1.7528783082962036,1.0574264526367188,-9.855023384094238,-0.07321172453900712,0.053540001119442626,0.051476335894002995,1.2071709632873535,1.9509797096252441,0.8881449699401855
1730865972.6830595,-1.7219197750091553,1.080628514289856,-9.910914421081543,-0.02889214897839602,0.06934795821180763,0.02582639335771727,1.2098225355148315,1.9513156414031982,0.8903658986091614
1730865972.7331333,-1.7219197750091553,1.080628514289856,-9.910914421081543,0.010590991011277391,0.06695640112622056,-6.540171206725377e-05,1.2119348049163818,1.9515013694763184,0.8915897011756897
1730865972.7331333,-1.704637885093689,1.1132997274398804,-9.919187545776367,0.03823113101751197,0.046095001478064467,-0.02099686828084088,1.211944818496704,1.9515026807785034,0.8915954828262329
1730865972.7830756,-1.6880874633789062,1.1303209066390991,-9.951221466064453,0.05117277808877008,0.014802176810401992,-0.03374033700827233,1.2141200304031372,1.9517898559570312,0.8927688002586365
1730865972.8330402,-1.6880874633789062,1.1303209066390991,-9.951221466064453,0.05098762544408948,-0.016478006746603865,-0.03781121039718983,1.2164233922958374,1.9520751237869263,0.8938537240028381
1730865972.8330402,-1.6892642974853516,1.1353075504302979,-9.929433822631836,0.04286236605488954,-0.040519960651909465,-0.03584536536165206,1.2164422273635864,1.9520772695541382,0.8938619494438171
1730865972.8830557,-1.6928538084030151,1.1137971878051758,-9.93874454498291,0.03287053797665303,-0.05467869890367691,-0.031567840905325946,1.2188328504562378,1.9522722959518433,0.8948529362678528
1730865972.9329422,-1.7044410705566406,1.0738990306854248,-9.894899368286133,0.025296865265127772,-0.05934058824026278,-0.02737870283061192,1.211179494857788,1.947918176651001,0.8915987014770508
1730865972.9829872,-1.7288248538970947,1.0470776557922363,-9.854463577270508,0.02138501274601725,-0.05572552059923096,-0.023399674430203146,1.2118905782699585,1.9471921920776367,0.891854465007782
1730865973.0330038,-1.782965898513794,1.0143132209777832,-9.822835922241211,0.019146307572651122,-0.044708056907856175,-0.017703511347813197,1.2126522064208984,1.9463406801223755,0.8920587301254272
1730865973.082945,-1.8363450765609741,1.0109021663665771,-9.767317771911621,0.014023246735617969,-0.027126926508391234,-0.007410953732319492,1.2140257358551025,1.9478250741958618,0.8930094838142395
1730865973.132889,-1.8869452476501465,0.9894759058952332,-9.760782241821289,0.0012891334623601953,-0.00488238547841751,0.009293788062376386,1.2151378393173218,1.9475654363632202,0.8935129046440125
1730865973.1829495,-1.8473352193832397,1.0347927808761597,-9.739604949951172,-0.019689707140024566,0.017893266727654376,0.03042246157568004,1.2162197828292847,1.9473235607147217,0.894062340259552
1730865973.232936,-1.816389560699463,1.0465000867843628,-9.774761199951172,-0.04294056507449046,0.03495423328060156,0.04957960033919875,1.216255784034729,1.9440486431121826,0.8944753408432007
1730865973.2828844,-1.783855676651001,1.0769073963165283,-9.79489803314209,-0.05884341594140678,0.04054565339053383,0.059575789172877994,1.2182070016860962,1.9443145990371704,0.8958211541175842
1730865973.3328242,-1.7646828889846802,1.053520679473877,-9.82564926147461,-0.06023212482212909,0.03311399690296274,0.056596953003926864,1.219085693359375,1.9441310167312622,0.8967688679695129
1730865973.3828576,-1.7351040840148926,1.0145779848098755,-9.854711532592773,-0.04627732617840406,0.017223689563498658,0.0413640710703453,1.2198281288146973,1.9440109729766846,0.8978354334831238
1730865973.432912,-1.683071255683899,0.9749651551246643,-9.900102615356445,-0.021586157399440788,0.002011776583517585,0.017613923404210554,1.2204911708831787,1.9439140558242798,0.8989850282669067
1730865973.4828544,-1.6453770399093628,0.9578630328178406,-9.910890579223633,0.007988875631925367,-0.0031113981055731622,-0.010463683402902341,1.2211302518844604,1.943816900253296,0.9001319408416748
1730865973.532847,-1.649688720703125,0.9565423130989075,-9.945751190185547,0.03862915997172811,0.007076991379537245,-0.0398460771220326,1.2218310832977295,1.9437240362167358,0.9012219309806824
1730865973.5828483,-1.6442580223083496,0.9954084157943726,-9.940225601196289,0.06840239663058503,0.03129283756352961,-0.06866537879876176,1.2205848693847656,1.942457675933838,0.897300124168396
1730865973.632834,-1.6689367294311523,1.0497392416000366,-9.937795639038086,0.0947802407848497,0.061698008508951824,-0.09474153675576469,1.221332311630249,1.9422872066497803,0.8973644971847534
1730865973.682793,-1.6859419345855713,1.0834542512893677,-9.915569305419922,0.11216515597070642,0.08561274994549846,-0.1131754878434202,1.2234646081924438,1.9426946640014648,0.898289144039154
1730865973.7328548,-1.71327543258667,1.1262437105178833,-9.893120765686035,0.11305027394001997,0.09044468886161049,-0.11677040275432851,1.2249072790145874,1.9429980516433716,0.8982580900192261
1730865973.782775,-1.7269731760025024,1.1472166776657104,-9.872698783874512,0.09373469215056465,0.07107289512582635,-0.10115685361805987,1.2266027927398682,1.9435023069381714,0.8979544639587402
1730865973.8327966,-1.735066294670105,1.1401067972183228,-9.833118438720703,0.058301950850261,0.033148542570706076,-0.06873439079713312,1.2253025770187378,1.9385128021240234,0.899840235710144
1730865973.8827624,-1.717958927154541,1.1496965885162354,-9.815305709838867,0.016677307969369948,-0.010804810571778171,-0.02726808360767176,1.226294755935669,1.9376507997512817,0.8999885320663452
1730865973.9327734,-1.6673269271850586,1.18075430393219,-9.812365531921387,-0.01940619927041786,-0.04775474046556904,0.01339832360314797,1.2271854877471924,1.9384499788284302,0.9018120765686035
1730865973.9827108,-1.718985915184021,1.200554609298706,-9.816550254821777,-0.04024200524577889,-0.06906861154614069,0.044002270970199604,1.22813081741333,1.9380128383636475,0.9025856256484985
1730865974.032757,-1.777178168296814,1.1863377094268799,-9.796299934387207,-0.043256765364573,-0.07280585872609052,0.05872007546816033,1.2287278175354004,1.9385334253311157,0.9036067128181458
1730865974.0837018,-1.8267006874084473,1.1075407266616821,-9.833602905273438,-0.0354343213461005,-0.06216253190117065,0.05705280700371683,1.2294857501983643,1.938125491142273,0.9046466946601868
1730865974.1328225,-1.8129234313964844,1.0744457244873047,-9.833734512329102,-0.027649905873744815,-0.04139845935961198,0.042790849984978535,1.2301421165466309,1.9376015663146973,0.9057785868644714
1730865974.1827915,-1.7848941087722778,1.034195899963379,-9.854951858520508,-0.026132647003619322,-0.013123789058268482,0.021263565446269082,1.2307370901107788,1.9370065927505493,0.9069976210594177
1730865974.2327878,-1.7069191932678223,1.0519814491271973,-9.866008758544922,-0.029536250455432175,0.021096808073257672,-0.0026586066126223305,1.2304716110229492,1.9345970153808594,0.9033979773521423
1730865974.2827125,-1.7330290079116821,1.0380792617797852,-9.891645431518555,-0.03195981972421627,0.05794698064056089,-0.02513271470608991,1.2309054136276245,1.9338047504425049,0.9035762548446655
1730865974.333654,-1.723747968673706,1.0607243776321411,-9.90710735321045,-0.028635503541235573,0.08999529474723153,-0.04301570570891347,1.232413649559021,1.9349786043167114,0.9029563069343567
1730865974.383695,-1.6333900690078735,1.1029419898986816,-9.92292594909668,-0.019477705548031014,0.10722231521037823,-0.053797404235495776,1.2330902814865112,1.9351550340652466,0.9028165340423584
1730865974.4336932,-1.7185343503952026,1.0912126302719116,-9.885492324829102,-0.006946083587172804,0.10267977609344256,-0.05616588202032059,1.233729362487793,1.935593605041504,0.9025397896766663
1730865974.4835937,-1.7632367610931396,1.0811116695404053,-9.884361267089844,0.0064749823696298465,0.07723633944164549,-0.050104852143386995,1.233847975730896,1.93146550655365,0.9026950001716614
1730865974.533778,-1.7660847902297974,1.066494345664978,-9.817702293395996,0.017276581987863165,0.03957080769555028,-0.03655223434749655,1.2343847751617432,1.9309512376785278,0.9024500846862793
1730865974.583637,-1.76335608959198,1.0730304718017578,-9.786660194396973,0.021615926613369002,0.002180008832353568,-0.017067734680939473,1.235482096672058,1.9314748048782349,0.9027894139289856
1730865974.6336203,-1.755035638809204,1.0663394927978516,-9.755593299865723,0.01859042331071821,-0.024111587885206287,0.006327691859609356,1.2362836599349976,1.9313280582427979,0.9027166366577148
1730865974.683558,-1.7797462940216064,1.05051851272583,-9.727736473083496,0.010871550345364144,-0.0342604171794065,0.030434250057283577,1.2367465496063232,1.931545615196228,0.9030067324638367
1730865974.7336075,-1.7905184030532837,1.0506978034973145,-9.733460426330566,0.002159094067482062,-0.029648447995879193,0.050536218310968224,1.237478256225586,1.9313747882843018,0.9031696319580078
1730865974.7834837,-1.7196898460388184,1.0897799730300903,-9.776664733886719,-0.004716930242432249,-0.016185454606178026,0.06162342432547678,1.2377570867538452,1.924900770187378,0.9032474756240845
1730865974.8335426,-1.7713710069656372,1.1019127368927002,-9.835098266601562,-0.007868915508284597,-0.001715403920660186,0.059884726987073505,1.238279104232788,1.9230327606201172,0.9035658240318298
1730865974.8835092,-1.8028919696807861,1.1387075185775757,-9.852670669555664,-0.0074378135839558625,0.007037296911822465,0.04416103463937666,1.2370331287384033,1.924778938293457,0.9033098220825195
1730865974.9336016,-1.8285831212997437,1.182466745376587,-9.922863006591797,-0.006913297839409917,0.006864677063520149,0.017121655787709397,1.2369890213012695,1.924302577972412,0.903548538684845
1730865974.9834633,-1.8077365159988403,1.2220063209533691,-9.935257911682129,-0.010220446577734759,-0.0018807379160218733,-0.01532344227481175,1.2369245290756226,1.9238409996032715,0.9037856459617615
1730865975.0335941,-1.8268399238586426,1.19771409034729,-9.958266258239746,-0.017397709196950047,-0.01675927003463616,-0.04645801932229081,1.2368247509002686,1.9233500957489014,0.9039483666419983
1730865975.0834959,-1.7553056478500366,1.1827597618103027,-9.942646980285645,-0.024741583351715814,-0.03428085885226766,-0.07142544325480327,1.23667311668396,1.9227988719940186,0.9039633274078369
1730865975.1334362,-1.7702215909957886,1.131227731704712,-9.93575382232666,-0.027685871980586602,-0.050058606109011826,-0.08823560317614622,1.2363340854644775,1.9218013286590576,0.9029076099395752
1730865975.1834197,-1.7350672483444214,1.0756663084030151,-9.8892240524292,-0.02309197520164287,-0.059015303826195395,-0.09634354566746856,1.2361348867416382,1.9209425449371338,0.902518093585968
1730865975.2334309,-1.6980245113372803,1.014807939529419,-9.849322319030762,-0.010710940130885407,-0.05630139946976368,-0.09407157333987246,1.2375688552856445,1.9219719171524048,0.9024003148078918
1730865975.2833824,-1.74787175655365,0.9247363805770874,-9.83838939666748,0.006521923793094167,-0.03899648551345804,-0.07861120765122663,1.2379003763198853,1.921541690826416,0.9018535017967224
1730865975.3333728,-1.7218077182769775,0.9190731048583984,-9.835184097290039,0.022921393219452326,-0.008305165608830583,-0.05038829386497289,1.2388312816619873,1.9221978187561035,0.9022380709648132
1730865975.3833628,-1.710154414176941,0.9689270853996277,-9.809120178222656,0.031968583232508986,0.028966115579565695,-0.016044109923252347,1.2394251823425293,1.922085165977478,0.9018786549568176
1730865975.4333987,-1.6837084293365479,0.9878154993057251,-9.841340065002441,0.03070222803755618,0.061052380110941606,0.0148102279371397,1.2395201921463013,1.9186660051345825,0.9022880792617798
1730865975.483403,-1.650559425354004,1.0081390142440796,-9.836055755615234,0.02225974514526063,0.07559941912486144,0.03479297180196397,1.239989161491394,1.9179173707962036,0.9022393822669983
1730865975.5333564,-1.6746716499328613,1.0141290426254272,-9.857386589050293,0.013017564816138872,0.06695593378762649,0.0411098097570846,1.242370367050171,1.9187434911727905,0.902357816696167
1730865975.5833364,-1.6851810216903687,1.004333734512329,-9.852632522583008,0.007601471774827107,0.040063080838733396,0.035399054227316686,1.2446454763412476,1.9189542531967163,0.9023219347000122
1730865975.6333683,-1.5812643766403198,1.044628381729126,-9.859695434570312,0.006996505545225808,0.00679599188269203,0.022336164894155717,1.2461093664169312,1.9190599918365479,0.9024121165275574
1730865975.683324,-1.7228114604949951,1.0327458381652832,-9.875347137451172,0.010400628334243284,-0.021388932345113167,0.007458006981272645,1.2475862503051758,1.919147253036499,0.9025387763977051
1730865975.7333395,-1.8088876008987427,1.0366780757904053,-9.752493858337402,0.015558175044854156,-0.03850883566659748,-0.0045281051537520815,1.2491145133972168,1.9191597700119019,0.9026706218719482
1730865975.7832942,-1.8492463827133179,1.0879586935043335,-9.823813438415527,0.016439621959771257,-0.0446732873067492,-0.009762434859788652,1.2472004890441895,1.9141548871994019,0.9021117687225342
1730865975.8332365,-1.8476037979125977,1.0733569860458374,-9.768607139587402,0.005646879228106096,-0.0437987461312037,-0.005725190545954469,1.2481063604354858,1.9129539728164673,0.9020534753799438
