Timestamp,IMU_Linear_Acc_X,IMU_Linear_Acc_Y,IMU_Linear_Acc_Z,Filtered_X,Filtered_Y,Filtered_Z,Pose_X,Pose_Y,Pose_Z
1731474139.8896139,-0.3405797779560089,0.44538143277168274,-9.989174842834473,-0.0005050458332900238,0.0014919473618539589,0.0010099795234198175,2.420238971710205,8.466403007507324,0.8739712834358215
1731474140.0392613,-0.32870543003082275,0.43953606486320496,-9.982325553894043,-0.006958978491800561,0.0008697562536054638,0.006066270092985112,2.419710636138916,8.471632957458496,0.8739932179450989
1731474140.089296,-0.34796392917633057,0.4402678906917572,-9.993621826171875,-0.006085037656120102,0.000823056997914116,0.005311744575974487,2.419506072998047,8.47387409210205,0.8739926218986511
1731474140.1402464,-0.33399584889411926,0.432169646024704,-9.98773193359375,-0.004133395223367831,0.0008476709683251584,0.003798395194069956,2.4193923473358154,8.475120544433594,0.8739923238754272
1731474140.1902158,-0.339699923992157,0.42898687720298767,-9.98838996887207,-0.0024126598375301444,0.0011302730243071741,0.001745501706736765,2.418715715408325,8.486936569213867,0.87399822473526
1731474140.2401154,-0.34191736578941345,0.42445263266563416,-9.988052368164062,-0.0019562609171076824,0.0018745240047957047,-0.0006448718693442015,2.4184410572052,8.490927696228027,0.8739980459213257
1731474140.2900033,-0.32970547676086426,0.4250764548778534,-9.985917091369629,-0.002779478702056309,0.0031163991783069445,-0.0028723011300280624,2.4179749488830566,8.49691390991211,0.8739994764328003
1731474140.3400288,-0.32970547676086426,0.4250764548778534,-9.985917091369629,-0.003938288483964923,0.004525764403564433,-0.004270167212432758,2.4133405685424805,8.550904273986816,0.8739995360374451
1731474140.3400288,-0.32910072803497314,0.4251329004764557,-9.99003791809082,-0.004314876642800218,0.005529062583558903,-0.004449982725946131,2.413205146789551,8.552508354187012,0.8739995360374451
1731474140.3900661,-0.32910072803497314,0.4251329004764557,-9.99003791809082,-0.0034791028034806483,0.005660104428513686,-0.0036217080400198203,2.3881773948669434,8.849197387695312,0.873992383480072
1731474140.3900661,-0.3384392559528351,0.42610400915145874,-9.983735084533691,-0.0018567070487955687,0.004817906975833144,-0.0024262092153171065,2.388040542602539,8.850820541381836,0.8739923238754272
1731474140.439955,-0.3384392559528351,0.42610400915145874,-9.983735084533691,-0.00034318314487599515,0.003274443269304573,-0.001407614001335334,2.3629655838012695,9.14802360534668,0.8739789128303528
1731474140.439955,-0.3377346694469452,0.435489296913147,-9.978569030761719,0.00017695619764683648,0.0014425689519228188,-0.0006656786916920622,2.3628182411193848,9.14976978302002,0.873978853225708
1731474140.4899478,-0.3377346694469452,0.435489296913147,-9.978569030761719,-0.0007049782355523269,-0.0004391662577422088,6.229811548035373e-05,2.3378748893737793,9.44540023803711,0.8739638328552246
1731474140.4899478,-0.33423569798469543,0.4322376847267151,-9.991771697998047,-0.002713849171499008,-0.0023897187834487927,0.0010369338265450853,2.4124433994293213,8.572685241699219,0.8740930557250977
1731474140.5398195,-0.3368098735809326,0.4413033127784729,-9.979137420654297,-0.005077585029705283,-0.004427617213681005,0.0021875567672141726,2.409348726272583,8.61266040802002,0.8741219639778137
1731474140.5896668,-0.32903242111206055,0.43979355692863464,-9.979314804077148,-0.006877644752633436,-0.00636485624565035,0.003286114298006713,2.4062535762786865,8.65243911743164,0.8741574883460999
1731474140.6397073,-0.33598414063453674,0.4474576413631439,-9.982017517089844,-0.0073859948477646015,-0.007944294758182674,0.00438208084332967,2.4031126499176025,8.692559242248535,0.8742029070854187
1731474140.6897366,-0.341476172208786,0.44930747151374817,-9.990230560302734,-0.006422640872393956,-0.009122036035828342,0.0056640142394014025,2.414149045944214,8.56686019897461,0.8742331266403198
1731474140.7397206,-0.3397352695465088,0.44789478182792664,-9.97748851776123,-0.004523546349028253,-0.010067614757602174,0.007011613334854205,2.4134600162506104,8.577762603759766,0.8742876648902893
1731474140.7895658,-0.3330007493495941,0.44037196040153503,-9.997563362121582,-0.0025014469755777436,-0.010686878949511036,0.008016972580217569,2.412766933441162,8.588566780090332,0.8743605613708496
1731474140.8395772,-0.03880907967686653,0.5903394818305969,-9.978856086730957,0.0006764279489516612,-0.011028344179880757,0.00828305648490458,2.41206693649292,8.59941577911377,0.8744543790817261
1731474140.8895676,-0.0758434385061264,0.5316457748413086,-10.008713722229004,0.011189945323500452,-0.013226390514808192,0.007580609874349404,2.4140756130218506,8.572172164916992,0.8743552565574646
1731474140.9393978,0.48951706290245056,0.8079436421394348,-9.981762886047363,0.039945383999667045,-0.022030203308876548,0.005959406029578094,2.4137115478515625,8.578863143920898,0.8744223117828369
1731474140.9892786,0.7771492004394531,0.6103816628456116,-10.015816688537598,0.09853551958636354,-0.04199733097080676,0.003948003551143952,2.4133763313293457,8.586082458496094,0.8743412494659424
1731474141.0394018,0.7771492004394531,0.6103816628456116,-10.015816688537598,0.1921345996461789,-0.07220494811231813,0.002349031148064136,2.4134421348571777,8.593040466308594,0.8743737936019897
1731474141.0394018,0.1431780755519867,0.499295175075531,-10.044015884399414,0.30111138869378445,-0.1021375911666079,0.0013844196684452113,2.4134438037872314,8.593076705932617,0.8743739724159241
1731474141.0892773,0.413790225982666,0.48516714572906494,-9.909783363342285,0.3705282371835463,-0.1152046575499893,0.000852244090397156,2.414203643798828,8.599661827087402,0.8744097948074341
1731474141.1401522,0.413790225982666,0.48516714572906494,-9.909783363342285,0.34237671331280906,-0.09906029794813558,0.002260722444620256,2.4124398231506348,8.600630760192871,0.8743213415145874
1731474141.1401522,0.038903508335351944,0.3011943995952606,-9.996171951293945,0.20386546438120628,-0.05326167577260113,0.00855914061173144,2.4124436378479004,8.600661277770996,0.8743214011192322
1731474141.1902132,0.038903508335351944,0.3011943995952606,-9.996171951293945,-0.004463754071313948,0.01167070740139878,0.018584657994986417,2.4130990505218506,8.605918884277344,0.8743568062782288
1731474141.1902132,0.22217567265033722,0.33590275049209595,-10.001534461975098,-0.21843084282639746,0.08062828334057304,0.024402834262438493,2.4131038188934326,8.60595703125,0.8743572235107422
1731474141.2402446,0.22217567265033722,0.33590275049209595,-10.001534461975098,-0.3808510329487947,0.1395125741048321,0.01755223144103056,2.4101600646972656,8.61479377746582,0.8744702339172363
1731474141.2402446,0.017560504376888275,0.20069876313209534,-9.97430419921875,-0.45916719998096645,0.1785838184843199,-0.0032597075607412335,2.4101526737213135,8.614831924438477,0.8744707703590393
1731474141.2901216,-0.7728275656700134,-0.02461777999997139,-9.977519989013672,-0.45605431129615775,0.1956121418660286,-0.03028696797627214,2.4081594944000244,8.6223726272583,0.8745327591896057
1731474141.3400016,-0.7728275656700134,-0.02461777999997139,-9.977519989013672,-0.41340605163402866,0.19850613668165526,-0.05112901331466984,2.408113956451416,8.628754615783691,0.8744965195655823
1731474141.3400016,-1.2074174880981445,-0.021463442593812943,-10.009428024291992,-0.3921426453750536,0.20062973815235619,-0.05670655904462926,2.4080991744995117,8.628809928894043,0.8744959831237793
1731474141.3900766,-0.23980385065078735,0.27316224575042725,-9.937684059143066,-0.422320934505931,0.2054438426590871,-0.04652045012372849,2.4055018424987793,8.636880874633789,0.8743596076965332
1731474141.4400213,-0.7082184553146362,0.12128511071205139,-10.163931846618652,-0.46981444336051065,0.19740562961703978,-0.027736263497468546,2.401759624481201,8.645549774169922,0.8741289973258972
1731474141.4898539,-0.7082184553146362,0.12128511071205139,-10.163931846618652,-0.4683004131521422,0.15630121809433467,-0.012142940081005308,2.406636953353882,8.626319885253906,0.8745471239089966
1731474141.4898539,-0.29287877678871155,0.4290388226509094,-9.929959297180176,-0.3811164781328367,0.07835888869631089,-0.010278915897676304,2.4066240787506104,8.626333236694336,0.8745468258857727
1731474141.5398967,-0.5628702044487,0.09986446797847748,-10.001678466796875,-0.22137685046842728,-0.020616823574601737,-0.020296045717466196,2.4041619300842285,8.628520965576172,0.874468982219696
1731474141.5897396,-0.3513105511665344,0.46714502573013306,-10.08678913116455,-0.03041524940874913,-0.11600054179022784,-0.026136747415479982,2.401397943496704,8.630532264709473,0.8743340373039246
1731474141.6397777,-0.5107159614562988,0.16161222755908966,-9.946783065795898,0.1463677922808185,-0.18669435599630768,-0.012683438367419857,2.404005289077759,8.624907493591309,0.8746721744537354
1731474141.6896517,-0.4068586826324463,0.43703973293304443,-9.962201118469238,0.2745878096543028,-0.22356708814747966,0.021555904061787763,2.4032857418060303,8.624906539916992,0.8746710419654846
1731474141.7396317,-0.49801453948020935,0.2526971399784088,-10.004266738891602,0.3367205442636995,-0.22970774595036111,0.06464603449216808,2.403326988220215,8.624337196350098,0.874778151512146
1731474141.789641,-0.37864023447036743,0.4197238087654114,-9.953781127929688,0.3319606076190705,-0.21555001018350217,0.09779344133984333,2.4041993618011475,8.623218536376953,0.8750861287117004
1731474141.8394883,-0.37864023447036743,0.4197238087654114,-9.953781127929688,0.27610002234797953,-0.19438549320251614,0.10616088019488701,2.402289628982544,8.618948936462402,0.8749649524688721
1731474141.8394883,-0.42949461936950684,0.29616859555244446,-9.941106796264648,0.19661757406803781,-0.17713422646409388,0.08793736695106184,2.4022910594940186,8.618940353393555,0.8749669790267944
1731474141.8893626,-0.41107162833213806,0.3372349739074707,-10.000696182250977,0.11930373692498597,-0.16431606083516243,0.05314302180714765,2.398571252822876,8.598912239074707,0.8749746084213257
1731474141.9393225,-0.41107162833213806,0.3372349739074707,-10.000696182250977,0.05779951845477344,-0.14514233917912586,0.015369484869031756,2.397310495376587,8.589844703674316,0.8752201795578003
1731474141.9393225,-0.3805420398712158,0.7001015543937683,-9.957939147949219,0.015383864013582505,-0.11230847931720986,-0.01464292660404196,2.397303819656372,8.589792251586914,0.8752216696739197
1731474141.9893405,-0.3805420398712158,0.7001015543937683,-9.957939147949219,-0.00844648092067857,-0.07693092907868285,-0.03050378641244366,2.3945696353912354,8.579045295715332,0.8748764395713806
1731474141.9893405,-0.4000968039035797,0.667378306388855,-9.877378463745117,-0.015785997477261206,-0.06164556824550836,-0.029918740393951003,2.3945584297180176,8.578985214233398,0.8748763203620911
1731474142.0393183,-0.4000968039035797,0.667378306388855,-9.877378463745117,-0.011464524910797183,-0.07602045613299821,-0.014624742417621064,2.3926117420196533,8.568608283996582,0.8748375177383423
1731474142.0393183,-0.4872780740261078,1.1421082019805908,-9.997286796569824,-0.0031494516334852523,-0.10688308747647296,0.009878667658829372,2.3926000595092773,8.5685453414917,0.8748371601104736
1731474142.0892508,-0.4872780740261078,1.1421082019805908,-9.997286796569824,0.0006291029505656914,-0.13878445139650908,0.034554305357163556,2.390659809112549,8.558008193969727,0.8748230338096619
1731474142.0892508,-0.4453103244304657,0.9864438772201538,-9.849359512329102,-0.006288275105867721,-0.17206635770498738,0.04976852375501435,2.390648603439331,8.557947158813477,0.8748232126235962
1731474142.139246,-0.4453103244304657,0.9864438772201538,-9.849359512329102,-0.024335261309506438,-0.21312219897811494,0.052237481915780974,2.3930318355560303,8.558242797851562,0.8748674392700195
1731474142.139246,-0.5104879140853882,0.7967690229415894,-10.028023719787598,-0.047871826590178426,-0.25674076482545016,0.046632960363408915,2.3930273056030273,8.558202743530273,0.8748681545257568
1731474142.1901712,-0.5104879140853882,0.7967690229415894,-10.028023719787598,-0.06908308132940365,-0.28202660292241133,0.036373590761261274,2.3920793533325195,8.550347328186035,0.8750510215759277
1731474142.1901712,-0.3782177269458771,0.7711344957351685,-9.996058464050293,-0.08178870733581074,-0.2634192282059726,0.01733905704651018,2.3920738697052,8.55030345916748,0.875052273273468
1731474142.2401364,-0.3782177269458771,0.7711344957351685,-9.996058464050293,-0.08170925307998232,-0.18944708486708403,-0.015323189131116749,2.390000343322754,8.52988338470459,0.87497478723526
1731474142.2401364,-0.4499201774597168,0.7072227597236633,-10.010408401489258,-0.0669236895486619,-0.07341315789864682,-0.05826314322838496,2.389991283416748,8.529810905456543,0.8749750852584839
1731474142.2900872,-0.3696022629737854,0.713841438293457,-10.044113159179688,-0.04123702221292826,0.05226383193111246,-0.09957430199904319,2.3883047103881836,8.516644477844238,0.8749008178710938
1731474142.3400176,-0.3696022629737854,0.713841438293457,-10.044113159179688,-0.013950709375159232,0.15169873279880844,-0.12564535300678778,2.3865303993225098,8.503585815429688,0.8745438456535339
1731474142.3400176,-0.42195576429367065,0.5679761171340942,-9.984193801879883,0.006238783502518655,0.20260257418559918,-0.1291271137453056,2.3865206241607666,8.50351619720459,0.8745410442352295
1731474142.3899982,-0.30900314450263977,0.6061761379241943,-10.027217864990234,0.01567313272506418,0.20570588524542588,-0.11163565719779661,2.3847720623016357,8.49107551574707,0.8738945722579956
1731474142.4399173,-0.30900314450263977,0.6061761379241943,-10.027217864990234,0.016326211311563206,0.18004271698947114,-0.08114646643230594,2.388258695602417,8.508606910705566,0.8748524188995361
1731474142.4399173,-0.36433690786361694,0.5541598200798035,-9.993165969848633,0.01388136324661368,0.14827114574475134,-0.047938361658220116,2.3882553577423096,8.508574485778809,0.874850869178772
1731474142.4898849,-0.36433690786361694,0.5541598200798035,-9.993165969848633,0.012267694177251674,0.1238939469088178,-0.019985688096173453,2.387650966644287,8.502741813659668,0.8745433688163757
1731474142.4898849,-0.3449501693248749,0.5600143671035767,-10.049895286560059,0.010055676845319227,0.10852159089710528,-0.0003099141691493652,2.3876473903656006,8.502706527709961,0.8745412826538086
1731474142.5398262,-0.3449501693248749,0.5600143671035767,-10.049895286560059,0.003818071519660206,0.09751306131526472,0.01110399543778523,2.3851191997528076,8.479619979858398,0.8749175667762756
1731474142.5398262,-0.3187732696533203,0.5636372566223145,-10.002037048339844,-0.006827186651768041,0.08628869803559366,0.014890889506348327,2.385108709335327,8.479525566101074,0.8749173283576965
1731474142.5898345,-0.3187732696533203,0.5636372566223145,-10.002037048339844,-0.01807514585949388,0.07244743764815947,0.01323235613542487,2.3816587924957275,8.44964599609375,0.8749890327453613
1731474142.5898345,-0.30297085642814636,0.5662887096405029,-10.012564659118652,-0.024416706243590523,0.05542895908475051,0.010377004182436693,2.381645917892456,8.44953441619873,0.8749891519546509
1731474142.6396751,-0.30297085642814636,0.5662887096405029,-10.012564659118652,-0.022475226746736,0.036414826965641245,0.009538670612692637,2.379389762878418,8.430473327636719,0.8750262260437012
1731474142.6396751,-0.3056734502315521,0.5174658894538879,-10.006267547607422,-0.01308233056511593,0.018269951817185236,0.010381322967157401,2.379373073577881,8.430334091186523,0.8750265836715698
1731474142.689624,-0.32618317008018494,0.5069574117660522,-9.982719421386719,-0.0002501886517649191,0.004930278187173766,0.010725655491568058,2.3771088123321533,8.411494255065918,0.8750882148742676
1731474142.7396877,-0.273434042930603,0.514680802822113,-9.964303016662598,0.011386991857741537,2.7585949763714833e-05,0.009686408317061732,2.374814748764038,8.392295837402344,0.8751766681671143
1731474142.7895157,-0.2996521592140198,0.5227103233337402,-9.985552787780762,0.01905618980694288,0.004763082361163639,0.008528935190722425,2.3783888816833496,8.433216094970703,0.8750226497650146
1731474142.8395174,-0.2996521592140198,0.5227103233337402,-9.985552787780762,0.022593603128797733,0.016522129021187406,0.008924641585782486,2.377275228500366,8.425501823425293,0.8750683069229126
1731474142.8395174,-0.3358599841594696,0.5379204750061035,-9.958097457885742,0.022714362586860413,0.029562411626625845,0.011048319882836546,2.377267837524414,8.425450325012207,0.8750686645507812
1731474142.8894358,-0.336078017950058,0.4931144118309021,-9.98670482635498,0.019218129559910306,0.037710022806924516,0.013732161839718232,3.2077009677886963,7.5472893714904785,0.8750351667404175
1731474142.939421,-0.336078017950058,0.4931144118309021,-9.98670482635498,0.011400307215967385,0.037951201300090665,0.015633675297404025,3.4813878536224365,7.250740051269531,0.875100314617157
1731474142.939421,-0.33337661623954773,0.5128029584884644,-10.005820274353027,-0.00035360113812668527,0.031929942888044474,0.015624579671859255,3.482999324798584,7.24899435043335,0.8751007914543152
1731474142.989331,-0.3498041331768036,0.4721747934818268,-9.94282341003418,-0.014030281892773503,0.023861257959262083,0.013151016295199594,3.752998113632202,6.95651388168335,0.875200629234314
1731474143.0392566,-0.32534632086753845,0.5132566094398499,-9.986802101135254,-0.02695088346417524,0.017635271705269722,0.009125663425313305,4.027595043182373,6.659049034118652,0.8753299713134766
1731474143.0892653,-0.3674081265926361,0.5218324065208435,-10.014200210571289,-0.037004608068363545,0.015119899225321675,0.005419218942329846,3.862640142440796,6.850989818572998,0.8750413060188293
1731474143.1392438,-0.40713658928871155,0.5078936219215393,-9.99518871307373,-0.04375016187424988,0.015586679926744574,0.0027577441814150305,4.030600547790527,6.670682907104492,0.8750789165496826
1731474143.1901145,-0.3748840391635895,0.5032426118850708,-9.95654582977295,-0.04896968071321593,0.016905256950359167,0.00046158580016664164,4.583251953125,6.0819902420043945,0.8751481175422668
1731474143.2401328,-0.41319382190704346,0.513997495174408,-10.000679969787598,-0.05531662691513205,0.017540919810326995,-0.0016331437874578848,5.2922868728637695,5.322489261627197,0.8752521276473999
1731474143.2901106,-0.4174082279205322,0.5009680390357971,-9.988465309143066,-0.0643039340471467,0.01717714127467044,-0.0028352945335302212,5.728511333465576,4.85505485534668,0.8753138780593872
1731474143.3401623,-0.4119400978088379,0.5024043917655945,-9.968817710876465,-0.07588672107092986,0.016237630333969005,-0.00286918708952942,6.166080474853516,4.386033058166504,0.8753686547279358
1731474143.3899338,-0.3861069083213806,0.4877097010612488,-9.973749160766602,-0.08872715733739713,0.015511786481272249,-0.0019030429904915388,6.59855318069458,3.922294855117798,0.8754169344902039
1731474143.4400024,-0.3813762664794922,0.4656544327735901,-10.00214672088623,-0.10022614822018804,0.01601107604162698,-5.1332863756010905e-05,5.960337162017822,4.612669467926025,0.8759257793426514
1731474143.489819,-0.3586125075817108,0.4547431170940399,-9.964475631713867,-0.10725839664429096,0.018889781182514817,0.0022192538647262975,6.194480895996094,4.362659931182861,0.8760835528373718
1731474143.5397732,-0.3586125075817108,0.4547431170940399,-9.964475631713867,-0.10758374920753276,0.025091695212133912,0.004244490722147247,6.430557727813721,4.110354423522949,0.8762508630752563
1731474143.5397732,-0.3363964855670929,0.4302753210067749,-9.970362663269043,-0.10082167242382652,0.0347188941409117,0.006051342658051461,6.431886196136475,4.108933925628662,0.8762518167495728
1731474143.5897393,-0.3230259418487549,0.4246014356613159,-10.018203735351562,-0.08835265756798123,0.046938523004654495,0.007939611457846179,6.464789390563965,4.076955795288086,0.8765474557876587
1731474143.6397502,-0.3230259418487549,0.4246014356613159,-10.018203735351562,-0.07246906809485804,0.06048777693988343,0.009031465223477723,6.652567386627197,3.8767690658569336,0.8767454624176025
1731474143.6397502,-0.3195480704307556,0.4174511432647705,-9.99730110168457,-0.05566064541784938,0.07397908921119815,0.007377757858735075,6.653623104095459,3.875643730163574,0.876746654510498
1731474143.6896462,-0.29733991622924805,0.400546669960022,-9.969202995300293,-0.04016429953779414,0.08612485965886359,0.0021729773111767497,6.838428020477295,3.678659439086914,0.8769556879997253
1731474143.7396011,-0.29733991622924805,0.400546669960022,-9.969202995300293,-0.02733083327209445,0.09624645947216584,-0.004618973882601408,7.1431498527526855,3.369839906692505,0.8772171139717102
1731474143.7396011,-0.2849956750869751,0.3818894624710083,-10.001726150512695,-0.017259624659635292,0.104531826329894,-0.009557695110026283,7.144389629364014,3.3685405254364014,0.8772182464599609
1731474143.789569,-0.2620607912540436,0.3989132344722748,-10.011852264404297,-0.009104156225266708,0.11166318881769366,-0.010756396253831707,7.3797078132629395,3.122039794921875,0.8774189949035645
1731474143.8395295,-0.3114404082298279,0.37750130891799927,-9.98075008392334,-0.0017841965568595277,0.11818422497678532,-0.009207779426497966,7.872336387634277,2.6103391647338867,0.8778795003890991
1731474143.8895874,-0.29066282510757446,0.38888999819755554,-10.001361846923828,0.004955337787361734,0.1242012393128201,-0.0071205276165456945,8.209724426269531,2.2584006786346436,0.8781538009643555
1731474143.939539,-0.29066282510757446,0.38888999819755554,-10.001361846923828,0.01017434597398199,0.12949923818564654,-0.005946829822031846,8.542643547058105,1.911457896232605,0.8784081935882568
1731474143.939539,-0.31284046173095703,0.36997202038764954,-10.00731372833252,0.012789775547763161,0.1337635286661379,-0.006211734241161341,8.544604301452637,1.9094160795211792,0.8784096240997314
1731474143.9893997,-0.31284046173095703,0.36997202038764954,-10.00731372833252,0.012381447278986069,0.13698093480970458,-0.008006739532178585,8.876129150390625,1.564284324645996,0.8786457180976868
1731474143.9893997,-0.27976566553115845,0.3753986358642578,-10.026233673095703,0.009221138430552032,0.13966373090813128,-0.011163289933183464,8.878056526184082,1.5622787475585938,0.8786470293998718
1731474144.0392823,-0.2954639196395874,0.3394887149333954,-9.958551406860352,0.004592633168754282,0.14251386357487644,-0.015141906568609531,8.41749095916748,2.0433366298675537,0.8783637285232544
1731474144.089266,-0.5322554707527161,-0.19363191723823547,-10.011695861816406,-0.0005773860691418485,0.14885268909902638,-0.018635230618315207,8.583537101745605,1.8709110021591187,0.8784460425376892
1731474144.139285,-0.5322554707527161,-0.19363191723823547,-10.011695861816406,-0.009759663320768396,0.17072658019298387,-0.020130510605406438,9.127843856811523,1.3132377862930298,0.8789987564086914
1731474144.139285,-0.4975226819515228,-0.47324222326278687,-10.109478950500488,-0.029551003637140937,0.2243839005629247,-0.019863846084312627,9.12919807434082,1.3118432760238647,0.8789997100830078
1731474144.1902807,-0.6517626047134399,-0.1517183631658554,-10.05496883392334,-0.06001492278179083,0.3075431211046474,-0.02052921182580958,9.444704055786133,0.9872326850891113,0.8791888952255249
1731474144.2401178,-0.7958483099937439,-0.4603233337402344,-10.047149658203125,-0.09219369904083448,0.38752396696074637,-0.024885764811907154,8.98818302154541,1.4682568311691284,0.8796327710151672
1731474144.2899477,-0.3774668574333191,0.1904527246952057,-9.920002937316895,-0.11589739453834585,0.420896408631989,-0.03197687923444585,9.05297565460205,1.4059553146362305,0.8798133730888367
1731474144.3399312,-0.7103548049926758,-0.2533815801143646,-10.023809432983398,-0.1203261151503766,0.377606848042378,-0.035880474548620936,8.907522201538086,1.5648305416107178,0.8802106976509094
1731474144.389945,-0.5084047317504883,0.20593859255313873,-9.930323600769043,-0.0938456276069573,0.25177325780954884,-0.029735644422529746,8.924287796020508,1.5539796352386475,0.8803555965423584
1731474144.4399543,-0.6116470098495483,0.06604569405317307,-9.929553985595703,-0.0352429558224913,0.06642646925157424,-0.01127690448009434,8.871726036071777,1.6154226064682007,0.8807287216186523
1731474144.489831,-0.5259138345718384,0.24936124682426453,-9.96333122253418,0.040294338973967905,-0.1332974878146317,0.015662861568082675,8.861738204956055,1.6365772485733032,0.8811706304550171
1731474144.5398407,-0.5633005499839783,0.1612505167722702,-9.892698287963867,0.10924147774555595,-0.29700007014750257,0.04290399184408654,8.864508628845215,1.6402266025543213,0.8815092444419861
1731474144.5897121,-0.5227437615394592,0.1753193736076355,-9.91405963897705,0.15067823208273898,-0.38404491251425743,0.06198928098563379,8.867589950561523,1.643012285232544,0.8819767236709595
1731474144.6397834,-0.530639111995697,0.1455938071012497,-9.948212623596191,0.15443817448648317,-0.3763745549181155,0.06910840975084509,8.87106704711914,1.644860863685608,0.8826101422309875
1731474144.6897333,-0.4877649247646332,0.19532594084739685,-9.93302059173584,0.12481521457739211,-0.28618513629394504,0.06568952820118101,8.858397483825684,1.6561906337738037,0.8812982439994812
1731474144.7396362,-0.4850020408630371,0.15887004137039185,-9.961091995239258,0.0773221665067352,-0.15050404060602868,0.05525343700746524,8.860016822814941,1.6585747003555298,0.881658136844635
1731474144.7895703,-0.4850020408630371,0.15887004137039185,-9.961091995239258,0.030136522364173215,-0.014576143505961491,0.0409193546741741,8.861766815185547,1.6607482433319092,0.8821368217468262
1731474144.7895703,-0.042006008327007294,0.42955347895622253,-9.968608856201172,-0.0018168110650170852,0.08459366770189777,0.024566006214986988,8.861780166625977,1.6607639789581299,0.8821406960487366
1731474144.8395107,-0.042006008327007294,0.42955347895622253,-9.968608856201172,-0.004809513692820095,0.1254381159305361,0.007421094702530072,8.860495567321777,1.6709944009780884,0.8812048435211182
1731474144.8395107,0.20982344448566437,0.5299987196922302,-9.996824264526367,0.03288973171194833,0.10340175259573763,-0.008988357852869187,8.860503196716309,1.6710205078125,0.8812054395675659
1731474144.8894217,-0.2961362600326538,0.27400559186935425,-10.028383255004883,0.10665061719390807,0.03438675819984882,-0.0229140706575328,8.862052917480469,1.6757426261901855,0.8812857866287231
1731474144.9395008,-0.2961362600326538,0.27400559186935425,-10.028383255004883,0.18378345482140115,-0.04615184600722133,-0.03338966251393384,8.863692283630371,1.6789982318878174,0.8810194134712219
1731474144.9395008,-0.07620701938867569,0.45252323150634766,-9.962984085083008,0.2200888999193083,-0.09980362823787035,-0.04024900411033185,8.863701820373535,1.6790159940719604,0.8810190558433533
1731474144.989377,-0.3626199960708618,0.24273060262203217,-10.05359172821045,0.1954266932594089,-0.10907446036730598,-0.04246911542797529,8.865748405456543,1.6821931600570679,0.880894124507904
1731474145.0394049,-0.3626199960708618,0.24273060262203217,-10.05359172821045,0.12626116575315363,-0.08328793565106403,-0.038573571710938476,8.867207527160645,1.6886111497879028,0.8809213638305664
1731474145.0394049,-0.1496284306049347,0.48473837971687317,-10.041500091552734,0.04548345481069272,-0.04391955476064692,-0.029504382191197623,8.867218971252441,1.6886327266693115,0.8809206485748291
1731474145.0892012,-0.3409866988658905,0.2217046469449997,-10.007319450378418,-0.017455455836894902,-0.011597640477175254,-0.01834515329827345,8.869256973266602,1.692650318145752,0.8807655572891235
1731474145.1393504,-0.3409866988658905,0.2217046469449997,-10.007319450378418,-0.04498139100250359,0.0010024103844766233,-0.00706255079691,8.870275497436523,1.6966270208358765,0.8809335231781006
1731474145.1393504,-0.19522902369499207,0.4383619427680969,-10.02239990234375,-0.036344908287734595,-0.006052051852695666,0.004097614064363633,8.870285034179688,1.6966508626937866,0.8809332251548767
1731474145.1891997,-0.3174585700035095,0.26658883690834045,-9.997493743896484,-0.003968190335861982,-0.02521260572985631,0.014279585390357395,8.87193775177002,1.7007654905319214,0.8808961510658264
1731474145.2401588,-0.2567730247974396,0.41878947615623474,-9.975645065307617,0.03613074500873188,-0.05008799664053743,0.021364774905454315,8.873682975769043,1.7049105167388916,0.8809036016464233
1731474145.290124,-0.31867489218711853,0.322895348072052,-10.004502296447754,0.070222385389788,-0.07658330187032858,0.02406776495020379,8.875533103942871,1.708825707435608,0.880968451499939
1731474145.3400424,-0.31867489218711853,0.322895348072052,-10.004502296447754,0.08954497693328797,-0.10107601755394333,0.0229850766672365,8.871403694152832,1.7142788171768188,0.8810125589370728
1731474145.3400424,-0.2900391221046448,0.4151308536529541,-9.99188232421875,0.09148676312607346,-0.1197363359938792,0.019483323690362413,8.871408462524414,1.7142990827560425,0.8810129165649414
1731474145.390102,-0.2900391221046448,0.4151308536529541,-9.99188232421875,0.07903741372827613,-0.12926983823967775,0.014952038892202216,8.872428894042969,1.7184768915176392,0.8811028599739075
1731474145.390102,-0.331870973110199,0.35072141885757446,-9.961592674255371,0.05871864897984859,-0.1285142011615064,0.010960421110793614,8.872437477111816,1.718506097793579,0.8811036348342896
1731474145.4399805,-0.31109046936035156,0.4003080129623413,-9.982954025268555,0.037223042539022186,-0.11857773330783232,0.00916789207956151,8.872979164123535,1.7334378957748413,0.8810346126556396
1731474145.4899025,-0.31109046936035156,0.4003080129623413,-9.982954025268555,0.018996621633336635,-0.10201559638251409,0.010442079864235919,8.873994827270508,1.7405495643615723,0.88108891248703
1731474145.4899025,-0.3297779858112335,0.40445318818092346,-9.977746963500977,0.006010473413825007,-0.08189948217336034,0.013823903815419923,8.874000549316406,1.7405893802642822,0.8810892701148987
1731474145.5398126,-0.3312694728374481,0.4171616733074188,-9.975252151489258,-0.0018361562207811289,-0.06076729008480636,0.01696884343523939,8.875030517578125,1.7474483251571655,0.8811771869659424
1731474145.589731,-0.3365127444267273,0.42672958970069885,-9.98169231414795,-0.006215104707922083,-0.04079386616510833,0.017923960444174304,8.875096321105957,1.755789875984192,0.8810500502586365
1731474145.6397784,-0.6444383859634399,0.252627432346344,-9.986760139465332,-0.010619310950950173,-0.023545487710314006,0.016151632099903467,8.87582015991211,1.7624282836914062,0.8811341524124146
1731474145.6896195,-0.5891392230987549,0.3251998722553253,-9.954066276550293,-0.022220029472681917,-0.007398182083074878,0.012347551536733718,8.876497268676758,1.7689753770828247,0.8812530636787415
1731474145.739691,-0.7718563675880432,0.09749940782785416,-9.974160194396973,-0.050764926586207376,0.013312534604431884,0.008091420281537628,8.877087593078613,1.7755801677703857,0.8813984990119934
1731474145.7895942,-0.46285444498062134,0.407083123922348,-9.982929229736328,-0.10129434715041759,0.04409404606903398,0.005123958394259809,8.876301765441895,1.7787997722625732,0.8810574412345886
1731474145.839546,0.17480438947677612,0.5993920564651489,-9.956948280334473,-0.16231750348910812,0.08206616265412149,0.004242042129641244,8.8762845993042,1.7853717803955078,0.8811021447181702
1731474145.8895202,-0.4296962022781372,0.3416212499141693,-10.036373138427734,-0.20040765652483486,0.11186679845907069,0.004901212861669699,7.98408317565918,1.8034377098083496,0.8810356259346008
1731474145.9394314,-0.4296962022781372,0.3416212499141693,-10.036373138427734,-0.1818678292980323,0.11715956492630729,0.005160702324328971,7.753469467163086,1.8126918077468872,0.8810673952102661
1731474145.9394314,-0.10667605698108673,0.5735830664634705,-9.944799423217773,-0.10439374487486418,0.09578123688222112,0.00250184226372642,7.75208854675293,1.8127480745315552,0.8810676336288452
1731474145.9893925,-0.4261827766895294,0.25164923071861267,-9.998679161071777,0.004255839319923887,0.05822073341337984,-0.003432544251506602,6.927863121032715,1.8309663534164429,0.8810133934020996
1731474146.0393891,-0.4261827766895294,0.25164923071861267,-9.998679161071777,0.10938713812462174,0.01942957661957604,-0.009963631370922396,6.521856784820557,1.843261480331421,0.8810004591941833
1731474146.0393891,-0.1757666915655136,0.5858380794525146,-10.030649185180664,0.18351156514592737,-0.005880522393596171,-0.014506564664466017,6.5194807052612305,1.8433336019515991,0.881000280380249
1731474146.0892906,-0.36952340602874756,0.26452311873435974,-9.984543800354004,0.21523999829648005,-0.011504166509596202,-0.016911284244494548,6.119809150695801,1.8554590940475464,0.8809542059898376
1731474146.1392066,-0.2180897742509842,0.5275964140892029,-9.984308242797852,0.21211622908616412,-0.0033247638300823367,-0.01816762423162005,5.717373847961426,1.8676661252975464,0.8808643221855164
1731474146.1892066,-0.35027265548706055,0.3020928204059601,-9.998504638671875,0.19128066503529145,0.008507584273651324,-0.018493838618892772,5.3147783279418945,1.8798997402191162,0.8807286620140076
1731474146.2392662,-0.24522694945335388,0.4789474606513977,-9.97572135925293,0.16852087273662858,0.016900751725897525,-0.017466315567293084,6.245713233947754,1.8553431034088135,0.8809671998023987
1731474146.2900531,-0.32880857586860657,0.3587845265865326,-9.992473602294922,0.15334994219208872,0.01925667125391382,-0.014976270208013509,6.054120063781738,1.862050175666809,0.880882740020752
1731474146.3401139,-0.32880857586860657,0.3587845265865326,-9.992473602294922,0.14828644118513526,0.016645931977802713,-0.011498991313218465,5.4678473472595215,1.881098747253418,0.8809495568275452
1731474146.3401139,-0.28920209407806396,0.4533703923225403,-9.996732711791992,0.1504550861294827,0.012340030340228557,-0.008010940631091775,5.466338634490967,1.8811490535736084,0.8809493184089661
1731474146.3900425,-0.32036682963371277,0.38436904549598694,-9.975886344909668,0.15508288628825123,0.00906360912809674,-0.005553693816536511,5.120599269866943,1.8927029371261597,0.880887508392334
1731474146.4399643,-0.3222068250179291,0.4288286566734314,-9.992498397827148,0.15866567243288168,0.0070278609696909165,-0.004483707206255121,4.771681785583496,1.9043962955474854,0.8808125257492065
1731474146.4898868,-0.3222068250179291,0.4288286566734314,-9.992498397827148,0.15950914358315554,0.005047748100164286,-0.004406583467105376,4.425485610961914,1.9160268306732178,0.8807269930839539
1731474146.4898868,-0.3282969295978546,0.4256960153579712,-9.982223510742188,0.15719869131370034,0.0020212645308120805,-0.004811341520803652,4.423510551452637,1.9160932302474976,0.8807264566421509
1731474146.5398424,-0.3282969295978546,0.4256960153579712,-9.982223510742188,0.15238036841267144,-0.002565784208664951,-0.0053025648547521875,4.815246105194092,1.9083988666534424,0.8809651136398315
1731474146.5398424,-0.3342430889606476,0.41899538040161133,-9.977553367614746,0.14631404098606288,-0.008229991674438119,-0.005409267668913604,4.8143720626831055,1.9084326028823853,0.880964994430542
1731474146.5898244,-0.3342430889606476,0.41899538040161133,-9.977553367614746,0.14026227105627567,-0.013668165873920307,-0.004678352166457801,4.100521087646484,1.937634825706482,0.8809806704521179
1731474146.5898244,-0.3272224962711334,0.4375999867916107,-9.990431785583496,0.13514351887729706,-0.01759846567746051,-0.003019140281791704,4.098538398742676,1.937713623046875,0.8809805512428284
1731474146.6398294,-0.3272224962711334,0.4375999867916107,-9.990431785583496,0.13154393747572057,-0.01967153027456093,-0.0009578348766912164,3.749016284942627,1.9515794515609741,0.8809612989425659
1731474146.6398294,-0.348007470369339,0.42216381430625916,-9.980985641479492,0.129687787059248,-0.020594847966897152,0.0005732455839308983,3.746884822845459,1.951663851737976,0.8809611797332764
1731474146.6897447,-0.348007470369339,0.42216381430625916,-9.980985641479492,0.1290887944889747,-0.021172905157488486,0.000978044753922607,3.4018447399139404,1.9653143882751465,0.880942165851593
1731474146.6897447,-0.3311549723148346,0.43346843123435974,-9.981561660766602,0.1286409084429795,-0.021553480664929313,0.000465924256504324,3.3998208045959473,1.965394377708435,0.8809420466423035
1731474146.7396312,-0.3311549723148346,0.43346843123435974,-9.981561660766602,0.12760668214387366,-0.021623254904580003,-0.0002845511669175736,3.0530760288238525,1.979071855545044,0.8809237480163574
1731474146.7396312,-0.3635404109954834,0.40990909934043884,-9.988479614257812,0.12613984147232038,-0.021483681098020242,-0.0007422135743832354,3.0508368015289307,1.9791600704193115,0.8809236288070679
1731474146.789546,-0.32311975955963135,0.4552238881587982,-9.978585243225098,0.12459245824641671,-0.02126669641428628,-0.0008029061499352661,2.706282377243042,1.9927105903625488,0.8809041380882263
1731474146.8395026,-0.3543110489845276,0.4205108880996704,-9.987153053283691,0.12308673414198822,-0.021157373472631205,-0.0006366571742956074,3.4045333862304688,1.9629573822021484,0.8809926509857178
1731474146.8894835,-0.33690303564071655,0.44204410910606384,-9.983466148376465,0.12177343181281305,-0.021531218761710828,-0.000438987760128029,3.239605665206909,1.9690243005752563,0.880988597869873
1731474146.939377,-0.3456494212150574,0.4204249382019043,-9.974058151245117,0.12080329965324005,-0.022534558898002738,-0.00030746809221777674,2.600088119506836,1.992185115814209,0.8808720111846924
1731474146.9893372,-0.32335811853408813,0.44455331563949585,-9.994388580322266,0.12028118318856323,-0.02384352873812764,-0.00019393802771939636,2.2692770957946777,2.0042331218719482,0.8808301091194153
1731474147.0392928,-0.3419918715953827,0.4153200089931488,-9.980100631713867,0.12045848930686168,-0.024985059075383002,-7.319454461013755e-05,1.937957763671875,2.016249179840088,0.8807877898216248
1731474147.0892532,-0.33232659101486206,0.44813141226768494,-9.970808982849121,0.12155720250061293,-0.025628405546859787,-1.6731804780480216e-05,1.6081633567810059,2.0281577110290527,0.880745530128479
1731474147.1392598,-0.3414287269115448,0.42118310928344727,-9.989472389221191,0.12337265508718218,-0.025722148235301313,8.865959729264361e-05,1.8881417512893677,2.0140252113342285,0.8807670474052429
1731474147.1892078,-0.32821929454803467,0.43675288558006287,-9.983247756958008,0.1253326262728636,-0.025471355801697244,0.0004302731156403588,1.6776471138000488,2.020836591720581,0.8807393908500671
1731474147.239118,-0.3308393657207489,0.41653814911842346,-9.989508628845215,0.12697683366369664,-0.025039824417390274,0.0008306975153308799,1.4688810110092163,2.0275394916534424,0.8807134628295898
1731474147.2890556,-0.3233639597892761,0.44228991866111755,-9.99915599822998,0.12828511833865003,-0.024399042960973883,0.0007870806783294069,1.2043161392211914,2.034881830215454,0.8830175399780273
1731474147.34003,-0.3317860960960388,0.42187803983688354,-9.981391906738281,0.12887320347101283,-0.023411122906294865,-7.564014502592858e-05,0.9765189290046692,2.0420000553131104,0.8835185766220093
1731474147.389953,-0.3199501931667328,0.43816444277763367,-9.984302520751953,0.12603847877289878,-0.021580578274297046,-0.001388786544641395,0.7538934350013733,2.048909902572632,0.8840071558952332
1731474147.4399762,-0.3348630368709564,0.410004585981369,-9.995926856994629,0.11503903648624816,-0.017902073811254998,-0.001969729521250737,0.5309926271438599,2.055788278579712,0.884492814540863
1731474147.4898822,-0.31965500116348267,0.4335654675960541,-9.987404823303223,0.09322025401533937,-0.01159243568251286,-0.0008674494652305526,1.3899480104446411,2.061887264251709,0.8851830959320068
1731474147.5398347,-0.33629316091537476,0.42236918210983276,-9.98745346069336,0.06315153215178897,-0.0030817691021609566,0.001744303050161622,1.3714736700057983,2.069007158279419,0.8856930732727051
1731474147.5897639,-0.32917505502700806,0.4344494938850403,-9.999245643615723,0.031173381159743024,0.0057927871255485834,0.004739300990406374,1.5798689126968384,2.093022108078003,0.8874512910842896
1731474147.6397233,-0.32917505502700806,0.4344494938850403,-9.999245643615723,0.0038448156179900408,0.012616746547126472,0.006660196972647026,1.6118935346603394,2.1064858436584473,0.888431966304779
1731474147.6397233,-0.3516184091567993,0.42074695229530334,-9.990751266479492,-0.014575351802053984,0.015711717545565846,0.006570921921466467,1.6121132373809814,2.1065783500671387,0.8884387612342834
1731474147.6896822,-0.3454195261001587,0.43337929248809814,-9.982441902160645,-0.023164606740018072,0.01502756768771516,0.004846051323577422,1.6438887119293213,2.1199817657470703,0.8894268870353699
1731474147.739603,-0.3505779504776001,0.42843934893608093,-9.977140426635742,-0.024060205311713455,0.0119142981638702,0.003033641775278026,1.5963565111160278,2.121610641479492,0.8869642615318298
1731474147.7895708,-0.3442579209804535,0.44717955589294434,-10.014467239379883,-0.02078673763965663,0.007984924337929973,0.0025535032789303106,1.601096749305725,2.1309046745300293,0.8871270418167114
1731474147.839557,-0.2940550446510315,0.5944892764091492,-9.976007461547852,-0.015925829917336855,0.003353845502022384,0.003200717158027333,1.586388349533081,2.1565980911254883,0.8865525126457214
1731474147.889536,-0.20518560707569122,0.54371577501297,-9.946371078491211,-0.00946005333255625,-0.004160992544612665,0.003558805148526749,1.5857489109039307,2.1717920303344727,0.8865668177604675
1731474147.939503,-0.43645983934402466,0.24578015506267548,-9.995434761047363,-0.00029543995089398875,-0.01390840247346551,0.00304817095963359,1.5793546438217163,2.1848247051239014,0.8863217830657959
1731474147.9893682,-0.2412494719028473,0.5809628963470459,-10.00178050994873,0.010176368514662663,-0.017999588595173192,0.002178990857495894,1.5775153636932373,2.199892282485962,0.8862939476966858
1731474148.0393229,-0.4226839542388916,0.305077463388443,-9.972904205322266,0.01950274695708788,-0.01196502242158703,0.0012645800481418884,1.57570219039917,2.2150118350982666,0.88627028465271
1731474148.0892675,-0.17636924982070923,0.6643232107162476,-9.994385719299316,0.028976917366004804,-0.006481041619040773,0.0005264699236921745,1.5739529132843018,2.2300796508789062,0.8862488865852356
1731474148.1391916,-0.017241640016436577,0.4965020716190338,-10.021503448486328,0.04484038841548326,-0.019836010871600387,0.0003786653245031891,1.5741031169891357,2.215108633041382,0.8861808776855469
1731474148.1891968,0.08745230734348297,0.6030604839324951,-10.011589050292969,0.07519075007351855,-0.061479812222114114,0.0005837231029167178,1.5699362754821777,2.236480236053467,0.8860795497894287
1731474148.2391913,-0.9778934717178345,0.07814757525920868,-9.990920066833496,0.11541282292708041,-0.11951444722073334,0.0004905947694006736,1.5681816339492798,2.249185800552368,0.886035680770874
1731474148.289004,-0.13256236910820007,0.6477596163749695,-9.916261672973633,0.1320988390336462,-0.1606615238203929,0.0007601933405640719,1.5667542219161987,2.2613980770111084,0.8859939575195312
1731474148.3390393,-0.5607509613037109,0.18505153059959412,-10.030675888061523,0.08267724315218683,-0.1521759562795177,0.0036220655657264317,1.5655804872512817,2.2733492851257324,0.8859573006629944
1731474148.3899746,-0.24053697288036346,0.6703055500984192,-9.993346214294434,-0.042650480157449044,-0.08727813614908579,0.010157211900396612,1.5645971298217773,2.268927812576294,0.886090874671936
1731474148.4399455,-0.4149532914161682,0.18424800038337708,-9.922703742980957,-0.20999997660852585,0.013093878074052111,0.018475686051855723,1.5629494190216064,2.2776520252227783,0.8861342072486877
1731474148.4898977,-0.32263457775115967,0.564312756061554,-10.011099815368652,-0.3632866324985403,0.11839199922884083,0.02584951943713302,1.558411717414856,2.2978177070617676,0.8861453533172607
1731474148.539939,-0.4096713662147522,0.33358514308929443,-9.978320121765137,-0.45185820945280103,0.2046446308956907,0.030652329478457183,1.5543142557144165,2.3120055198669434,0.8862664699554443
1731474148.5898108,-0.33266475796699524,0.4822407364845276,-9.983787536621094,-0.45258321361740955,0.2580858683217357,0.032099671471042104,1.5520522594451904,2.325106620788574,0.8836545348167419
1731474148.6398258,-0.36633315682411194,0.4079146981239319,-10.017582893371582,-0.3759043730764874,0.27341423382692054,0.030243146511860535,1.547194004058838,2.339958906173706,0.8830142617225647
1731474148.6896837,-0.37975364923477173,0.41329842805862427,-9.984230041503906,-0.25516761297105944,0.2534045970099804,0.025550741797269412,1.547025203704834,2.3503599166870117,0.8815245032310486
1731474148.7397082,-0.3236582279205322,0.45023560523986816,-9.957239151000977,-0.12966559782310652,0.2076166867543422,0.018499946942378394,1.5432533025741577,2.3633453845977783,0.8808661699295044
1731474148.7895982,-0.4094269871711731,0.40006208419799805,-10.010847091674805,-0.029559744512586805,0.14875258832288926,0.010452561581313302,1.5412381887435913,2.3803281784057617,0.8791840672492981
1731474148.8395123,-0.4094269871711731,0.40006208419799805,-10.010847091674805,0.03130281262485442,0.08894864762878951,0.0033354169567221393,1.5360978841781616,2.398331642150879,0.8794761300086975
1731474148.8395123,-0.3341081142425537,0.49790847301483154,-9.974881172180176,0.05399244463464678,0.037567430281278284,-0.001638451806257615,1.5360723733901978,2.3984322547912598,0.8794738054275513
1731474148.8895173,-0.40162166953086853,0.3858509361743927,-9.979796409606934,0.04981160609220907,-0.000570915626567952,-0.0035825835283445962,1.53241765499115,2.413052558898926,0.8791325092315674
1731474148.9394271,-0.33520281314849854,0.49349677562713623,-9.995915412902832,0.034189975982336654,-0.025290447358929324,-0.0015545725449234813,1.5288430452346802,2.427738666534424,0.8787824511528015
1731474148.989394,-0.33520281314849854,0.49349677562713623,-9.995915412902832,0.02029837591601708,-0.03938166188635137,0.0042064901535243246,1.525342583656311,2.4423186779022217,0.8784363269805908
1731474148.989394,-0.39363962411880493,0.3769837021827698,-9.9759521484375,0.01557053723766994,-0.04702912791335182,0.011754590541012664,1.5253244638442993,2.442394495010376,0.8784345388412476
1731474149.0393794,-0.32641667127609253,0.49767252802848816,-9.984671592712402,0.020973304693152846,-0.05133800802261926,0.018820449449138278,1.5320347547531128,2.4251039028167725,0.8798434138298035
1731474149.0893095,-0.39658495783805847,0.40310895442962646,-9.991823196411133,0.03217873165266016,-0.05262998083866034,0.023963913540727532,1.530420184135437,2.4341447353363037,0.879875898361206
1731474149.139286,-0.31508591771125793,0.49019932746887207,-9.974615097045898,0.042100305688910176,-0.049102511624284466,0.026255055556582182,1.528895378112793,2.4430761337280273,0.8799711465835571
1731474149.1892076,-0.3865351676940918,0.38851404190063477,-9.984769821166992,0.04407380003994118,-0.03826021411862407,0.025066227976348346,1.5268911123275757,3.1963613033294678,0.8800203800201416
1731474149.2392628,-0.3284973204135895,0.4553205966949463,-9.989445686340332,0.035515903494554135,-0.019568345894124824,0.020643118015634412,1.5254197120666504,3.3547146320343018,0.8801352381706238
1731474149.2891707,-0.36882221698760986,0.4021817743778229,-9.976908683776855,0.01988660983589821,0.002646300344558525,0.014215540130309469,1.524021863937378,3.512580394744873,0.8802933096885681
1731474149.3390863,-0.339903861284256,0.46282950043678284,-9.997218132019043,0.004673850006252955,0.019986912401235617,0.007435712777910331,1.5226548910140991,3.6704416275024414,0.8804782629013062
1731474149.3890233,-0.36403632164001465,0.4146801829338074,-9.983406066894531,-0.003392698111215739,0.02504833497630633,0.0017023110128218254,1.5203157663345337,4.015264511108398,0.8800632953643799
1731474149.4399798,-0.36403632164001465,0.4146801829338074,-9.983406066894531,-0.002129740441357326,0.016318413321514784,-0.0022528350616697187,1.518578290939331,4.208649158477783,0.8800989389419556
1731474149.4399798,-0.3282560706138611,0.4430561661720276,-9.990992546081543,0.005816405760056723,-0.0011055548168336388,-0.004298180945932312,1.5185681581497192,4.209774971008301,0.8800991177558899
1731474149.489963,-0.3282560706138611,0.4430561661720276,-9.990992546081543,0.015778513987737438,-0.019255709526453692,-0.0047862299294479955,1.5168952941894531,4.397846221923828,0.8801249265670776
1731474149.489963,-0.34830936789512634,0.4099680185317993,-9.985173225402832,0.02422843361558048,-0.03202394764349222,-0.0044580025046579924,1.5168852806091309,4.398987770080566,0.8801250457763672
1731474149.5398574,-0.34830936789512634,0.4099680185317993,-9.985173225402832,0.02953724494383907,-0.03680268751842983,-0.004007646678801214,1.5133070945739746,4.815494060516357,0.8800133466720581
1731474149.5398574,-0.3367198407649994,0.4484230577945709,-9.979958534240723,0.03115346429363116,-0.03384524210028239,-0.003665980189624441,1.5132931470870972,4.817092418670654,0.8800132870674133
1731474149.5898209,-0.3511849343776703,0.42940324544906616,-9.9827299118042,0.029207130277959664,-0.02594758147058863,-0.003227235794191511,1.5110046863555908,5.0844011306762695,0.8800022602081299
1731474149.639785,-0.3449540138244629,0.44740235805511475,-9.993281364440918,0.02440544726061119,-0.01753462533533317,-0.002438978614953298,1.5087740421295166,5.3526787757873535,0.8799841403961182
1731474149.689714,-0.348348468542099,0.4309273660182953,-9.968509674072266,0.017846714971757115,-0.012410877913816655,-0.0013400833264086594,1.506709337234497,5.509321689605713,0.8799967169761658
1731474149.7397473,-0.3465837836265564,0.4344233572483063,-9.99363899230957,0.010885634800555037,-0.01192240103520532,-0.00021036242789698915,1.50456702709198,5.747529983520508,0.879989504814148
1731474149.7896135,-0.35121646523475647,0.43669408559799194,-9.989757537841797,0.0048332878408296285,-0.014680895979885845,0.00038512114395444053,1.4995619058609009,6.258055210113525,0.8799972534179688
1731474149.839714,-0.3436480164527893,0.4485608637332916,-9.986307144165039,0.0005602196733043457,-0.017856754100458547,-0.0003953296787549697,1.4924684762954712,6.965787410736084,0.8799982666969299
1731474149.8895714,-0.3436480164527893,0.4485608637332916,-9.986307144165039,-0.0016232310845877987,-0.019153487817898524,-0.0027516600754582433,1.4883806705474854,7.384934902191162,0.8799934983253479
1731474149.8895714,-0.3596985638141632,0.44395580887794495,-9.989258766174316,-0.001990040177923523,-0.017762964584493016,-0.005605339247504237,1.4883530139923096,7.3877716064453125,0.8799934387207031
1731474149.9394937,-0.3440133035182953,0.440993994474411,-9.989282608032227,-0.0014533835704925737,-0.013982076343347154,-0.007510955728824436,1.484265923500061,7.806412696838379,0.8799759149551392
1731474149.9894161,-0.3629949986934662,0.4327376186847687,-9.978323936462402,-0.0011842935873006347,-0.008583542742059788,-0.0077423180807377305,1.480170488357544,8.225543022155762,0.8799394369125366
1731474150.0394707,-0.35161831974983215,0.4358040392398834,-9.977865219116211,-0.001969857079346721,-0.002454680049743158,-0.006309716407758285,1.485270619392395,7.6751508712768555,0.8799871206283569
1731474150.0892787,-0.3588835597038269,0.44195646047592163,-9.983288764953613,-0.003920458261705799,0.0034705747025441614,-0.003610374242073784,1.4830275774002075,7.899551868438721,0.8799599409103394
1731474150.1392915,-0.3525645434856415,0.4376795291900635,-9.988021850585938,-0.006458631633396472,0.008054200349337608,-0.00048197254680901354,1.4807562828063965,8.125500679016113,0.8799275159835815
1731474150.1892414,-0.3610277473926544,0.4366692900657654,-9.989734649658203,-0.008608640871608949,0.01017723190895282,0.0017996078771645675,1.4789437055587769,8.279204368591309,0.8799887299537659
1731474150.239233,-0.35390523076057434,0.44004589319229126,-9.980785369873047,-0.009572005381608822,0.009453551593907351,0.002210245459426682,1.4768317937850952,8.48186206817627,0.8799892067909241
1731474150.2891834,-0.34808841347694397,0.4356316924095154,-9.990507125854492,-0.008963583740433967,0.006543415823156873,0.0008443602035296533,1.4747225046157837,8.682079315185547,0.8799934387207031
1731474150.3391497,-0.34808841347694397,0.4356316924095154,-9.990507125854492,-0.006626693714429947,0.002755226693904019,-0.0011630989300236627,1.471110463142395,9.0333251953125,0.8799970149993896
1731474150.3391497,-0.3495331108570099,0.4318283796310425,-9.987534523010254,-0.002733268474752559,-0.0005504417147661522,-0.0026234486195419776,1.4710960388183594,9.034709930419922,0.8799970149993896
1731474150.3889644,-0.34229859709739685,0.43807172775268555,-9.979005813598633,0.0018562456631015516,-0.0024547390859938983,-0.0029297781532616153,1.4684091806411743,9.292738914489746,0.8799916505813599
1731474150.4399717,-0.35194361209869385,0.43843650817871094,-9.987793922424316,0.005777227080229785,-0.002788578208885923,-0.001953967491118941,1.4608135223388672,9.815596580505371,0.8799952864646912
1731474150.4899325,-0.3497510850429535,0.43838438391685486,-9.9824857711792,0.0078912261461455,-0.0020702431933227188,6.512215863690041e-05,1.4536054134368896,9.670112609863281,0.8799967765808105
1731474150.5399475,-0.3440338671207428,0.4448617100715637,-9.980924606323242,0.007862860566837028,-0.0010786865483985563,0.0025021982401000837,1.4485875368118286,9.797447204589844,0.8799976110458374
1731474150.5898569,-0.3435697555541992,0.4436219334602356,-9.993441581726074,0.006273313702281602,-0.0004611437199753295,0.0045052636156244046,1.4436036348342896,9.924363136291504,0.8800071477890015
1731474150.6397717,-0.3434273302555084,0.4445556402206421,-9.981748580932617,0.004249193041758641,-0.0005883711896248543,0.005272888989381356,1.4481614828109741,9.554814338684082,0.880007803440094
1731474150.6896904,-0.34205594658851624,0.4357181191444397,-9.985618591308594,0.0027946538480983097,-0.001429608370938204,0.0044299933517769376,1.4457075595855713,9.581185340881348,0.8800296187400818
1731474150.7397027,-0.3368449807167053,0.4365089237689972,-9.985532760620117,0.0023204259440326655,-0.0024118123881628297,0.0023027226441765976,1.4403795003890991,9.488630294799805,0.8800126314163208
1731474150.7896504,-0.3368449807167053,0.4365089237689972,-9.985532760620117,0.002656040321519317,-0.0026741143463933138,-0.00030135747581550216,1.436731219291687,9.494344711303711,0.8800252676010132
1731474150.7896504,-0.3370206654071808,0.44003918766975403,-9.988101959228516,0.003321954027822084,-0.0017962943822229457,-0.002551470870363939,1.4367058277130127,9.494384765625,0.880025327205658
1731474150.839731,-0.3370206654071808,0.44003918766975403,-9.988101959228516,0.003778379163080735,-0.00023148938510154964,-0.0039035621690590803,1.4339556694030762,9.460416793823242,0.8800016045570374
1731474150.839731,-0.34878137707710266,0.4350849390029907,-9.995030403137207,0.003598931217990527,0.0011321246365050565,-0.004270409941764304,1.4339321851730347,9.460416793823242,0.8800015449523926
1731474150.8894904,-0.34878137707710266,0.4350849390029907,-9.995030403137207,0.0024982870414205645,0.0017740253834261698,-0.004011547043257062,1.4304929971694946,9.460445404052734,0.8799895644187927
1731474150.8894904,-0.34958556294441223,0.43955448269844055,-9.992443084716797,0.0003220659232106635,0.0018324901354275132,-0.0036797609154150274,1.4304711818695068,9.460445404052734,0.8799894452095032
1731474150.9395454,-0.34958556294441223,0.43955448269844055,-9.992443084716797,-0.0028015019667245403,0.001708094757357283,-0.0036603361265627864,1.4269939661026,9.460478782653809,0.8799678087234497
1731474150.9395454,-0.33814793825149536,0.4347154200077057,-9.992836952209473,-0.006318261860075677,0.001634430561997465,-0.003988342572775486,1.426972508430481,9.460478782653809,0.8799676299095154
1731474150.9894862,-0.3534073531627655,0.43426117300987244,-9.98823356628418,-0.009380736460488289,0.001698435661408996,-0.004444552941235979,1.4234992265701294,9.460515975952148,0.8799360394477844
1731474151.0393903,-0.35689619183540344,0.43784937262535095,-9.982269287109375,-0.011370211478861457,0.0019883683273816777,-0.00468954130214497,1.4268810749053955,9.44814395904541,0.8799900412559509
1731474151.089344,-0.34376397728919983,0.4424741268157959,-9.984296798706055,-0.012250548676008121,0.002477289767377781,-0.004361131786409249,1.4245518445968628,9.447113037109375,0.8799687027931213
1731474151.1394033,-0.34501925110816956,0.4349685609340668,-9.980411529541016,-0.0120131832073488,0.002879154744220791,-0.0033091100893767643,1.4197362661361694,9.442020416259766,0.8799861073493958
1731474151.1892505,-0.35001081228256226,0.4367660880088806,-9.98748779296875,-0.010229139065532971,0.0028517706757672035,-0.0018075064995536057,1.4162813425064087,9.439864158630371,0.8799687027931213
1731474151.2393665,-0.35077399015426636,0.4410512447357178,-9.983784675598145,-0.006852162074849004,0.0022757838115586584,-0.000456517295126819,1.4127731323242188,9.43769359588623,0.8799483180046082
1731474151.2891529,-0.3346041738986969,0.4414082169532776,-9.978825569152832,-0.002853308425056188,0.001198689084051199,0.00019180499592993684,1.4117472171783447,9.43641185760498,0.8799900412559509
1731474151.339152,-0.3346041738986969,0.4414082169532776,-9.978825569152832,0.0005529583267981984,-0.0002787863792360593,2.9979701090860394e-05,1.4092071056365967,9.434796333312988,0.8799862265586853
1731474151.339152,-0.3532467186450958,0.44168803095817566,-9.982125282287598,0.0026791622368094563,-0.0018823177869481263,-0.0005848234226640733,1.409191608428955,9.434786796569824,0.8799862265586853
1731474151.38902,-0.3444956839084625,0.44681721925735474,-9.989038467407227,0.0031091881784500153,-0.0031623952960168904,-0.0012659019843498985,1.4035595655441284,9.429719924926758,0.8799952864646912
1731474151.4390323,-0.3412024676799774,0.45108357071876526,-9.988518714904785,0.001621174087149918,-0.003820439844846159,-0.0019330554866566416,1.3998092412948608,9.426848411560059,0.8799889087677002
1731474151.4888942,-0.35135704278945923,0.44728460907936096,-9.988907814025879,-0.001246849178587012,-0.003914365638967211,-0.002622166996081147,1.39322030544281,9.423714637756348,0.8799931406974792
1731474151.5399947,-0.3428148031234741,0.43845781683921814,-9.985496520996094,-0.004205358321524322,-0.0036129073660933118,-0.0031446876751486203,1.3880101442337036,9.420448303222656,0.8799799680709839
1731474151.589838,-0.35130253434181213,0.43799132108688354,-9.989453315734863,-0.005969931732750731,-0.002846537411031016,-0.0031574984395584572,1.3829275369644165,9.417262077331543,0.879959225654602
1731474151.6397727,-0.34227749705314636,0.4340595602989197,-9.994230270385742,-0.005857863630304626,-0.0013281182361532997,-0.002540688521166887,1.3874305486679077,9.418089866638184,0.8799890279769897
1731474151.6898038,-0.345090389251709,0.4354267120361328,-9.992863655090332,-0.003972583107464197,0.0010486208132106261,-0.0015844798926208299,1.3847825527191162,9.416011810302734,0.8799754977226257
1731474151.7628806,-0.345090389251709,0.4354267120361328,-9.992863655090332,-0.001129113482894512,0.0038045656179452425,-0.0007313448417756877,1.376315712928772,9.409565925598145,0.8799886703491211
1731474151.7628806,-0.3515869379043579,0.4293767511844635,-9.992466926574707,0.0014660480488342831,0.005984407393593247,-0.00019188578323645574,1.3762874603271484,9.409544944763184,0.8799886107444763
1731474151.7896523,-0.3438718020915985,0.40278133749961853,-9.977875709533691,0.002783084802566526,0.0070033035458755225,0.0001628400989961035,1.3740346431732178,9.407859802246094,0.8799850940704346
1731474151.839626,-0.3230764865875244,0.15276339650154114,-9.979936599731445,0.002629497995708283,0.00869840253092638,0.0007514895161339893,1.368970274925232,9.40637493133545,0.8799972534179688
1731474151.8895721,-0.3230764865875244,0.15276339650154114,-9.979936599731445,0.0018695136998816537,0.016513831823780425,0.0020360668364132243,1.364331841468811,9.403721809387207,0.8800002336502075
1731474151.8895721,-0.22208143770694733,0.187400683760643,-10.070066452026367,0.002122349548838895,0.0339405676191098,0.0035237580028696595,1.3643028736114502,9.403705596923828,0.8800002932548523
1731474151.939552,-0.22208143770694733,0.187400683760643,-10.070066452026367,0.005821512722420155,0.05484807091652419,0.0025478908909438687,1.3596899509429932,9.40114974975586,0.8800090551376343
1731474151.939552,-0.3626958727836609,-0.3957504630088806,-10.0033597946167,0.015149468310114173,0.06955066451494289,-0.004508929578020262,1.3596611022949219,9.401134490966797,0.880009114742279
1731474151.989412,-0.49128592014312744,-0.6028002500534058,-10.101073265075684,0.027610307117220602,0.08314394624336689,-0.01862947334033067,1.362871766090393,9.400862693786621,0.8799786567687988
1731474152.039409,-0.33004650473594666,0.15001556277275085,-9.991525650024414,0.0349305738686679,0.11354818304031686,-0.03634349633459598,1.3555508852005005,9.395764350891113,0.8799368143081665
1731474152.0893848,-0.33004650473594666,0.15001556277275085,-9.991525650024414,0.031730487920530195,0.1574960419590424,-0.05052010781810526,1.351557970046997,9.393329620361328,0.8797668814659119
1731474152.0893848,-0.42409035563468933,-0.23452405631542206,-9.928579330444336,0.021414204903915317,0.18238712796187675,-0.053388577757011065,1.3515335321426392,9.393316268920898,0.8797654509544373
1731474152.139399,-0.3635537326335907,0.16380023956298828,-9.96257495880127,0.009307265626828685,0.16837235896049874,-0.041557489220011144,1.3476165533065796,9.391304969787598,0.8794813752174377
1731474152.1892323,-0.3265819549560547,0.03705446049571037,-9.926668167114258,-0.0031529723391669,0.12952583974840698,-0.018180134655658424,1.343705415725708,9.389660835266113,0.8791230916976929
1731474152.2392316,-0.34383344650268555,0.2610261142253876,-9.951214790344238,-0.015153093185696699,0.0888132321565207,0.009743588756482504,1.339750051498413,9.388280868530273,0.8787524104118347
1731474152.2891235,-0.35642221570014954,0.23940710723400116,-9.95168685913086,-0.024199355203389204,0.056409165501550465,0.0350406649021057,1.3489052057266235,9.390549659729004,0.879934549331665
1731474152.3392637,-0.35642221570014954,0.23940710723400116,-9.95168685913086,-0.028348779656950426,0.030381366767993922,0.052422693643283495,1.3470454216003418,9.38956069946289,0.8800416588783264
1731474152.3392637,-0.3735845685005188,0.305618554353714,-9.976515769958496,-0.027662022961279526,0.006352437034039217,0.05893955356168293,1.347033977508545,9.389554977416992,0.8800427317619324
1731474152.389072,-0.3735845685005188,0.305618554353714,-9.976515769958496,-0.023619099689939197,-0.01625664027105064,0.053847302912974994,1.3400758504867554,9.384594917297363,0.8821298480033875
1731474152.389072,-0.3662432134151459,0.2762035131454468,-9.98367977142334,-0.0182399766866494,-0.03523114535474369,0.03888874252136692,1.3400506973266602,9.384578704833984,0.8821353316307068
1731474152.4390504,-0.3853393793106079,0.2848801612854004,-9.992253303527832,-0.013170748900997387,-0.04738271481870235,0.018471915017773264,1.3361992835998535,9.382024765014648,0.8829972147941589
1731474152.4890246,-0.3853393793106079,0.2848801612854004,-9.992253303527832,-0.009213145968817825,-0.04933056801678153,-0.0016577346882399452,1.3340692520141602,9.380670547485352,0.8840379118919373
1731474152.4890246,-0.3745778203010559,0.2969180941581726,-9.987142562866211,-0.006621349540404756,-0.040166656200362784,-0.016739696409481745,1.3340481519699097,9.380656242370605,0.8840433955192566
1731474152.539969,-0.36941108107566833,0.32635197043418884,-10.017279624938965,-0.0050903583061550975,-0.023686342663977837,-0.024450118553413905,1.3306175470352173,9.378300666809082,0.8849073052406311
1731474152.5898287,-0.3613957464694977,0.32036691904067993,-9.987659454345703,-0.00353795704049261,-0.007148316808074845,-0.02510148435919764,1.3272349834442139,9.375946998596191,0.8856943249702454
1731474152.6398501,-0.3613957464694977,0.32036691904067993,-9.987659454345703,-0.0006715751779012408,0.0025643485175690216,-0.0208360571189802,1.328011155128479,9.375954627990723,0.8836754560470581
1731474152.6398501,-0.3558109700679779,0.3377763330936432,-10.017905235290527,0.004008923504095652,0.002508256752078694,-0.014319362038922007,1.3279943466186523,9.37594223022461,0.8836762309074402
1731474152.6896672,0.11172740161418915,0.9410831928253174,-9.988750457763672,0.011897928099055488,-0.008333855028365382,-0.008095776231593228,1.3258090019226074,9.374324798583984,0.8837656378746033
1731474152.7397246,0.6022413969039917,1.6053311824798584,-9.950591087341309,0.033388515656305434,-0.041044515315161005,-0.003926682101178841,1.3220220804214478,9.369823455810547,0.8835278153419495
1731474152.7897217,0.45707929134368896,1.1785728931427002,-9.883322715759277,0.08775045560247341,-0.11701825720909569,-0.0013219121111810769,1.3192766904830933,9.366883277893066,0.8835772275924683
1731474152.8396256,0.18722468614578247,0.8254978060722351,-10.014012336730957,0.17470939583623485,-0.22881851162567013,0.001996979263458001,1.3168509006500244,9.363499641418457,0.8836276531219482
1731474152.889567,-0.2138817459344864,0.33085402846336365,-10.020838737487793,0.2486372455510174,-0.30737694629068923,0.006260855076509016,1.3149644136428833,9.359465599060059,0.8836881518363953
1731474152.939633,-0.84199458360672,-0.42900434136390686,-10.077438354492188,0.23828276341688298,-0.2555567910039772,0.007229383594951106,1.316030502319336,9.363795280456543,0.883561909198761
1731474152.9894435,-1.1347620487213135,-0.6553553342819214,-10.159132957458496,0.09547275607022962,-0.01933061063637421,-0.0007782558991102032,1.3150519132614136,9.361166954040527,0.8836110830307007
1731474153.0395005,-1.1347620487213135,-0.6553553342819214,-10.159132957458496,-0.1622856845704211,0.35694960352099403,-0.01964778677918629,1.3084994554519653,9.357932090759277,0.8836336135864258
1731474153.0395005,-0.5375619530677795,0.026560742408037186,-10.053828239440918,-0.44379205411371303,0.731632766436713,-0.04452330616642345,1.3084784746170044,9.357918739318848,0.8836336135864258
1731474153.0893981,-0.6419805884361267,-0.14039817452430725,-10.018117904663086,-0.6271911987958176,0.9402256477615278,-0.06405001333164019,1.304348349571228,9.356876373291016,0.8835588693618774
1731474153.13939,-0.6419805884361267,-0.14039817452430725,-10.018117904663086,-0.6261434950275842,0.8882712554088403,-0.06483786908971309,1.2986003160476685,9.358101844787598,0.8833223581314087
1731474153.13939,-0.48468977212905884,0.17504572868347168,-9.904268264770508,-0.43296348187721423,0.5929251351441618,-0.03902819705703131,1.2985620498657227,9.358115196228027,0.8833205103874207
1731474153.1893013,-0.5061772465705872,0.20886747539043427,-9.975037574768066,-0.113111374756292,0.1556979483657522,0.011465113452217134,1.2919602394104004,9.360628128051758,0.8830198049545288
1731474153.2392278,-0.504601240158081,0.35937514901161194,-9.961531639099121,0.23687840612291605,-0.3004747484011656,0.07638164058836122,1.2854527235031128,9.362981796264648,0.8828259110450745
1731474153.2890863,-0.5235366225242615,0.4285810589790344,-9.942535400390625,0.5319460167593619,-0.6817039113423278,0.14123023651103103,1.302464485168457,9.349837303161621,0.883923351764679
1731474153.3391986,-0.5182399153709412,0.41647854447364807,-9.95583724975586,0.7194804205474715,-0.937818527686085,0.19192307634435665,1.302798867225647,9.345612525939941,0.8845405578613281
1731474153.3890479,-0.5484158992767334,0.4480695128440857,-9.937871932983398,0.7777912190159422,-1.04578027275108,0.21710462065417518,1.2950140237808228,9.338748931884766,0.8845628499984741
1731474153.4390175,-0.5478430390357971,0.4370619058609009,-9.939542770385742,0.7092670941580393,-0.9963406625743065,0.2097926955096186,1.2948344945907593,9.330254554748535,0.8856772780418396
1731474153.4889638,-0.5263280868530273,0.4694240391254425,-9.992203712463379,0.5424015014158261,-0.8077166018926408,0.17130880440414792,1.2888109683990479,9.32923698425293,0.885125994682312
1731474153.5389593,-0.5467596054077148,0.46723413467407227,-9.985711097717285,0.3293748884235113,-0.535995144312274,0.11243117547180079,1.2882137298583984,9.321002006530762,0.8861737847328186
1731474153.5898702,-0.551529049873352,0.4757702946662903,-9.996859550476074,0.12765916699900362,-0.2563369475782507,0.04910108225374636,1.280945062637329,9.321533203125,0.8852940201759338
1731474153.6398945,-0.5152885317802429,0.4587487578392029,-9.976001739501953,-0.02100351475562235,-0.03262006858866265,-0.003313969370711803,1.278884768486023,9.315900802612305,0.8858222365379333
1731474153.6898081,-0.5710768699645996,0.47691261768341064,-10.003650665283203,-0.09983669507784373,0.10199953921817272,-0.03489616911242262,1.272882342338562,9.313364028930664,0.8833068609237671
1731474153.7397523,-0.5710768699645996,0.47691261768341064,-10.003650665283203,-0.11495593241164767,0.14761524427228223,-0.04388634569460137,1.2661925554275513,9.305946350097656,0.8816453814506531
1731474153.7397523,-0.525538980960846,0.48766395449638367,-9.994609832763672,-0.08720938493280561,0.1275924391151451,-0.035708520977495425,1.2661677598953247,9.305916786193848,0.8816405534744263
1731474153.789613,-0.5084438323974609,0.5185731053352356,-9.965476989746094,-0.04101721673389125,0.07409131323235389,-0.01891392009454607,1.2618277072906494,9.300950050354004,0.880784809589386
1731474153.8396065,-0.5292466878890991,0.4623800218105316,-9.98769760131836,0.004712275275924483,0.015834426621891426,-0.0008917114411076139,1.2573997974395752,9.296046257019043,0.8798960447311401
1731474153.88953,-0.5292466878890991,0.4623800218105316,-9.98769760131836,0.03934358190412558,-0.028082126918624845,0.013880786639933099,1.2530409097671509,9.291142463684082,0.8790262937545776
1731474153.88953,-0.48913973569869995,0.46731847524642944,-9.979022026062012,0.059244457428030056,-0.049056724650964986,0.023366017103836383,1.2530150413513184,9.291112899780273,0.879021167755127
1731474153.9395475,-0.48913973569869995,0.46731847524642944,-9.979022026062012,0.06629223797430826,-0.047710456477185345,0.02739760408277944,1.2598210573196411,9.293347358703613,0.8819456100463867
1731474153.9395475,-0.4685397744178772,0.5056860446929932,-9.99309253692627,0.06566198886311778,-0.0314898421102509,0.02716206471874725,1.2598085403442383,9.293323516845703,0.8819456696510315
1731474153.9894257,-0.45702219009399414,0.4998912811279297,-9.956080436706543,0.062005568453407156,-0.01105513377728401,0.02410976976125783,1.2541892528533936,9.281453132629395,0.8824050426483154
1731474154.0394197,-0.4022035002708435,0.5028836131095886,-9.970311164855957,0.05725385370140493,0.004023334328795676,0.01935356048963356,1.2512425184249878,9.275288581848145,0.8825754523277283
1731474154.089314,-0.42270535230636597,0.48164358735084534,-9.983999252319336,0.05195911362057413,0.009236835226368032,0.013683982386559438,1.2484426498413086,9.269164085388184,0.8827863931655884
1731474154.1392968,-0.38456615805625916,0.5007065534591675,-9.960416793823242,0.04704218755946987,0.006265850925329523,0.007381813758562343,1.245754599571228,9.263031959533691,0.8830245733261108
1731474154.1892097,-0.3837924003601074,0.4896668791770935,-10.00211238861084,0.043957012082622454,0.00013476816230342456,0.0004427497909218847,1.243191123008728,9.25693416595459,0.8832715153694153
1731474154.2391903,-0.3806689977645874,0.47306615114212036,-10.001392364501953,0.04417841879050256,-0.004551075962811379,-0.00706659787538144,1.2407277822494507,9.25080680847168,0.8835111260414124
1731474154.2891269,-0.5227342247962952,0.9770021438598633,-9.972333908081055,0.04768289663201232,-0.007633938334600687,-0.015051294960240647,1.2484524250030518,9.257684707641602,0.8828065395355225
1731474154.3391964,-0.6536251306533813,1.1910713911056519,-9.957026481628418,0.05037538043414544,-0.01785941303804119,-0.02268907985128916,1.2473564147949219,9.253178596496582,0.8828186392784119
1731474154.389024,-0.5680765509605408,0.5152410864830017,-9.884139060974121,0.04456425574967762,-0.044625161265928914,-0.027315479959755633,1.2463829517364502,9.248611450195312,0.8827682733535767
1731474154.438984,-0.8518714904785156,1.0223649740219116,-10.114818572998047,0.02388755812959023,-0.07819400204038203,-0.0258466877032346,1.243730902671814,9.235488891601562,0.8830127716064453
1731474154.4890203,-0.5428992509841919,0.5303182005882263,-9.948053359985352,-0.011341164079675232,-0.09099299874416554,-0.01832061513811168,1.2423433065414429,9.229090690612793,0.8829755187034607
1731474154.4890203,-0.5428992509841919,0.5303182005882263,-9.948053359985352,-0.04816823960431046,-0.059953235644192554,-0.006485152728410888,1.2418957948684692,9.227031707763672,0.8829556703567505
1731474154.8706543,-0.5428992509841919,0.5303182005882263,-9.948053359985352,-0.06122275621044783,0.02185424320165851,0.011411552384940259,1.2116663455963135,9.101361274719238,0.8846569657325745
1731474154.8706543,-0.253031849861145,0.3442539572715759,-9.981415748596191,-0.029365757634193107,0.14311181876317716,0.03798252081124704,1.2116426229476929,9.101282119750977,0.8846587538719177
1731474154.9205117,-0.23775433003902435,1.9156547784805298,-9.855184555053711,0.04687220272694906,0.26537350905744894,0.06884120208381614,1.2207415103912354,9.12024211883545,0.8840566277503967
1731474154.9705315,-0.23775433003902435,1.9156547784805298,-9.855184555053711,0.14520448981445996,0.3224512944490709,0.09332864235403132,1.2191872596740723,9.111857414245605,0.8844471573829651
1731474154.9705315,-0.4001409411430359,0.5899046659469604,-9.77047061920166,0.23123663565676217,0.2690815499639725,0.10302384908189348,1.2191760540008545,9.11179256439209,0.8844512701034546
1731474155.020408,-0.1947299689054489,1.112312912940979,-10.022409439086914,0.27121458482327027,0.14813108526743646,0.09610142076489178,1.2199301719665527,9.09809398651123,0.8840779066085815
1731474155.0704117,-0.1947299689054489,1.112312912940979,-10.022409439086914,0.24952878163431635,0.06589390723109767,0.07452179894547471,1.218899130821228,9.084997177124023,0.8845576047897339
1731474155.0704117,-0.21322882175445557,0.8714746236801147,-10.088143348693848,0.17836572910767157,0.0867320609508872,0.04184774559402264,1.2188948392868042,9.084919929504395,0.8845610022544861
1731474155.1203022,-0.2239534556865692,0.9041865468025208,-9.905142784118652,0.08749372715649359,0.18639325675611823,0.005245416405587411,1.2182718515396118,9.071949005126953,0.8851475715637207
1731474155.1704328,-1.3943976163864136,-0.5810168385505676,-10.084527969360352,0.00025116659355368595,0.30573597193600993,-0.02456421882669169,1.217767357826233,9.05978012084961,0.8857017159461975
1731474155.2202253,-0.5982986688613892,0.3721615672111511,-10.063822746276855,-0.0868050134544187,0.41917920848644286,-0.03944415671918735,1.217132806777954,9.048136711120605,0.8861918449401855
1731474155.2702136,-0.46314603090286255,0.03619835898280144,-10.011496543884277,-0.19187385795781894,0.5397797268133745,-0.03953016646519978,1.217281460762024,9.072042465209961,0.8840115666389465
1731474155.320184,-0.5183843374252319,0.10595713555812836,-10.015792846679688,-0.31033079630832794,0.6720971298883027,-0.030925715807418732,1.2156298160552979,9.067498207092285,0.883944571018219
1731474155.3702235,-0.11161405593156815,0.15249505639076233,-10.028287887573242,-0.40365133756370297,0.7799982573062769,-0.019750973761972962,1.2134501934051514,9.048135757446289,0.8839195966720581
1731474155.4200754,-0.11161405593156815,0.15249505639076233,-10.028287887573242,-0.42639443486345036,0.8038059277994671,-0.009976105812376176,1.2104524374008179,9.042208671569824,0.8838614821434021
1731474155.4200754,0.01588253118097782,0.03391246125102043,-10.020575523376465,-0.35921490262579653,0.7084667484781937,-0.003623224070753464,1.2103537321090698,9.042072296142578,0.8838595151901245
1731474155.469965,-0.25383296608924866,0.3448643088340759,-9.974748611450195,-0.22376868495174515,0.5142030471206738,-0.00047414256915579735,1.206641435623169,9.03794002532959,0.8837901949882507
1731474155.5198517,-0.10165785253047943,0.2227284014225006,-9.922452926635742,-0.07038114806176797,0.2794379807546957,0.0021260722351761543,1.2024657726287842,9.03465747833252,0.8837209343910217
1731474155.5699394,-0.1839110553264618,0.4192267656326294,-9.99095344543457,0.05026215552399524,0.06292853675911508,0.008103975195015193,1.2094908952713013,9.012381553649902,0.8840104341506958
1731474155.6198208,-0.19280876219272614,0.3612631559371948,-9.950533866882324,0.10998716862802388,-0.09798693975358405,0.019510958475551895,1.2081326246261597,9.00289535522461,0.8840752840042114
1731474155.6698928,-0.00384950777515769,0.6912849545478821,-9.922014236450195,0.1101213604148976,-0.18963293103510512,0.03430399634744618,1.2079216241836548,8.140085220336914,0.8841781616210938
1731474155.7207956,0.744889497756958,1.6483407020568848,-9.939879417419434,0.07810492774619399,-0.22226485658671297,0.04792941993625141,1.2057125568389893,7.107815742492676,0.8843619227409363
1731474155.770732,0.3141680657863617,1.1341841220855713,-10.00156307220459,0.05389498727214311,-0.22701748307425518,0.05556263819104487,1.204441785812378,6.566634654998779,0.8846603035926819
1731474155.8206358,-0.22723086178302765,1.8611536026000977,-9.893811225891113,0.054606023804884454,-0.22901930139634125,0.053311689436223594,1.2032828330993652,6.014175891876221,0.8851019740104675
1731474155.8706558,-0.4820658564567566,1.1263463497161865,-9.909140586853027,0.044588451178145305,-0.22271692768979848,0.0411127025475239,1.202265739440918,5.469820976257324,0.8856543898582458
1731474155.9206085,-0.49431735277175903,1.4234706163406372,-9.892594337463379,-0.04099292214898642,-0.18525967548293418,0.024551724229061066,1.203852653503418,6.329094886779785,0.8845411539077759
1731474155.970523,-0.07631285488605499,0.5004467964172363,-10.070384979248047,-0.23106783406095424,-0.1003353304789215,0.01039194291489036,1.20230233669281,5.680152893066406,0.8845508098602295
1731474156.0204434,-0.24069371819496155,-0.35270124673843384,-10.206377029418945,-0.47283089840088904,0.03644790847920275,-0.0007207542145317601,1.2002578973770142,5.291827201843262,0.8846818208694458
1731474156.0704284,-0.6625279188156128,-0.9579870700836182,-10.202309608459473,-0.661012780803763,0.22195928665609357,-0.014910800305112194,1.1967955827713013,4.903496742248535,0.8847934007644653
1731474156.1203353,-0.7205891013145447,-0.26662561297416687,-10.021163940429688,-0.72526194883537,0.4459256647937911,-0.03675153195122466,1.1916109323501587,4.516616344451904,0.8848404288291931
1731474156.170457,-0.539745032787323,-0.3440362215042114,-10.02015209197998,-0.6771154561934518,0.6822655500574806,-0.06139573862761687,1.199208378791809,4.911895751953125,0.8845096230506897
1731474156.220292,-0.539745032787323,-0.3440362215042114,-10.02015209197998,-0.5744323563339011,0.8827933140437237,-0.07683398605778576,1.1953990459442139,4.691603660583496,0.8842809200286865
1731474156.220292,-0.7099660634994507,-0.18074804544448853,-9.97559928894043,-0.4648327500106275,0.9872425821540183,-0.07397432339510514,1.1953717470169067,4.690281867980957,0.8842789530754089
1731474156.270222,-0.4648881256580353,-0.01231425255537033,-9.95477294921875,-0.3654033785178846,0.9477607384504951,-0.05297366062265607,1.1977132558822632,4.074267387390137,0.8844960927963257
1731474156.320121,-0.6345815658569336,0.11943099647760391,-9.89240837097168,-0.27570394575990503,0.7567830762109229,-0.020781412652417917,1.1948424577713013,3.6757452487945557,0.8843163251876831
1731474156.370157,-0.4727819561958313,0.4156271815299988,-9.890789985656738,-0.1947818052491197,0.45853325918220117,0.013981931875429784,1.1972055435180664,3.2185585498809814,0.8846598267555237
1731474156.419992,-0.4727819561958313,0.4156271815299988,-9.890789985656738,-0.12628141231411252,0.1306339287849213,0.04372659716771487,1.1953094005584717,2.7637007236480713,0.8847416043281555
1731474156.419992,-0.4746846556663513,0.4383656084537506,-9.960733413696289,-0.07396009946970823,-0.14757944617499108,0.06229896059190973,1.1952972412109375,2.761002779006958,0.8847424387931824
1731474156.4700122,-0.4082532823085785,0.4868992269039154,-9.922954559326172,-0.03750045718516458,-0.3198596405027542,0.06510630250104199,1.1931991577148438,2.306440830230713,0.884959876537323
1731474156.5199811,-0.4082532823085785,0.4868992269039154,-9.922954559326172,-0.012938144762598127,-0.36900102218687536,0.051116384012065676,1.1973539590835571,2.6297473907470703,0.8849138617515564
1731474156.5199811,-0.42095184326171875,0.46034306287765503,-9.94420051574707,0.004793015239011848,-0.31807535918288543,0.02497284637002903,1.1973506212234497,2.6283717155456543,0.8849149942398071
1731474156.5699735,-0.3570947051048279,0.568742036819458,-9.979055404663086,0.018709663219784296,-0.2129416262347475,-0.004687220230224867,1.1967664957046509,2.3788325786590576,0.8851111531257629
1731474156.6198468,-0.35170891880989075,0.5658196806907654,-10.006991386413574,0.02907219623973555,-0.10069333124609402,-0.03006108343968497,1.1978899240493774,1.8224397897720337,0.8849671483039856
1731474156.6698449,-0.35522300004959106,0.5524300336837769,-9.985919952392578,0.035693676992033796,-0.015828320358297482,-0.047333216594010484,1.197803020477295,1.4407466650009155,0.884916365146637
1731474156.7197773,-0.35522300004959106,0.5524300336837769,-9.985919952392578,0.03861616324218811,0.027103733477646306,-0.05532787452799279,1.197808861732483,1.0607643127441406,0.8847381472587585
1731474156.7197773,-0.3219449818134308,0.549161434173584,-9.999293327331543,0.037374402859663924,0.03336085206972614,-0.05323634272499118,1.1978092193603516,1.058444619178772,0.8847366571426392
1731474156.7707493,-0.28970977663993835,0.5290778875350952,-9.999696731567383,0.03237586135498557,0.019269469642392643,-0.04160914136587335,1.1979061365127563,0.6719757318496704,0.8844311833381653
1731474156.8206139,-0.3143123984336853,0.5126650929450989,-10.002466201782227,0.02642357508174012,0.001784534441552959,-0.023994536172518437,1.1982660293579102,1.1410359144210815,0.8850575685501099
1731474156.870688,-0.2599155902862549,0.5240530371665955,-9.9974946975708,0.023211376535749444,-0.00783460777602098,-0.005778846379861427,1.198380708694458,0.9141615629196167,0.8849849700927734
1731474156.9205627,-0.2969132363796234,0.4891177713871002,-9.995007514953613,0.02455446536150021,-0.006400049508650642,0.008362516222219913,1.1984862089157104,1.2983075380325317,0.8852015137672424
1731474156.9705002,-0.2292598932981491,0.49995648860931396,-10.004132270812988,0.029530200877465232,0.0025110489697964863,0.016044100755730588,1.199033260345459,1.383641004562378,0.885336697101593
1731474157.0204966,-0.2579132318496704,0.4924958348274231,-10.007848739624023,0.03558351113290312,0.012707443400482363,0.017206928692897777,1.1993821859359741,1.3635945320129395,0.8854492902755737
1731474157.0704823,-0.24598565697669983,0.4703907370567322,-10.037233352661133,0.039453318733542686,0.01939037851952475,0.01322105445539139,1.1998268365859985,1.3435232639312744,0.8856005668640137
1731474157.1203732,-0.2604096531867981,0.4892358183860779,-9.96359920501709,0.037775827100385025,0.021131091485968062,0.006174124653115303,1.2003611326217651,1.3237638473510742,0.8857738971710205
1731474157.1703653,-0.2412901222705841,0.49372807145118713,-10.008519172668457,0.028841292690097706,0.019317288908027398,-0.0011353483456730195,1.2000467777252197,1.4365159273147583,0.8854785561561584
1731474157.2202988,-0.25269076228141785,0.49582356214523315,-9.967084884643555,0.014219609983201369,0.015971651580580136,-0.005625695739240778,1.2014371156692505,1.4563132524490356,0.8856008648872375
1731474157.2702527,-0.29472479224205017,0.49913355708122253,-9.967273712158203,-0.0020495672527643186,0.012271323563148013,-0.0053745259418244784,1.2023707628250122,1.459210991859436,0.885684609413147
1731474157.3201697,-0.2970694601535797,0.489962100982666,-10.00029182434082,-0.016158667686824942,0.008608246811692567,-0.0009251277473840561,1.2032808065414429,1.4621319770812988,0.8857604265213013
1731474157.370167,-0.34497785568237305,0.48454904556274414,-9.985206604003906,-0.026749211287918816,0.005288039030025278,0.004568713931299492,1.204138994216919,1.4650758504867554,0.8858409523963928
1731474157.4200604,-0.34497785568237305,0.48454904556274414,-9.985206604003906,-0.03519456380065859,0.0029277176827290268,0.007150087704873267,1.2022637128829956,1.4663090705871582,0.8856664299964905
1731474157.4200604,-0.33604687452316284,0.4833928644657135,-9.957088470458984,-0.043622891675075,0.0021268712770127645,0.005021330306829826,1.2022731304168701,1.466360092163086,0.8856683373451233
1731474157.4700716,-0.3997398614883423,0.48361581563949585,-10.031452178955078,-0.051867051758493696,0.0028280598421690758,-0.00037025218773378073,1.202451229095459,1.4676587581634521,0.8857171535491943
1731474157.5199513,-0.34380197525024414,0.5006750226020813,-9.992836952209473,-0.057081719567021495,0.004122100795846335,-0.006364198022007208,1.2029658555984497,1.472120761871338,0.8857492208480835
1731474157.570007,-0.40116724371910095,0.47793707251548767,-9.987176895141602,-0.05676101819171683,0.004820040452714956,-0.01127063324630291,1.2031500339508057,1.4743012189865112,0.8857711553573608
1731474157.6199002,-0.3695700168609619,0.49243950843811035,-9.979872703552246,-0.05114883558853964,0.004502096745830577,-0.014116484978958874,1.2048405408859253,1.4772863388061523,0.8858277201652527
1731474157.6698487,-0.41193339228630066,0.5345649719238281,-9.984530448913574,-0.042940414666388996,0.0036389591093354797,-0.013990610315302071,1.2053831815719604,1.4797477722167969,0.8858186602592468
1731474157.7197323,-0.39578092098236084,0.5249258279800415,-9.9964017868042,-0.03534915849187368,0.0021456291897921664,-0.0109017247074624,1.2064578533172607,1.4820512533187866,0.8858994841575623
1731474157.7697887,-0.4148857295513153,0.5152393579483032,-10.009360313415527,-0.03030395330995303,-0.0010223004985115854,-0.0064727767832181045,1.2069662809371948,1.4842596054077148,0.885886549949646
1731474157.8206913,-0.38384121656417847,0.5252273082733154,-9.947656631469727,-0.027723184896866197,-0.0059210935582782705,-0.0027418292909326177,1.2086172103881836,1.4877692461013794,0.8861387968063354
1731474157.8705866,-0.37471675872802734,0.512197732925415,-9.963825225830078,-0.025791593388625376,-0.010576163951740488,-0.0002488742683892886,1.2093639373779297,1.4903018474578857,0.886202335357666
1731474157.9205194,-0.39332878589630127,0.548274040222168,-9.980907440185547,-0.022318420037887674,-0.0126775251980286,0.0015797442624439786,1.2100776433944702,1.4928983449935913,0.8862699270248413
1731474157.970504,-0.3940364420413971,0.5331264734268188,-9.951216697692871,-0.01659259950529983,-0.011684436121204966,0.002391561601773797,1.2107247114181519,1.4953969717025757,0.8863406777381897
1731474158.0204077,-0.3720216453075409,0.5273372530937195,-10.012054443359375,-0.00985922780346753,-0.00897534187118727,0.0008439048720022003,1.2113547325134277,1.497933030128479,0.8864172697067261
1731474158.070431,-0.36154696345329285,0.5203379988670349,-9.981355667114258,-0.0037706708005049694,-0.006245991163161103,-0.004049657067455469,1.2104039192199707,1.5016810894012451,0.88612961769104
1731474158.1203873,-0.33269548416137695,0.5211107134819031,-9.980409622192383,0.0012308865553237605,-0.00421285261546471,-0.01206113059451335,1.2108484506607056,1.5046212673187256,0.886115312576294
1731474158.170318,-0.3207956552505493,0.5135068893432617,-9.99845027923584,0.005930404905988438,-0.0027250709285918566,-0.021065790628068088,1.2130067348480225,1.5176335573196411,0.8860771656036377
1731474158.2202368,-0.30687013268470764,0.5224953889846802,-9.994780540466309,0.011250488951920627,-0.0014639711181991723,-0.027681284912392502,1.2151764631271362,1.5304512977600098,0.8860407471656799
1731474158.2701979,-0.3119085729122162,0.5182780623435974,-9.960308074951172,0.017028333076073338,-0.00038259385996999395,-0.029208821587638392,1.2164098024368286,1.5374494791030884,0.8859162330627441
1731474158.3202002,-0.3232634663581848,0.5220323204994202,-9.994431495666504,0.021491661557853405,0.00034794553444821377,-0.024666042824662657,1.2177544832229614,1.5447994470596313,0.8857168555259705
1731474158.3702445,-0.28144803643226624,0.5371149778366089,-9.997028350830078,0.022401449346298157,0.0005963842061763225,-0.015122751449330214,1.217457890510559,1.5352561473846436,0.8860048055648804
1731474158.4200966,-0.28144803643226624,0.5371149778366089,-9.997028350830078,0.019186162762752573,0.0002481119158865761,-0.0037255887420287164,1.2184247970581055,1.5381786823272705,0.8859147429466248
1731474158.4200966,-0.31811031699180603,0.5085797905921936,-9.998974800109863,0.013319262173196322,-0.0006096994900516299,0.005723339823103437,1.2184498310089111,1.538252353668213,0.8859123587608337
1731474158.4701083,-0.2963423728942871,0.5248386859893799,-9.973089218139648,0.006394695151969434,-0.001125037490644468,0.010891201442346237,1.2201521396636963,1.5383857488632202,0.8860663175582886
1731474158.5199509,-0.2963423728942871,0.5248386859893799,-9.973089218139648,-0.0008569003168734726,-0.00011267700871804456,0.011862321502306195,1.2214775085449219,1.5410232543945312,0.8860877752304077
1731474158.5199509,-0.2880183458328247,0.5108221173286438,-10.006240844726562,-0.007473875448339577,0.0026204392226533806,0.010135565969768355,1.221486210823059,1.5410405397415161,0.8860880136489868
1731474158.5699735,-0.2980497181415558,0.49068212509155273,-9.973512649536133,-0.011789978473613374,0.006207434841117117,0.006792007702049265,1.2227981090545654,1.5436904430389404,0.8861328363418579
1731474158.6198955,-0.2980497181415558,0.49068212509155273,-9.973512649536133,-0.012616115705008793,0.010025768381098686,0.002255828418066593,1.2240873575210571,1.5463768243789673,0.8861892819404602
1731474158.6198955,-0.31672346591949463,0.5230117440223694,-9.992152214050293,-0.010354110734936365,0.014104182769363932,-0.002656670878920089,1.2240947484970093,1.546392560005188,0.8861896395683289
1731474158.6698563,-0.3087119460105896,0.5085582733154297,-10.039146423339844,-0.006869872795858939,0.01810553086198366,-0.0071177896780948505,1.2220100164413452,1.5428725481033325,0.8860992789268494
1731474158.719787,-0.3087119460105896,0.5085582733154297,-10.039146423339844,-0.004285377989144072,0.02086602730924072,-0.01144847142610381,1.222585916519165,1.5443869829177856,0.886074960231781
1731474158.719787,-0.37044280767440796,0.5171928405761719,-9.983965873718262,-0.0038709735347326026,0.021172540567486953,-0.01589720840581651,1.2225892543792725,1.5443960428237915,0.8860747218132019
1731474158.769825,-0.35450124740600586,0.50801682472229,-9.950888633728027,-0.006310448754018517,0.018496277932291413,-0.018062164192813784,1.225429892539978,1.5493961572647095,0.8860694169998169
1731474158.8206687,-0.35450124740600586,0.50801682472229,-9.950888633728027,-0.011957822681733328,0.013287283680475378,-0.013771435473314681,1.2268612384796143,1.5523790121078491,0.8859979510307312
1731474158.8206687,-0.3457523584365845,0.5308553576469421,-10.02107048034668,-0.01948595671491929,0.006843166562092103,-0.0021760101584964663,1.2268692255020142,1.5523958206176758,0.885997474193573
1731474158.8708599,-0.3457523584365845,0.5308553576469421,-10.02107048034668,-0.02540242158540563,0.0004263240479447888,0.010916575687031447,1.228234052658081,1.5553560256958008,0.8859232068061829
1731474158.8708599,-0.3598632216453552,0.5240755081176758,-9.973990440368652,-0.026354838379295677,-0.00545368221427962,0.016690974533239603,1.2282425165176392,1.5553747415542603,0.8859228491783142
1731474158.9206185,-0.3598632216453552,0.5240755081176758,-9.973990440368652,-0.02168500037908458,-0.010670765541811325,0.010631105052575633,1.229528784751892,1.558278203010559,0.8858763575553894
1731474158.9206185,-0.37419551610946655,0.5006221532821655,-9.971975326538086,-0.013680540120143463,-0.014787356354449561,-0.004420252134184717,1.229536771774292,1.5582964420318604,0.8858761191368103
1731474158.970634,-0.37419551610946655,0.5006221532821655,-9.971975326538086,-0.005964553546412536,-0.01688503451686249,-0.021477986862818266,1.2272764444351196,1.5649139881134033,0.8861652612686157
1731474158.970634,-0.3892771303653717,0.5268489718437195,-10.022506713867188,-0.001560757412255362,-0.01618086254706424,-0.03439757508603982,1.2272800207138062,1.5649346113204956,0.8861650824546814
1731474159.0204418,-0.3892771303653717,0.5268489718437195,-10.022506713867188,-0.0016011767978930795,-0.0132185847364263,-0.040807276221052936,1.2279032468795776,1.5685278177261353,0.8860806822776794
1731474159.0204418,-0.42074161767959595,0.5047159194946289,-9.953629493713379,-0.005336793107161356,-0.010023143798000251,-0.04177955495486035,1.2279069423675537,1.5685489177703857,0.8860799074172974
1731474159.0705018,-0.42074161767959595,0.5047159194946289,-9.953629493713379,-0.011414310607929775,-0.008392150450774016,-0.03892003680526403,1.2309129238128662,1.582754373550415,0.886269748210907
1731474159.0705018,-0.4061630666255951,0.5313308238983154,-9.978107452392578,-0.01863233813044203,-0.008559625918010575,-0.03258867762938993,1.2309237718582153,1.582806944847107,0.8862693309783936
1731474159.1203768,-0.4061630666255951,0.5313308238983154,-9.978107452392578,-0.025032131387096836,-0.009922999061026009,-0.023524951036688745,1.2328588962554932,1.5947638750076294,0.8861322402954102
1731474159.1203768,-0.40526318550109863,0.5140536427497864,-10.022367477416992,-0.027652330483472508,-0.0119779712917264,-0.014503732962169547,1.2328693866729736,1.594822883605957,0.8861313462257385
1731474159.170345,-0.40526318550109863,0.5140536427497864,-10.022367477416992,-0.024610097809852953,-0.013762267199595843,-0.00916767590309114,1.2341930866241455,1.6024367809295654,0.8860043287277222
1731474159.170345,-0.3965300917625427,0.502784788608551,-9.966509819030762,-0.01679443363371273,-0.013425300582849343,-0.009535714418735785,1.2342013120651245,1.6024848222732544,0.8860034346580505
1731474159.2203305,-0.3965300917625427,0.502784788608551,-9.966509819030762,-0.006974486831650801,-0.009345392445035051,-0.014243186376536744,1.235485315322876,1.6100674867630005,0.8858474493026733
1731474159.2203305,-0.38581791520118713,0.508468508720398,-9.955740928649902,0.0021466348992424935,-0.0014439902022603131,-0.019035225545888667,1.2354927062988281,1.6101115942001343,0.8858464360237122
1731474159.2702694,-0.3934820294380188,0.535594642162323,-9.982986450195312,0.009047135290854358,0.008504265154593568,-0.01973073862944073,1.236781358718872,1.61770498752594,0.8856480121612549
1731474159.3201983,-0.3934820294380188,0.535594642162323,-9.982986450195312,0.013388363182304356,0.017399210103179817,-0.0151304612927719,1.235992193222046,1.6064949035644531,0.8861365914344788
1731474159.3201983,-0.35386738181114197,0.5342658758163452,-9.970437049865723,0.015601764028218505,0.022156699694020253,-0.007289307948706435,1.2359975576400757,1.6065173149108887,0.8861362338066101
1731474159.3701587,-0.3599652647972107,0.5136325359344482,-9.988588333129883,0.01676361456469093,0.02151493480136246,0.0005847548150275253,1.23698890209198,1.6105847358703613,0.8860739469528198
1731474159.4200087,-0.32312655448913574,0.5253065824508667,-10.006949424743652,0.018483078276424307,0.01687544759636058,0.006014378620131834,1.2389048337936401,1.6199915409088135,0.8861793875694275
1731474159.4701254,-0.32851725816726685,0.5242536067962646,-9.958294868469238,0.022078504475651035,0.011153332704419455,0.007874173613818538,1.2403099536895752,1.626173734664917,0.8861916065216064
1731474159.5200732,-0.32851725816726685,0.5242536067962646,-9.958294868469238,0.027046609242691835,0.006671142760024937,0.0071557805629154725,1.2417832612991333,1.6324081420898438,0.8862226009368896
1731474159.5200732,-0.2989529073238373,0.5134327411651611,-9.978981018066406,0.030726122674510338,0.004177738029500595,0.00696129878873286,1.2417911291122437,1.6324405670166016,0.886222779750824
1731474159.5699933,-0.2976040542125702,0.528435468673706,-10.035711288452148,0.030711462074502108,0.0033776503248687207,0.00974675892425728,1.2433210611343384,1.6386243104934692,0.8862744569778442
1731474159.6201284,-0.2584826648235321,0.5214108228683472,-9.999695777893066,0.027433461475897498,0.003609582346617611,0.014521375126922554,1.242118000984192,1.6359336376190186,0.8862244486808777
1731474159.6698892,-0.29298895597457886,0.5123870372772217,-9.98195743560791,0.02353601930193464,0.004155545735954966,0.018023147121928616,1.2431899309158325,1.6405540704727173,0.8862923383712769
1731474159.7198591,-0.29298895597457886,0.5123870372772217,-9.98195743560791,0.02056903732404835,0.004600896754963954,0.018296697093623273,1.2443268299102783,1.6452277898788452,0.8864063024520874
1731474159.7198591,-0.2805013358592987,0.5189118385314941,-9.997715950012207,0.017054609096212064,0.0049674767096511505,0.016004286506205813,1.2443337440490723,1.6452558040618896,0.8864071369171143
1731474159.7697053,-0.25231388211250305,0.526025652885437,-9.983038902282715,0.010748781449982796,0.00531052070402095,0.01288071841115156,1.2457634210586548,1.6581666469573975,0.8862507939338684
1731474159.8196115,-0.2625800669193268,0.5331252813339233,-9.989421844482422,0.0018883032891933754,0.0053291067288388574,0.010182849498480126,1.246948480606079,1.6646225452423096,0.8863201141357422
1731474159.870672,-0.25197145342826843,0.5226522088050842,-10.016423225402832,-0.006874775253764723,0.004553263466753199,0.008095003472795513,1.248105764389038,1.670973539352417,0.8864113092422485
1731474159.9206076,-0.25197145342826843,0.5226522088050842,-10.016423225402832,-0.012794787324603976,0.0029264138403561576,0.00554513038863189,1.24923837184906,1.6773335933685303,0.8865194916725159
1731474159.9206076,-0.2829984724521637,0.5082409381866455,-9.991646766662598,-0.014731700897744797,0.0011125969763943187,0.0010385137534609427,1.2492454051971436,1.6773737668991089,0.8865202069282532
1731474159.9705005,-0.28480449318885803,0.5353925824165344,-9.947487831115723,-0.013686269733265772,9.473391026441455e-05,-0.005377099154523418,1.2490644454956055,1.686488389968872,0.8862332701683044
1731474160.0204332,-0.2747306227684021,0.5366898775100708,-10.02096939086914,-0.012005158295274133,0.0002922909130258824,-0.011535704556833566,1.2528303861618042,1.7113010883331299,0.8861954212188721
1731474160.0705328,-0.2890772521495819,0.5572153329849243,-9.990310668945312,-0.011321812701320592,0.0010627225465129515,-0.015403412099713515,1.2543375492095947,1.7217836380004883,0.8861519694328308
1731474160.120394,-0.2890772521495819,0.5572153329849243,-9.990310668945312,-0.011550884765657691,0.0011055934593172233,-0.016413680908902887,1.2559618949890137,1.7332733869552612,0.8860663771629333
1731474160.120394,-0.30816128849983215,0.5108066201210022,-9.969518661499023,-0.012084085442841926,-0.000484464054572936,-0.013927056212331215,1.255972146987915,1.7333462238311768,0.8860657215118408
1731474160.1703773,-0.3075338900089264,0.5318730473518372,-9.989680290222168,-0.013042896950322238,-0.0031139870705754113,-0.0068347697530416725,1.2575596570968628,1.7447891235351562,0.8859513998031616
1731474160.220353,-0.3075338900089264,0.5318730473518372,-9.989680290222168,-0.015108745828455838,-0.004920390581088109,0.004590896732199864,1.256060004234314,1.7046396732330322,0.8861767649650574
1731474160.220353,-0.3376113772392273,0.514896035194397,-9.994827270507812,-0.01864150876051239,-0.004456572097987428,0.017706405337060107,1.256066918373108,1.7046453952789307,0.8861767053604126
1731474160.2703774,-0.34983736276626587,0.5286862254142761,-9.962014198303223,-0.023229743323209373,-0.001667378350417987,0.02852538257349021,1.2569336891174316,1.7053858041763306,0.8862051367759705
1731474160.3201654,-0.34983736276626587,0.5286862254142761,-9.962014198303223,-0.028079972066269308,0.002440192544926751,0.03401451954138209,1.2600380182266235,2.540275812149048,0.886106550693512
1731474160.3201654,-0.3544542193412781,0.5517596006393433,-9.99022388458252,-0.032413796218782556,0.006255429163215538,0.03365477518625032,1.2600492238998413,2.542147397994995,0.8861068487167358
1731474160.370143,-0.3516252934932709,0.5374683141708374,-9.990341186523438,-0.0351184396369101,0.008000310261281349,0.028431984862629045,1.2622588872909546,3.1399271488189697,0.8860280513763428
1731474160.4202018,-0.3516252934932709,0.5374683141708374,-9.990341186523438,-0.034659222782720864,0.0066073848473743955,0.01932622132120515,1.2637152671813965,3.468682050704956,0.8860947489738464
1731474160.4202018,-0.35329899191856384,0.519231379032135,-9.9598970413208,-0.03013892311341296,0.0026876949327540147,0.008039369137237781,1.2637234926223755,3.470607042312622,0.8860952854156494
1731474160.4702244,-0.3345542550086975,0.5284436941146851,-9.966591835021973,-0.02218477018075876,-0.0015406948735088991,-0.0019719089441272114,1.2650960683822632,3.7964797019958496,0.8861831426620483
1731474160.5200076,-0.3611922562122345,0.5078816413879395,-10.020652770996094,-0.012573191144459994,-0.00359809799098819,-0.00716369921749437,1.2664304971694946,4.123539447784424,0.8862599730491638
1731474160.570008,-0.3498118817806244,0.5143244862556458,-10.008946418762207,-0.003463118199303469,-0.0020683084664719713,-0.0069537468484935925,1.2647781372070312,3.752063512802124,0.886138379573822
1731474160.6198819,-0.3498118817806244,0.5143244862556458,-10.008946418762207,0.003217641401691687,0.0028617021546638315,-0.004117653614524419,1.2655949592590332,3.940683603286743,0.8861491680145264
1731474160.6198819,-0.33152875304222107,0.5191381573677063,-9.96742057800293,0.00657275429203864,0.009321970223932366,-0.001660326796417015,1.2655996084213257,3.941758871078491,0.8861492276191711
1731474160.6699362,-0.3189314603805542,0.520063042640686,-9.994635581970215,0.007322802964131456,0.014428195836353323,-3.23946600954703e-05,1.2671699523925781,4.395111560821533,0.8862411975860596
1731474160.7198498,-0.3189314603805542,0.520063042640686,-9.994635581970215,0.007318536083379015,0.01588414135508444,0.0021138731538485637,1.2683931589126587,4.700183391571045,0.8862895965576172
1731474160.7198498,-0.31146132946014404,0.49782794713974,-9.991044998168945,0.008008343158154532,0.01339460668329845,0.005337189618929576,1.2684005498886108,4.702000141143799,0.8862898945808411
1731474160.7696915,-0.27925825119018555,0.5191643238067627,-9.976333618164062,0.009552039372764762,0.008752601464582533,0.00866608817093339,1.2695177793502808,5.01080322265625,0.8863596320152283
1731474160.8196826,-0.26903486251831055,0.5131709575653076,-9.989280700683594,0.01162905046389516,0.004455535328801656,0.010883404985036219,1.2707695960998535,5.322513580322266,0.8864468336105347
1731474160.8696597,-0.26903486251831055,0.5131709575653076,-9.989280700683594,0.01406579949541421,0.0020541600745763713,0.011254747549628775,1.2713894844055176,5.547733783721924,0.886471152305603
1731474160.8696597,-0.2614664137363434,0.5186227560043335,-10.001703262329102,0.016324564400416415,0.001665945126846446,0.009309900804222957,1.2713948488235474,5.549140930175781,0.8864716291427612
1731474160.9207711,-0.2614664137363434,0.5186227560043335,-10.001703262329102,0.01747524408382853,0.002415186546486715,0.005035108875931626,1.2724289894104004,5.812016010284424,0.8865645527839661
1731474160.9207711,-0.2740640342235565,0.5009732246398926,-9.956851959228516,0.016876103019698576,0.003139816693784659,-0.0005367461370185836,1.2724355459213257,5.813632488250732,0.8865651488304138
1731474160.9705622,-0.274027019739151,0.5083372592926025,-10.000702857971191,0.014425259644957973,0.003247834238401429,-0.005304172203702861,1.273028016090393,6.216151237487793,0.8865652084350586
1731474161.02048,-0.274027019739151,0.5083372592926025,-10.000702857971191,0.01044203404591623,0.0029801830209906493,-0.007341796874619169,1.2750985622406006,6.816343784332275,0.8866506218910217
1731474161.02048,-0.2422710508108139,0.5382094979286194,-10.02502155303955,0.005834952881101979,0.0026099166956675838,-0.006514343246583804,1.2751065492630005,6.818734645843506,0.8866509199142456
1731474161.070523,-0.2422710508108139,0.5382094979286194,-10.02502155303955,0.0023602481598572886,0.0015567177839135823,-0.0045911187847820535,1.2764878273010254,7.230983257293701,0.8866954445838928
1731474161.070523,-0.2966766655445099,0.5066756010055542,-9.966814994812012,0.0017991430239572624,-0.001225939084495461,-0.0036186820349362477,1.2764972448349,7.233771800994873,0.8866956830024719
1731474161.1204453,-0.2966766655445099,0.5066756010055542,-9.966814994812012,0.003984474446000159,-0.005713999163546277,-0.0038012526787164973,1.277882695198059,7.644907474517822,0.8867297172546387
1731474161.1204453,-0.24885393679141998,0.5543649792671204,-9.974495887756348,0.006468744889295798,-0.01041227407904556,-0.0030802795644719718,1.2778910398483276,7.647370338439941,0.886729896068573
1731474161.1704516,-0.24885393679141998,0.5543649792671204,-9.974495887756348,0.007230702247657515,-0.014208760990950834,0.0006907771689966518,1.279289960861206,8.058314323425293,0.8867599964141846
1731474161.1704516,-0.2737577557563782,0.5325854420661926,-10.017370223999023,0.0066991937850686065,-0.017668038561248548,0.007434892383782197,1.279297947883606,8.06065845489502,0.8867601752281189
1731474161.2202854,-0.2737577557563782,0.5325854420661926,-10.017370223999023,0.00632947963369069,-0.021693944509726906,0.014507991776009829,1.276289701461792,7.330841541290283,0.8867535591125488
1731474161.2202854,-0.2906055152416229,0.5151991844177246,-9.989680290222168,0.006448717723408723,-0.025751095146975964,0.01843999228293006,1.2762930393218994,7.3320417404174805,0.8867539763450623
1731474161.2703397,-0.3137006163597107,0.5183002948760986,-9.986680030822754,0.005961118833457497,-0.0277769008388311,0.01783910647772731,1.2768592834472656,7.530477523803711,0.8868418335914612
1731474161.3202085,-0.3137006163597107,0.5183002948760986,-9.986680030822754,0.0031782106685176847,-0.025536278565990632,0.014647766158706627,1.2777504920959473,7.971088886260986,0.8868813514709473
1731474161.3202085,-0.3133438229560852,0.5345419645309448,-10.003192901611328,-0.0028970015173854016,-0.01849756968761662,0.012012978970672378,1.2777549028396606,7.972860336303711,0.886881947517395
1731474161.370244,-0.3098906874656677,0.528404951095581,-10.000290870666504,-0.01112319162051589,-0.008798816557111778,0.011159028463532667,1.2788618803024292,7.818514347076416,0.8869726657867432
1731474161.4202275,-0.3098906874656677,0.528404951095581,-10.000290870666504,-0.018297602841960324,-9.369974393759386e-05,0.01074904259376406,1.2795425653457642,7.897365093231201,0.8870818018913269
1731474161.4202275,-0.33454248309135437,0.49304723739624023,-9.936529159545898,-0.02146282937019946,0.005048147539041004,0.009316149209031347,1.2795466184616089,7.897854804992676,0.887082576751709
1731474161.470167,-0.3619610667228699,0.5299280881881714,-10.047443389892578,-0.020356096486869178,0.006766343313517168,0.007380268471442606,1.280166506767273,7.975201606750488,0.8872120976448059
1731474161.5199888,-0.36124423146247864,0.5293492674827576,-9.995766639709473,-0.017730648262248478,0.006842249398786986,0.006067744716239338,1.2807468175888062,8.053513526916504,0.8873598575592041
1731474161.570011,-0.3769206404685974,0.5511707663536072,-9.91990852355957,-0.017414049626555204,0.006407392148463112,0.005451666142423199,1.2800887823104858,7.7037553787231445,0.8870757818222046
1731474161.6198852,-0.3769206404685974,0.5511707663536072,-9.91990852355957,-0.021585214217267886,0.005214352622896183,0.0059949768401665335,1.2804076671600342,7.709479331970215,0.8871434926986694
1731474161.6198852,-0.3783719837665558,0.543317973613739,-9.976374626159668,-0.02892557181983566,0.0028305878783217438,0.0085207790102797,1.280409336090088,7.709512710571289,0.8871439099311829
1731474161.6698837,-0.24439649283885956,0.7247949242591858,-9.980547904968262,-0.034565133177746996,-0.0010132395644615742,0.011121304451372674,1.280656099319458,7.715198993682861,0.8872323632240295
1731474161.7198694,-0.24439649283885956,0.7247949242591858,-9.980547904968262,-0.03163991374468979,-0.00872268390988052,0.00922685074649093,1.2813386917114258,7.639400959014893,0.8870483040809631
1731474161.7198694,0.5133981704711914,1.6614665985107422,-9.919093132019043,-0.011428768458657262,-0.029059141028117866,0.0002731878301457085,1.2813403606414795,7.639369964599609,0.8870484828948975
1731474161.769799,0.2999531030654907,1.1952157020568848,-10.016883850097656,0.03873518116560803,-0.0789539613654959,-0.012758112993398607,1.2817659378051758,7.63224983215332,0.8870730400085449
1731474161.8197489,0.4892212450504303,1.505788803100586,-9.938413619995117,0.1305124491982985,-0.17299631083855566,-0.023397102728707278,1.2824060916900635,7.62476110458374,0.8870527148246765
1731474161.8706505,-0.516516387462616,-0.022402653470635414,-9.965340614318848,0.2573569901521977,-0.3002278221557254,-0.026630380169176286,1.2824980020523071,7.594275951385498,0.886976957321167
1731474161.9206002,-0.9550522565841675,-0.21024510264396667,-10.16689682006836,0.37882948808398503,-0.4097854351371913,-0.022331141172574873,1.2836531400680542,7.55740213394165,0.8869471549987793
1731474161.9705899,-0.9550522565841675,-0.21024510264396667,-10.16689682006836,0.43295272809509794,-0.43601439771050343,-0.016388574664164293,1.285821557044983,7.538150787353516,0.8868441581726074
1731474161.9705899,-0.7593311667442322,-0.04050649330019951,-10.03207015991211,0.3827885969790909,-0.3538573848417106,-0.01554801928726223,1.2858362197875977,7.538043975830078,0.8868435025215149
1731474162.0203743,-0.5015047788619995,0.2697582244873047,-10.028075218200684,0.25267947786295364,-0.20382900324515746,-0.01802477368192638,1.2844043970108032,7.513509750366211,0.8869322538375854
1731474162.0706327,-0.6376875638961792,0.10086476802825928,-9.939265251159668,0.11023930775838696,-0.05967255141562211,-0.013794397708132494,1.2859601974487305,7.4919047355651855,0.8868429064750671
1731474162.1203902,-0.4812456965446472,0.29825708270072937,-9.977543830871582,0.01347860012930901,0.02471407669546677,0.004273756113714045,1.2876546382904053,7.470495223999023,0.8867424130439758
1731474162.1703827,-0.5795964598655701,0.24074093997478485,-9.958183288574219,-0.022620439856107847,0.04237329312901725,0.03316241865085242,1.2893273830413818,7.449302673339844,0.886688768863678
1731474162.2203078,-0.5795964598655701,0.24074093997478485,-9.958183288574219,-0.017607305135586088,0.019293297870902358,0.06305047917492271,1.2842365503311157,7.475653648376465,0.887028157711029
1731474162.2203078,-0.508014976978302,0.46040502190589905,-9.957934379577637,0.0004934023536039998,-0.014484089604232708,0.08453024824116998,1.2842378616333008,7.475597858428955,0.8870288729667664
1731474162.2702415,-0.508804440498352,0.4490143060684204,-9.982624053955078,0.013582800313623631,-0.04288728810081152,0.09207438592192711,1.284557819366455,7.463013648986816,0.887296736240387
1731474162.320172,-0.48865872621536255,0.4541880786418915,-9.978496551513672,0.018704796988593175,-0.06640521800225142,0.08397611954531642,1.2849212884902954,7.450151443481445,0.8877855539321899
1731474162.370213,-0.5410983562469482,0.4174778163433075,-9.919493675231934,0.021704770541555833,-0.09209762898706197,0.06268938850659812,1.2834705114364624,7.441386699676514,0.8871803283691406
1731474162.4201007,-0.5410983562469482,0.4174778163433075,-9.919493675231934,0.027466543788568692,-0.12175121754792168,0.03518016558911195,1.283602237701416,7.429573059082031,0.887483537197113
1731474162.4201007,-0.47556886076927185,0.47924375534057617,-9.938119888305664,0.035566798901502224,-0.14791490279611633,0.010131347120196303,1.2836031913757324,7.429503440856934,0.8874855637550354
1731474162.47022,-0.47460830211639404,0.529241681098938,-10.030539512634277,0.04287204890745919,-0.15961599393742415,-0.0072657605626510555,1.2838215827941895,7.417425632476807,0.8878214955329895
1731474162.5199964,-0.4850676357746124,0.5224998593330383,-9.974165916442871,0.04782164522770601,-0.15239232409338788,-0.018062690354977266,1.2829887866973877,7.3888630867004395,0.8871093988418579
1731474162.5699408,-0.48955443501472473,0.4771479666233063,-9.996931076049805,0.05072176341221249,-0.1311679834821539,-0.026632388303041495,1.2831194400787354,7.370819091796875,0.8870875239372253
1731474162.6199024,-0.4665283262729645,0.4885329604148865,-9.979948997497559,0.05130226862501146,-0.10325108133216569,-0.03515279285185787,1.2826571464538574,7.335905075073242,0.8869749307632446
1731474162.669962,-0.46965348720550537,0.5105751752853394,-9.998185157775879,0.04820913657920668,-0.07265168003374776,-0.04180589340403102,1.2818007469177246,7.2841386795043945,0.8869142532348633
1731474162.7198188,-0.4509274959564209,0.5246589779853821,-10.004263877868652,0.04080341572250748,-0.042152017101734746,-0.04367183236344473,1.2816162109375,7.249619007110596,0.8867177963256836
1731474162.7698064,-0.4414564073085785,0.5083518624305725,-9.974061965942383,0.030474398323626396,-0.016106584974081396,-0.03957690796632352,1.2815210819244385,7.21513032913208,0.8864182233810425
1731474162.8197534,-0.4414564073085785,0.5083518624305725,-9.974061965942383,0.020273705750113398,0.0014829088707911803,-0.030200072899582722,1.2810879945755005,7.234889030456543,0.8868433833122253
1731474162.8197534,-0.41812509298324585,0.5166147947311401,-9.975350379943848,0.013341120104978333,0.009630660993394349,-0.01725227374090071,1.281087040901184,7.234737873077393,0.8868421912193298
1731474162.8696876,-0.38708367943763733,0.5227304100990295,-9.974908828735352,0.011356618104296473,0.010110403337621107,-0.0034485469460750545,1.2809809446334839,7.215583324432373,0.8866882920265198
1731474162.9196005,-0.36882284283638,0.5231413841247559,-9.979649543762207,0.014465327464758855,0.005719143509948003,0.007816413166967217,1.2792048454284668,7.180941581726074,0.8869378566741943
1731474162.970591,-0.3273898661136627,0.5379171371459961,-10.020581245422363,0.022029905673944052,-0.0008861243777267096,0.013726196444596217,1.2785954475402832,7.154053688049316,0.8869416117668152
1731474163.0204976,-0.3273898661136627,0.5379171371459961,-10.020581245422363,0.032468826968239925,-0.0075770571303724905,0.012861331377293783,1.278065800666809,7.127651214599609,0.8869788646697998
1731474163.0204976,-0.3707225024700165,0.505232036113739,-9.976547241210938,0.042740098631261075,-0.012747351505881136,0.005531089592613014,1.2780629396438599,7.127495765686035,0.8869791626930237
1731474163.070438,-0.3476724922657013,0.5362069010734558,-9.949875831604004,0.049079060319308365,-0.015179619673043172,-0.005441211377263215,1.277639627456665,7.101330280303955,0.8870253562927246
1731474163.1203568,-0.3835640251636505,0.5246970653533936,-9.991329193115234,0.04879065133021113,-0.01439394782298924,-0.015078840490133692,1.2778297662734985,7.139608383178711,0.8869819641113281
1731474163.1703653,-0.3614824414253235,0.5287243723869324,-9.99287223815918,0.04163172796773992,-0.011158912906160327,-0.019223710845234672,1.2776507139205933,7.125957489013672,0.8869262933731079
1731474163.2202575,-0.377625972032547,0.5039097666740417,-9.963214874267578,0.029926334334693005,-0.006942779805755512,-0.017076343269932563,1.2760004997253418,7.089099884033203,0.8869547843933105
1731474163.2702463,-0.3766827881336212,0.5053097605705261,-10.006082534790039,0.01741278932941046,-0.002781102826814952,-0.010653422138239353,1.2754087448120117,7.066720962524414,0.8868780732154846
1731474163.3201778,-0.37935033440589905,0.516689121723175,-9.970401763916016,0.0073125810080295235,0.0008316845468506656,-0.003312309032307759,1.2737689018249512,7.027252674102783,0.8869564533233643
1731474163.3702471,-0.40080633759498596,0.4964871406555176,-10.002296447753906,0.0009072331755385509,0.003366808978511735,0.0013973161909783052,1.2727187871932983,6.994956970214844,0.8869259357452393
1731474163.4201424,-0.38300633430480957,0.5083088278770447,-10.015450477600098,-0.002449189355149404,0.004554622344475635,0.0012071180124341423,1.2716655731201172,6.9626336097717285,0.8868985772132874
1731474163.470025,-0.443865567445755,0.4779611825942993,-10.014248847961426,-0.004484773511635054,0.005079710731207224,-0.004219813645824881,1.2724084854125977,6.981297016143799,0.8869742155075073
1731474163.5200374,-0.3783123791217804,0.5307408571243286,-9.943964958190918,-0.0068296473197242595,0.0059556035399084785,-0.013158998946072415,1.271785855293274,6.961599826812744,0.8869418501853943
1731474163.569949,-0.4149475693702698,0.529784619808197,-9.995633125305176,-0.009195305819663425,0.006641897003390627,-0.021250832050455505,1.2702503204345703,6.9247050285339355,0.8869550228118896
1731474163.6199312,-0.4006003737449646,0.5575022101402283,-9.984058380126953,-0.008993528195279044,0.004587053998816796,-0.02319497970227765,1.2686877250671387,6.88520622253418,0.8869386911392212
1731474163.6698508,-0.4396592080593109,0.5405032634735107,-9.956144332885742,-0.004515836289857663,-0.0019554776737216954,-0.016832619335444124,1.2676482200622559,6.858299255371094,0.8868358135223389
1731474163.719805,-0.4295702874660492,0.5543187260627747,-9.9859037399292,0.0020884456863588317,-0.01107250384933721,-0.004595870440824474,1.2665975093841553,6.831165313720703,0.886705219745636
1731474163.7697442,-0.42668965458869934,0.5741111636161804,-9.961564064025879,0.006236908031266331,-0.018429769959870678,0.008773620993239558,1.2655713558197021,6.804366111755371,0.8865814805030823
1731474163.8196783,-0.4360142648220062,0.5671287775039673,-9.956544876098633,0.00467091667282132,-0.02105031439086138,0.019125390487530064,1.266467571258545,6.823000431060791,0.8869608640670776
1731474163.8696399,-0.4315682351589203,0.557338535785675,-9.982433319091797,-0.0024801528561207223,-0.019019948046900388,0.024479008100889568,1.2658213376998901,6.8047990798950195,0.8870190978050232
1731474163.9195507,-0.42473089694976807,0.5397765636444092,-10.009066581726074,-0.012026758761722163,-0.013983231070736537,0.02433042692204594,1.2651563882827759,6.7865400314331055,0.8871383666992188
1731474163.9695463,-0.42673540115356445,0.5290296673774719,-9.97465991973877,-0.019418990677142468,-0.007140062672737942,0.0183231790743437,1.2646815776824951,6.762392520904541,0.887045681476593
1731474164.0205133,-0.41879597306251526,0.5388911366462708,-9.974834442138672,-0.02121581877793826,0.0009451398700548372,0.007112586658034209,1.2638733386993408,6.739200592041016,0.8871335387229919
1731474164.070491,-0.38974595069885254,0.5596628785133362,-10.005626678466797,-0.01671588073223892,0.008917652577934414,-0.006288208967237403,1.2630383968353271,6.716624736785889,0.8872203826904297
1731474164.1204576,-0.38974595069885254,0.5596628785133362,-10.005626678466797,-0.007386750950546554,0.013876037611413853,-0.01794761463659575,1.262740969657898,6.725009441375732,0.8870204091072083
1731474164.1204576,-0.38453778624534607,0.5208667516708374,-9.979079246520996,0.00444808098859052,0.01328163178699034,-0.025364882385877134,1.2627339363098145,6.724855899810791,0.8870201110839844
1731474164.1704335,-0.3518224358558655,0.524154782295227,-9.996140480041504,0.016084650669431013,0.007984589046622189,-0.027473280081107564,1.261728286743164,6.685343265533447,0.8869664669036865
1731474164.2203336,-0.3518224358558655,0.524154782295227,-9.996140480041504,0.024936472777218922,0.002218919519822205,-0.023950166507882564,1.2610841989517212,6.662862300872803,0.8868611454963684
1731474164.2203336,-0.34355854988098145,0.5191760063171387,-10.006608963012695,0.029359521953418614,-0.0001581781556881389,-0.01597884236265614,1.261078953742981,6.662669658660889,0.8868600130081177
1731474164.270315,-0.3270731568336487,0.5440074801445007,-9.949302673339844,0.02903132603425595,0.0012956850644705764,-0.006328846220640375,1.260241150856018,6.646451473236084,0.886949896812439
1731474164.3202639,-0.3096349239349365,0.5479848384857178,-10.00139331817627,0.025122099606217273,0.00419336057756048,0.002262376687920671,1.259615182876587,6.626373767852783,0.8869081139564514
1731474164.3701947,-0.3083556592464447,0.5252760648727417,-10.021833419799805,0.019943555353391543,0.005890451285351787,0.007439675491034953,1.2590582370758057,6.606739044189453,0.8868790864944458
1731474164.4201214,-0.32990550994873047,0.5256478190422058,-9.975671768188477,0.015610995657908779,0.005626092673317373,0.006531244287422103,1.2585383653640747,6.586870193481445,0.8868670463562012
