Timestamp,IMU_Linear_Acc_X,IMU_Linear_Acc_Y,IMU_Linear_Acc_Z,Filtered_X,Filtered_Y,Filtered_Z,Pose_X,Pose_Y,Pose_Z
1730865946.8840554,-1.6525182723999023,1.072100281715393,-9.886634826660156,-0.07749874235677738,-0.24127456134554245,0.16943434631077608,-0.13763444125652313,-0.5809926390647888,-0.13705994188785553
1730865946.9339588,-1.6460669040679932,1.1705397367477417,-9.888028144836426,-0.03824946128254915,-0.2676478957989781,0.5016726522806727,-0.1723848581314087,-0.7276800870895386,-0.17166826128959656
1730865946.9839773,-1.5448205471038818,1.3515266180038452,-9.916738510131836,-0.04059553645770843,-0.2912228050393063,0.578041887179182,-0.10891222953796387,-0.45974835753440857,-0.10845775902271271
1730865947.0338826,-1.4505513906478882,1.3764179944992065,-9.885746955871582,-0.06582578253676756,-0.31184267567328894,0.47598241409291786,-0.08047931641340256,-0.33972615003585815,-0.0801427811384201
1730865947.083904,-1.4505513906478882,1.3764179944992065,-9.885746955871582,-0.08987162040485593,-0.3375653708628841,0.29623179323639925,-0.41806888580322266,-1.7647451162338257,-0.41626816987991333
1730865947.083904,-1.483825922012329,1.3574954271316528,-9.83907413482666,-0.09374177828925513,-0.3753200046248558,0.12532563499591093,-0.42305102944374084,-1.7857754230499268,-0.42122775316238403
1730865947.1338828,-1.5220105648040771,1.4168083667755127,-9.791072845458984,-0.07195897142095525,-0.42386216263773785,0.015945284603451754,-1.048391580581665,-4.425566673278809,-1.04361093044281
1730865947.1838188,-1.466209888458252,1.5062932968139648,-9.781386375427246,-0.03299755085576404,-0.4759333889477151,-0.015737379657535255,-1.8156869411468506,-7.665146350860596,-1.807190179824829
1730865947.2339377,-1.466209888458252,1.5062932968139648,-9.781386375427246,0.00867025494711651,-0.5250679904909795,0.018204800683225393,-2.5814645290374756,-10.899443626403809,-2.569225549697876
1730865947.2339377,-1.6475468873977661,1.4503509998321533,-9.745635986328125,0.040788134759156075,-0.5684957905203694,0.09021351587903981,-2.585646390914917,-10.917110443115234,-2.5733869075775146
1730865947.2838902,-1.7597566843032837,1.3032793998718262,-9.741059303283691,0.05433458428313464,-0.6037474517551202,0.17050878189706162,-2.4426441192626953,-10.315081596374512,-2.4308664798736572
1730865947.3337905,-1.6816997528076172,1.2365984916687012,-9.753911018371582,0.041989121992121375,-0.6245013897230193,0.23698433203934377,-2.3202176094055176,-9.800373077392578,-2.3086445331573486
1730865947.3838024,-1.757475733757019,1.2633165121078491,-9.788309097290039,0.0018493507973905924,-0.6222066093960279,0.2786901428421788,-2.852415084838867,-12.053194046020508,-2.8371505737304688
1730865947.4338114,-1.9410609006881714,1.2342725992202759,-9.715015411376953,-0.05955506371957459,-0.5931232938269408,0.29445921889761,-1.9825836420059204,-9.341387748718262,-1.9661451578140259
1730865947.4836771,-1.7980672121047974,1.2204742431640625,-9.816902160644531,-0.12978553578234373,-0.5410371283956522,0.28866103250643793,-2.3295769691467285,-10.9753999710083,-2.3080198764801025
1730865947.5337312,-1.6201061010360718,1.2407430410385132,-9.861479759216309,-0.18881060592532306,-0.47012819052629656,0.2634909563080668,-2.677253007888794,-12.612016677856445,-2.6494860649108887
1730865947.5837328,-1.6201061010360718,1.2407430410385132,-9.861479759216309,-0.20758290362002363,-0.3804560639283468,0.21499359375052104,-2.1417436599731445,-10.511302947998047,-2.1159207820892334
1730865947.5837328,-1.6417081356048584,1.2559638023376465,-9.932706832885742,-0.16457170616872763,-0.2751337612717827,0.14102602549653687,-2.1433191299438477,-10.518795013427734,-2.1174590587615967
1730865947.6336718,-1.4783844947814941,1.2720919847488403,-9.962823867797852,-0.06798256752233936,-0.1667013254349376,0.05105506138079192,-2.432147741317749,-11.8921537399292,-2.399322271347046
1730865947.6836586,-1.4127205610275269,1.249739170074463,-9.95790958404541,0.04703221240020496,-0.07275110225403701,-0.03599905329817053,-2.7227025032043457,-13.273897171020508,-2.6828267574310303
1730865947.7336457,-1.4345476627349854,1.2176520824432373,-9.960887908935547,0.14421401608539275,-0.006818710935441806,-0.10234618939983975,-2.0833187103271484,-10.722122192382812,-2.04853892326355
1730865947.7836764,-1.4345476627349854,1.2176520824432373,-9.960887908935547,0.20423791684415904,0.02743529687482228,-0.13879749145611242,-2.3204076290130615,-11.874106407165527,-2.280721426010132
1730865947.7836764,-1.6071974039077759,1.2252144813537598,-9.856568336486816,0.22180059845982852,0.03560211879447323,-0.1443121544420336,-2.3217880725860596,-11.880821228027344,-2.282075881958008
1730865947.8337014,-1.532752275466919,1.1856809854507446,-9.923158645629883,0.19701572164336884,0.027725830074771522,-0.1221576550217827,-2.55773663520813,-13.029642105102539,-2.5139620304107666
1730865947.8835726,-1.49844229221344,1.2116985321044922,-9.878271102905273,0.13566154335576233,0.01406474691329128,-0.07905812561421233,-1.8923898935317993,-10.319912910461426,-1.8546048402786255
1730865947.9345996,-1.521494746208191,1.106750726699829,-9.946966171264648,0.05369658059996246,0.002977557240533245,-0.02648300592898789,-2.0860300064086914,-11.286547660827637,-2.0456836223602295
1730865947.9846032,-1.521494746208191,1.106750726699829,-9.946966171264648,-0.025593286220113587,0.00036439373866382907,0.020359182318305566,-1.5548112392425537,-9.229290962219238,-1.519675850868225
1730865947.9846032,-1.521235466003418,1.066617727279663,-9.89339542388916,-0.08155370919457727,0.009137538074461597,0.04775334945560453,-1.55569326877594,-9.233868598937988,-1.5205458402633667
1730865948.034629,-1.6524330377578735,0.9745575785636902,-9.893824577331543,-0.10485533909003455,0.0278171649732164,0.05129906579293397,-1.1679857969284058,-7.787603855133057,-1.135688304901123
1730865948.0845356,-1.714928388595581,0.9513433575630188,-9.833707809448242,-0.10017256699653396,0.05095154466453159,0.03869673995781092,-1.2970054149627686,-8.48282241821289,-1.2622532844543457
1730865948.1347377,-1.6118273735046387,0.9223973155021667,-9.884674072265625,-0.08084883709096262,0.07173736478865987,0.022980743980408384,-1.4253294467926025,-9.172920227050781,-1.3878369331359863
1730865948.1846237,-1.6118273735046387,0.9223973155021667,-9.884674072265625,-0.05843504786338655,0.08438170050263916,0.013309521836814699,-1.5539764165878296,-9.863627433776855,-1.5135217905044556
1730865948.1846237,-1.3661701679229736,0.9260615110397339,-9.857068061828613,-0.03587783481763819,0.08630464168472603,0.011594876682698044,-1.5547548532485962,-9.867804527282715,-1.5142818689346313
1730865948.2345996,-1.3661701679229736,0.9260615110397339,-9.857068061828613,-0.007730549841730785,0.07915152804263957,0.015280257942677978,-1.079078197479248,-7.755390644073486,-1.043765902519226
1730865948.2345996,-1.2212275266647339,0.8862243294715881,-9.932165145874023,0.03371228142820251,0.06718498382582966,0.020739024033977434,-1.079689383506775,-7.758696556091309,-1.0443615913391113
1730865948.2835228,-1.0323896408081055,0.8774198889732361,-9.941996574401855,0.0892939940583516,0.054845766621375656,0.023476336145972686,-1.1795072555541992,-8.299117088317871,-1.1417101621627808
1730865948.3344536,-1.2495695352554321,0.9381879568099976,-9.924843788146973,0.15024735797328642,0.04500223297072819,0.01832753480448649,-0.7963652014732361,-6.586474895477295,-0.7625247240066528
1730865948.3844686,-1.4342632293701172,1.0002256631851196,-9.9284086227417,0.20159025878217132,0.0376246111448159,0.003057598735398429,-0.8777245283126831,-7.033977031707764,-0.8423504829406738
1730865948.4344435,-1.6491162776947021,1.1198151111602783,-9.88106918334961,0.2228822065761881,0.02897863874767984,-0.018111711245505133,-0.9581906199455261,-7.4793853759765625,-0.9218361973762512
1730865948.4846096,-1.6491162776947021,1.1198151111602783,-9.88106918334961,0.19225004144794147,0.01261142292598892,-0.03582563754752753,-1.0390682220458984,-7.92991828918457,-1.0023138523101807
1730865948.4846096,-1.8150001764297485,1.2128596305847168,-9.911548614501953,0.09924420849262502,-0.017267518397343258,-0.04140827232675306,-1.039430856704712,-7.931943893432617,-1.0026758909225464
1730865948.5345068,-1.8747748136520386,1.2866096496582031,-9.855307579040527,-0.04650571685622709,-0.06262856521720647,-0.03220538851794752,-0.633019745349884,-6.040482521057129,-0.5994848608970642
1730865948.5845046,-1.8747748136520386,1.2866096496582031,-9.855307579040527,-0.21691949882232453,-0.11962697861149729,-0.012100494165831041,-0.36697298288345337,-4.8112897872924805,-0.3349463641643524
1730865948.5845046,-1.8972151279449463,1.2438414096832275,-9.890105247497559,-0.3687785319832312,-0.17516626404908364,0.011204404075225707,-0.36727380752563477,-4.812982559204102,-0.3352423906326294
1730865948.6345894,-1.8699368238449097,1.2726092338562012,-9.829380989074707,-0.45472297160667335,-0.2082157773203272,0.02920211824419209,-0.4177902936935425,-5.094316005706787,-0.38436493277549744
1730865948.6844258,-1.8699368238449097,1.2726092338562012,-9.829380989074707,-0.4477350820429845,-0.20257363401612644,0.036494199562514915,-0.1922920048236847,-4.044182777404785,-0.1600210815668106
1730865948.6844258,-1.9649289846420288,1.1705948114395142,-9.842905044555664,-0.35764001983015953,-0.15852522531055682,0.03349843851336671,-0.1924820989370346,-4.045211315155029,-0.16019773483276367
1730865948.7343395,-1.755480170249939,1.117276906967163,-9.814167976379395,-0.2230137191386397,-0.0900502091322884,0.02452214500733591,-0.2345665693283081,-4.2715959548950195,-0.1990235447883606
1730865948.7843802,-1.755480170249939,1.117276906967163,-9.814167976379395,-0.08773604549904075,-0.014144132290418839,0.014208724359886987,-0.042704757302999496,-3.3727049827575684,-0.008908367715775967
1730865948.7843802,-1.648979902267456,1.0715574026107788,-9.870731353759766,0.019091093799658572,0.05537799342486759,0.005740324241899762,-0.04286162927746773,-3.3735413551330566,-0.00904992688447237
1730865948.8343627,-1.619248390197754,1.0923936367034912,-9.766934394836426,0.08784225013569502,0.10766799905023788,0.00011371669743408751,-0.07696788758039474,-3.55584454536438,-0.039924316108226776
1730865948.8843756,-1.5719029903411865,1.1600306034088135,-9.814069747924805,0.1225810188791876,0.1342771296273425,-0.002981452626947743,0.08773390203714371,-2.7837114334106445,0.12157997488975525
1730865948.9342463,-1.4718180894851685,1.2043366432189941,-9.855443000793457,0.13434214967475372,0.13139761092535643,-0.003784641014834041,0.061161503195762634,-2.9290714263916016,0.09709902107715607
1730865948.9843962,-1.5622344017028809,1.2559999227523804,-9.844598770141602,0.13417588226347327,0.10195485767688175,-0.0033286266127921307,0.19609160721302032,-2.2935564517974854,0.22887301445007324
1730865949.0343103,-1.6065484285354614,1.3037285804748535,-9.91126537322998,0.12695708627034524,0.05490379133436876,-0.0041739303413845415,0.17554064095020294,-2.4100184440612793,0.20937182009220123
1730865949.084335,-1.6464300155639648,1.3352413177490234,-9.848318099975586,0.11089742867046692,0.002450114698650911,-0.008606695484824465,0.15515394508838654,-2.527169704437256,0.18972709774971008
1730865949.1342292,-1.6464300155639648,1.3352413177490234,-9.848318099975586,0.08268913351068904,-0.0436928131155221,-0.016344854516551873,0.13518580794334412,-2.643350601196289,0.170222669839859
1730865949.1342292,-1.7890230417251587,1.2793657779693604,-9.847938537597656,0.04210855898157839,-0.07571897469254206,-0.02422125355924863,0.28863757848739624,-1.881603479385376,0.3214733600616455
1730865949.1843033,-1.9112098217010498,1.1769911050796509,-9.826825141906738,-0.007635959122098357,-0.09002637088756874,-0.028329492705606314,0.27340877056121826,-1.972231149673462,0.3065648674964905
1730865949.2342906,-1.7468112707138062,1.169215440750122,-9.872337341308594,-0.05985257763804697,-0.08472704894262477,-0.02660170058201758,0.25819143652915955,-2.062509059906006,0.2916812598705292
1730865949.2843397,-1.7610691785812378,1.1731765270233154,-9.90518856048584,-0.10260575186433313,-0.05934484963307274,-0.0201798543455254,0.3700009286403656,-1.5147935152053833,0.40274396538734436
1730865949.3341703,-1.772855281829834,1.1963719129562378,-9.869773864746094,-0.12231870456099375,-0.01833197263105176,-0.012848820892509095,0.3579670786857605,-1.584560751914978,0.3914793133735657
1730865949.3842542,-1.7723252773284912,1.1582468748092651,-9.856871604919434,-0.11334834594491627,0.02671353407735137,-0.007606655420607954,0.3455604016780853,-1.6547662019729614,0.3801165223121643
1730865949.4341888,-1.5951693058013916,1.1924304962158203,-9.84045124053955,-0.08155084239139174,0.061109567198200106,-0.0035430893690023054,0.44352447986602783,-1.171766996383667,0.47677087783813477
1730865949.4842129,-1.4303251504898071,1.1096744537353516,-9.871488571166992,-0.03714981988743316,0.07529554694424388,0.0023417279729055183,0.43390223383903503,-1.2245478630065918,0.46843284368515015
1730865949.5342839,-1.4494115114212036,1.127644419670105,-9.831385612487793,0.012468479743930566,0.07014422189759559,0.010554481938707725,0.5098121166229248,-0.8441703915596008,0.5444535613059998
1730865949.5842733,-1.374488115310669,1.0864741802215576,-9.847817420959473,0.06183169710699417,0.054963957517816894,0.017958427789020084,0.502565860748291,-0.8836043477058411,0.5384641289710999
1730865949.634126,-1.4525998830795288,1.0719263553619385,-9.802490234375,0.10339039246690668,0.04032849307746084,0.021061521874830597,0.5643671154975891,-0.5773657560348511,0.5996453762054443
1730865949.684152,-1.5784028768539429,1.0320987701416016,-9.840079307556152,0.12712653814923908,0.03235128603748719,0.018968445627498314,0.55941241979599,-0.6068598628044128,0.5954636931419373
1730865949.734146,-1.5448294878005981,0.9901504516601562,-9.828018188476562,0.12404333486511043,0.03204505221160843,0.012886826410374178,0.6105160117149353,-0.355311781167984,0.6454353928565979
1730865949.7841535,-1.495914340019226,0.9905200004577637,-9.897010803222656,0.0923238595039264,0.03730757567419148,0.004055366929633382,0.6074993014335632,-0.37716951966285706,0.6425839066505432
1730865949.8341901,-1.5989469289779663,0.96947181224823,-9.889765739440918,0.042000588823873405,0.044309046548913746,-0.007106026683871083,0.6495476365089417,-0.16612179577350616,0.6843678951263428
1730865949.8841543,-1.5671354532241821,0.9694827198982239,-9.91878890991211,-0.008973751952764836,0.048554900615850445,-0.020187515178224213,0.6819093227386475,-0.004657026845961809,0.715728759765625
1730865949.9341342,-1.4966825246810913,0.9941743016242981,-9.964380264282227,-0.04443842734527186,0.0467298897277027,-0.033550887657652746,0.680648922920227,-0.015898723155260086,0.7144031524658203
1730865949.984129,-1.4800490140914917,0.969645619392395,-9.981051445007324,-0.05564313618619322,0.038031824323801075,-0.04458464687072406,0.6792564392089844,-0.027089882642030716,0.7129727602005005
1730865950.0342054,-1.459653377532959,1.016774296760559,-9.992463111877441,-0.04176028218940356,0.02404457832189457,-0.051701671033164566,0.6777482628822327,-0.03815355896949768,0.7114282250404358
1730865950.0840492,-1.5144121646881104,1.049118995666504,-9.973414421081543,-0.009017822025135604,0.007376899157648707,-0.05544897691465213,0.7099261283874512,0.1292726844549179,0.7431909441947937
1730865950.1340241,-1.6105612516403198,1.0086636543273926,-9.94045639038086,0.030592097791994607,-0.009637360262297754,-0.05693429829841527,0.7090000510215759,0.12221499532461166,0.7420143485069275
1730865950.1840804,-1.6105612516403198,1.0086636543273926,-9.94045639038086,0.06143987404404494,-0.02391600190590503,-0.055280269052428735,0.7349486351013184,0.2606342136859894,0.7678672671318054
1730865950.1840804,-1.5536221265792847,1.06661057472229,-9.94149398803711,0.07027913962037666,-0.031186611163888184,-0.04785885048247682,0.7349467873573303,0.26061078906059265,0.76786208152771
1730865950.2339597,-1.603241205215454,1.065562129020691,-9.964529037475586,0.05506024402420114,-0.02992740887117585,-0.03395058155219058,0.7347126603126526,0.25671324133872986,0.7669666409492493
1730865950.2839465,-1.879683494567871,1.0326447486877441,-9.866992950439453,0.025078829336406032,-0.02408063076050864,-0.016680542612991463,0.7345742583274841,0.2526882588863373,0.7659945487976074
1730865950.3339956,-2.0737950801849365,0.9914940595626831,-9.809025764465332,-0.011957095156321946,-0.019167741719474288,0.0004136920277180052,0.7589575052261353,0.37942954897880554,0.7891113758087158
1730865950.3840535,-2.0737950801849365,0.9914940595626831,-9.809025764465332,-0.05777662117370454,-0.01715596125860363,0.016933292661279666,0.759125828742981,0.37780192494392395,0.7885328531265259
1730865950.3840535,-1.8243703842163086,0.9407444000244141,-9.798154830932617,-0.11046478446479036,-0.01608201062221739,0.03309399078544362,0.7591264247894287,0.3777918815612793,0.7885294556617737
1730865950.4339852,-1.6435387134552002,1.0102969408035278,-9.805895805358887,-0.14871189286563025,-0.013006916868020288,0.04591065605553528,0.7794930338859558,0.48511987924575806,0.8069328665733337
1730865950.4839067,-1.5730770826339722,1.1460793018341064,-9.76155948638916,-0.14182721012707977,-0.007574701807145001,0.05121125678151575,0.7793840765953064,0.48557478189468384,0.8067573308944702
1730865950.5338778,-1.402429223060608,1.2469379901885986,-9.80485725402832,-0.0778306672464551,-0.004923779266802284,0.048000113568474535,0.7790020108222961,0.48601335287094116,0.8067055344581604
1730865950.5837739,-1.2801685333251953,1.27745521068573,-9.844583511352539,0.02557480622189747,-0.014747483814980224,0.0386834894724215,0.7785549759864807,0.48642751574516296,0.8067615032196045
1730865950.6338754,-1.3144124746322632,1.2810062170028687,-9.876189231872559,0.13799891185645558,-0.045124560947617576,0.02581239600842601,0.7783109545707703,0.4867686927318573,0.8068984746932983
1730865950.6837897,-1.3144124746322632,1.2810062170028687,-9.876189231872559,0.23575054568325104,-0.09605608657022544,0.010096261727496461,0.7785356044769287,0.48693257570266724,0.8070802688598633
1730865950.6837897,-1.3720238208770752,1.2254197597503662,-9.91110610961914,0.3062061814502539,-0.1582143429541785,-0.008642788280415188,0.7785388231277466,0.4869328439235687,0.8070814609527588
1730865950.7338083,-1.3720238208770752,1.2254197597503662,-9.91110610961914,0.3449665902979803,-0.21698414937421404,-0.02998257561551449,0.799919605255127,0.593028724193573,0.8256999254226685
1730865950.7338083,-1.4993278980255127,1.1518988609313965,-9.931300163269043,0.35204878738086187,-0.25744576776957784,-0.0521020541490952,0.7999308109283447,0.5930365920066833,0.8257019519805908
1730865950.78379,-1.6006672382354736,1.0863429307937622,-9.86929702758789,0.3258326766192432,-0.2663810844071678,-0.07068706138321694,0.8019712567329407,0.5938546061515808,0.8259097337722778
1730865950.8337855,-1.6006672382354736,1.0863429307937622,-9.86929702758789,0.261224702346329,-0.23437269258591542,-0.07904635033712962,0.8180776834487915,0.673995852470398,0.8387383222579956
1730865950.8337855,-1.81550133228302,1.01986563205719,-9.81452465057373,0.15844257372962361,-0.1623959788963253,-0.07168043689352052,0.8180966377258301,0.6740037202835083,0.838738203048706
1730865950.8837059,-1.9375649690628052,0.9927679896354675,-9.77560806274414,0.03122278745632335,-0.06636803751331564,-0.04829518915252885,0.8211884498596191,0.675183892250061,0.8386558890342712
1730865950.9336746,-2.0457820892333984,0.9714118242263794,-9.726194381713867,-0.09858368434011322,0.02889131245600363,-0.0135982452565103,0.8242115378379822,0.676323652267456,0.8384963870048523
1730865950.9836621,-2.0869340896606445,1.0083929300308228,-9.737180709838867,-0.21362485739231107,0.10193276927837126,0.026115547558587675,0.835475504398346,0.7430699467658997,0.8488067984580994
1730865951.0336392,-2.0562994480133057,1.051559329032898,-9.758321762084961,-0.3044825470571833,0.14185970659424554,0.06450544593168321,0.8372735977172852,0.7458681464195251,0.8488619923591614
1730865951.083622,-1.9736506938934326,1.1039338111877441,-9.822582244873047,-0.36012590343639844,0.14680558116906609,0.09334111456032128,0.8488413095474243,0.7979122400283813,0.8558198809623718
1730865951.133597,-1.9302725791931152,1.1401413679122925,-9.887577056884766,-0.36383307713653534,0.12047817706197013,0.10266566880818474,0.8492770791053772,0.8023602962493896,0.8562722206115723
1730865951.1835477,-1.8705997467041016,1.1601102352142334,-9.892549514770508,-0.30701973749164396,0.07209041035664197,0.08658111865939172,0.8593855500221252,0.8433099985122681,0.8611775040626526
1730865951.233644,-1.852792739868164,1.1702474355697632,-9.919771194458008,-0.20267627392123239,0.016050260687341344,0.048831693408133335,0.858921229839325,0.8487308621406555,0.8619022965431213
1730865951.2836158,-1.852792739868164,1.1702474355697632,-9.919771194458008,-0.08124984657935462,-0.03225950823735401,0.0017991998708880488,0.867378294467926,0.8819683790206909,0.8664137125015259
1730865951.2836158,-1.850260853767395,1.1229956150054932,-9.914119720458984,0.023908912044860006,-0.06164314887670906,-0.03960582002830779,0.8673759698867798,0.8820026516914368,0.8664181232452393
1730865951.3335752,-1.8229795694351196,1.0839333534240723,-9.910886764526367,0.08998614162306565,-0.06742854746052909,-0.06423115497360761,0.8670998215675354,0.8875952363014221,0.8670728802680969
1730865951.3836124,-1.8229795694351196,1.0839333534240723,-9.910886764526367,0.11140633102799484,-0.05095649377440513,-0.06808039058655324,0.8761626482009888,0.9157008528709412,0.870673656463623
1730865951.3836124,-1.7985893487930298,1.0479875802993774,-9.888747215270996,0.09788304108562057,-0.018480890394315143,-0.054282087921898405,0.8761683106422424,0.9157480597496033,0.8706768155097961
1730865951.4335694,-1.7535266876220703,0.9978740811347961,-9.872357368469238,0.0668236466600912,0.02005901681016175,-0.03033694275846067,0.8848980665206909,0.9409953355789185,0.8735181093215942
1730865951.4836032,-1.7535266876220703,0.9978740811347961,-9.872357368469238,0.03523952654572281,0.0539705935788546,-0.004443412889117145,0.8863533735275269,0.9471560120582581,0.87378990650177
1730865951.4836032,-1.7225205898284912,0.9698752164840698,-9.863229751586914,0.014004435359898376,0.0752609579393952,0.016807443836731273,0.8863654136657715,0.9472059011459351,0.8737920522689819
1730865951.533507,-1.668954610824585,0.9353963732719421,-9.8529052734375,0.006239415444036002,0.08073883260407819,0.029403796314668496,0.8878538012504578,0.95345538854599,0.8740911483764648
1730865951.583536,-1.6359572410583496,0.9215210676193237,-9.852986335754395,0.010454586703638198,0.07312064401768761,0.03269756902795601,0.8893852233886719,0.9599901437759399,0.874472439289093
1730865951.6334298,-1.6359572410583496,0.9215210676193237,-9.852986335754395,0.024383514598705136,0.05988429398286606,0.029202568239701538,0.8944694399833679,0.9780185222625732,0.8769922852516174
1730865951.6334298,-1.6144894361495972,0.9229671359062195,-9.850465774536133,0.04509873898354914,0.048763670973922355,0.022761960139876036,0.8944798707962036,0.9780606031417847,0.876995325088501
1730865951.6834772,-1.6144894361495972,0.9229671359062195,-9.850465774536133,0.06689362960841896,0.042913666203302184,0.016424851504923274,0.8961369395256042,0.9844703078269958,0.877471923828125
1730865951.6834772,-1.6067534685134888,0.9610587358474731,-9.857247352600098,0.08191738665287038,0.039883763819602285,0.011488378312412761,0.896151602268219,0.9845247268676758,0.8774760961532593
1730865951.7344527,-1.6067534685134888,0.9610587358474731,-9.857247352600098,0.08461565967251507,0.03475651238264435,0.007861505267844873,0.9008819460868835,1.0039969682693481,0.8794663548469543
1730865951.7344527,-1.5976148843765259,1.0084751844406128,-9.867647171020508,0.07501265899454809,0.024016620294589855,0.004906624701229408,0.9008934497833252,1.0040369033813477,0.879469096660614
1730865951.7843916,-1.6114647388458252,1.0301212072372437,-9.874835968017578,0.057470834722578655,0.007341808974295704,0.001994645049764909,0.9028899073600769,1.0107147693634033,0.8799281716346741
1730865951.8344188,-1.5975745916366577,1.018343448638916,-9.889068603515625,0.03741337533321942,-0.012929898666053373,-0.0013857117060105924,0.9050204753875732,1.017438530921936,0.8803916573524475
1730865951.8845086,-1.6075562238693237,0.9683912396430969,-9.893061637878418,0.019276773298182302,-0.033055244697719005,-0.005714498860948174,0.9073227643966675,1.0302033424377441,0.8818551898002625
1730865951.934418,-1.626556634902954,0.905511736869812,-9.897462844848633,0.005770824536818344,-0.04822005675504733,-0.01117281705035843,0.9092940092086792,1.0363534688949585,0.8822330236434937
1730865951.9844997,-1.6508206129074097,0.8503293991088867,-9.890620231628418,-0.0026866669030707682,-0.0526489122484866,-0.016894825035095668,0.9119049906730652,1.0514130592346191,0.8833215236663818
1730865952.034278,-1.668717384338379,0.7852784395217896,-9.882685661315918,-0.00784209193444936,-0.04161668865905274,-0.020832612827993716,0.913754940032959,1.0575648546218872,0.8835808634757996
1730865952.0843859,-1.668717384338379,0.7852784395217896,-9.882685661315918,-0.011945371001528964,-0.015279862185106645,-0.02097716900191729,0.9159139394760132,1.068467378616333,0.8843327760696411
1730865952.0843859,-1.666137456893921,0.7490000128746033,-9.847501754760742,-0.0158505797209162,0.01949810352981149,-0.016645670837365158,0.9159243106842041,1.0685036182403564,0.8843337297439575
1730865952.134316,-1.6244356632232666,0.7482098340988159,-9.854060173034668,-0.01849276943037958,0.05211884114541399,-0.008495274584085435,0.9176289439201355,1.0745974779129028,0.8844794631004333
1730865952.1843207,-1.6244356632232666,0.7482098340988159,-9.854060173034668,-0.01755859319930103,0.07357427502949022,0.0020682626525920307,0.9193025827407837,1.0808982849121094,0.8846184015274048
1730865952.1843207,-1.5937052965164185,0.7874472141265869,-9.882034301757812,-0.010830369309679577,0.07995167558738239,0.013035190611334426,0.9193124175071716,1.080936312675476,0.8846192359924316
1730865952.2342668,-1.5707736015319824,0.8576775789260864,-9.910017013549805,0.0025028691251600677,0.07208311567142284,0.02169194781236799,0.9185187816619873,1.088962197303772,0.8852885365486145
1730865952.2842512,-1.587791085243225,0.9232023358345032,-9.935588836669922,0.02098607008791656,0.05274302356554826,0.025067797396002005,0.9178839921951294,1.099069356918335,0.8858011960983276
1730865952.3342435,-1.5839658975601196,0.9715844392776489,-9.951668739318848,0.039989174727599545,0.02525518451643064,0.02135226041382394,0.9190210103988647,1.1055450439453125,0.8860491514205933
1730865952.3842833,-1.6285433769226074,0.9795622229576111,-9.949352264404297,0.05249899094124287,-0.005671799862090894,0.011381901732500558,0.917059600353241,1.1137852668762207,0.8863394856452942
1730865952.4342704,-1.6731714010238647,0.9589577913284302,-9.931402206420898,0.05277998336880809,-0.03376266341117383,-0.0013355819105365131,0.9180477857589722,1.1201621294021606,0.8865967988967896
1730865952.4843504,-1.7608195543289185,0.9085907340049744,-9.892904281616211,0.039136390599825904,-0.05226493837621705,-0.011893318932629942,0.9191542267799377,1.1264517307281494,0.8868383765220642
1730865952.5342863,-1.8198007345199585,0.8613375425338745,-9.845653533935547,0.012942597284629436,-0.05521486686021433,-0.015321743982201867,0.9171500205993652,1.131751298904419,0.8869548439979553
1730865952.5842535,-1.8743910789489746,0.8098325729370117,-9.812735557556152,-0.022906321605749565,-0.03972745704635487,-0.00825153952344215,0.9180139303207397,1.1374965906143188,0.887097954750061
1730865952.634168,-1.8814746141433716,0.8248398900032043,-9.78154468536377,-0.06249495328802715,-0.009102662982469768,0.008731074770561887,0.9156810641288757,1.1461982727050781,0.8872305154800415
1730865952.6841817,-1.8178749084472656,0.9012826681137085,-9.799697875976562,-0.09555329208238306,0.02637036986383703,0.030227451289990655,0.915971577167511,1.1521344184875488,0.8874062895774841
1730865952.7341259,-1.7743693590164185,0.9895063042640686,-9.821540832519531,-0.11040319033982832,0.052346528363215405,0.048037043775990204,0.9135810136795044,1.1583478450775146,0.8875428438186646
1730865952.7841399,-1.7426655292510986,1.0704177618026733,-9.879551887512207,-0.09950442034712118,0.056030991769133044,0.05445175060442644,0.9131702184677124,1.1644388437271118,0.8879163265228271
1730865952.834016,-1.7173658609390259,1.144403100013733,-9.899643898010254,-0.06445494233233398,0.032780307341696104,0.04541577770752809,0.9121348857879639,1.171378493309021,0.8879871964454651
1730865952.884022,-1.7238008975982666,1.201750636100769,-9.902915954589844,-0.01664809570428845,-0.010869144040955965,0.022550000914600406,0.9114662408828735,1.177606225013733,0.8885115385055542
1730865952.9340377,-1.7238008975982666,1.201750636100769,-9.902915954589844,0.028066850102735977,-0.06054530575071094,-0.006883961985002837,0.9111466407775879,1.1828795671463013,0.8885678052902222
1730865952.9340377,-1.7645459175109863,1.1820310354232788,-9.86949348449707,0.05644090854808992,-0.10028957264901424,-0.03258043312484468,0.9111436009407043,1.1829149723052979,0.8885706663131714
1730865952.9839852,-1.7645459175109863,1.1820310354232788,-9.86949348449707,0.06229218108957733,-0.1181802251360314,-0.045726075187074826,0.9111128449440002,1.1898393630981445,0.8886561989784241
1730865952.9839852,-1.83077871799469,1.1543887853622437,-9.82955265045166,0.04727873887075336,-0.11007768029882131,-0.0427172940296563,0.9111114144325256,1.1898728609085083,0.8886580467224121
1730865953.0339887,-1.8594506978988647,1.0799541473388672,-9.79504680633545,0.018418626145528045,-0.08008926385750864,-0.025754579319884608,0.9108973145484924,1.1954118013381958,0.888940691947937
1730865953.0839276,-1.8404059410095215,1.018115758895874,-9.759230613708496,-0.015735146354844257,-0.036866057186731124,-0.0003683833994997292,0.9106854200363159,1.2008326053619385,0.8891922831535339
1730865953.1339393,-1.7897979021072388,0.9865586757659912,-9.764646530151367,-0.047521678396290075,0.01170989665189825,0.02795911960434936,0.9103942513465881,1.206229329109192,0.8894786834716797
1730865953.1840162,-1.698754072189331,1.0258070230484009,-9.786855697631836,-0.07014255307493256,0.060586959910279396,0.05518674673495913,0.910346269607544,1.2095433473587036,0.8893972039222717
1730865953.2339149,-1.6195176839828491,1.096706748008728,-9.849236488342285,-0.07728649052228603,0.1045771662535467,0.07732158639880982,0.9097998738288879,1.214991807937622,0.8899098634719849
1730865953.2839737,-1.6195176839828491,1.096706748008728,-9.849236488342285,-0.06503085524622969,0.13423213164926795,0.08851207921563665,0.909071147441864,1.2207752466201782,0.8906341791152954
1730865953.2839737,-1.5690386295318604,1.1863417625427246,-9.894932746887207,-0.0347275371191996,0.1375420249856395,0.08234350050148057,0.9090661406517029,1.2208120822906494,0.8906393647193909
1730865953.3338645,-1.5690386295318604,1.1863417625427246,-9.894932746887207,0.007094179855155664,0.10769804404302713,0.05628781291968793,0.9089502096176147,1.2248938083648682,0.8903204202651978
1730865953.3338645,-1.5596836805343628,1.2637195587158203,-9.941064834594727,0.05127934755869728,0.04906736599336993,0.014753650294317326,0.9089457392692566,1.2249326705932617,0.8903259038925171
1730865953.384044,-1.5596836805343628,1.2637195587158203,-9.941064834594727,0.08751658697405322,-0.022991074246273654,-0.0316586272420159,0.9083619117736816,1.230947494506836,0.8911358118057251
1730865953.384044,-1.59630286693573,1.3051685094833374,-9.960204124450684,0.10614983137131759,-0.08838472451648606,-0.07036744497507974,0.9083578586578369,1.2309985160827637,0.8911423683166504
1730865953.4338489,-1.6284863948822021,1.3273265361785889,-9.94701862335205,0.10202846999585907,-0.13213907462790472,-0.09272371413497552,0.90801602602005,1.2367401123046875,0.8917880654335022
1730865953.4840422,-1.6553434133529663,1.316172480583191,-9.920696258544922,0.07669324091660996,-0.15067917156460947,-0.09716593175544205,0.9080693125724792,1.240051507949829,0.8910629749298096
1730865953.5338588,-1.6599690914154053,1.2806527614593506,-9.860176086425781,0.037297128972707046,-0.14925755211899552,-0.08715127341913781,0.9098827242851257,1.2489427328109741,0.8907815217971802
1730865953.583919,-1.6599690914154053,1.2806527614593506,-9.860176086425781,-0.005241807182199253,-0.13416542717506158,-0.06717019702711796,0.9101599454879761,1.2540525197982788,0.8906805515289307
1730865953.583919,-1.6765570640563965,1.1801283359527588,-9.819402694702148,-0.03912416279385402,-0.10835486588230375,-0.0413965657983238,0.9101621508598328,1.2540929317474365,0.8906790614128113
1730865953.6338382,-1.6720153093338013,1.0732054710388184,-9.787087440490723,-0.05649432717127627,-0.07247386645169415,-0.014184161157803823,0.9118071794509888,1.259220004081726,0.8905734419822693
1730865953.6838663,-1.6663193702697754,0.9791675806045532,-9.763050079345703,-0.05655570694150373,-0.026989691008643152,0.01066848007382748,0.9120197892189026,1.263975977897644,0.8904162049293518
1730865953.7339408,-1.6707918643951416,0.9239218235015869,-9.750232696533203,-0.04411593440675597,0.025092503430481736,0.03057198402160803,0.9121071100234985,1.2687488794326782,0.8903101086616516
1730865953.7837968,-1.6707918643951416,0.9239218235015869,-9.750232696533203,-0.026033676355522256,0.07658980202628249,0.04374320823805161,0.9136884808540344,1.2733867168426514,0.8903151750564575
1730865953.7837968,-1.6994575262069702,0.9047927856445312,-9.781537055969238,-0.008692311148752827,0.1186415148022798,0.04925982092027026,0.9136891961097717,1.2734174728393555,0.8903155326843262
1730865953.8338177,-1.6994575262069702,0.9047927856445312,-9.781537055969238,0.0031099483069379733,0.14353325991978588,0.046883517869024866,0.9138044714927673,1.2785578966140747,0.8904354572296143
1730865953.8338177,-1.7137017250061035,0.9450106620788574,-9.824131965637207,0.006732143551876642,0.14606571824310416,0.036532590594446766,0.9138053059577942,1.2785943746566772,0.8904366493225098
1730865953.8838098,-1.7199853658676147,1.0237822532653809,-9.900525093078613,0.0020238129757061962,0.12550038772780947,0.01834902653072161,0.915968120098114,1.2859700918197632,0.8904512524604797
1730865953.933771,-1.7121604681015015,1.109671950340271,-9.941783905029297,-0.00871902702584946,0.08603857943254212,-0.006835092942466824,0.9184358716011047,1.2933368682861328,0.8905206918716431
1730865953.9838536,-1.7125602960586548,1.1412822008132935,-9.991416931152344,-0.021066736934683247,0.03560317609918439,-0.03587371771405917,0.9189543128013611,1.2996692657470703,0.89066082239151
1730865954.033785,-1.7383090257644653,1.1559922695159912,-9.991555213928223,-0.029932882328475584,-0.015087301983283835,-0.0623292345494773,0.9194064140319824,1.305991768836975,0.8906780481338501
1730865954.0837812,-1.7700742483139038,1.0934906005859375,-9.966474533081055,-0.03263494030319289,-0.054779175828749194,-0.07936303315680993,0.9206203818321228,1.3097014427185059,0.8904592394828796
1730865954.1337168,-1.7931220531463623,1.0574482679367065,-9.924484252929688,-0.030604802146955885,-0.07533956362687659,-0.08324803129155314,0.9209562540054321,1.315461277961731,0.8901047706604004
1730865954.1838078,-1.8051255941390991,0.9757516384124756,-9.861323356628418,-0.027420068998706693,-0.07365749562698079,-0.0732236533517546,0.9227187633514404,1.3229855298995972,0.8899670243263245
1730865954.233678,-1.8243852853775024,0.909440279006958,-9.807530403137207,-0.025643377703669926,-0.05142012986705998,-0.05010411214714794,0.9230438470840454,1.3286575078964233,0.8893275856971741
1730865954.2837088,-1.831785798072815,0.8526820540428162,-9.77783489227295,-0.025714338415830564,-0.014536581510040964,-0.017035735716696535,0.9248364567756653,1.3327513933181763,0.8893624544143677
1730865954.3335953,-1.7967559099197388,0.8678164482116699,-9.767488479614258,-0.02646682366162419,0.02764133459820162,0.019396291253453272,0.9251612424850464,1.338195562362671,0.8887397646903992
1730865954.3836603,-1.7605763673782349,0.9291214346885681,-9.799591064453125,-0.025410971961740733,0.06345405903127445,0.05031450626207159,0.9271368980407715,1.3440074920654297,0.8889500498771667
1730865954.433618,-1.710945725440979,1.0032237768173218,-9.818702697753906,-0.01926250512607853,0.08112151140226911,0.06741763934505954,0.9274839162826538,1.3497955799102783,0.8886421918869019
1730865954.4836576,-1.7012803554534912,1.053971767425537,-9.838756561279297,-0.006084960697717994,0.07331949114570825,0.06638346168179186,0.9299067258834839,1.7032631635665894,0.8889179825782776
1730865954.5335536,-1.6881037950515747,1.0379717350006104,-9.849413871765137,0.012501675364939088,0.041735474599431346,0.0489930069428774,0.930415153503418,1.7485970258712769,0.8889529705047607
1730865954.5836434,-1.7113316059112549,0.9963055849075317,-9.854170799255371,0.031372856211116976,-0.0019273563211232754,0.022266679219686537,0.9320643544197083,2.176352024078369,0.889154851436615
1730865954.6335702,-1.745736837387085,0.9328804016113281,-9.85682487487793,0.04400661646697173,-0.03990012731909629,-0.004695144822132818,0.9327887892723083,2.262845993041992,0.8892902135848999
1730865954.683587,-1.7479357719421387,0.8603179454803467,-9.831171989440918,0.045411977253007246,-0.05654996122019511,-0.024198764164754565,0.9336274266242981,2.34951114654541,0.8893898725509644
1730865954.733575,-1.7491909265518188,0.843873918056488,-9.839099884033203,0.034503477661865276,-0.04513503275915829,-0.032080334190276935,0.9345082640647888,2.595820903778076,0.8894517421722412
1730865954.7836032,-1.719849944114685,0.8954249024391174,-9.856204986572266,0.014846273870937971,-0.009680950577331189,-0.028394782228231316,0.9354485273361206,2.6917383670806885,0.8893973231315613
1730865954.8335345,-1.69038987159729,1.013269066810608,-9.893735885620117,-0.00613204926388019,0.03486844873540894,-0.017416520070001794,0.9367812275886536,3.1098780632019043,0.8894696831703186
1730865954.8834958,-1.6407148838043213,1.1782209873199463,-9.94733715057373,-0.019687240756800575,0.06605751350132771,-0.00626940459859607,0.9389654994010925,3.7820441722869873,0.8895216584205627
1730865954.9335127,-1.5968351364135742,1.3148117065429688,-9.980710983276367,-0.020011170603142496,0.06508132951918398,-0.0015238515941376407,0.9399672150611877,3.968780755996704,0.8893994688987732
1730865954.9834745,-1.5788203477859497,1.3853707313537598,-9.986942291259766,-0.007250313058377195,0.028015801223916732,-0.0056749516580331776,0.9409319162368774,4.155084133148193,0.8892686367034912
1730865955.0333755,-1.59587824344635,1.345052719116211,-9.986001014709473,0.013434602750105232,-0.03383511689783721,-0.01648411266274813,0.94142746925354,4.372488021850586,0.88935786485672
1730865955.0834413,-1.6471034288406372,1.241713523864746,-9.92891788482666,0.03469061973418022,-0.10088845181275691,-0.028879696095517573,0.9423931837081909,4.5552191734313965,0.8891618251800537
1730865955.1334794,-1.7504501342773438,1.1041513681411743,-9.85863208770752,0.04818510582103281,-0.1497392024272689,-0.03631482911744459,0.9434634447097778,4.737757682800293,0.8888838887214661
1730865955.1834555,-1.8304283618927002,0.9711137413978577,-9.74976921081543,0.04499579436763172,-0.15706333290697713,-0.03123033061074593,0.9444182515144348,4.9839982986450195,0.8890405893325806
1730865955.2333221,-1.9156988859176636,0.9128645658493042,-9.670672416687012,0.019003943961415783,-0.11007286303004735,-0.007796113723889158,0.9456442594528198,5.166084289550781,0.8886778354644775
1730865955.2834413,-1.9156988859176636,0.9128645658493042,-9.670672416687012,-0.026846933636491585,-0.019020240482777347,0.03238430397815172,0.9468702673912048,5.349498271942139,0.8883431553840637
1730865955.2834413,-1.9563443660736084,0.903839647769928,-9.61693286895752,-0.07915557154745147,0.08356033904297484,0.07827212510563344,0.9468774199485779,5.350599765777588,0.8883413672447205
1730865955.3332965,-1.9563443660736084,0.903839647769928,-9.61693286895752,-0.12210775317099912,0.16158725007793368,0.11631935125989017,0.9479016661643982,5.531503200531006,0.8881951570510864
1730865955.3332965,-1.9662718772888184,0.9583784937858582,-9.625625610351562,-0.14683316302813254,0.19480288454411973,0.1390302051185858,0.9479071497917175,5.532639026641846,0.8881951570510864
1730865955.3834836,-1.923431158065796,1.0500279664993286,-9.705564498901367,-0.15337533686690877,0.18276074086646443,0.1461539718392377,0.9485660195350647,5.686393737792969,0.888738214969635
1730865955.4342368,-1.923431158065796,1.0500279664993286,-9.705564498901367,-0.146369464279276,0.13751388813795132,0.14026160174183325,0.9488981366157532,5.8666253089904785,0.8892922401428223
1730865955.4342368,-1.8367159366607666,1.1513241529464722,-9.823517799377441,-0.12939757118751194,0.0759058027024651,0.12273457746654942,0.9488990902900696,5.867844581604004,0.8892971873283386
1730865955.4842105,-1.7143102884292603,1.2665013074874878,-9.948857307434082,-0.10192594037861662,0.013443118053169466,0.09235161434758862,0.9510853886604309,6.217408180236816,0.8894882798194885
1730865955.5342638,-1.5934988260269165,1.3747628927230835,-10.055098533630371,-0.06104207252118368,-0.041018471939502046,0.04695628224949728,0.9511722326278687,6.413961887359619,0.8903911113739014
1730865955.5842412,-1.4835880994796753,1.4298890829086304,-10.111140251159668,-0.006658017436673845,-0.08511128421407145,-0.01142692128080434,0.9532912373542786,6.753373622894287,0.890295147895813
1730865955.6342456,-1.443881630897522,1.4316983222961426,-10.103753089904785,0.05481781086146466,-0.11776270952777551,-0.07276564239722168,0.9536062479019165,6.96449089050293,0.8909935355186462
1730865955.6842623,-1.4952565431594849,1.3775787353515625,-10.049909591674805,0.11074661096360641,-0.13551896320093526,-0.12124241079415177,0.9552283883094788,6.915529727935791,0.8895257711410522
1730865955.7341847,-1.6399167776107788,1.2702287435531616,-9.953142166137695,0.14524526092910162,-0.1328905779847888,-0.14153875814444386,0.956163227558136,7.094157695770264,0.8894453048706055
1730865955.7842758,-1.8158236742019653,1.1555479764938354,-9.814238548278809,0.14415965463135896,-0.10571503723118712,-0.12529028389479732,0.958791196346283,7.0276641845703125,0.8871576189994812
1730865955.8341494,-1.8158236742019653,1.1555479764938354,-9.814238548278809,0.10161415138909809,-0.05545404982433811,-0.07502720112598832,0.9617736339569092,6.993914604187012,0.8851569890975952
1730865955.8341494,-1.987913966178894,1.0372942686080933,-9.684324264526367,0.026668557856272763,0.007784006333608229,-0.004804099826227728,0.9617847800254822,6.994663715362549,0.8851510882377625
1730865955.8841746,-1.987913966178894,1.0372942686080933,-9.684324264526367,-0.058153364494252784,0.06782629561335686,0.06475925665787642,0.9636678695678711,7.125966548919678,0.8841953873634338
1730865955.8841746,-2.1046435832977295,0.9711049795150757,-9.589987754821777,-0.1305916390657651,0.1116924851232762,0.11739910057089203,0.9636790752410889,7.1267805099487305,0.8841899633407593
1730865955.9341092,-2.1046435832977295,0.9711049795150757,-9.589987754821777,-0.1810554370259539,0.1364620546054733,0.14899519241769482,0.9652591347694397,7.257868766784668,0.8835025429725647
1730865955.9341092,-2.1483964920043945,0.9394667744636536,-9.553539276123047,-0.21284437868697811,0.1477620770948725,0.16579551197185177,0.9652673602104187,7.258664608001709,0.8834995031356812
1730865955.9841945,-2.1483964920043945,0.9394667744636536,-9.553539276123047,-0.23499719034038058,0.15412240311735337,0.17749757988677645,0.9663369059562683,7.3908185958862305,0.883215606212616
1730865955.9841945,-2.121264934539795,0.9565346837043762,-9.586009979248047,-0.25527702396019436,0.1621019207522667,0.19116321676603426,0.966342031955719,7.391695976257324,0.8832151889801025
1730865956.0340698,-2.039263963699341,0.9619608521461487,-9.645097732543945,-0.27606496779058687,0.17382319504034768,0.2080556287239558,0.9664821624755859,7.233163833618164,0.882473886013031
1730865956.0840585,-1.9312196969985962,0.9948458671569824,-9.719782829284668,-0.29204630807654863,0.18618431359208895,0.22257342671277053,0.9661891460418701,7.3429365158081055,0.8831201791763306
1730865956.1340225,-1.9312196969985962,0.9948458671569824,-9.719782829284668,-0.2897547428292515,0.1907184289614314,0.22306248261129116,0.9651796817779541,7.451505661010742,0.8843087553977966
1730865956.1340225,-1.8107657432556152,1.0069457292556763,-9.799466133117676,-0.25357893475072063,0.17692451141790896,0.19714336558087842,0.9651709794998169,7.452198505401611,0.8843180537223816
1730865956.184022,-1.7375962734222412,1.0039891004562378,-9.883305549621582,-0.17665245309440347,0.13997254472329024,0.13980973079255596,0.9635798335075378,7.561439514160156,0.8859601616859436
1730865956.2339506,-1.6901278495788574,0.9899908900260925,-9.963652610778809,-0.06594629970191124,0.08548086353778722,0.05624060668712417,0.966751217842102,7.337425708770752,0.8835160136222839
1730865956.2840056,-1.6511867046356201,1.0167818069458008,-10.022025108337402,0.05995230606276229,0.02659916496249617,-0.040795565718112214,0.9653854370117188,7.4262166023254395,0.8850056529045105
1730865956.3338845,-1.626352071762085,1.0566904544830322,-10.058816909790039,0.1739520044045113,-0.022980677353268242,-0.13244183436317555,0.9694036245346069,7.261081695556641,0.882314145565033
1730865956.3839247,-1.6089198589324951,1.1275053024291992,-10.08283519744873,0.24763711665469929,-0.05522536604225061,-0.1972430529435024,0.9693675637245178,7.333255767822266,0.8827971816062927
1730865956.433835,-1.548673152923584,1.161179542541504,-10.08017635345459,0.26483607099293416,-0.07009788598142835,-0.22044953810680717,0.9737735986709595,7.201752662658691,0.8799886107444763
1730865956.4838657,-1.548673152923584,1.161179542541504,-10.08017635345459,0.23015258816265066,-0.07301060962625887,-0.20120292318090333,0.9777956604957581,7.116173267364502,0.8789075613021851
1730865956.4838657,-1.5168516635894775,1.1840696334838867,-10.051786422729492,0.16414730177471398,-0.0695553678224354,-0.15124771130305073,0.9778075814247131,7.116464614868164,0.8789018392562866
1730865956.533793,-1.5168516635894775,1.1840696334838867,-10.051786422729492,0.09164075622580167,-0.06235850666898532,-0.08818662425992986,0.9799411296844482,7.165743827819824,0.8778262734413147
1730865956.533793,-1.4813148975372314,1.1318827867507935,-9.987784385681152,0.03265302060095415,-0.05214288551337616,-0.028155628655426007,0.9799555540084839,7.166059494018555,0.8778187036514282
1730865956.5838237,-1.4813148975372314,1.1318827867507935,-9.987784385681152,-0.001529310977293235,-0.03933094128580936,0.019131551915868062,0.9822095632553101,7.215416431427002,0.8766531944274902
1730865956.5838237,-1.4938756227493286,1.0512200593948364,-9.905617713928223,-0.009008391765434103,-0.023879544118073647,0.05180184756120553,0.9822229743003845,7.215709209442139,0.8766463994979858
1730865956.6337664,-1.4938756227493286,1.0512200593948364,-9.905617713928223,0.004184641078830927,-0.004924782174588029,0.07410948207278728,0.9844744205474854,7.264885902404785,0.8755995631217957
1730865956.6337664,-1.5253958702087402,0.9455553293228149,-9.82075309753418,0.027410173208543685,0.01892893358203276,0.09308918786924054,0.984489381313324,7.265212059020996,0.8755932450294495
1730865956.683823,-1.6069215536117554,0.8572342395782471,-9.72569751739502,0.04918803382000826,0.04950660405048879,0.11571966843826045,0.9853293299674988,7.129371166229248,0.87577885389328
1730865956.7337284,-1.7038275003433228,0.803158164024353,-9.66273307800293,0.059630294179254445,0.08780585922203357,0.1461102681870478,0.9875516891479492,7.168865203857422,0.8754568696022034
1730865956.7837372,-1.7038275003433228,0.803158164024353,-9.66273307800293,0.05228861582932129,0.12917980199220128,0.18035545218565036,0.9905638694763184,7.0657525062561035,0.8756570219993591
1730865956.7837372,-1.8090814352035522,0.8006678223609924,-9.635173797607422,0.0264609585062506,0.1611039098940132,0.20512228188690892,0.9905856847763062,7.066038131713867,0.8756599426269531
1730865956.8336544,-1.8927173614501953,0.8072279691696167,-9.634767532348633,-0.012520966188558393,0.17025009961251145,0.206527926218533,0.9939217567443848,6.995100021362305,0.8773427605628967
1730865956.883653,-1.9440635442733765,0.8602471947669983,-9.668485641479492,-0.056202458015110916,0.15144786932607848,0.1802501487999672,0.9963436126708984,7.022547245025635,0.8785537481307983
1730865956.9336395,-1.9826576709747314,0.9154075980186462,-9.733817100524902,-0.0954804400787559,0.10925211933231345,0.13225886130677833,0.9985776543617249,7.050348281860352,0.8801576495170593
1730865956.9837236,-1.9989776611328125,0.9727869033813477,-9.810914993286133,-0.12224135576436813,0.05330750854627519,0.07260990449446039,1.0008310079574585,6.977086067199707,0.8810134530067444
1730865957.033659,-1.9968469142913818,1.0430967807769775,-9.891023635864258,-0.13218626510868803,-0.006378043717631345,0.010240633514173788,1.0024712085723877,6.999966144561768,0.8828267455101013
1730865957.083661,-1.9968469142913818,1.0430967807769775,-9.891023635864258,-0.12552846569037046,-0.06045124828439615,-0.04714469642726815,1.0037992000579834,7.022914886474609,0.8846056461334229
1730865957.083661,-1.9078164100646973,1.1033395528793335,-9.982389450073242,-0.10453835881676318,-0.10046989032390549,-0.09217912270326054,1.003806471824646,7.023056983947754,0.8846163153648376
1730865957.1336153,-1.9078164100646973,1.1033395528793335,-9.982389450073242,-0.07195121917865586,-0.12223651682427567,-0.12098328413896856,1.0055418014526367,6.9490275382995605,0.8846111297607422
1730865957.1336153,-1.811535358428955,1.1505705118179321,-10.037453651428223,-0.03129651164042116,-0.1279377414616025,-0.1354813317032537,1.005548357963562,6.949138641357422,0.8846188187599182
1730865957.1835968,-1.684177279472351,1.158101201057434,-10.068291664123535,0.012950360295580223,-0.12274418170347347,-0.13959104683650933,1.0066139698028564,6.966909885406494,0.8856872320175171
1730865957.2335598,-1.684177279472351,1.158101201057434,-10.068291664123535,0.05719017810815869,-0.11072736135971131,-0.13538723533242447,1.0077742338180542,6.984508514404297,0.8864203691482544
1730865957.2335598,-1.607757568359375,1.1402833461761475,-10.083259582519531,0.10055519300268999,-0.09472958588821712,-0.12452813333747739,1.0077828168869019,6.984630107879639,0.8864243030548096
1730865957.2836456,-1.5794684886932373,1.0847864151000977,-10.054425239562988,0.14408007268743087,-0.07721544751528664,-0.11032588296124604,1.0091862678527832,7.001883029937744,0.8868464827537537
1730865957.3335211,-1.6266781091690063,1.0333889722824097,-10.00820255279541,0.18837856635846412,-0.059235247830781476,-0.09640022550145608,1.011240839958191,6.9163103103637695,0.8867722749710083
1730865957.3835816,-1.7076492309570312,0.985153317451477,-9.948284149169922,0.22970989765208644,-0.03970051873134467,-0.0837506569133684,1.0145008563995361,6.858124256134033,0.8876411318778992
1730865957.4335127,-1.7534598112106323,0.9991579055786133,-9.872818946838379,0.25564720716558215,-0.01761944839842315,-0.069505723130558,1.017499566078186,6.8674821853637695,0.8875921964645386
1730865957.4836228,-1.761965274810791,1.019677996635437,-9.80775260925293,0.2494114828623329,0.0045110435687174535,-0.04887083640351787,1.0211427211761475,6.876857757568359,0.8873946666717529
1730865957.5335631,-1.7332777976989746,1.0601274967193604,-9.740081787109375,0.20368382344983696,0.020523855443871503,-0.018297653605600643,1.025335431098938,6.886222839355469,0.8871140480041504
1730865957.5835302,-1.7332777976989746,1.0601274967193604,-9.740081787109375,0.12861043187550109,0.02420407446220068,0.02295327486491818,1.0299561023712158,6.895671844482422,0.8868385553359985
1730865957.5835302,-1.7360866069793701,1.0578792095184326,-9.706241607666016,0.04592193774768372,0.013217405361421424,0.07249826121421431,1.0299872159957886,6.89573335647583,0.8868369460105896
1730865957.633568,-1.7078824043273926,1.0534155368804932,-9.675688743591309,-0.022755076120284927,-0.009404920510564192,0.12523969945478958,1.0273895263671875,6.828023910522461,0.8879010677337646
1730865957.683474,-1.7078824043273926,1.0534155368804932,-9.675688743591309,-0.06415233352854206,-0.03641946945844199,0.17392234206816407,1.0313347578048706,6.834455966949463,0.8883073925971985
1730865957.683474,-1.7233083248138428,1.0290294885635376,-9.678693771362305,-0.07577506160782799,-0.058752332012456505,0.2080197640151128,1.031360149383545,6.834497928619385,0.888311505317688
1730865957.733404,-1.7233083248138428,1.0290294885635376,-9.678693771362305,-0.06421984951780485,-0.0684158023971374,0.21530812834018426,1.031636118888855,6.777105331420898,0.8900701999664307
1730865957.733404,-1.7296462059020996,1.0342074632644653,-9.693284034729004,-0.04099846674955214,-0.06198581739786237,0.1898823454704977,1.0316567420959473,6.777125358581543,0.8900776505470276
1730865957.7834828,-1.7782323360443115,1.0552161931991577,-9.738544464111328,-0.017570393010367072,-0.042752405127691906,0.13779467468504025,1.0350449085235596,6.780420780181885,0.8914861679077148
1730865957.833414,-1.8271551132202148,1.1032934188842773,-9.756502151489258,-0.002411496882262142,-0.01943997251064672,0.07319497066721813,1.0384200811386108,6.7836503982543945,0.8931618928909302
1730865957.8834038,-1.8271551132202148,1.1032934188842773,-9.756502151489258,-0.0005540900858350328,-0.0022209265742594783,0.010593802922861828,1.041800856590271,6.786861896514893,0.8949469327926636
1730865957.8834038,-1.8970963954925537,1.1459044218063354,-9.80887222290039,-0.01352016583958095,0.0015698383086387444,-0.04013005987017888,1.0418211221694946,6.786880970001221,0.8949577212333679
1730865957.933347,-1.9201931953430176,1.1988476514816284,-9.833016395568848,-0.039583433234626327,-0.010416512876230676,-0.0755254200454388,1.0387269258499146,6.736184597015381,0.8932923078536987
1730865957.983341,-1.9201931953430176,1.1988476514816284,-9.833016395568848,-0.07397527102362807,-0.03546581950179364,-0.09726333685455317,1.0414272546768188,6.737569808959961,0.8944463729858398
1730865957.983341,-1.93211030960083,1.2210768461227417,-9.855461120605469,-0.10745636648314193,-0.06549768221037228,-0.10747343167078698,1.0414472818374634,6.737580299377441,0.894454300403595
1730865958.0332818,-1.8952357769012451,1.1917591094970703,-9.863088607788086,-0.12740255389316876,-0.08864586261132454,-0.10591220695474432,1.0420666933059692,6.692445278167725,0.8933523893356323
1730865958.0833924,-1.8952357769012451,1.1917591094970703,-9.863088607788086,-0.1246444382141821,-0.09526529719881378,-0.09267094442370788,1.0442103147506714,6.691373348236084,0.8938309550285339
1730865958.0833924,-1.8420480489730835,1.143674373626709,-9.883455276489258,-0.0992586017913849,-0.0830312365463036,-0.07103059621679761,1.0442231893539429,6.691365718841553,0.8938332796096802
1730865958.1332362,-1.8420480489730835,1.143674373626709,-9.883455276489258,-0.05929360919651997,-0.05633016785672959,-0.04661192834361023,1.0442845821380615,6.655490398406982,0.892887532711029
1730865958.1332362,-1.7618697881698608,1.129366159439087,-9.8805570602417,-0.01532610556704568,-0.022781344570623727,-0.02508831213994697,1.044295310974121,6.655473709106445,0.8928884863853455
1730865958.1833367,-1.7618697881698608,1.129366159439087,-9.8805570602417,0.024060512172050044,0.00931216520951797,-0.01004914592569834,1.046105146408081,6.652741432189941,0.8930327892303467
1730865958.1833367,-1.694387674331665,1.115341305732727,-9.905627250671387,0.05440365353568846,0.03291678780832879,-0.002066253944187561,1.0461194515228271,6.6527204513549805,0.8930338025093079
1730865958.2332082,-1.6100733280181885,1.094612956047058,-9.931663513183594,0.07627416487944685,0.04468263427099206,1.3066363577889963e-05,1.0480376482009888,6.650078773498535,0.8931644558906555
1730865958.2832747,-1.5418109893798828,1.0807050466537476,-9.972339630126953,0.0952239623933013,0.04621280428160409,-0.003016185100489669,1.0480061769485474,6.618602275848389,0.8923603892326355
1730865958.3331993,-1.5418109893798828,1.0807050466537476,-9.972339630126953,0.11775089414890247,0.04232909029032242,-0.010997879892418065,1.0491750240325928,6.5911736488342285,0.8917514681816101
1730865958.3331993,-1.499990701675415,1.0729589462280273,-10.015694618225098,0.14299602619512933,0.037264262657073347,-0.022498516579055425,1.049189567565918,6.591146469116211,0.8917515873908997
1730865958.383289,-1.499990701675415,1.0729589462280273,-10.015694618225098,0.16041563334498576,0.03235424818347955,-0.03403867986903387,1.051801323890686,6.5866546630859375,0.8917269706726074
1730865958.383289,-1.4388550519943237,1.0682786703109741,-10.016959190368652,0.15952325440772247,0.027155868474310615,-0.04236336242773056,1.0518182516098022,6.586627960205078,0.891726553440094
1730865958.4332135,-1.4388550519943237,1.0682786703109741,-10.016959190368652,0.14004239668557775,0.02152199737869502,-0.04645095129359937,1.0536174774169922,6.558018684387207,0.8910919427871704
1730865958.4332135,-1.4234479665756226,1.0768064260482788,-10.036955833435059,0.11113766835884256,0.016043834849202673,-0.047016329143910546,1.0536375045776367,6.557980537414551,0.8910906314849854
1730865958.4831707,-1.4234479665756226,1.0768064260482788,-10.036955833435059,0.08301107392443458,0.01122341201784309,-0.045063976099331216,1.0568511486053467,6.55203914642334,0.8908340334892273
1730865958.4831707,-1.4432932138442993,1.1116139888763428,-10.005428314208984,0.060536380573994436,0.006758098905669438,-0.041022000859237205,1.0568714141845703,6.552002906799316,0.8908321261405945
1730865958.5341525,-1.5085569620132446,1.1484904289245605,-9.962830543518066,0.04314513343704161,0.0013559685295305363,-0.03450350220078024,1.0602929592132568,6.545989990234375,0.8904703855514526
1730865958.5831633,-1.5824558734893799,1.1850098371505737,-9.87814998626709,0.027081794264984117,-0.007165637076968764,-0.023983959241483957,1.0590013265609741,6.531375885009766,0.8901457786560059
1730865958.6341417,-1.7026240825653076,1.1562330722808838,-9.797066688537598,0.007244615497842357,-0.020405258806683382,-0.007047336523144564,1.06212317943573,6.525600910186768,0.8897241950035095
1730865958.6841717,-1.8434793949127197,1.0966352224349976,-9.701960563659668,-0.020441695026314995,-0.035759743650858176,0.01762972193727384,1.0651692152023315,6.5198655128479,0.8893237709999084
1730865958.7341104,-1.9647480249404907,1.0394996404647827,-9.635427474975586,-0.058190258044077216,-0.0447262863961035,0.0491093071854954,1.0681090354919434,6.514045715332031,0.8890074491500854
1730865958.7841659,-2.0362460613250732,0.9632866978645325,-9.589738845825195,-0.10814844249197063,-0.03698201717226417,0.0860413387817847,1.064881443977356,6.503998756408691,0.8891584873199463
1730865958.8331368,-2.0362460613250732,0.9632866978645325,-9.589738845825195,-0.16996381059319932,-0.007689451637223631,0.12653429235520405,1.0668166875839233,6.498521327972412,0.8893093466758728
1730865958.8331368,-2.0580220222473145,0.9396564364433289,-9.595098495483398,-0.23189510894967885,0.0366514051322427,0.16307284417534673,1.066827416419983,6.49848747253418,0.8893111944198608
1730865958.8841126,-2.0580220222473145,0.9396564364433289,-9.595098495483398,-0.27046748923603137,0.07956708572488597,0.18175435555575964,1.0650758743286133,6.487325191497803,0.8894096612930298
1730865958.8841126,-2.0260348320007324,0.9472898840904236,-9.640368461608887,-0.266349258938783,0.10471703782224616,0.1715640245015299,1.06508207321167,6.4872894287109375,0.8894144296646118
1730865958.9341154,-1.9630955457687378,1.0134309530258179,-9.721592903137207,-0.2179587340450341,0.10474366912978406,0.132480658717338,1.0657341480255127,6.482117652893066,0.8902885317802429
1730865958.984118,-1.895137906074524,1.0919886827468872,-9.815616607666016,-0.13890900235081788,0.08111689196485078,0.07310646739086818,1.0648493766784668,6.470419883728027,0.890019416809082
1730865959.0339692,-1.895137906074524,1.0919886827468872,-9.815616607666016,-0.04861879377683749,0.04025569199619358,0.0047372353180799645,1.0649051666259766,6.4653544425964355,0.8910707831382751
1730865959.0339692,-1.8222602605819702,1.1473636627197266,-9.905097961425781,0.03331839913880355,-0.007606510544618748,-0.05984161697465645,1.0649051666259766,6.465321063995361,0.8910778164863586
1730865959.0840662,-1.7455374002456665,1.1361726522445679,-9.956357955932617,0.0915194481368651,-0.0498278424793822,-0.1077501064122497,1.0656040906906128,6.4543280601501465,0.8903725743293762
1730865959.1339521,-1.700907826423645,1.1482601165771484,-10.000899314880371,0.12050780647837629,-0.07645843909993791,-0.13212973373036763,1.0662325620651245,6.448750019073486,0.8908030390739441
1730865959.1839936,-1.7207727432250977,1.1174755096435547,-10.020934104919434,0.12473719922363308,-0.08392422878873257,-0.13472290020647953,1.0671724081039429,6.442938804626465,0.8909010291099548
1730865959.233999,-1.7523990869522095,1.134559988975525,-9.988039016723633,0.11196708284138918,-0.07416308826033699,-0.12174412361547904,1.0665961503982544,6.436438083648682,0.8909080624580383
1730865959.2839696,-1.8286563158035278,1.1376848220825195,-9.950651168823242,0.08841306564018009,-0.05272122549738402,-0.09972828359485528,1.0679709911346436,6.430554389953613,0.8904708623886108
1730865959.3339097,-1.8731988668441772,1.1633003950119019,-9.883402824401855,0.05782093237999981,-0.027346122617366492,-0.0730739399667299,1.0682569742202759,6.420823574066162,0.8912726640701294
1730865959.3839538,-1.8731988668441772,1.1633003950119019,-9.883402824401855,0.02258385346943427,-0.005815996790427739,-0.04335602950883854,1.0698598623275757,6.414545059204102,0.8906645774841309
1730865959.3839538,-1.87714421749115,1.2097761631011963,-9.829784393310547,-0.013038745251555135,0.00668226239932056,-0.01215191780965967,1.068291187286377,6.413197040557861,0.8922001719474792
1730865959.43391,-1.87714421749115,1.2097761631011963,-9.829784393310547,-0.041514454416750585,0.008863173957214029,0.016383971647767618,1.0697386264801025,6.406976699829102,0.891769528388977
1730865959.43391,-1.8527741432189941,1.2444229125976562,-9.779115676879883,-0.055792994614833155,0.0028778083799190024,0.03720917080653997,1.0697474479675293,6.406937599182129,0.8917669653892517
1730865959.483997,-1.7791498899459839,1.2536530494689941,-9.761033058166504,-0.05325462264782247,-0.007330056632588378,0.04790726518584809,1.071080207824707,6.400701522827148,0.8914158344268799
1730865959.5338774,-1.7433054447174072,1.2289862632751465,-9.7857084274292,-0.03520074212656461,-0.018098802499911706,0.05023661735490484,1.0706971883773804,6.389941215515137,0.8924357891082764
1730865959.583923,-1.7001326084136963,1.2023404836654663,-9.813427925109863,-0.005144174939600486,-0.026730144248826703,0.04803734201648952,1.0717569589614868,6.383302211761475,0.8924585580825806
1730865959.6338441,-1.658395528793335,1.1724835634231567,-9.855494499206543,0.03067903966637869,-0.03051013581659978,0.04310745950763387,1.0721590518951416,6.368595123291016,0.8937427401542664
1730865959.6838272,-1.589672565460205,1.1396898031234741,-9.88569164276123,0.06372702402968256,-0.026718127398722216,0.03387930742232076,1.0728082656860352,6.353485584259033,0.8951429128646851
1730865959.733828,-1.5081108808517456,1.1046420335769653,-9.922158241271973,0.08683785216411802,-0.014649899703855314,0.01867634800894319,1.07417893409729,6.345190525054932,0.8956477642059326
1730865959.7838185,-1.4295170307159424,1.1049782037734985,-9.95274543762207,0.09780250918676525,0.002954948256624892,-0.001061446508106646,1.07578444480896,6.336867332458496,0.8961756229400635
1730865959.833836,-1.4295170307159424,1.1049782037734985,-9.95274543762207,0.10022452175236417,0.021196995678323446,-0.021670499120672107,1.0776240825653076,6.328639507293701,0.8966711163520813
1730865959.833836,-1.4276865720748901,1.1359474658966064,-9.951932907104492,0.10122657436822394,0.03547172698756921,-0.0399472107499292,1.0776365995407104,6.328587055206299,0.8966740965843201
1730865959.8838398,-1.4276865720748901,1.1359474658966064,-9.951932907104492,0.10684390758318188,0.042796649346894075,-0.05413787280322771,1.076846957206726,6.321772575378418,0.8972120881080627
1730865959.8838398,-1.4848183393478394,1.1582427024841309,-9.916403770446777,0.1177104235282011,0.042038380038587335,-0.063140997298883,1.0768604278564453,6.321719169616699,0.8972142934799194
1730865959.9337692,-1.4848183393478394,1.1582427024841309,-9.916403770446777,0.1268702509583039,0.033828663076874974,-0.06507151084711152,1.0772665739059448,6.310227870941162,0.8980781435966492
1730865959.9337692,-1.5948827266693115,1.1681678295135498,-9.850994110107422,0.12257710184817094,0.020337394776119948,-0.05726055545992657,1.0772839784622192,6.310162544250488,0.8980798721313477
1730865959.9839382,-1.5948827266693115,1.1681678295135498,-9.850994110107422,0.09636680225348228,0.004930842186390348,-0.038580936929350496,1.0795385837554932,6.302174091339111,0.8982415795326233
1730865959.9839382,-1.7093874216079712,1.1369863748550415,-9.79179573059082,0.048678144535425766,-0.008490084597919941,-0.011101350977808858,1.0795528888702393,6.302125930786133,0.8982422947883606
1730865960.0338023,-1.8193243741989136,1.1080282926559448,-9.737626075744629,-0.013676094285419518,-0.016350867814822312,0.02136746945766172,1.0795940160751343,6.29101037979126,0.8992233872413635
1730865960.083812,-1.884267807006836,1.1029753684997559,-9.714607238769531,-0.08230377772504253,-0.016338799508444708,0.05510406449390661,1.0816177129745483,6.282656192779541,0.8995466828346252
1730865960.1337838,-1.884267807006836,1.1029753684997559,-9.714607238769531,-0.14620531628718536,-0.00881971288818121,0.08509711664655241,1.0833239555358887,6.274415493011475,0.9000377058982849
1730865960.1337838,-1.9105286598205566,1.1115912199020386,-9.716594696044922,-0.1906419812923052,0.0025536771291609587,0.10400731653531645,1.0833337306976318,6.274362564086914,0.9000415205955505
1730865960.1837988,-1.9105286598205566,1.1115912199020386,-9.716594696044922,-0.20459844400941746,0.012691613354641435,0.1061257780184334,1.0822569131851196,6.264461040496826,0.9009364247322083
1730865960.1837988,-1.9257912635803223,1.116139531135559,-9.744019508361816,-0.18847117450124476,0.01785152826618705,0.09165587249438127,1.0822633504867554,6.26439905166626,0.9009426832199097
1730865960.2337227,-1.9447674751281738,1.1083884239196777,-9.78177261352539,-0.15198712032350697,0.017057260535975116,0.06563543468838623,1.0829334259033203,6.256100654602051,0.9018676280975342
1730865960.28374,-1.9447674751281738,1.1083884239196777,-9.78177261352539,-0.10754354279827197,0.011875727270223757,0.03401300718565636,1.0826114416122437,6.244696617126465,0.9018260836601257
1730865960.28374,-1.942165493965149,1.0875669717788696,-9.824285507202148,-0.06593963721920316,0.005268632676129874,0.0017178434723949436,1.0826131105422974,6.244644641876221,0.9018316864967346
1730865960.3336928,-1.942165493965149,1.0875669717788696,-9.824285507202148,-0.034032906739974285,0.00028331107374532046,-0.02688845783476568,1.082837462425232,6.236075401306152,0.90272057056427
1730865960.3336928,-1.9253342151641846,1.0885087251663208,-9.844911575317383,-0.013607661160791066,-0.0010138460233409853,-0.04804178813964427,1.082838773727417,6.236015319824219,0.9027265310287476
1730865960.383695,-1.9253342151641846,1.0885087251663208,-9.844911575317383,-0.0024554657095514206,0.0017729591845189634,-0.0600660806815334,1.0830180644989014,6.227444648742676,0.9035077095031738
1730865960.383695,-1.8715403079986572,1.0781447887420654,-9.8873929977417,0.0034856831211398714,0.007465862251678496,-0.06442050652546746,1.0830196142196655,6.227370262145996,0.9035138487815857
1730865960.4336674,-1.8715403079986572,1.0781447887420654,-9.8873929977417,0.008683275029429175,0.014254538853173107,-0.06508156185343769,1.0832059383392334,6.218850135803223,0.9041372537612915
1730865960.4336674,-1.8378441333770752,1.0401469469070435,-9.917705535888672,0.01698673315011967,0.020828058725446973,-0.06676517031226997,1.083207607269287,6.218776702880859,0.9041419625282288
1730865960.48365,-1.7672381401062012,1.032460331916809,-9.951805114746094,0.030839905467899942,0.027147436504291564,-0.07313342486915644,1.0830076932907104,6.216585159301758,0.9025208353996277
1730865960.5337403,-1.7021394968032837,1.0370874404907227,-9.975760459899902,0.050874540236140506,0.033912877134742614,-0.08524417795813516,1.083398461341858,6.2088189125061035,0.9025940895080566
1730865960.5838394,-1.7021394968032837,1.0370874404907227,-9.975760459899902,0.07459863151269817,0.04038276694601112,-0.09960956844983465,1.0848615169525146,5.8477959632873535,0.9005000591278076
1730865960.5838394,-1.65043306350708,1.073177456855774,-10.0149564743042,0.09571386342363593,0.043339292649391445,-0.10867474828909675,1.0848678350448608,5.847406387329102,0.9004965424537659
1730865960.6337297,-1.6014059782028198,1.14634108543396,-10.020565032958984,0.10753254306987937,0.03884718421819482,-0.10615973982523771,1.0858064889907837,5.797947406768799,0.8999179005622864
1730865960.6836996,-1.6014059782028198,1.14634108543396,-10.020565032958984,0.10795959286859114,0.024206353738705465,-0.09194970848380443,1.0873535871505737,5.4450812339782715,0.8980846405029297
1730865960.6836996,-1.5850491523742676,1.22859787940979,-9.987622261047363,0.10020094594465478,-0.0007794851354386003,-0.07104887750660258,1.08736252784729,5.444551944732666,0.8980783820152283
1730865960.733647,-1.6096011400222778,1.2526041269302368,-9.945744514465332,0.08847152356914596,-0.032555206682064186,-0.04853421781346051,1.0888912677764893,5.360666751861572,0.897023618221283
1730865960.7837098,-1.665219783782959,1.2559261322021484,-9.857342720031738,0.07391977859459997,-0.0646814969535443,-0.025576119253125758,1.090627908706665,5.276367664337158,0.8958727717399597
1730865960.8336103,-1.665219783782959,1.2559261322021484,-9.857342720031738,0.0549059546045154,-0.09112284056635551,0.0005238849074403282,1.0925215482711792,5.192039966583252,0.8946929574012756
1730865960.8336103,-1.7471556663513184,1.2027697563171387,-9.769553184509277,0.029722137486244686,-0.10843973495525853,0.033238076695494896,1.0925390720367432,5.191284656524658,0.8946824073791504
1730865960.8836133,-1.7471556663513184,1.2027697563171387,-9.769553184509277,-0.0018757334087247113,-0.11536988898898706,0.0739560617631759,1.0918585062026978,4.9746994972229,0.8942830562591553
1730865960.8836133,-1.8258168697357178,1.1118991374969482,-9.667461395263672,-0.03811514879427595,-0.11135358504539865,0.12021169113699662,1.0918689966201782,4.97412633895874,0.8942776918411255
1730865960.9335773,-1.8258168697357178,1.1118991374969482,-9.667461395263672,-0.0741520235471225,-0.0952413005364399,0.16402632317489824,1.0934795141220093,4.880796909332275,0.8936060667037964
1730865960.9335773,-1.8815194368362427,1.0185134410858154,-9.608986854553223,-0.1030125979549598,-0.06545017307570963,0.19401953395248173,1.0934890508651733,4.8802080154418945,0.8936030864715576
1730865960.9835758,-1.8815194368362427,1.0185134410858154,-9.608986854553223,-0.12008914016241481,-0.021964335112470458,0.2031114219094708,1.0936354398727417,4.59164571762085,0.8928450345993042
1730865960.9835758,-1.8734042644500732,0.954424262046814,-9.58102798461914,-0.12558686073678066,0.03121413866993672,0.19312766891841157,1.0936424732208252,4.590969562530518,0.8928449749946594
1730865961.033538,-1.8734042644500732,0.954424262046814,-9.58102798461914,-0.12110998231704243,0.08447924715963472,0.17042478062927036,1.0946154594421387,4.482327938079834,0.89304518699646
1730865961.033538,-1.824157476425171,0.9195178747177124,-9.613903045654297,-0.10628939833632989,0.12505856484113792,0.13998610453970395,1.0946204662322998,4.481663227081299,0.8930476903915405
1730865961.0836797,-1.824157476425171,0.9195178747177124,-9.613903045654297,-0.08042993548134864,0.14424877585542534,0.10496895584324988,1.0953490734100342,4.372457981109619,0.8935936093330383
1730865961.0836797,-1.7324042320251465,0.9404146075248718,-9.695297241210938,-0.04514297564294165,0.1423623331743351,0.06837288906963215,1.095354437828064,4.37153434753418,0.8935993313789368
1730865961.133535,-1.6441199779510498,0.9858413338661194,-9.814929962158203,-0.0034298369234784225,0.12635446571949363,0.03205650039903077,1.0958095788955688,4.103171348571777,0.8931211233139038
1730865961.1836119,-1.5686087608337402,1.074684739112854,-9.920032501220703,0.04206850708227655,0.10352501507275468,-0.00487732169724461,1.0965378284454346,3.9833710193634033,0.8937292695045471
1730865961.2334654,-1.542607307434082,1.151999592781067,-10.003628730773926,0.08705160811352848,0.07645083638243777,-0.043882829921951,1.0976232290267944,3.614488363265991,0.8931534290313721
1730865961.283573,-1.5542049407958984,1.2301385402679443,-10.041191101074219,0.12315471536603635,0.043033675695272056,-0.08295312641879259,1.098848581314087,3.470801591873169,0.8934158086776733
1730865961.3333614,-1.5542049407958984,1.2301385402679443,-10.041191101074219,0.14065226921946394,0.002319225618494916,-0.11555472321610062,1.1003921031951904,3.3282556533813477,0.8934299349784851
1730865961.3333614,-1.6225168704986572,1.2406723499298096,-10.066964149475098,0.13360454009429984,-0.040684912120394545,-0.1334897696594267,1.10040283203125,3.3273656368255615,0.893429160118103
1730865961.3834236,-1.7253564596176147,1.2138913869857788,-10.027120590209961,0.10219183885147796,-0.07729031373552125,-0.13223653051924333,1.1022593975067139,3.1839659214019775,0.8931323289871216
1730865961.4334004,-1.7253564596176147,1.2138913869857788,-10.027120590209961,0.05124890291247976,-0.10055811857018518,-0.11407629667576058,1.1014124155044556,3.0503487586975098,0.8927424550056458
1730865961.4334004,-1.8377536535263062,1.1672279834747314,-9.96264362335205,-0.011439738281383753,-0.10761729687495371,-0.08567161585306217,1.1014224290847778,3.049602746963501,0.8927387595176697
1730865961.4834306,-1.8377536535263062,1.1672279834747314,-9.96264362335205,-0.0748657009824173,-0.09849022440806096,-0.053364412732769304,1.103158950805664,2.9127938747406006,0.8919973969459534
1730865961.4834306,-1.8791604042053223,1.118408203125,-9.90227222442627,-0.1265946932090867,-0.0747023286989922,-0.020592215664189468,1.1031707525253296,2.911808729171753,0.8919916152954102
1730865961.5334456,-1.8791604042053223,1.118408203125,-9.90227222442627,-0.1584115835279299,-0.039504778321910516,0.011720593391931966,1.1033010482788086,2.5720341205596924,0.8918790221214294
1730865961.5334456,-1.8703622817993164,1.049418330192566,-9.87574577331543,-0.169323145306918,0.0016091478952506375,0.04290013252685004,1.1033082008361816,2.5710554122924805,0.8918749690055847
1730865961.5833516,-1.7904411554336548,0.9940613508224487,-9.860814094543457,-0.16150205294678327,0.04165835482564308,0.0698586757452701,1.1045106649398804,2.114044189453125,0.891648530960083
1730865961.6333067,-1.6464136838912964,0.9628157019615173,-9.86606502532959,-0.13526784406092218,0.07417033611071616,0.0870345883949322,1.1051948070526123,1.918666958808899,0.8913500905036926
1730865961.683353,-1.5627888441085815,0.9482263922691345,-9.848698616027832,-0.0898277430508007,0.0946655246598988,0.08989788159345191,1.1055991649627686,1.723001480102539,0.8912723064422607
1730865961.7333167,-1.5627888441085815,0.9482263922691345,-9.848698616027832,-0.02702783870076071,0.10105845274402026,0.07832435221354955,1.1058568954467773,1.5276964902877808,0.8914052248001099
1730865961.7333167,-1.562458872795105,0.9341247081756592,-9.841981887817383,0.04670735638615778,0.09452659880070961,0.057044225553425455,1.105858325958252,1.5264084339141846,0.891406774520874
1730865961.783527,-1.5797141790390015,0.9555282592773438,-9.840194702148438,0.12091764664671624,0.07978086277005181,0.03345112677557574,1.105528712272644,1.4301955699920654,0.8921322822570801
1730865961.8334281,-1.5797141790390015,0.9555282592773438,-9.840194702148438,0.18291923600279317,0.06273694871330743,0.014259432704248887,1.1062723398208618,1.2480287551879883,0.8924954533576965
1730865961.8334281,-1.656130313873291,1.0449622869491577,-9.828990936279297,0.21918136142992822,0.04686334006220377,0.0029413477383270067,1.106278419494629,1.2468918561935425,0.8924978375434875
1730865961.883437,-1.656130313873291,1.0449622869491577,-9.828990936279297,0.2181788057086751,0.031175931389208076,-0.0006767649643873302,1.1075233221054077,1.0647859573364258,0.892877995967865
1730865961.883437,-1.7408385276794434,1.130565881729126,-9.812065124511719,0.17660821343089061,0.011674591584226273,0.001136717155385766,1.10753333568573,1.0635864734649658,0.8928804993629456
1730865961.933372,-1.8037424087524414,1.1793253421783447,-9.80042552947998,0.102623273594062,-0.015580166374784417,0.0059649000593757755,1.1091676950454712,0.8826794028282166,0.8932647109031677
1730865961.9834905,-1.8700915575027466,1.1633671522140503,-9.820185661315918,0.011302128252307853,-0.05237866298554941,0.012187114679943174,1.1074018478393555,1.1019771099090576,0.8938577175140381
1730865962.0333447,-1.9134926795959473,1.100498914718628,-9.80792236328125,-0.0810837586349786,-0.09558325849426956,0.018593808194079804,1.1087757349014282,0.9554687142372131,0.8943061232566833
1730865962.083408,-1.9134926795959473,1.100498914718628,-9.80792236328125,-0.15769422170047737,-0.13356436124636378,0.023713546471518986,1.1074211597442627,1.114253044128418,0.8953396677970886
1730865962.083408,-1.9817607402801514,0.9967160820960999,-9.799867630004883,-0.20244864215483288,-0.1491832537339694,0.026107792855062317,1.107425570487976,1.1134705543518066,0.8953433632850647
1730865962.1332574,-2.009242534637451,0.8998187184333801,-9.762540817260742,-0.20771013486799764,-0.1304177648014209,0.02537903930618782,1.1078442335128784,0.9931885600090027,0.8959463834762573
1730865962.1833553,-2.009242534637451,0.8998187184333801,-9.762540817260742,-0.1801619124867918,-0.0774122933135831,0.022872237723320102,1.106904149055481,1.1250277757644653,0.8969328999519348
1730865962.1833553,-2.0146119594573975,0.8520634174346924,-9.732019424438477,-0.13639604742729336,-0.0017375100489105885,0.021112020349375045,1.1069023609161377,1.1244186162948608,0.8969372510910034
1730865962.2332752,-2.0146119594573975,0.8520634174346924,-9.732019424438477,-0.09250777027344168,0.07675500029122174,0.02193789233454192,1.106290340423584,1.205905795097351,0.8982028365135193
1730865962.2332752,-1.9653370380401611,0.8578269481658936,-9.763777732849121,-0.057000379570567083,0.13580292179650116,0.024910121726925742,1.1062874794006348,1.2053998708724976,0.8982077240943909
1730865962.2832632,-1.8760980367660522,0.9307280778884888,-9.811843872070312,-0.03019663154943276,0.15963089619767779,0.026934598427137097,1.105782151222229,1.1218042373657227,0.8990541100502014
1730865962.3331802,-1.8760980367660522,0.9307280778884888,-9.811843872070312,-0.007022027531613003,0.1443650961718012,0.023252772475400512,1.105229377746582,1.0383549928665161,0.8999651074409485
1730865962.3331802,-1.7786275148391724,1.0387083292007446,-9.875558853149414,0.019199430392941152,0.09695893392519733,0.009923435453670271,1.1052260398864746,1.0378555059432983,0.8999707698822021
1730865962.3832405,-1.7020138502120972,1.1243410110473633,-9.926508903503418,0.05355761685225939,0.029858620757221736,-0.014266029915164374,1.1047314405441284,0.9546455144882202,0.9008928537368774
1730865962.4332123,-1.6601722240447998,1.1989141702651978,-9.964488983154297,0.09864482521977642,-0.04549387409239168,-0.04824440750843892,1.1047807931900024,1.1045819520950317,0.9001756906509399
1730865962.4832904,-1.6342209577560425,1.2611186504364014,-9.975395202636719,0.15260880665041568,-0.1205386837138076,-0.0885189176875798,1.1048707962036133,1.036575436592102,0.9006868004798889
1730865962.5331616,-1.6342209577560425,1.2611186504364014,-9.975395202636719,0.20428977129365627,-0.1847180659393761,-0.12645283749784314,1.1051996946334839,1.153676986694336,0.900075376033783
1730865962.5331616,-1.622498869895935,1.2675787210464478,-9.962905883789062,0.23459031147079448,-0.22338144309553964,-0.14889867606824242,1.1052049398422241,1.153298020362854,0.9000754952430725
1730865962.5832772,-1.639206886291504,1.2061913013458252,-9.937066078186035,0.22877191101422423,-0.225007090046835,-0.14574651895821894,1.1062642335891724,1.0969830751419067,0.8999071717262268
1730865962.6331246,-1.6860491037368774,1.1449236869812012,-9.880510330200195,0.18671939504496682,-0.18855138635659527,-0.11628141593325536,1.1078373193740845,1.0402436256408691,0.8994140028953552
1730865962.6834114,-1.6860491037368774,1.1449236869812012,-9.880510330200195,0.12114995252269255,-0.12312347170000318,-0.06803152650374059,1.1073940992355347,1.1632823944091797,0.8991997838020325
1730865962.6834114,-1.7109571695327759,1.0855287313461304,-9.83228588104248,0.04966008161877998,-0.04396606304005703,-0.012330863372061589,1.1074060201644897,1.1629815101623535,0.8991951942443848
1730865962.7330935,-1.709753394126892,1.0741137266159058,-9.788422584533691,-0.011729494636830548,0.03138962929388343,0.039015298006085025,1.1092323064804077,1.116359829902649,0.898535430431366
1730865962.7832174,-1.6724727153778076,1.0828081369400024,-9.795247077941895,-0.05228387285800241,0.08777987715977476,0.07689207091151701,1.108522891998291,1.5413490533828735,0.8997421860694885
1730865962.8330767,-1.6206578016281128,1.0981696844100952,-9.837224006652832,-0.06797652983728562,0.11694260808094548,0.0971553780154497,1.1098802089691162,1.541250228881836,0.8996682167053223
1730865962.8830912,-1.5427521467208862,1.13316011428833,-9.84755802154541,-0.060321873032588263,0.11823094247804053,0.09915753442529952,1.1092429161071777,1.9590978622436523,0.9009276628494263
1730865962.933006,-1.5629488229751587,1.1618047952651978,-9.863628387451172,-0.03452738634644045,0.09622831233586467,0.08371094914008363,1.1101350784301758,1.9981410503387451,0.9014455080032349
1730865962.9830446,-1.629149079322815,1.215698003768921,-9.845447540283203,-0.00011080758469063194,0.058911160647141234,0.05475038079242839,1.110988736152649,2.037585735321045,0.9021395444869995
1730865963.0340078,-1.6967530250549316,1.2590280771255493,-9.838217735290527,0.02850986491932688,0.01562608424142917,0.020807307627586136,1.1118940114974976,2.077803373336792,0.9029425382614136
1730865963.084012,-1.7413307428359985,1.2730633020401,-9.82457160949707,0.036504544402522585,-0.026247606395668026,-0.007891861436035999,1.1108081340789795,2.376880168914795,0.9024345278739929
1730865963.1339903,-1.7413307428359985,1.2730633020401,-9.82457160949707,0.016824921279175353,-0.06232637375442969,-0.024112980037190174,1.1117051839828491,2.430420160293579,0.9030625224113464
1730865963.1339903,-1.7646113634109497,1.2583575248718262,-9.81188678741455,-0.023764094299460616,-0.08831076166363602,-0.026271708243514873,1.1117109060287476,2.4307520389556885,0.9030662178993225
1730865963.1839724,-1.7786732912063599,1.2127102613449097,-9.802888870239258,-0.06728849388052516,-0.09837348950539793,-0.017838107093349233,1.1109813451766968,2.828723430633545,0.9025911688804626
1730865963.233917,-1.8130278587341309,1.14822256565094,-9.807696342468262,-0.09606490807003612,-0.08833589145116875,-0.004554254179954574,1.1115083694458008,2.9073050022125244,0.9030333161354065
1730865963.2838762,-1.809478998184204,1.100132703781128,-9.810400009155273,-0.10247981201733118,-0.05931922825443585,0.008039630476110896,1.111789584159851,2.9859800338745117,0.9034813642501831
1730865963.333905,-1.797210454940796,1.1131501197814941,-9.829365730285645,-0.08955936108572769,-0.017597914998977744,0.01576582504828009,1.111232042312622,3.2758870124816895,0.9029601216316223
1730865963.383851,-1.7991148233413696,1.125964879989624,-9.836786270141602,-0.0658845406615787,0.0274875942746615,0.01654067928740286,1.1110904216766357,3.3638358116149902,0.9033983945846558
1730865963.4338167,-1.7826963663101196,1.1695894002914429,-9.845488548278809,-0.040219784620529435,0.06468984226938738,0.010888394318047896,1.1112276315689087,3.772367477416992,0.902901291847229
1730865963.4838102,-1.7767739295959473,1.2048052549362183,-9.856528282165527,-0.018350587964805314,0.0830671446673953,0.0015201070542978385,1.1109880208969116,3.884979248046875,0.9033096432685852
1730865963.5337822,-1.8129676580429077,1.1983704566955566,-9.851751327514648,-0.0028562043314847192,0.07720574045883855,-0.008083889042954583,1.1111851930618286,4.264254570007324,0.9028363227844238
1730865963.5838563,-1.865580439567566,1.1427628993988037,-9.82577133178711,0.0052265800733048975,0.051341681393439975,-0.014950164466331121,1.1110193729400635,4.394830703735352,0.9031333923339844
1730865963.633715,-1.881205439567566,1.0834192037582397,-9.824111938476562,0.005139888528783021,0.01833077692094245,-0.016993056129804618,1.1108601093292236,4.530987739562988,0.9034014344215393
1730865963.68373,-1.881205439567566,1.0834192037582397,-9.824111938476562,-0.003213558786536219,-0.005850748279860636,-0.013236781792349338,1.1111201047897339,4.749886512756348,0.9029201865196228
1730865963.68373,-1.863053321838379,1.0553536415100098,-9.826824188232422,-0.01782650496829321,-0.009983835638018797,-0.0045041917829629465,1.111119270324707,4.751011848449707,0.9029216170310974
1730865963.7337158,-1.8265241384506226,1.0528087615966797,-9.850543975830078,-0.03329424633075608,0.006097373417918009,0.006115283412118576,1.1109784841537476,4.88499116897583,0.9030988812446594
1730865963.7837036,-1.8265241384506226,1.0528087615966797,-9.850543975830078,-0.041794736053634166,0.03226847757509524,0.014087280030370238,1.1107523441314697,5.013746738433838,0.9032935500144958
1730865963.7837036,-1.7715882062911987,1.0776413679122925,-9.877630233764648,-0.03700158292247949,0.05551881311197349,0.015506824234949236,1.110750675201416,5.0145392417907715,0.9032948613166809
1730865963.8336518,-1.7715882062911987,1.0776413679122925,-9.877630233764648,-0.01736742375446723,0.06693664347879034,0.00886017975119959,1.1112918853759766,5.287395000457764,0.9027529358863831
1730865963.8336518,-1.7354477643966675,1.0973707437515259,-9.941924095153809,0.013409766895311882,0.06394921909303208,-0.004706480354327635,1.111290454864502,5.288252830505371,0.9027541279792786
1730865963.8837056,-1.7354477643966675,1.0973707437515259,-9.941924095153809,0.04719370398042445,0.04909572105414979,-0.022199877880247666,1.1111254692077637,5.426782131195068,0.9029183983802795
1730865963.8837056,-1.689695954322815,1.1317925453186035,-9.966397285461426,0.07419533821076894,0.02747418740154685,-0.040094246691972535,1.1111247539520264,5.427694797515869,0.9029192924499512
1730865963.9335935,-1.689695954322815,1.1317925453186035,-9.966397285461426,0.0882460028992457,0.004165831593513144,-0.05575871777560454,1.1111282110214233,5.56520938873291,0.9029860496520996
1730865963.9335935,-1.6389662027359009,1.1293141841888428,-9.971222877502441,0.09013609733226141,-0.017244805389343476,-0.06815975874571703,1.1111289262771606,5.566053867340088,0.9029860496520996
1730865963.9836588,-1.6389662027359009,1.1293141841888428,-9.971222877502441,0.08611073864040167,-0.034678990055209406,-0.07745683936312694,1.1118338108062744,5.7967305183410645,0.9033184051513672
1730865963.9836588,-1.6623183488845825,1.1505361795425415,-9.938908576965332,0.08289481573123401,-0.046924054589361844,-0.08360859631272491,1.1118354797363281,5.797370910644531,0.903317928314209
1730865964.0335605,-1.685981035232544,1.114296793937683,-9.907242774963379,0.08180479136460114,-0.052999665247542765,-0.08432635708230996,1.1123169660568237,5.941409111022949,0.9030964374542236
1730865964.0836053,-1.685981035232544,1.114296793937683,-9.907242774963379,0.07733727423591814,-0.05184357070461959,-0.07504131831811703,1.112843632698059,5.927624702453613,0.9028744697570801
1730865964.0836053,-1.7127622365951538,1.098321795463562,-9.828071594238281,0.06303906610283733,-0.04305170612959912,-0.05270581057486358,1.1128480434417725,5.928323268890381,0.9028717279434204
1730865964.1335196,-1.7381293773651123,1.0863145589828491,-9.812661170959473,0.03800902143109011,-0.028085083916726726,-0.01928531272366362,1.113616943359375,6.043741703033447,0.9023945927619934
1730865964.1835907,-1.7394286394119263,1.1070185899734497,-9.751754760742188,0.007254145130128767,-0.010273637919851522,0.019331691011479718,1.11393141746521,6.019070148468018,0.903694748878479
1730865964.2335656,-1.7394286394119263,1.1070185899734497,-9.751754760742188,-0.02205445090613614,0.006285467195139168,0.05648162543926616,1.1146584749221802,6.114735126495361,0.9035506844520569
1730865964.2335656,-1.7783422470092773,1.099996566772461,-9.74980354309082,-0.043640102179429895,0.0179748203033436,0.08535437722026525,1.1146631240844727,6.1153645515441895,0.9035502076148987
1730865964.2834716,-1.775434136390686,1.1180026531219482,-9.734968185424805,-0.05405107427136606,0.022832352343634513,0.0991280599910476,1.1152896881103516,6.210306167602539,0.9036010503768921
1730865964.3334875,-1.775434136390686,1.1180026531219482,-9.734968185424805,-0.053964136760620736,0.021035581798774523,0.09453457013613092,1.1151412725448608,6.145671844482422,0.9055525064468384
1730865964.3334875,-1.7961090803146362,1.0978853702545166,-9.74190616607666,-0.047276020835014,0.014492589750319092,0.07487054600080391,1.1151436567306519,6.146193981170654,0.9055562019348145
1730865964.3834748,-1.8024729490280151,1.096219539642334,-9.761283874511719,-0.03843147506560447,0.0063739344648926525,0.047766522948293776,1.1154545545578003,6.224472999572754,0.9061670303344727
1730865964.4334664,-1.8024729490280151,1.096219539642334,-9.761283874511719,-0.030572956053873668,0.0003174293818764423,0.020630910839765648,1.1156238317489624,6.161218643188477,0.9086526036262512
1730865964.4334664,-1.8615046739578247,1.0873790979385376,-9.789366722106934,-0.025423549602215583,-0.0012250997023751224,-0.001854375189636705,1.115625023841858,6.1616291999816895,0.9086581468582153
1730865964.4834557,-1.8615046739578247,1.0873790979385376,-9.789366722106934,-0.023997890571566455,0.0017305279763135603,-0.017765597280078038,1.1157889366149902,6.2258219718933105,0.9095043540000916
1730865964.4834557,-1.8906596899032593,1.113863468170166,-9.796687126159668,-0.027002042237030205,0.006942631237283993,-0.027156960032279277,1.1157898902893066,6.226251125335693,0.9095098376274109
1730865964.533443,-1.8906596899032593,1.113863468170166,-9.796687126159668,-0.03464099602726656,0.011200663935483985,-0.03139669483512174,1.1158803701400757,6.290266513824463,0.910292387008667
1730865964.533443,-1.8843986988067627,1.1354656219482422,-9.818350791931152,-0.046219386620393876,0.011702343547024912,-0.032603966212870955,1.1158806085586548,6.290657043457031,0.9102969169616699
1730865964.5834439,-1.8843986988067627,1.1354656219482422,-9.818350791931152,-0.05985539181205376,0.007053298956513223,-0.033136539341156096,1.1158539056777954,6.3547892570495605,0.9110004901885986
1730865964.5834439,-1.8520234823226929,1.1645499467849731,-9.829914093017578,-0.07267067929727708,-0.0025027746673475255,-0.035034798406108014,1.115853190422058,6.355208396911621,0.9110048413276672
1730865964.6334517,-1.8520234823226929,1.1645499467849731,-9.829914093017578,-0.08151747905712334,-0.01563505987620241,-0.03942040109275094,1.1158616542816162,6.237557888031006,0.9128670692443848
1730865964.6334517,-1.8085271120071411,1.176212191581726,-9.861815452575684,-0.0836212990442473,-0.030309433961153695,-0.04601709511991953,1.115860104560852,6.23786735534668,0.9128710627555847
1730865964.6834452,-1.7181299924850464,1.1627516746520996,-9.876137733459473,-0.07623924413480257,-0.04330268928284166,-0.05298551493234882,1.1155080795288086,6.2880120277404785,0.9134566187858582
1730865964.7333987,-1.6924563646316528,1.1392431259155273,-9.905946731567383,-0.05609042972940758,-0.050320426638059884,-0.057915072201848196,1.1158432960510254,6.196129322052002,0.9154054522514343
1730865964.7834475,-1.6924563646316528,1.1392431259155273,-9.905946731567383,-0.021852830440136747,-0.0480838979928574,-0.059520643447717916,1.1153618097305298,6.234477519989014,0.9158350825309753
1730865964.7834475,-1.6710063219070435,1.1597439050674438,-9.915834426879883,0.020790017644354813,-0.036872950282742664,-0.05757390736683344,1.1153583526611328,6.23473596572876,0.9158375263214111
1730865964.8333828,-1.6623401641845703,1.1732234954833984,-9.910504341125488,0.059242843518420206,-0.021125043187174765,-0.05174769021674572,1.1149100065231323,6.274308204650879,0.9161396026611328
1730865964.8834436,-1.6623401641845703,1.1732234954833984,-9.910504341125488,0.08184875554759795,-0.007306885487662473,-0.042076691935966665,1.1146509647369385,6.312228202819824,0.9163150787353516
1730865964.8834436,-1.664509892463684,1.188157320022583,-9.918722152709961,0.0848773838026112,-0.0005802634552838588,-0.02999828793446257,1.1146498918533325,6.312466144561768,0.9163158535957336
1730865964.933397,-1.664509892463684,1.188157320022583,-9.918722152709961,0.07253725569048264,-0.002755637819175959,-0.018080426428647642,1.1153229475021362,6.2020649909973145,0.9176002144813538
1730865964.933397,-1.6572636365890503,1.1673773527145386,-9.908549308776855,0.05280449180213033,-0.012013920050884913,-0.00878368057630227,1.115323543548584,6.202311038970947,0.9176016449928284
1730865964.9834638,-1.6591688394546509,1.130024790763855,-9.90406608581543,0.03311014849863496,-0.023175720713210855,-0.0031002980249663107,1.11543869972229,6.2319865226745605,0.9177674055099487
1730865965.0333724,-1.6591688394546509,1.130024790763855,-9.90406608581543,0.017876901214938873,-0.029088786025302002,-0.00012876956300337616,1.1159725189208984,6.1459832191467285,0.9198713302612305
1730865965.0333724,-1.6374982595443726,1.1253414154052734,-9.897210121154785,0.00847900069840176,-0.024460096528576725,0.00186780030982952,1.1159738302230835,6.146117687225342,0.9198734760284424
1730865965.0834715,-1.6374982595443726,1.1253414154052734,-9.897210121154785,0.004565170235822697,-0.009821138116223111,0.004021366858188201,1.1165674924850464,6.086684703826904,0.9220308065414429
1730865965.0834715,-1.6542800664901733,1.1127800941467285,-9.890379905700684,0.004940244681298817,0.0086815825753064,0.006368972341553644,1.1165690422058105,6.086785316467285,0.9220342040061951
1730865965.1333466,-1.6542800664901733,1.1127800941467285,-9.890379905700684,0.0074013912954627985,0.023759941001633696,0.008346217330419908,1.1168266534805298,6.103433609008789,0.9226019382476807
1730865965.1333466,-1.6624219417572021,1.1077226400375366,-9.87459659576416,0.00892483946376283,0.031239684952169427,0.00953393744533154,1.1168283224105835,6.103541374206543,0.9226056933403015
1730865965.183495,-1.6624219417572021,1.1077226400375366,-9.87459659576416,0.007069407694603814,0.03109264690276181,0.010149417326917787,1.1171056032180786,6.120358467102051,0.9231999516487122
1730865965.183495,-1.6803877353668213,1.1172305345535278,-9.872438430786133,0.0011652456204265104,0.026010320025931392,0.01097202523606457,1.1171072721481323,6.120460033416748,0.9232035875320435
1730865965.2333581,-1.6803877353668213,1.1172305345535278,-9.872438430786133,-0.007889545351447024,0.01928529495866533,0.012725367557390763,1.1173869371414185,6.0595784187316895,0.9235891699790955
1730865965.2333581,-1.6642932891845703,1.1443051099777222,-9.851571083068848,-0.018199909796389736,0.013133515617200766,0.015522779359537307,1.1173882484436035,6.059646129608154,0.923592209815979
1730865965.2835011,-1.6642932891845703,1.1443051099777222,-9.851571083068848,-0.026765474539827038,0.007923357839185147,0.018812620347079905,1.1175986528396606,6.072201251983643,0.9241799712181091
1730865965.2835011,-1.676072597503662,1.1518168449401855,-9.866317749023438,-0.030083232073338323,0.002572051006952931,0.021656065908348808,1.1175997257232666,6.072276592254639,0.9241836667060852
1730865965.3333554,-1.676072597503662,1.1518168449401855,-9.866317749023438,-0.026390461632747345,-0.004103576118386478,0.023042870802216633,1.1180533170700073,6.017143726348877,0.9246614575386047
1730865965.3333554,-1.688549518585205,1.173169493675232,-9.839729309082031,-0.017202412040518693,-0.012204293415295397,0.022347776551834744,1.1180541515350342,6.017195701599121,0.9246652126312256
1730865965.3832452,-1.688549518585205,1.173169493675232,-9.839729309082031,-0.006421702303459309,-0.02050886790735952,0.01998452821270479,1.11818528175354,6.025646686553955,0.9253062605857849
1730865965.3832452,-1.7406500577926636,1.1670211553573608,-9.839791297912598,0.001584364029333465,-0.02710304217324504,0.017444051260615517,1.1181859970092773,6.025698184967041,0.9253103137016296
1730865965.4331973,-1.7592371702194214,1.1434805393218994,-9.807424545288086,0.0031876567068024092,-0.030316415674607064,0.016449862777888707,1.1187468767166138,5.978166103363037,0.924379289150238
1730865965.4832108,-1.7919294834136963,1.1425443887710571,-9.786770820617676,-0.0035951785758085585,-0.029251957193609374,0.018147626705815326,1.1189228296279907,5.983304023742676,0.9248749017715454
1730865965.5332005,-1.8289555311203003,1.1339582204818726,-9.734051704406738,-0.017701629966359655,-0.02399386651353079,0.02268661952265967,1.1190718412399292,5.988363742828369,0.925420343875885
1730865965.5832748,-1.8289555311203003,1.1339582204818726,-9.734051704406738,-0.035104448832672885,-0.01571589877262556,0.02947546553227086,1.1194387674331665,5.946326732635498,0.9242987632751465
1730865965.5832748,-1.906752586364746,1.1017496585845947,-9.722082138061523,-0.051378956477923135,-0.006214793193236138,0.03768341812961812,1.1194391250610352,5.94634485244751,0.92430180311203
1730865965.6332035,-1.906752586364746,1.1017496585845947,-9.722082138061523,-0.063905222384123,0.0030569217746989424,0.04553988829338987,1.119422197341919,5.949059009552002,0.9248160719871521
1730865965.6332035,-1.9440362453460693,1.0649313926696777,-9.711519241333008,-0.07223058347349236,0.011661874536700938,0.05000014746382373,1.1194216012954712,5.949075698852539,0.9248195290565491
1730865965.6832056,-1.954621434211731,1.0486096143722534,-9.747272491455078,-0.07780167038501515,0.020293169587105895,0.048619990074201445,1.118949294090271,5.909310340881348,0.9234758615493774
1730865965.733109,-1.9300211668014526,1.0519165992736816,-9.785317420959473,-0.08249667468594685,0.02989407157434593,0.04097646620346174,1.1185052394866943,5.909847259521484,0.9240155816078186
1730865965.7832572,-1.8917458057403564,1.0662336349487305,-9.863221168518066,-0.08510490317614541,0.039411890379270925,0.027604690097981742,1.1178704500198364,5.9104509353637695,0.9246214032173157
1730865965.8331983,-1.8917458057403564,1.0662336349487305,-9.863221168518066,-0.08003248762544445,0.04488892664223822,0.008454869409217598,1.1170216798782349,5.911168098449707,0.9252811074256897
1730865965.8331983,-1.8261340856552124,1.0515388250350952,-9.917787551879883,-0.06161254348100066,0.04237551721826302,-0.016951272057587348,1.117013692855835,5.911174774169922,0.9252867102622986
1730865965.8832433,-1.7325536012649536,1.0188775062561035,-9.973783493041992,-0.028393670103912815,0.03172241898550875,-0.04845573098272702,1.1173577308654785,5.878290176391602,0.9236447811126709
1730865965.9331484,-1.7325536012649536,1.0188775062561035,-9.973783493041992,0.016352155196704556,0.01713188738370571,-0.08395061995448658,1.1165083646774292,5.878063201904297,0.9239121079444885
1730865965.9331484,-1.6438817977905273,1.0134690999984741,-9.997303009033203,0.06410367086582881,0.004214816762681435,-0.11677821152289138,1.1165028810501099,5.878061771392822,0.9239131808280945
1730865965.9832146,-1.6068297624588013,1.0392526388168335,-10.010113716125488,0.10287775062225152,-0.0035739993163189663,-0.13619781656851432,1.1167269945144653,5.844445705413818,0.9227654337882996
1730865966.0331244,-1.5930547714233398,1.1113393306732178,-9.983500480651855,0.12413208641666026,-0.006538364374236662,-0.13430552444922675,1.1164064407348633,5.8424553871154785,0.922365665435791
1730865966.0831685,-1.6152253150939941,1.2080261707305908,-9.939994812011719,0.12619419666576503,-0.008678206406074682,-0.11116347130611294,1.1165218353271484,5.8172607421875,0.9215279817581177
1730865966.1329873,-1.6628810167312622,1.2549554109573364,-9.904179573059082,0.11112920714483951,-0.0159295761020645,-0.0729014472122832,1.116795539855957,5.814225196838379,0.9206531047821045
1730865966.183079,-1.7237470149993896,1.2498868703842163,-9.840123176574707,0.08213699150044566,-0.03137243194535622,-0.02809573823779639,1.1173135042190552,5.811105251312256,0.9196447134017944
1730865966.232996,-1.7540323734283447,1.1959750652313232,-9.810408592224121,0.043066979889319054,-0.0511167160152906,0.015116361238911854,1.117048740386963,5.787830829620361,0.9195958971977234
1730865966.282932,-1.7761001586914062,1.1373709440231323,-9.77637004852295,-0.001344834616489909,-0.0661167881482863,0.051359943136644805,1.1166242361068726,5.765083312988281,0.9193964004516602
1730865966.3329697,-1.7739691734313965,1.080772876739502,-9.734260559082031,-0.04379696495144777,-0.06776506183104729,0.07745866242591645,1.1170275211334229,5.75973653793335,0.9188681840896606
1730865966.3838212,-1.7863746881484985,1.0190056562423706,-9.72805404663086,-0.07448445881350542,-0.05221900379701688,0.09091372917859955,1.1162469387054443,5.739140033721924,0.9186995029449463
1730865966.4338863,-1.7863746881484985,1.0190056562423706,-9.72805404663086,-0.08586653489056441,-0.021967431147602384,0.09095117420191658,1.116173267364502,5.732726097106934,0.9186400771141052
1730865966.4338863,-1.763444423675537,0.9958710074424744,-9.702902793884277,-0.07729696977881967,0.014614258391158796,0.07970255817339401,1.1161680221557617,5.732543468475342,0.9186416864395142
1730865966.4838243,-1.7485802173614502,0.980993390083313,-9.72205638885498,-0.0543747007568611,0.04627227242060171,0.06141549559981669,1.1159229278564453,5.726362705230713,0.9187725782394409
1730865966.5338418,-1.7739217281341553,0.9647471904754639,-9.749009132385254,-0.025177287629326337,0.06467799759558847,0.04095747525636628,1.1156666278839111,5.712734699249268,0.9186689257621765
1730865966.5839176,-1.776928424835205,1.0090956687927246,-9.792386054992676,0.002494003763162214,0.06809109003457992,0.021996989486653087,1.1153162717819214,5.706725597381592,0.9189643859863281
1730865966.6337254,-1.776928424835205,1.0090956687927246,-9.792386054992676,0.022434172281727942,0.05908789282491208,0.005769387489576046,1.1149948835372925,5.689696788787842,0.9186806082725525
1730865966.6337254,-1.7719019651412964,1.0469619035720825,-9.85647201538086,0.031323895681107494,0.04089893633256993,-0.00831897996467651,1.1149929761886597,5.68965482711792,0.9186823964118958
1730865966.6840096,-1.742720127105713,1.0767850875854492,-9.918389320373535,0.029835064397422173,0.016940811672100035,-0.021575674058155053,1.1147509813308716,5.683328628540039,0.918923020362854
1730865966.733826,-1.7308605909347534,1.0838773250579834,-9.983128547668457,0.022360008577837005,-0.008771948764872308,-0.036163929636135565,1.114569067955017,5.6696038246154785,0.9186078310012817
1730865966.7839155,-1.7244657278060913,1.1198302507400513,-10.016728401184082,0.01476938993071951,-0.03244380666451523,-0.054556027456385325,1.1144435405731201,5.6629767417907715,0.9186142683029175
1730865966.8337839,-1.7244657278060913,1.1198302507400513,-10.016728401184082,0.011024132415370112,-0.05089535631175042,-0.07585704783413619,1.1148308515548706,5.649674415588379,0.918290913105011
1730865966.8337839,-1.6922295093536377,1.1217204332351685,-10.01152515411377,0.011455525772882526,-0.06146170565657557,-0.0934848349116563,1.114830732345581,5.649628639221191,0.9182892441749573
1730865966.8839517,-1.6949405670166016,1.091368556022644,-10.003122329711914,0.01431653126587987,-0.06243115489965757,-0.09911830873716358,1.1148240566253662,5.642594337463379,0.9179089665412903
1730865966.9338105,-1.6541407108306885,1.079060673713684,-9.937772750854492,0.01827094011064029,-0.05348406360481231,-0.08833682234441842,1.1153627634048462,5.630035877227783,0.9177256226539612
1730865966.9837117,-1.6971153020858765,1.0559735298156738,-9.882655143737793,0.02283831953596489,-0.036038948791531675,-0.06221610085831651,1.1155003309249878,5.622619152069092,0.9169954657554626
1730865967.0336804,-1.7184339761734009,1.0200108289718628,-9.829143524169922,0.026411010408106773,-0.013509936850664492,-0.02587017874178633,1.1166586875915527,5.607656955718994,0.917007565498352
1730865967.0837424,-1.7796587944030762,0.9819168448448181,-9.78043270111084,0.02504025181902579,0.009587887301270172,0.013590530421801538,1.1170333623886108,5.599545478820801,0.9162613153457642
1730865967.1336548,-1.7767276763916016,0.9837790727615356,-9.749464988708496,0.015067847912245708,0.029254621459565797,0.04891488206034836,1.1174544095993042,5.5915632247924805,0.9156001210212708
1730865967.1838517,-1.7815088033676147,1.03798508644104,-9.75819206237793,-0.0033134872250312935,0.04260346454290344,0.07448179027336611,1.1179534196853638,5.583736419677734,0.9160557389259338
1730865967.2337184,-1.7815088033676147,1.03798508644104,-9.75819206237793,-0.02565417336848491,0.047620007620355106,0.08761771587871137,1.1183432340621948,5.576237201690674,0.915839672088623
1730865967.2337184,-1.7619465589523315,1.1153185367584229,-9.77953052520752,-0.04507269578033138,0.04329915698614755,0.08802697030487266,1.1183454990386963,5.57619047164917,0.9158390164375305
1730865967.283684,-1.7306779623031616,1.2181533575057983,-9.794438362121582,-0.05463058695991675,0.029322866258885753,0.07638932606470505,1.1186338663101196,5.56881856918335,0.9158276915550232
1730865967.3336196,-1.73723566532135,1.2622041702270508,-9.825244903564453,-0.050129434342178966,0.004643627545551169,0.054464811580146696,1.1187940835952759,5.561418533325195,0.9159797430038452
1730865967.3837023,-1.7728885412216187,1.2536513805389404,-9.841352462768555,-0.03235255352414975,-0.03218130853203797,0.025556199315798278,1.1193206310272217,5.558549404144287,0.9163068532943726
1730865967.4336104,-1.7957485914230347,1.2329119443893433,-9.852080345153809,-0.007419284107641019,-0.07858874636999635,-0.005804316044643708,1.1193714141845703,5.55154275894165,0.9165524244308472
1730865967.4835632,-1.8130037784576416,1.187165379524231,-9.869086265563965,0.015364650001144217,-0.12306466667316392,-0.03397858363061098,1.1202205419540405,5.541968822479248,0.9166383743286133
1730865967.5335834,-1.8130037784576416,1.187165379524231,-9.869086265563965,0.02779109459871134,-0.14792068590532362,-0.053107907927107706,1.1204081773757935,5.53420877456665,0.9166871905326843
1730865967.5335834,-1.8403993844985962,1.1168467998504639,-9.861696243286133,0.02684218511191599,-0.14096097406188082,-0.05949949534641119,1.1204102039337158,5.534138202667236,0.91668701171875
1730865967.5836523,-1.8365612030029297,1.1099493503570557,-9.855596542358398,0.015362706568658565,-0.10367569545375696,-0.053221428850089986,1.1219216585159302,5.521658420562744,0.9167876839637756
1730865967.6335382,-1.8015090227127075,1.1125519275665283,-9.858222961425781,-0.0005511037833640991,-0.04859217555321847,-0.03774414842229449,1.1235356330871582,5.50770378112793,0.9168545603752136
1730865967.683565,-1.7416749000549316,1.0947171449661255,-9.853496551513672,-0.013998412242553028,0.00744308815586473,-0.01857700626128478,1.1240315437316895,5.4984846115112305,0.9166129231452942
1730865967.7336876,-1.7416749000549316,1.0947171449661255,-9.853496551513672,-0.018850169929046853,0.049332430539187705,-0.0013267975667782626,1.1244906187057495,5.489251136779785,0.9163439273834229
1730865967.7336876,-1.707353949546814,1.0896289348602295,-9.870576858520508,-0.011829839506674824,0.06914212198152365,0.010191084744742295,1.1244932413101196,5.489195346832275,0.9163422584533691
1730865967.7836096,-1.6856294870376587,1.0882185697555542,-9.87708854675293,0.00635943621013096,0.06804123088305869,0.014583991248878865,1.1249275207519531,5.480285167694092,0.9160947203636169
1730865967.833548,-1.6856732368469238,1.1131680011749268,-9.89499282836914,0.03214899409099373,0.053425371828366666,0.012271493204438022,1.1257339715957642,5.476189136505127,0.9163602590560913
1730865967.8835711,-1.6620116233825684,1.1451038122177124,-9.884458541870117,0.06032675087467734,0.03389020342986431,0.004906654015626162,1.1263484954833984,5.467931270599365,0.9161993265151978
1730865967.9334772,-1.6620116233825684,1.1451038122177124,-9.884458541870117,0.08409052314842119,0.015274481851005049,-0.004531975218262575,1.127752423286438,5.457163333892822,0.9163544178009033
1730865967.9334772,-1.6606212854385376,1.1801331043243408,-9.870457649230957,0.09631558378019349,-0.00023627715520859946,-0.012107756939595595,1.1277568340301514,5.457123756408691,0.916353702545166
1730865967.9834714,-1.653437852859497,1.1797866821289062,-9.851520538330078,0.09300554900253956,-0.012559790462392901,-0.014567192945177752,1.128814458847046,5.448598861694336,0.9161874651908875
1730865968.0334425,-1.653437852859497,1.1797866821289062,-9.851520538330078,0.0757059004871733,-0.0220756227333459,-0.010745170751707972,1.1300872564315796,5.4399895668029785,0.9159889221191406
1730865968.0334425,-1.6758476495742798,1.1824043989181519,-9.821070671081543,0.050484087781894935,-0.029039797805255875,-0.0014570906179463628,1.1300936937332153,5.439949035644531,0.9159879088401794
1730865968.0835173,-1.7237505912780762,1.1566532850265503,-9.81063461303711,0.024337782568984924,-0.033547282428585457,0.0115527952411819,1.1314879655838013,5.4312944412231445,0.915790855884552
1730865968.1334534,-1.7996176481246948,1.1426687240600586,-9.782665252685547,0.0012172168165803096,-0.03534935702067237,0.026688266763913147,1.131371259689331,5.4314093589782715,0.9160953760147095
1730865968.1835039,-1.7996176481246948,1.1426687240600586,-9.782665252685547,-0.01904321896462397,-0.033797935891445155,0.042465221117484936,1.1326043605804443,5.423334121704102,0.9160585403442383
1730865968.1835039,-1.8628112077713013,1.1092867851257324,-9.77823543548584,-0.037277415414811714,-0.028397634959011316,0.05602121448723692,1.132611870765686,5.42328405380249,0.9160586595535278
1730865968.2334023,-1.8774480819702148,1.0935637950897217,-9.79169750213623,-0.05208841279838428,-0.019203849580107204,0.06282380577415296,1.133485198020935,5.4138946533203125,0.9160430431365967
1730865968.2834685,-1.8534674644470215,1.108945369720459,-9.822172164916992,-0.06135626549092606,-0.006962328808993726,0.0593131420508487,1.1346153020858765,5.399239540100098,0.9159117937088013
1730865968.3333826,-1.7973651885986328,1.1064001321792603,-9.855999946594238,-0.06333831173295082,0.006104226716897546,0.04536898623328986,1.13546621799469,5.389791488647461,0.9161903262138367
1730865968.3833833,-1.7973651885986328,1.1064001321792603,-9.855999946594238,-0.05581345262425624,0.01636709301880864,0.02416231403495974,1.1361647844314575,5.3804192543029785,0.9165539741516113
1730865968.3833833,-1.749116063117981,1.0848197937011719,-9.900351524353027,-0.03733933712577246,0.021091666251576418,0.00041244703990377714,1.1361699104309082,5.38034200668335,0.9165571928024292
1730865968.4334073,-1.749116063117981,1.0848197937011719,-9.900351524353027,-0.009288790527560962,0.020476763601898224,-0.02186379122717031,1.136786937713623,5.3710150718688965,0.9169237017631531
1730865968.4334073,-1.6887575387954712,1.0780417919158936,-9.944061279296875,0.024578836913172027,0.017206471844673665,-0.04095465608459529,1.1367907524108887,5.370957374572754,0.9169257879257202
1730865968.4834383,-1.660573959350586,1.0784896612167358,-9.943114280700684,0.060225796690608416,0.014485224670899294,-0.057413002833997306,1.1369775533676147,5.369648456573486,0.9165502786636353
1730865968.5333052,-1.6808581352233887,1.0688133239746094,-9.9386625289917,0.09394004330856907,0.01426222453532239,-0.07213494406206636,1.137727975845337,5.359964370727539,0.9161940813064575
1730865968.5834394,-1.6808581352233887,1.0688133239746094,-9.9386625289917,0.11976730820342157,0.01636707812887441,-0.08331249218670193,1.138843297958374,5.351115703582764,0.9159907102584839
1730865968.5834394,-1.6925055980682373,1.0484857559204102,-9.91047477722168,0.12920013398586191,0.01894727123260876,-0.08602510637775106,1.1388520002365112,5.351054668426514,0.915988564491272
1730865968.6333168,-1.7340891361236572,1.0040960311889648,-9.874168395996094,0.11684905221144165,0.020388361052314192,-0.07601614530462503,1.1398934125900269,5.344594478607178,0.9157021045684814
1730865968.6832635,-1.7513102293014526,0.9668171405792236,-9.831408500671387,0.08507443003862673,0.021119868211337163,-0.05312208281221101,1.1415067911148071,5.336081504821777,0.9151690006256104
1730865968.7332773,-1.7513102293014526,0.9668171405792236,-9.831408500671387,0.04283759431250489,0.022946358048885236,-0.021647395178655472,1.1432873010635376,5.327587127685547,0.9145399928092957
1730865968.7332773,-1.7555934190750122,0.9132131338119507,-9.825553894042969,0.0016522304324358625,0.027036985447866726,0.011255813733605798,1.1432995796203613,5.327530384063721,0.9145355820655823
1730865968.783267,-1.7511773109436035,0.8991687297821045,-9.808719635009766,-0.028965797932202803,0.03379160231385216,0.03860836788827256,1.1429436206817627,5.322060585021973,0.9146748781204224
1730865968.833155,-1.7669599056243896,0.9138646125793457,-9.811017036437988,-0.044663715910759856,0.04323352595884811,0.056250983521996284,1.1444175243377686,5.313915252685547,0.9142789840698242
1730865968.8833268,-1.7647291421890259,0.9623916149139404,-9.817171096801758,-0.04645170465852724,0.05284660066603368,0.06282931422920278,1.1457785367965698,5.305883884429932,0.9140317440032959
1730865968.9331322,-1.7647291421890259,0.9623916149139404,-9.817171096801758,-0.0387926546699012,0.05626432602521065,0.058547712197835,1.1452357769012451,5.302237033843994,0.9142672419548035
1730865968.9331322,-1.774051547050476,0.9942019581794739,-9.836055755615234,-0.02719443616870266,0.047316741903372594,0.04520739024082934,1.1452423334121704,5.302190780639648,0.9142672419548035
1730865968.9830694,-1.7563841342926025,1.0308074951171875,-9.850176811218262,-0.01616332455776025,0.02549213740939791,0.026421928733843133,1.1462771892547607,5.2947821617126465,0.9142966866493225
1730865969.0331802,-1.7418923377990723,1.052126407623291,-9.863423347473145,-0.007906302599819892,-0.0038477592413855566,0.006362487616296694,1.147301197052002,5.287261962890625,0.9143676161766052
1730865969.0830772,-1.7634446620941162,1.1164103746414185,-9.859697341918945,-0.0023012586028858095,-0.03411919658701656,-0.011814300448531628,1.1483010053634644,5.279778957366943,0.914431095123291
1730865969.1331055,-1.7613576650619507,1.1499154567718506,-9.857751846313477,0.001709160834345194,-0.06187073786908838,-0.026404775263560866,1.147367238998413,5.277637958526611,0.9144327044487
1730865969.1830616,-1.7668864727020264,1.152148723602295,-9.854114532470703,0.00462165423467722,-0.08663633029653911,-0.0365172354135411,1.1476470232009888,5.265286922454834,0.9143415093421936
1730865969.2330203,-1.7597706317901611,1.146106243133545,-9.849930763244629,0.0062107010354449325,-0.10622817661677825,-0.04120811377534936,1.1485528945922852,5.256842613220215,0.914154589176178
1730865969.2830868,-1.7832831144332886,1.1196283102035522,-9.831854820251465,0.006225118243997298,-0.11424617839676064,-0.039472000246875125,1.1489243507385254,5.248010635375977,0.9141416549682617
1730865969.3329446,-1.7911642789840698,1.0579688549041748,-9.824539184570312,0.004694161253008755,-0.10452391339459095,-0.03127970578500535,1.149843454360962,5.238985061645508,0.9137939810752869
1730865969.3830001,-1.793712854385376,1.0126854181289673,-9.833224296569824,0.0018358565288972971,-0.07635478800055691,-0.01852092935283571,1.1506426334381104,5.229697227478027,0.9129915237426758
1730865969.432937,-1.7517714500427246,1.0202561616897583,-9.849518775939941,-0.0016196283511055328,-0.035174348081290885,-0.004856444644705641,1.1515973806381226,5.220245838165283,0.9125064015388489
1730865969.4829564,-1.7155946493148804,1.0792349576950073,-9.881749153137207,-0.00364843189590302,0.00848283215559935,0.005416805845699852,1.1525505781173706,5.209327220916748,0.9115840792655945
1730865969.532836,-1.6973638534545898,1.1483683586120605,-9.885079383850098,-0.0012704025984038231,0.04107438495913105,0.0089854768784365,1.1535186767578125,5.199763298034668,0.9110742211341858
1730865969.5827827,-1.6990910768508911,1.1914793252944946,-9.90003490447998,0.0068317077333914554,0.05147515578002233,0.005227164204339609,1.1544958353042603,5.1902947425842285,0.9105809926986694
1730865969.6338701,-1.7048535346984863,1.1952179670333862,-9.894710540771484,0.0181909475114997,0.03641544324711681,-0.003310346609943857,1.1555320024490356,5.180685043334961,0.9100767970085144
1730865969.6838133,-1.7279154062271118,1.140415906906128,-9.889106750488281,0.027993210498863084,0.0014666679844839593,-0.012591115516850708,1.156594157218933,5.171419620513916,0.9095683097839355
1730865969.7338028,-1.727390170097351,1.0967813730239868,-9.850716590881348,0.03210252408445222,-0.04131913371364498,-0.019081877950633864,1.1561170816421509,5.174680233001709,0.9088501930236816
1730865969.7837937,-1.7448590993881226,1.0502889156341553,-9.854978561401367,0.02881498286529182,-0.07720428222979596,-0.02052285920368179,1.157219409942627,5.16614294052124,0.9082460403442383
1730865969.8337355,-1.7205950021743774,1.0371060371398926,-9.837763786315918,0.019275772593447718,-0.09366421398713565,-0.016459058348767396,1.1581429243087769,5.15939998626709,0.9062822461128235
1730865969.8838043,-1.7044275999069214,1.004769206047058,-9.838481903076172,0.007025132575613695,-0.08512184610752206,-0.008589499358900413,1.1593626737594604,5.150285720825195,0.9054722189903259
1730865969.9337204,-1.6762114763259888,1.0011883974075317,-9.852025985717773,-0.0032541675005490923,-0.055304549715300404,2.367889181772477e-05,1.1605819463729858,5.141035556793213,0.9046549797058105
1730865969.9836867,-1.6579885482788086,0.9812003374099731,-9.872231483459473,-0.0073633580649467055,-0.015117070173687398,0.006185973183033128,1.161787986755371,5.131697654724121,0.903845489025116
1730865970.0337353,-1.6788157224655151,1.0039273500442505,-9.869159698486328,-0.00308099045947842,0.02312016231328483,0.007447189252800778,1.1613558530807495,5.133373737335205,0.90313321352005
1730865970.0836577,-1.6788157224655151,1.0039273500442505,-9.869159698486328,0.008542777735580714,0.050494174856660835,0.0030841607560468474,1.1624501943588257,5.1248650550842285,0.9023754000663757
1730865970.0836577,-1.7302862405776978,0.9892690777778625,-9.866273880004883,0.022598780001492944,0.06284952488026284,-0.00503386319698306,1.1624568700790405,5.124814510345459,0.9023708701133728
1730865970.1336935,-1.7302862405776978,0.9892690777778625,-9.866273880004883,0.03177725082715235,0.060560047888750426,-0.013071879969207806,1.1634153127670288,5.1194610595703125,0.9003653526306152
1730865970.1336935,-1.7561147212982178,1.0005706548690796,-9.84821891784668,0.030184218249573083,0.04779967198023598,-0.01739352091532732,1.1634231805801392,5.1194071769714355,0.9003595113754272
1730865970.1836424,-1.7561147212982178,1.0005706548690796,-9.84821891784668,0.017116975806347627,0.030384894062671426,-0.016278206618778213,1.1634081602096558,5.106399059295654,0.8974369168281555
1730865970.1836424,-1.7367112636566162,1.0267400741577148,-9.844929695129395,-0.002401218207360941,0.013165495491553995,-0.01020972069214458,1.1634150743484497,5.106343746185303,0.8974297642707825
1730865970.2335315,-1.7292639017105103,1.0034098625183105,-9.847564697265625,-0.02040874852380943,-0.001042739316649713,-0.001467841928677128,1.1645309925079346,5.097166538238525,0.8962411880493164
1730865970.283596,-1.7082710266113281,1.0320013761520386,-9.856908798217773,-0.029718034173975953,-0.011082906921525597,0.006739661077226514,1.1655887365341187,5.087940216064453,0.8950547575950623
1730865970.3336132,-1.7297741174697876,1.0265306234359741,-9.872505187988281,-0.026854123391913065,-0.017029996576848356,0.01153330331033384,1.1665875911712646,5.078566551208496,0.8938771486282349
