Timestamp,IMU_Linear_Acc_X,IMU_Linear_Acc_Y,IMU_Linear_Acc_Z,Filtered_X,Filtered_Y,Filtered_Z,Pose_X,Pose_Y,Pose_Z
1730865950.3840535,-1.8243703842163086,0.9407444000244141,-9.798154830932617,-0.0814634253103146,-0.0008775660562326793,0.024728511964953365,1.1779212951660156,3.4704182147979736,1.1859074831008911
1730865950.5338778,-1.402429223060608,1.2469379901885986,-9.80485725402832,-0.24894372380781254,0.037143329609013606,0.07704257449741364,1.1902891397476196,3.4737234115600586,1.1971385478973389
1730865950.5837739,-1.2801685333251953,1.27745521068573,-9.844583511352539,-0.2140117689085817,0.022669811224364365,0.08011488569693506,1.1926615238189697,3.4767496585845947,1.1995506286621094
1730865950.6338754,-1.3144124746322632,1.2810062170028687,-9.876189231872559,-0.11809014205774518,-0.019340605129236292,0.06934616318351149,1.1969335079193115,3.4821994304656982,1.2038944959640503
1730865950.6837897,-1.3720238208770752,1.2254197597503662,-9.91110610961914,0.017565824145691626,-0.08397408906938031,0.04568597789167877,1.1987708806991577,3.4845433235168457,1.2057627439498901
1730865950.7338083,-1.4993278980255127,1.1518988609313965,-9.931300163269043,0.15945524854645096,-0.15624209192855842,0.012433945865253457,1.1973605155944824,3.4675159454345703,1.2040318250656128
1730865950.78379,-1.6006672382354736,1.0863429307937622,-9.86929702758789,0.2709975759946263,-0.21570440484422043,-0.024838709739658536,1.2010324001312256,3.4722039699554443,1.2077608108520508
1730865950.8337855,-1.81550133228302,1.01986563205719,-9.81452465057373,0.3213291863011478,-0.24216662304937034,-0.0566777823362451,1.2038978338241577,3.4613733291625977,1.2096054553985596
1730865950.8837059,-1.9375649690628052,0.9927679896354675,-9.77560806274414,0.29365809722233926,-0.2229217393131905,-0.07096080988461646,1.2071256637573242,3.465501070022583,1.2128721475601196
1730865950.9336746,-2.0457820892333984,0.9714118242263794,-9.726194381713867,0.1943294948006345,-0.16090417670765567,-0.06036840622438937,1.2118619680404663,3.4715569019317627,1.2176650762557983
1730865950.9836621,-2.0869340896606445,1.0083929300308228,-9.737180709838867,0.05318344674991878,-0.07577348712983872,-0.02820632041679608,1.294488549232483,3.5632753372192383,1.3004977703094482
1730865951.0336392,-2.0562994480133057,1.051559329032898,-9.758321762084961,-0.0897934989033922,0.005628926878927968,0.013898601796106271,1.4837287664413452,3.80572509765625,1.4916763305664062
1730865951.083622,-1.9736506938934326,1.1039338111877441,-9.822582244873047,-0.19765756636839116,0.060851609251208895,0.05114126569431847,1.662992000579834,4.020543575286865,1.6731270551681519
1730865951.133597,-1.9302725791931152,1.1401413679122925,-9.887577056884766,-0.24396047659076317,0.07858516333007345,0.06992739935657664,1.8500341176986694,4.2614850997924805,1.8632080554962158
1730865951.1835477,-1.8705997467041016,1.1601102352142334,-9.892549514770508,-0.2214627600248396,0.06102077282001951,0.0631986002092103,2.0206573009490967,4.466395378112793,2.037163496017456
1730865951.233644,-1.852792739868164,1.1702474355697632,-9.919771194458008,-0.14621030203109892,0.021634732648454582,0.03415845205100414,2.205885887145996,4.706435203552246,2.226716995239258
1730865951.2836158,-1.850260853767395,1.1229956150054932,-9.914119720458984,-0.04943638128262123,-0.02126115797507597,-0.005455628918133554,2.368701457977295,4.901409149169922,2.393484354019165
1730865951.3335752,-1.8229795694351196,1.0839333534240723,-9.910886764526367,0.0365703027796888,-0.05145736362774257,-0.041271382864691994,2.551811456680298,5.138705730438232,2.58109450340271
1730865951.3836124,-1.8229795694351196,1.0839333534240723,-9.910886764526367,0.09043123751406952,-0.059797521404072185,-0.062394441417352606,2.707671880722046,5.323044300079346,2.740248441696167
1730865951.3836124,-1.7985893487930298,1.0479875802993774,-9.888747215270996,0.10682491159910967,-0.04637135279513373,-0.06478219257267291,2.7089455127716064,5.324688911437988,2.7415497303009033
1730865951.4335694,-1.7535266876220703,0.9978740811347961,-9.872357368469238,0.09391897524628129,-0.018620758396910256,-0.050962439152174584,2.8590264320373535,5.5005693435668945,2.8942620754241943
1730865951.4836032,-1.7225205898284912,0.9698752164840698,-9.863229751586914,0.06672671316831394,0.013534852769788323,-0.027416379413244357,3.040010690689087,5.733451843261719,3.0786666870117188
1730865951.533507,-1.668954610824585,0.9353963732719421,-9.8529052734375,0.04012098329276911,0.041672700578164426,-0.0018409836533022257,3.2203056812286377,5.9653449058532715,3.2621965408325195
1730865951.583536,-1.6359572410583496,0.9215210676193237,-9.852986335754395,0.024253290702884525,0.060693482698885914,0.01905284273403509,3.401451349258423,6.198356628417969,3.4465317726135254
1730865951.6334298,-1.6144894361495972,0.9229671359062195,-9.850465774536133,0.02372583756772504,0.069746496569858,0.03144468478158724,3.5362794399261475,6.351161003112793,3.5833635330200195
1730865951.6834772,-1.6067534685134888,0.9610587358474731,-9.857247352600098,0.03781299252078749,0.07104840791541304,0.034986035513380725,3.7157695293426514,6.581739902496338,3.766007423400879
1730865951.7344527,-1.6067534685134888,0.9610587358474731,-9.857247352600098,0.05964629328023975,0.066184501456723,0.031514312363528904,3.8449342250823975,6.725829601287842,3.8969318866729736
1730865951.7344527,-1.5976148843765259,1.0084751844406128,-9.867647171020508,0.07797963840778845,0.05435378507969302,0.023448365322034634,3.846090316772461,6.727311611175537,3.8981075286865234
1730865951.7843916,-1.6114647388458252,1.0301212072372437,-9.874835968017578,0.08338485056065961,0.03478057926224004,0.013136828458249723,4.022095680236816,6.952833652496338,4.077021598815918
1730865951.8344188,-1.5975745916366577,1.018343448638916,-9.889068603515625,0.07336350867477989,0.009228055905282246,0.0025924818828773283,4.199923992156982,7.1804962158203125,4.257609844207764
1730865951.8845086,-1.6075562238693237,0.9683912396430969,-9.893061637878418,0.05220069912505148,-0.017931105778145655,-0.0069598793674269955,4.310674667358398,7.2971882820129395,4.369417190551758
1730865951.934418,-1.626556634902954,0.905511736869812,-9.897462844848633,0.027370967917497983,-0.0404023037626932,-0.015052322792607096,4.486146450042725,7.520833492279053,4.547305107116699
1730865951.9844997,-1.6508206129074097,0.8503293991088867,-9.890620231628418,0.005369177713088352,-0.05089396178042194,-0.02109772180412701,4.585765361785889,7.6212687492370605,4.647457599639893
1730865952.034278,-1.668717384338379,0.7852784395217896,-9.882685661315918,-0.0107487370060368,-0.04374954071640435,-0.023873191681400494,4.75787878036499,7.839748382568359,4.821784496307373
1730865952.0843859,-1.668717384338379,0.7852784395217896,-9.882685661315918,-0.020862179938630494,-0.01898345776888762,-0.022314627445050507,4.845324516296387,7.922114372253418,4.9094390869140625
1730865952.0843859,-1.666137456893921,0.7490000128746033,-9.847501754760742,-0.02580433472941858,0.01604377953160624,-0.01648464178518771,4.846354961395264,7.923418045043945,4.910482406616211
1730865952.134316,-1.6244356632232666,0.7482098340988159,-9.854060173034668,-0.026019966898259996,0.04992556576461364,-0.0074381074757208804,5.015646457672119,8.137733459472656,5.081930637359619
1730865952.1843207,-1.5937052965164185,0.7874472141265869,-9.882034301757812,-0.021072862135741735,0.07267485020035072,0.003224828673694469,5.186458110809326,8.354202270507812,5.254972457885742
1730865952.2342668,-1.5707736015319824,0.8576775789260864,-9.910017013549805,-0.00986303573310679,0.07885051864659709,0.013075035037816936,5.252376556396484,8.406322479248047,5.321125030517578
1730865952.2842512,-1.587791085243225,0.9232023358345032,-9.935588836669922,0.00763084291127139,0.06743140166265729,0.018853618282189098,5.31250524520874,8.450970649719238,5.381475925445557
1730865952.3342435,-1.5839658975601196,0.9715844392776489,-9.951668739318848,0.0277414358493076,0.04115646252859565,0.018001767957159284,5.477027893066406,8.65854549407959,5.548221588134766
1730865952.3842833,-1.6285433769226074,0.9795622229576111,-9.949352264404297,0.043258996359142536,0.006518622127911428,0.010572705581467612,5.523611545562744,8.684157371520996,5.594961166381836
1730865952.4342704,-1.6731714010238647,0.9589577913284302,-9.931402206420898,0.047458642771546655,-0.02744942132403492,-0.000439228984256215,5.685361862182617,8.887284278869629,5.758735179901123
1730865952.4843504,-1.7608195543289185,0.9085907340049744,-9.892904281616211,0.03749387444486785,-0.051495897387818595,-0.010266167255172999,5.847716331481934,9.090935707092285,5.922998905181885
1730865952.5342863,-1.8198007345199585,0.8613375425338745,-9.845653533935547,0.013914026839599348,-0.058124140328198265,-0.013765954815801233,5.871047496795654,9.0828275680542,5.945775985717773
1730865952.5842535,-1.8743910789489746,0.8098325729370117,-9.812735557556152,-0.020684591633173526,-0.04402644736355594,-0.007233307800542983,6.029888153076172,9.280938148498535,6.106357574462891
1730865952.634168,-1.8814746141433716,0.8248398900032043,-9.78154468536377,-0.06021360682258148,-0.012929042528864051,0.00909185240399401,6.038596153259277,9.253402709960938,6.114485263824463
1730865952.6841817,-1.8178749084472656,0.9012826681137085,-9.799697875976562,-0.09395636238592484,0.02403911495299035,0.030062084332444512,6.193774700164795,9.446453094482422,6.271698474884033
1730865952.7341259,-1.7743693590164185,0.9895063042640686,-9.821540832519531,-0.10973709817642747,0.051687929286253605,0.047592740144261986,6.18768835067749,9.398980140686035,6.265371322631836
1730865952.7841399,-1.7426655292510986,1.0704177618026733,-9.879551887512207,-0.09963163255671337,0.05663492203049283,0.053971328539642774,6.338674545288086,9.586864471435547,6.419075012207031
1730865952.834016,-1.7173658609390259,1.144403100013733,-9.899643898010254,-0.06504095390281438,0.033993609735510404,0.04506351569317831,6.317804336547852,9.520005226135254,6.398066520690918
1730865952.884022,-1.7238008975982666,1.201750636100769,-9.902915954589844,-0.01733901767773664,-0.009649468166109447,0.022389397288071135,6.46491003036499,9.702766418457031,6.548340320587158
1730865952.9340377,-1.7645459175109863,1.1820310354232788,-9.86949348449707,0.027330179190221196,-0.059607349143705426,-0.0067115738184073456,6.430558681488037,9.617388725280762,6.513647079467773
1730865952.9839852,-1.83077871799469,1.1543887853622437,-9.82955265045166,0.054790699839519806,-0.09930416611734344,-0.03140540679622842,6.393590927124023,9.529094696044922,6.476099491119385
1730865953.0339887,-1.8594506978988647,1.0799541473388672,-9.79504680633545,0.05785474256760787,-0.11596905510079311,-0.04234565294828174,6.533347129821777,9.700243949890137,6.618497371673584
1730865953.0839276,-1.8404059410095215,1.018115758895874,-9.759230613708496,0.03891727769813513,-0.10416802064137039,-0.03621330874649713,6.673041343688965,9.870895385742188,6.760611057281494
1730865953.1339393,-1.7897979021072388,0.9865586757659912,-9.764646530151367,0.008680784948647224,-0.0660940399421989,-0.016099963205301895,6.8130669593811035,10.041666984558105,6.9029364585876465
1730865953.1840162,-1.698754072189331,1.0258070230484009,-9.786855697631836,-0.018457894356072327,-0.009894761952822058,0.011224947350324217,6.7411208152771,9.904681205749512,6.8293657302856445
1730865953.2339149,-1.6195176839828491,1.096706748008728,-9.849236488342285,-0.029827420371911648,0.051348966289046886,0.037519837862237906,6.876810073852539,10.069317817687988,6.967403411865234
1730865953.2839737,-1.6195176839828491,1.096706748008728,-9.849236488342285,-0.01962479487346702,0.10028808192412988,0.05405785499226401,7.013220310211182,10.235095024108887,7.106352806091309
1730865953.2839737,-1.5690386295318604,1.1863417625427246,-9.894932746887207,0.00861945642142619,0.119858045503664,0.053731891131743266,7.014188766479492,10.236272811889648,7.107339859008789
1730865953.3338645,-1.5596836805343628,1.2637195587158203,-9.941064834594727,0.045469802850998865,0.10090399782579405,0.034063675091201805,6.916186332702637,10.066083908081055,7.007633686065674
1730865953.384044,-1.5596836805343628,1.2637195587158203,-9.941064834594727,0.08103718363081062,0.0469436756897877,-0.0012471187956755135,7.048788070678711,10.226540565490723,7.142662525177002
1730865953.384044,-1.59630286693573,1.3051685094833374,-9.960204124450684,0.1063042975545736,-0.02516536542896585,-0.04218081137082681,7.049747467041016,10.227701187133789,7.143638610839844
1730865953.4338489,-1.6284863948822021,1.3273265361785889,-9.94701862335205,0.11298153350909633,-0.09076804582102263,-0.07509993076246098,7.180094242095947,10.385086059570312,7.276033401489258
1730865953.4840422,-1.6553434133529663,1.316172480583191,-9.920696258544922,0.09649304094592012,-0.13006922436314872,-0.08935707349631154,7.061940670013428,10.187743186950684,7.155062198638916
1730865953.5338588,-1.6599690914154053,1.2806527614593506,-9.860176086425781,0.05956779576806439,-0.13698370657484676,-0.08206198292566688,6.945471286773682,9.994307518005371,7.035128116607666
1730865953.583919,-1.6599690914154053,1.2806527614593506,-9.860176086425781,0.012738746626601372,-0.11688072045437199,-0.05742693965959551,7.0698652267456055,10.1411714553833,7.160304546356201
1730865953.583919,-1.6765570640563965,1.1801283359527588,-9.819402694702148,-0.029448944390387023,-0.07994906363299988,-0.02404016773523351,7.070761203765869,10.142228126525879,7.161205291748047
1730865953.6338382,-1.6720153093338013,1.0732054710388184,-9.787087440490723,-0.05544267064490983,-0.03570634373561178,0.008523100901667437,6.944448471069336,9.936040878295898,7.0311503410339355
1730865953.6838663,-1.6663193702697754,0.9791675806045532,-9.763050079345703,-0.061661734573891444,0.010330450283497385,0.03363337666417127,7.06401252746582,10.076298713684082,7.151608943939209
1730865953.7339408,-1.6707918643951416,0.9239218235015869,-9.750232696533203,-0.051813323215421925,0.0551632594478055,0.048922769860556464,7.18395471572876,10.217248916625977,7.2726945877075195
1730865953.7837968,-1.6707918643951416,0.9239218235015869,-9.750232696533203,-0.03316124222972903,0.09493924443347265,0.054781460025078846,7.038156032562256,9.987289428710938,7.123422622680664
1730865953.7837968,-1.6994575262069702,0.9047927856445312,-9.781537055969238,-0.013351712244120725,0.12500815844498644,0.05291700302506716,7.038698673248291,9.98792552947998,7.123971939086914
1730865953.8338177,-1.7137017250061035,0.9450106620788574,-9.824131965637207,0.0013324179295012952,0.14068623982666115,0.044852167545497694,7.153546333312988,10.12263011932373,7.240278720855713
1730865953.8838098,-1.7199853658676147,1.0237822532653809,-9.900525093078613,0.006922007942056217,0.1371490860163027,0.030269187371828158,7.001735687255859,9.887277603149414,7.084921836853027
1730865953.933771,-1.7121604681015015,1.109671950340271,-9.941783905029297,0.002749839481679313,0.11161981852562167,0.007815967596848796,6.8559722900390625,9.661434173583984,6.935558795928955
1730865953.9838536,-1.7125602960586548,1.1412822008132935,-9.991416931152344,-0.007835801188704163,0.06706097631039475,-0.021097134665365818,6.963465690612793,9.786688804626465,7.04447078704834
1730865954.033785,-1.7383090257644653,1.1559922695159912,-9.991555213928223,-0.018943077577786183,0.013551156949993688,-0.050205449994957345,7.0703206062316895,9.911338806152344,7.15268087387085
1730865954.0837812,-1.7700742483139038,1.0934906005859375,-9.966474533081055,-0.02603269156430506,-0.03491603937351824,-0.07161003691503759,6.907789707183838,9.665319442749023,6.986359596252441
1730865954.1337168,-1.7931220531463623,1.0574482679367065,-9.924484252929688,-0.028585788918830783,-0.06615861157871167,-0.08009246017803748,7.010668754577637,9.784512519836426,7.090304374694824
1730865954.1838078,-1.8051255941390991,0.9757516384124756,-9.861323356628418,-0.028802157119595544,-0.07355673268190009,-0.07366912250628578,6.844631195068359,9.536260604858398,6.920083999633789
1730865954.233678,-1.8243852853775024,0.909440279006958,-9.807530403137207,-0.02868632739112099,-0.05684328445635781,-0.05255654376795194,6.943425178527832,9.64976978302002,7.0196638107299805
1730865954.2837088,-1.831785798072815,0.8526820540428162,-9.77783489227295,-0.028834253992474294,-0.021659093044451922,-0.01994067468975247,6.7742815017700195,9.39845085144043,6.846202373504639
1730865954.3335953,-1.7967559099197388,0.8678164482116699,-9.767488479614258,-0.028654116082127087,0.021699516820961506,0.01712678870936257,6.869155406951904,9.506743431091309,6.941840171813965
1730865954.3836603,-1.7605763673782349,0.9291214346885681,-9.799591064453125,-0.02632466010100719,0.060117759248406205,0.049155862585549576,6.698289394378662,9.255478858947754,6.766758441925049
1730865954.433618,-1.710945725440979,1.0032237768173218,-9.818702697753906,-0.019086412396806293,0.08046972460367063,0.06731961742746809,6.789716720581055,9.359501838684082,6.859235763549805
1730865954.4836576,-1.7012803554534912,1.053971767425537,-9.838756561279297,-0.005275696368047176,0.07456321583111002,0.06698304568530408,6.617281436920166,9.195356369018555,6.682729244232178
1730865954.5335536,-1.6881037950515747,1.0379717350006104,-9.849413871765137,0.01345797965611244,0.04378541835368248,0.04984382745103562,6.7050604820251465,9.296162605285645,6.7718186378479
1730865954.5836434,-1.7113316059112549,0.9963055849075317,-9.854170799255371,0.032123128714326675,-1.0215272964561595e-05,0.02300900478138902,6.532227993011475,9.164639472961426,6.59514856338501
1730865954.6335702,-1.745736837387085,0.9328804016113281,-9.85682487487793,0.04439202679832137,-0.038667137886838815,-0.004254255743158874,6.616678714752197,9.262489318847656,6.680802822113037
1730865954.683587,-1.7479357719421387,0.8603179454803467,-9.831171989440918,0.04544603168026887,-0.05613566263557425,-0.02408682329654931,6.701510429382324,9.3605318069458,6.76669454574585
1730865954.733575,-1.7491909265518188,0.843873918056488,-9.839099884033203,0.03430442967016218,-0.045368645213755214,-0.03221182229290566,6.518625736236572,9.192020416259766,6.5795817375183105
1730865954.7836032,-1.719849944114685,0.8954249024391174,-9.856204986572266,0.01456171877815449,-0.010252022068446257,-0.02863948099732666,6.600286483764648,9.28662109375,6.66193151473999
1730865954.8335345,-1.69038987159729,1.013269066810608,-9.893735885620117,-0.0063820134766687485,0.03426177337357382,-0.01765662845070695,6.418900489807129,9.173395156860352,6.476074695587158
1730865954.8834958,-1.6407148838043213,1.1782209873199463,-9.94733715057373,-0.0198373871546211,0.06561742712184512,-0.006431765789288592,6.248471260070801,9.155691146850586,6.301149845123291
1730865954.9335127,-1.5968351364135742,1.3148117065429688,-9.980710983276367,-0.020051343054131514,0.06488386371450508,-0.0015863976888921465,6.323741912841797,9.247020721435547,6.37695837020874
1730865954.9834745,-1.5788203477859497,1.3853707313537598,-9.986942291259766,-0.007208373997602301,0.02803342578410606,-0.005654836000544201,6.398859977722168,9.338322639465332,6.452638149261475
1730865955.0333755,-1.59587824344635,1.345052719116211,-9.986001014709473,0.013515420441991565,-0.033686887047658126,-0.01641796275664187,6.220673561096191,9.233573913574219,6.270205020904541
1730865955.0834413,-1.6471034288406372,1.241713523864746,-9.92891788482666,0.03477083766704778,-0.1007037994734454,-0.0288050424758709,6.293025970458984,9.32262897491455,6.342911720275879
1730865955.1334794,-1.7504501342773438,1.1041513681411743,-9.85863208770752,0.04823993122369477,-0.14958907940728244,-0.03625807136744832,6.365574836730957,9.411482810974121,6.415628910064697
1730865955.1834555,-1.8304283618927002,0.9711137413978577,-9.74976921081543,0.045017457608976366,-0.15698186741834239,-0.031202593238944545,6.181941509246826,9.327592849731445,6.227151393890381
1730865955.2333221,-1.9156988859176636,0.9128645658493042,-9.670672416687012,0.018997869447630662,-0.11006024122377067,-0.007795386982301842,6.2512311935424805,9.41317367553711,6.296225547790527
1730865955.2834413,-1.9156988859176636,0.9128645658493042,-9.670672416687012,-0.02686866450539655,-0.01905511365130518,0.032367713922884706,6.321084976196289,9.499302864074707,6.365902423858643
1730865955.2834413,-1.9563443660736084,0.903839647769928,-9.61693286895752,-0.07918043245435148,0.08350628876041145,0.07824975149038171,6.321439266204834,9.499739646911621,6.366256237030029
1730865955.3332965,-1.9563443660736084,0.903839647769928,-9.61693286895752,-0.12212684226110063,0.16153792015883903,0.11630029493777927,6.390219688415527,9.58494758605957,6.435229778289795
1730865955.3332965,-1.9662718772888184,0.9583784937858582,-9.625625610351562,-0.14684264758124918,0.1947719237947368,0.13901919006811464,6.390635967254639,9.585465431213379,6.4356489181518555
1730865955.3834836,-1.923431158065796,1.0500279664993286,-9.705564498901367,-0.1533757867248314,0.18275105738277692,0.14615147960058134,6.193028926849365,9.499523162841797,6.2338643074035645
1730865955.4342368,-1.8367159366607666,1.1513241529464722,-9.823517799377441,-0.145945713253894,0.13703199958388965,0.13969623214039667,6.259773254394531,9.585768699645996,6.302181720733643
1730865955.4842105,-1.7143102884292603,1.2665013074874878,-9.948857307434082,-0.12613496989550524,0.07225255468108847,0.11851177771490227,6.067088603973389,9.553105354309082,6.106192588806152
1730865955.5342638,-1.5934988260269165,1.3747628927230835,-10.055098533630371,-0.09072827976598305,0.0012646810511626819,0.07848150690185898,6.129604339599609,9.637458801269531,6.171388626098633
1730865955.5842412,-1.4835880994796753,1.4298890829086304,-10.111140251159668,-0.03756904705852296,-0.06539470011655862,0.019736680432096816,5.94231653213501,9.62607479095459,5.981326580047607
1730865955.6342456,-1.443881630897522,1.4316983222961426,-10.103753089904785,0.027835620258198114,-0.11831625058825763,-0.047460134322157295,6.001852512359619,9.708970069885254,6.043735504150391
1730865955.6842623,-1.4952565431594849,1.3775787353515625,-10.049909591674805,0.0915669836382957,-0.14887963678833147,-0.1050462078507007,5.8201799392700195,9.636448860168457,5.858675479888916
1730865955.7341847,-1.6399167776107788,1.2702287435531616,-9.953142166137695,0.135197153802009,-0.1503965768073533,-0.13475830505256065,5.877528190612793,9.716861724853516,5.91790771484375
1730865955.7842758,-1.8158236742019653,1.1555479764938354,-9.814238548278809,0.1420668795547707,-0.1205575693815905,-0.12585231399204308,5.702213287353516,9.64295482635498,5.73769474029541
1730865955.8341494,-1.987913966178894,1.0372942686080933,-9.684324264526367,0.10390409418646461,-0.06353176585482445,-0.07908223584523259,5.538825988769531,9.574334144592285,5.568977355957031
1730865955.8841746,-2.1046435832977295,0.9711049795150757,-9.589987754821777,0.026879930507985327,0.009060554776349747,-0.00666038812845228,5.592497825622559,9.6511812210083,5.6229047775268555
1730865955.9341092,-2.1483964920043945,0.9394667744636536,-9.553539276123047,-0.06713280408877144,0.07948892438081008,0.0709589388399698,5.645978927612305,9.727937698364258,5.6767706871032715
1730865955.9841945,-2.121264934539795,0.9565346837043762,-9.586009979248047,-0.15029476752229026,0.1305157653707891,0.13309977525939826,5.6994428634643555,9.80532455444336,5.731150150299072
1730865956.0340698,-2.039263963699341,0.9619608521461487,-9.645097732543945,-0.20245022723851222,0.1533841358963573,0.1672967524584356,5.526961326599121,9.724515914916992,5.554659843444824
1730865956.0840585,-1.9312196969985962,0.9948458671569824,-9.719782829284668,-0.21575718733138483,0.14941008648660487,0.17072784345176667,5.577120780944824,9.800885200500488,5.607437610626221
1730865956.1340225,-1.9312196969985962,0.9948458671569824,-9.719782829284668,-0.19093107584394017,0.12527366214864805,0.1463606573152424,5.62672758102417,9.87752914428711,5.660564422607422
1730865956.1340225,-1.8107657432556152,1.0069457292556763,-9.799466133117676,-0.13382860037275257,0.08845716737676382,0.10012663772734981,5.626998424530029,9.877950668334961,5.6608567237854
1730865956.184022,-1.7375962734222412,1.0039891004562378,-9.883305549621582,-0.05408347220913323,0.04626131337652238,0.0397453506482473,5.675993919372559,9.954336166381836,5.713888168334961
1730865956.2339506,-1.6901278495788574,0.9899908900260925,-9.963652610778809,0.037312494542765265,0.006011695561954869,-0.02754762199732453,5.495991230010986,9.861769676208496,5.530892372131348
1730865956.2840056,-1.6511867046356201,1.0167818069458008,-10.022025108337402,0.1287811668533439,-0.02589779871572543,-0.0957328846559853,5.543500900268555,9.937365531921387,5.582082748413086
1730865956.3338845,-1.626352071762085,1.0566904544830322,-10.058816909790039,0.20493373885540345,-0.04573920945315967,-0.15608703060839935,5.371206283569336,9.84615421295166,5.405405521392822
1730865956.3839247,-1.6089198589324951,1.1275053024291992,-10.08283519744873,0.24771611769852436,-0.05392845747300564,-0.19576486692037626,5.417612552642822,9.919923782348633,5.453680038452148
1730865956.433835,-1.548673152923584,1.161179542541504,-10.08017635345459,0.24657472836972477,-0.05483770380006639,-0.2044725409481083,5.253241539001465,9.829965591430664,5.282862663269043
1730865956.4838657,-1.5168516635894775,1.1840696334838867,-10.051786422729492,0.20663105612316437,-0.05412865260697527,-0.18127240671620115,5.101522922515869,9.7479829788208,5.124272346496582
1730865956.533793,-1.4813148975372314,1.1318827867507935,-9.987784385681152,0.14557923384730792,-0.05457344474643439,-0.13428340696757385,5.145524978637695,9.817967414855957,5.1670145988464355
1730865956.5838237,-1.4938756227493286,1.0512200593948364,-9.905617713928223,0.08374774922292427,-0.05316235131546278,-0.07545786220301898,5.190036296844482,9.88817024230957,5.209710121154785
1730865956.6337664,-1.5253958702087402,0.9455553293228149,-9.82075309753418,0.035715927204337326,-0.04221960385305913,-0.01470324462672203,5.234524726867676,9.957983016967773,5.252128601074219
1730865956.683823,-1.6069215536117554,0.8572342395782471,-9.72569751739502,0.0065619330625505175,-0.013515383335391375,0.043746300577395786,5.078136920928955,9.865118026733398,5.088048458099365
1730865956.7337284,-1.7038275003433228,0.803158164024353,-9.66273307800293,-0.007888487209496158,0.03611565981798828,0.0996730916584874,5.120870590209961,9.933396339416504,5.128829002380371
1730865956.7837372,-1.8090814352035522,0.8006678223609924,-9.635173797607422,-0.017406891821330973,0.09830557549411507,0.14983476615762023,4.970918655395508,9.842439651489258,4.971632480621338
1730865956.8336544,-1.8927173614501953,0.8072279691696167,-9.634767532348633,-0.031652798092241384,0.15310496585804367,0.1842644902839082,4.831662654876709,9.759139060974121,4.826025485992432
1730865956.883653,-1.9440635442733765,0.8602471947669983,-9.668485641479492,-0.05428961276470733,0.17980397873674253,0.1920794858965533,4.871087551116943,9.825814247131348,4.864795207977295
1730865956.9336395,-1.9826576709747314,0.9154075980186462,-9.733817100524902,-0.08049038366933303,0.16829445180939273,0.16903166749518794,4.910400867462158,9.893022537231445,4.904074668884277
1730865956.9837236,-1.9989776611328125,0.9727869033813477,-9.810914993286133,-0.101542652680457,0.12149093974517916,0.11902180936184599,4.771574020385742,9.80715274810791,4.760539531707764
1730865957.033659,-1.9968469142913818,1.0430967807769775,-9.891023635864258,-0.11171712999830485,0.051667049907391044,0.051637146802726366,4.8087077140808105,9.873321533203125,4.798660755157471
1730865957.083661,-1.9078164100646973,1.1033395528793335,-9.982389450073242,-0.10904256325326839,-0.024022393444585687,-0.020326078567279988,4.845765590667725,9.939882278442383,4.837026596069336
1730865957.1336153,-1.811535358428955,1.1505705118179321,-10.037453651428223,-0.0916362153881374,-0.08900992088722204,-0.08439331911793754,4.7071943283081055,9.850197792053223,4.694482803344727
1730865957.1835968,-1.684177279472351,1.158101201057434,-10.068291664123535,-0.05720835386788479,-0.1329976669105471,-0.132658657290024,4.742237091064453,9.914814949035645,4.7308197021484375
1730865957.2335598,-1.607757568359375,1.1402833461761475,-10.083259582519531,-0.006944779220273062,-0.15228905983030766,-0.1612331615628097,4.777224540710449,9.979120254516602,4.766814708709717
1730865957.2836456,-1.5794684886932373,1.0847864151000977,-10.054425239562988,0.05250591549219055,-0.14623291912073158,-0.1673288039839546,4.812277317047119,10.043067932128906,4.802407741546631
1730865957.3335211,-1.6266781091690063,1.0333889722824097,-10.00820255279541,0.11194928663310394,-0.11656554292212333,-0.15069331286321555,4.671092987060547,9.943077087402344,4.655721187591553
1730865957.3835816,-1.7076492309570312,0.985153317451477,-9.948284149169922,0.16160330825685393,-0.06895488092136902,-0.11573280863142077,4.540751934051514,9.850549697875977,4.519526958465576
1730865957.4335127,-1.7534598112106323,0.9991579055786133,-9.872818946838379,0.1895779987125723,-0.013774834189938037,-0.06997337701202466,4.574036121368408,9.911237716674805,4.5513200759887695
1730865957.4836228,-1.761965274810791,1.019677996635437,-9.80775260925293,0.18468683037172287,0.03492263378964788,-0.021224239358625628,4.607893943786621,9.97214126586914,4.5830979347229
1730865957.5335631,-1.7332777976989746,1.0601274967193604,-9.740081787109375,0.14522842343543513,0.06380493748683022,0.025002054100675703,4.642014980316162,10.0329008102417,4.61474084854126
1730865957.5835302,-1.7360866069793701,1.0578792095184326,-9.706241607666016,0.0829390161299551,0.06593438954349225,0.06724142785020004,4.676525592803955,10.094008445739746,4.6465959548950195
1730865957.633568,-1.7078824043273926,1.0534155368804932,-9.675688743591309,0.017167069443443976,0.043364577941727725,0.10729055612395993,4.541040420532227,9.988690376281738,4.504294395446777
1730865957.683474,-1.7233083248138428,1.0290294885635376,-9.678693771362305,-0.03434013129651836,0.006012466311609583,0.14592405914875572,4.574251651763916,10.048548698425293,4.53525447845459
1730865957.733404,-1.7296462059020996,1.0342074632644653,-9.693284034729004,-0.061915537648273664,-0.03169332007734555,0.1771551010851496,4.445014953613281,9.945502281188965,4.400216579437256
1730865957.7834828,-1.7782323360443115,1.0552161931991577,-9.738544464111328,-0.06592515361465234,-0.05632308794759886,0.18844390055409355,4.476773262023926,10.004090309143066,4.43082857131958
1730865957.833414,-1.8271551132202148,1.1032934188842773,-9.756502151489258,-0.05470955958167399,-0.06194624972954791,0.16995182617500074,4.508302688598633,10.062386512756348,4.461812496185303
1730865957.8834038,-1.8271551132202148,1.1032934188842773,-9.756502151489258,-0.04020337407225408,-0.052790212449944945,0.12295315971930132,4.5397844314575195,10.120671272277832,4.493232250213623
1730865957.8834038,-1.8970963954925537,1.1459044218063354,-9.80887222290039,-0.03314699009915231,-0.03939208019996588,0.05905679514470466,4.539936542510986,10.120953559875488,4.493385314941406
1730865957.933347,-1.9201931953430176,1.1988476514816284,-9.833016395568848,-0.03994851401833775,-0.03234691715177726,-0.006817429728342303,4.408482074737549,10.010726928710938,4.357885360717773
1730865957.983341,-1.93211030960083,1.2210768461227417,-9.855461120605469,-0.06104008502181667,-0.03774620093932498,-0.06265727175360138,4.438503265380859,10.067519187927246,4.388098239898682
1730865958.0332818,-1.8952357769012451,1.1917591094970703,-9.863088607788086,-0.0889474885027094,-0.053892588199203076,-0.10060394741144005,4.313445091247559,9.960034370422363,4.2587761878967285
1730865958.0833924,-1.8952357769012451,1.1917591094970703,-9.863088607788086,-0.1097856654847872,-0.07131146861961028,-0.11613440636042323,4.342103004455566,10.015754699707031,4.287554740905762
1730865958.0833924,-1.8420480489730835,1.143674373626709,-9.883455276489258,-0.11137665655809656,-0.07880117438780707,-0.10926659711527172,4.342256546020508,10.016054153442383,4.287708759307861
1730865958.1332362,-1.8420480489730835,1.143674373626709,-9.883455276489258,-0.09053075764597218,-0.07028284457372914,-0.08571764232094722,4.222299098968506,9.911145210266113,4.1636223793029785
1730865958.1332362,-1.7618697881698608,1.129366159439087,-9.8805570602417,-0.052836553850216,-0.04687948494022441,-0.055012907557108304,4.222442150115967,9.911430358886719,4.163765907287598
1730865958.1833367,-1.694387674331665,1.115341305732727,-9.905627250671387,-0.00777774888131072,-0.015461854878264378,-0.026516257946839802,4.249392509460449,9.96519660949707,4.1907854080200195
1730865958.2332082,-1.6100733280181885,1.094612956047058,-9.931663513183594,0.03679614660047813,0.014839853756998646,-0.006528320929960949,4.27633810043335,10.018879890441895,4.217722415924072
1730865958.2832747,-1.5418109893798828,1.0807050466537476,-9.972339630126953,0.07842825195361633,0.03724793334833176,0.001887670024964234,4.15924596786499,9.913320541381836,4.09628438949585
1730865958.3331993,-1.499990701675415,1.0729589462280273,-10.015694618225098,0.11833503132367464,0.04968581227317862,-0.0018118828904499216,4.05072021484375,9.814759254455566,3.983283519744873
1730865958.383289,-1.4388550519943237,1.0682786703109741,-10.016959190368652,0.1541608512932876,0.05316642464918256,-0.015030765468549508,4.076592445373535,9.866889953613281,4.008327960968018
1730865958.4332135,-1.4234479665756226,1.0768064260482788,-10.036955833435059,0.1769534425647572,0.04925736956832201,-0.031538522601116496,3.9735820293426514,9.770678520202637,3.9001128673553467
1730865958.4831707,-1.4234479665756226,1.0768064260482788,-10.036955833435059,0.17817725608431895,0.03962639008271936,-0.043926899259046394,3.9993488788604736,9.821887016296387,3.924014091491699
1730865958.4831707,-1.4432932138442993,1.1116139888763428,-10.005428314208984,0.15664105180711901,0.026525344636518983,-0.047315393026045614,3.9994866847991943,9.822158813476562,3.924140691757202
1730865958.5341525,-1.5085569620132446,1.1484904289245605,-9.962830543518066,0.11758145263381073,0.012075697808102324,-0.04036461696283092,4.025872230529785,9.87391185760498,3.948157548904419
1730865958.5831633,-1.5824558734893799,1.1850098371505737,-9.87814998626709,0.06829048208926644,-0.0031344820262441883,-0.02356913891897752,3.924797773361206,9.77682113647461,3.8412082195281982
1730865958.6341417,-1.7026240825653076,1.1562330722808838,-9.797066688537598,0.015055502209447381,-0.019515906879814762,0.0020947094788594635,3.9508533477783203,9.827950477600098,3.8644022941589355
1730865958.6841717,-1.8434793949127197,1.0966352224349976,-9.701960563659668,-0.03761037704853491,-0.03492615857711936,0.034390944474700626,3.976376533508301,9.878021240234375,3.887192964553833
1730865958.7341104,-1.9647480249404907,1.0394996404647827,-9.635427474975586,-0.08780408235480297,-0.04236047932047282,0.06968875618490442,4.0016913414001465,9.92789363861084,3.9100663661956787
1730865958.7841659,-2.0362460613250732,0.9632866978645325,-9.589738845825195,-0.1381487731703399,-0.03308135899153055,0.1056798776114347,3.8998019695281982,9.826555252075195,3.803389310836792
1730865958.8331368,-2.0580220222473145,0.9396564364433289,-9.595098495483398,-0.1921998076865546,-0.0030947339828925726,0.14138605183558015,3.923107862472534,9.87431526184082,3.8254730701446533
1730865958.8841126,-2.0580220222473145,0.9396564364433289,-9.595098495483398,-0.24359901163572067,0.04130751065029645,0.17128122651604344,3.825381278991699,9.776792526245117,3.724576473236084
1730865958.8841126,-2.0260348320007324,0.9472898840904236,-9.640368461608887,-0.2732084431667274,0.08417142650878612,0.18334566391606813,3.825507640838623,9.777066230773926,3.7247040271759033
1730865958.9341154,-1.9630955457687378,1.0134309530258179,-9.721592903137207,-0.26267047039422486,0.10850150266771522,0.1670588801893819,3.8472015857696533,9.824845314025879,3.7471306324005127
1730865958.984118,-1.895137906074524,1.0919886827468872,-9.815616607666016,-0.20808280193452744,0.10465999505444779,0.12079544907625928,3.75226092338562,9.729571342468262,3.6508538722991943
1730865959.0339692,-1.8222602605819702,1.1473636627197266,-9.905097961425781,-0.12098173097245082,0.07257896407029493,0.05167974218683116,3.7722690105438232,9.777048110961914,3.6731433868408203
1730865959.0840662,-1.7455374002456665,1.1361726522445679,-9.956357955932617,-0.02217331751035153,0.021303916142528006,-0.02667572201671054,3.681169271469116,9.685072898864746,3.581223726272583
1730865959.1339521,-1.700907826423645,1.1482601165771484,-10.000899314880371,0.06598460567324238,-0.03322601789278584,-0.09708604843824156,3.7003352642059326,9.73175048828125,3.6026504039764404
1730865959.1839936,-1.7207727432250977,1.1174755096435547,-10.020934104919434,0.12655859268584702,-0.07431661229823976,-0.14448468302912068,3.719855308532715,9.778565406799316,3.623898983001709
1730865959.233999,-1.7523990869522095,1.134559988975525,-9.988039016723633,0.15145380654706506,-0.09144194626940616,-0.1613559438944425,3.6309447288513184,9.685300827026367,3.5328054428100586
1730865959.2839696,-1.8286563158035278,1.1376848220825195,-9.950651168823242,0.14156264670809174,-0.08362851131055188,-0.14923266904837917,3.650357723236084,9.730502128601074,3.5524370670318604
1730865959.3339097,-1.8731988668441772,1.1633003950119019,-9.883402824401855,0.10452522523276281,-0.058566309515209955,-0.11557581461545087,3.565978765487671,9.639328956604004,3.464700937271118
1730865959.3839538,-1.8731988668441772,1.1633003950119019,-9.883402824401855,0.051566757754599284,-0.02829721853492118,-0.06946025851855793,3.5853495597839355,9.683647155761719,3.4832048416137695
1730865959.3839538,-1.87714421749115,1.2097761631011963,-9.829784393310547,-0.0037805468807120546,-0.0037032756584003184,-0.020445502464010026,3.4859728813171387,9.55186939239502,3.3812263011932373
1730865959.43391,-1.87714421749115,1.2097761631011963,-9.829784393310547,-0.04734487722821876,0.009140333541463493,0.02158794816815566,3.5046026706695557,9.595054626464844,3.3989102840423584
1730865959.43391,-1.8527741432189941,1.2444229125976562,-9.779115676879883,-0.06921578124718528,0.0097064122796601,0.0491640720775042,3.504690408706665,9.595258712768555,3.398993968963623
1730865959.483997,-1.7791498899459839,1.2536530494689941,-9.761033058166504,-0.06723505967874699,0.0014683172692308388,0.060337058224740094,3.5232255458831787,9.638570785522461,3.416827440261841
1730865959.5338774,-1.7433054447174072,1.2289862632751465,-9.7857084274292,-0.045151338512863806,-0.010813903933494289,0.05906817229214561,3.445441961288452,9.551736831665039,3.336167335510254
1730865959.583923,-1.7001326084136963,1.2023404836654663,-9.813427925109863,-0.009435720233051182,-0.022677859332904792,0.051834731550834456,3.4632084369659424,9.594274520874023,3.3537113666534424
1730865959.6338441,-1.658395528793335,1.1724835634231567,-9.855494499206543,0.0313062036768181,-0.029765564632483334,0.04253847698543321,3.3886685371398926,9.509160041809082,3.2766473293304443
1730865959.6838272,-1.589672565460205,1.1396898031234741,-9.88569164276123,0.06726878081649107,-0.028296300972594446,0.030729227710163474,3.3188796043395996,9.428959846496582,3.204465389251709
1730865959.733828,-1.5081108808517456,1.1046420335769653,-9.922158241271973,0.09111723402550262,-0.01720356748823253,0.014878935215260729,3.3358988761901855,9.4697847366333,3.221151351928711
1730865959.7838185,-1.4295170307159424,1.1049782037734985,-9.95274543762207,0.10121257176284566,0.0005818329710239444,-0.004081856663942634,3.3532161712646484,9.510720252990723,3.2379045486450195
1730865959.833836,-1.4295170307159424,1.1049782037734985,-9.95274543762207,0.10202012001876075,0.019679063365518928,-0.02325589550461022,3.3705737590789795,9.551178932189941,3.2544190883636475
1730865959.833836,-1.4276865720748901,1.1359474658966064,-9.951932907104492,0.10144008594158374,0.03496878019816266,-0.040129373563775626,3.3706605434417725,9.551380157470703,3.2545011043548584
1730865959.8838398,-1.4848183393478394,1.1582427024841309,-9.916403770446777,0.10571381581613436,0.04298549067386087,-0.053203481162263866,3.3009543418884277,9.467368125915527,3.1815781593322754
1730865959.9337692,-1.5948827266693115,1.1681678295135498,-9.850994110107422,0.11443551447797974,0.04212285565137192,-0.06078174838633047,3.2358922958374023,9.388153076171875,3.1130354404449463
1730865959.9839382,-1.7093874216079712,1.1369863748550415,-9.79179573059082,0.11866206879116933,0.03319718258832195,-0.059819228636729116,3.253232955932617,9.427835464477539,3.128281593322754
1730865960.0338023,-1.8193243741989136,1.1080282926559448,-9.737626075744629,0.10518030681889672,0.02023682639004897,-0.04701621064565852,3.1910505294799805,9.350419998168945,3.062039852142334
1730865960.083812,-1.884267807006836,1.1029753684997559,-9.714607238769531,0.06594902558774995,0.009310904649685495,-0.021993301974196085,3.208350896835327,9.389370918273926,3.0765295028686523
1730865960.1337838,-1.9105286598205566,1.1115912199020386,-9.716594696044922,0.005656404723022427,0.004728448589448468,0.010266689261199002,3.2257018089294434,9.428251266479492,3.0909719467163086
1730865960.1837988,-1.9257912635803223,1.116139531135559,-9.744019508361816,-0.05954420057002335,0.006130745300136958,0.04035643503693909,3.1646246910095215,9.350140571594238,3.025916814804077
1730865960.2337227,-1.9447674751281738,1.1083884239196777,-9.78177261352539,-0.11145619447528843,0.009778605891453119,0.058776791268842866,3.1811139583587646,9.388089179992676,3.0399768352508545
1730865960.28374,-1.942165493965149,1.0875669717788696,-9.824285507202148,-0.13830448833989686,0.012234572173689647,0.06005313403460361,3.121647596359253,9.311225891113281,2.977404832839966
1730865960.3336928,-1.9253342151641846,1.0885087251663208,-9.844911575317383,-0.13694364249292523,0.012539749484262699,0.04416348939971062,3.1371638774871826,9.348840713500977,2.9913992881774902
1730865960.383695,-1.9253342151641846,1.0885087251663208,-9.844911575317383,-0.11179418295360384,0.011481613577910773,0.01653128579213787,3.152383804321289,9.386520385742188,3.0054826736450195
1730865960.383695,-1.8715403079986572,1.0781447887420654,-9.8873929977417,-0.07224693123792579,0.00984885928889077,-0.013730889876730178,3.152461528778076,9.386714935302734,3.0055553913116455
1730865960.4336674,-1.8378441333770752,1.0401469469070435,-9.917705535888672,-0.028414730196942982,0.00820441573559445,-0.038514549450793294,3.1673974990844727,9.424149513244629,3.0195107460021973
1730865960.48365,-1.7672381401062012,1.032460331916809,-9.951805114746094,0.012911820029197767,0.007840845912050452,-0.05507017172179897,3.1065614223480225,9.343997955322266,2.9564568996429443
1730865960.5337403,-1.7021394968032837,1.0370874404907227,-9.975760459899902,0.04925114968562597,0.010420889254658047,-0.06554420558377803,3.1212756633758545,9.381185531616211,2.969846487045288
1730865960.5838394,-1.65043306350708,1.073177456855774,-10.0149564743042,0.07963004491662674,0.015626178686238418,-0.07248852678113074,3.0631704330444336,9.267293930053711,2.908834218978882
1730865960.6337297,-1.6014059782028198,1.14634108543396,-10.020565032958984,0.10191364950833177,0.01966429362328534,-0.07580835263609624,3.077770709991455,9.303444862365723,2.9213650226593018
1730865960.6836996,-1.5850491523742676,1.22859787940979,-9.987622261047363,0.11348950786413001,0.01679363536154449,-0.07358126932323225,3.0222198963165283,9.1773099899292,2.8621349334716797
1730865960.733647,-1.6096011400222778,1.2526041269302368,-9.945744514465332,0.11297277992525998,0.0027766435205727716,-0.063868685284954,3.037036418914795,9.212732315063477,2.873955249786377
1730865960.7837098,-1.665219783782959,1.2559261322021484,-9.857342720031738,0.1001824771303963,-0.02117196648919732,-0.04562609221272813,3.0520968437194824,9.248076438903809,2.885620594024658
1730865960.8336103,-1.7471556663513184,1.2027697563171387,-9.769553184509277,0.07502134656024198,-0.04701520847173567,-0.0184402000795973,3.0673489570617676,9.283272743225098,2.8971850872039795
1730865960.8836133,-1.8258168697357178,1.1118991374969482,-9.667461395263672,0.03705708707473529,-0.06357251036476684,0.01877528876068032,3.012066125869751,9.149002075195312,2.8374555110931396
1730865960.9335773,-1.8258168697357178,1.1118991374969482,-9.667461395263672,-0.012305125478301418,-0.06233644546154144,0.06621271101289308,3.0270824432373047,9.182914733886719,2.848720073699951
1730865960.9335773,-1.8815194368362427,1.0185134410858154,-9.608986854553223,-0.0653095535546886,-0.04202401994724522,0.11693340279400477,3.027167320251465,9.183106422424316,2.8487842082977295
1730865960.9835758,-1.8734042644500732,0.954424262046814,-9.58102798461914,-0.10798528610721253,-0.00863029637293815,0.1558924289796146,2.9737844467163086,9.033955574035645,2.791550636291504
1730865961.033538,-1.8734042644500732,0.954424262046814,-9.58102798461914,-0.12836074578276305,0.029266582203653514,0.170025861843324,2.9879889488220215,9.066793441772461,2.803126096725464
1730865961.033538,-1.824157476425171,0.9195178747177124,-9.613903045654297,-0.12306455181952995,0.0632060207504942,0.15653563835081216,2.988067388534546,9.066977500915527,2.803191900253296
1730865961.0836797,-1.7324042320251465,0.9404146075248718,-9.695297241210938,-0.09578492606896458,0.08504788576655357,0.12074314953581702,3.002004623413086,9.099990844726562,2.815143346786499
1730865961.133535,-1.6441199779510498,0.9858413338661194,-9.814929962158203,-0.05231409207190936,0.08963656222075048,0.07012202113954427,2.948709726333618,8.938922882080078,2.7598586082458496
1730865961.1836119,-1.5686087608337402,1.074684739112854,-9.920032501220703,0.0017671390818478922,0.07681667181374952,0.011027363261602929,2.9620754718780518,8.971383094787598,2.771817922592163
1730865961.2334654,-1.542607307434082,1.151999592781067,-10.003628730773926,0.058822477898341496,0.04946698804414049,-0.05019279787294123,2.910837411880493,8.794122695922852,2.718615770339966
1730865961.283573,-1.5542049407958984,1.2301385402679443,-10.041191101074219,0.10725930105400003,0.011366401381559284,-0.10504907516512274,2.9241859912872314,8.825762748718262,2.73002028465271
1730865961.3333614,-1.6225168704986572,1.2406723499298096,-10.066964149475098,0.13459649621209024,-0.03192467082373027,-0.1439279666015417,2.937638282775879,8.856915473937988,2.740950584411621
1730865961.3834236,-1.7253564596176147,1.2138913869857788,-10.027120590209961,0.13200210024090958,-0.07207697413479167,-0.15953101934556752,2.951571226119995,8.888280868530273,2.751622200012207
1730865961.4334004,-1.8377536535263062,1.1672279834747314,-9.96264362335205,0.09642890402129313,-0.10033938204699966,-0.1500738212022453,2.9009737968444824,8.706642150878906,2.697129487991333
1730865961.4834306,-1.8791604042053223,1.118408203125,-9.90227222442627,0.032111113399508395,-0.11070785280834547,-0.11956200629902788,2.9150102138519287,8.736383438110352,2.7067315578460693
1730865961.5334456,-1.8703622817993164,1.049418330192566,-9.87574577331543,-0.04646201079143454,-0.1007270832820376,-0.07530563458101124,2.8664393424987793,8.53520393371582,2.653765916824341
1730865961.5833516,-1.7904411554336548,0.9940613508224487,-9.860814094543457,-0.1154507907603352,-0.0714550104573469,-0.025983387322382406,2.8205270767211914,8.3201904296875,2.6035594940185547
1730865961.6333067,-1.6464136838912964,0.9628157019615173,-9.86606502532959,-0.15118162871650326,-0.028692737120128264,0.018852132205539322,2.8333213329315186,8.346653938293457,2.6121110916137695
1730865961.683353,-1.5627888441085815,0.9482263922691345,-9.848698616027832,-0.1407318777436613,0.016804652862826282,0.050134336039703534,2.845778226852417,8.373160362243652,2.62076735496521
1730865961.7333167,-1.5627888441085815,0.9482263922691345,-9.848698616027832,-0.08564405958067861,0.05337322178223856,0.06272491731564075,2.8579516410827637,8.399754524230957,2.6295650005340576
1730865961.7333167,-1.562458872795105,0.9341247081756592,-9.841981887817383,0.00015181105683872292,0.07408114831366133,0.05801473197174527,2.8580257892608643,8.399918556213379,2.629619598388672
1730865961.783527,-1.5797141790390015,0.9555282592773438,-9.840194702148438,0.09553601945909028,0.07883543637711128,0.04268642410110339,2.810702323913574,8.189783096313477,2.579904794692993
1730865961.8334281,-1.5797141790390015,0.9555282592773438,-9.840194702148438,0.1782240232899294,0.07210485129840391,0.02489553787671315,2.8228600025177,8.215359687805176,2.5885720252990723
1730865961.8334281,-1.656130313873291,1.0449622869491577,-9.828990936279297,0.22867173968887675,0.0586205378423369,0.010719940013265997,2.8229196071624756,8.215482711791992,2.588613986968994
1730865961.883437,-1.656130313873291,1.0449622869491577,-9.828990936279297,0.23348547856815197,0.0401914960310185,0.0027011820672872408,2.8356168270111084,8.241250991821289,2.5973334312438965
1730865961.883437,-1.7408385276794434,1.130565881729126,-9.812065124511719,0.1907210665248673,0.015888226120584728,0.0006282610337944604,2.8356850147247314,8.241386413574219,2.597379207611084
1730865961.933372,-1.7408385276794434,1.130565881729126,-9.812065124511719,0.1118368290425468,-0.015578027346965645,0.0030982471577219433,2.848714590072632,8.26699161529541,2.6060400009155273
1730865961.933372,-1.8037424087524414,1.1793253421783447,-9.80042552947998,0.01637587601789697,-0.05395460791173982,0.008546876171238421,2.848778009414673,8.267114639282227,2.60608172416687
1730865961.9834905,-1.8700915575027466,1.1633671522140503,-9.820185661315918,-0.07645564096312332,-0.09677032855129776,0.015514174567177609,2.8023016452789307,8.067794799804688,2.5566539764404297
1730865962.0333447,-1.9134926795959473,1.100498914718628,-9.80792236328125,-0.1530272381914852,-0.13826264742407468,0.022408535717971835,2.8148458003997803,8.091941833496094,2.565128803253174
1730865962.083408,-1.9134926795959473,1.100498914718628,-9.80792236328125,-0.20392008849602825,-0.1673375426962581,0.027409385312991856,2.769367218017578,7.899832248687744,2.5177602767944336
1730865962.083408,-1.9817607402801514,0.9967160820960999,-9.799867630004883,-0.22189914632132457,-0.17007740556191306,0.029063021361146153,2.7694225311279297,7.89993953704834,2.5177998542785645
1730865962.1332574,-2.009242534637451,0.8998187184333801,-9.762540817260742,-0.20626453009533924,-0.13847036602796287,0.027229201789385357,2.7806711196899414,7.9221367835998535,2.526085615158081
1730865962.1833553,-2.0146119594573975,0.8520634174346924,-9.732019424438477,-0.1670262857154078,-0.07553598732285977,0.023748174611211627,2.735908031463623,7.736833095550537,2.480649709701538
1730865962.2332752,-1.9653370380401611,0.8578269481658936,-9.763777732849121,-0.12030810875468563,0.006297468479630655,0.021619086565599403,2.693157911300659,7.560908794403076,2.4376776218414307
1730865962.2832632,-1.8760980367660522,0.9307280778884888,-9.811843872070312,-0.07825813136026011,0.08664203860803169,0.02181254385034321,2.7028868198394775,7.581028938293457,2.4456822872161865
1730865962.3331802,-1.7786275148391724,1.0387083292007446,-9.875558853149414,-0.04291331549328185,0.14032451953096445,0.020900539603275273,2.7124407291412354,7.601382255554199,2.4537205696105957
1730865962.3832405,-1.7020138502120972,1.1243410110473633,-9.926508903503418,-0.008263224865963347,0.14700854357013465,0.01282095997437641,2.7219765186309814,7.622193336486816,2.4618399143218994
1730865962.4332123,-1.6601722240447998,1.1989141702651978,-9.964488983154297,0.03364619283873852,0.10036873589085671,-0.007455183535917372,2.6786868572235107,7.448697566986084,2.4189634323120117
1730865962.4832904,-1.6342209577560425,1.2611186504364014,-9.975395202636719,0.0859206468056631,0.010970482700532701,-0.040402065642156273,2.688136577606201,7.468979835510254,2.426771402359009
1730865962.5331616,-1.622498869895935,1.2675787210464478,-9.962905883789062,0.14055738390878214,-0.09492693351509976,-0.07856869984534201,2.6467602252960205,7.3018951416015625,2.3852012157440186
1730865962.5832772,-1.639206886291504,1.2061913013458252,-9.937066078186035,0.17982382200327252,-0.18270443521578475,-0.10776350689008513,2.6566548347473145,7.3208231925964355,2.392392873764038
1730865962.6331246,-1.6860491037368774,1.1449236869812012,-9.880510330200195,0.18759415192971854,-0.22355469274780912,-0.11499047461820507,2.666935443878174,7.339109897613525,2.3992557525634766
1730865962.6834114,-1.7109571695327759,1.0855287313461304,-9.83228588104248,0.1592532430348911,-0.20571462792639195,-0.09545502164192798,2.627493143081665,7.174731254577637,2.3578243255615234
1730865962.7330935,-1.709753394126892,1.0741137266159058,-9.788422584533691,0.10289692366168221,-0.13707331321868174,-0.053404029970080626,2.638511896133423,7.191498756408691,2.3641293048858643
1730865962.7832174,-1.6724727153778076,1.0828081369400024,-9.795247077941895,0.03580062043781981,-0.04214996072237913,-0.0002227872079659035,2.600498914718628,7.059945583343506,2.3238437175750732
1730865962.8330767,-1.6206578016281128,1.0981696844100952,-9.837224006652832,-0.02145079881279751,0.04665426880961664,0.04862219459360234,2.6113498210906982,7.075616359710693,2.329845666885376
1730865962.8830912,-1.5427521467208862,1.13316011428833,-9.84755802154541,-0.05265297568235655,0.10270058760869608,0.07877569925614775,2.5746402740478516,6.963635444641113,2.291321039199829
1730865962.933006,-1.5629488229751587,1.1618047952651978,-9.863628387451172,-0.05199398377764977,0.11517662435582503,0.0825450068678762,2.584951877593994,6.979047775268555,2.2974166870117188
1730865962.9830446,-1.629149079322815,1.215698003768921,-9.845447540283203,-0.026559860591699423,0.08967545922202359,0.06218181793407904,2.5952231884002686,6.994803428649902,2.3037281036376953
1730865963.0340078,-1.6967530250549316,1.2590280771255493,-9.838217735290527,0.005626146761752807,0.04146758069486829,0.02871227831792299,2.605637311935425,7.010987758636475,2.31026029586792
1730865963.084012,-1.7413307428359985,1.2730633020401,-9.82457160949707,0.0236256686443388,-0.013309875705143515,-0.0037677310643504684,2.5684609413146973,6.9061598777771,2.272318124771118
1730865963.1339903,-1.7413307428359985,1.2730633020401,-9.82457160949707,0.014638897282980954,-0.0625716596487272,-0.024576656731546513,2.578528881072998,6.921405792236328,2.2785067558288574
1730865963.1339903,-1.7646113634109497,1.2583575248718262,-9.81188678741455,-0.018320993069912594,-0.09734019501180749,-0.029968985899126634,2.578613042831421,6.921532154083252,2.2785580158233643
1730865963.1839724,-1.7786732912063599,1.2127102613449097,-9.802888870239258,-0.05862752575377531,-0.11039845005135948,-0.02265756385350045,2.542593479156494,6.838707447052002,2.2418015003204346
1730865963.233917,-1.8130278587341309,1.14822256565094,-9.807696342468262,-0.08803019130594555,-0.09861814767571864,-0.008680363225276369,2.552175998687744,6.852993488311768,2.2476701736450195
1730865963.2838762,-1.809478998184204,1.100132703781128,-9.810400009155273,-0.09733255940450836,-0.06533461817516636,0.005602421195247563,2.561563730239868,6.867129802703857,2.2535572052001953
1730865963.333905,-1.797210454940796,1.1131501197814941,-9.829365730285645,-0.0878406226542123,-0.019048817139483983,0.01514847417373452,2.5254809856414795,6.79400110244751,2.21752667427063
1730865963.383851,-1.7991148233413696,1.125964879989624,-9.836786270141602,-0.06687160049819174,0.02937809643378554,0.017268935289820556,2.5342283248901367,6.80764627456665,2.2232813835144043
1730865963.4338167,-1.7826963663101196,1.1695894002914429,-9.845488548278809,-0.042612688442704064,0.06810924276861086,0.012245257062618406,2.4990525245666504,6.7568888664245605,2.188553810119629
1730865963.4838102,-1.7767739295959473,1.2048052549362183,-9.856528282165527,-0.020888355286334186,0.08639180294826491,0.002855619451366124,2.5073859691619873,6.7705888748168945,2.1941792964935303
1730865963.5337822,-1.8129676580429077,1.1983704566955566,-9.851751327514648,-0.004695399485744312,0.07943682489387438,-0.007175394411878349,2.4734861850738525,6.735054016113281,2.160787582397461
1730865963.5838563,-1.865580439567566,1.1427628993988037,-9.82577133178711,0.004402189303321046,0.05218712631903201,-0.014593258877988877,2.4813694953918457,6.748551368713379,2.166050910949707
1730865963.633715,-1.881205439567566,1.0834192037582397,-9.824111938476562,0.005214245856411355,0.01803704268018513,-0.01709533927474219,2.489713191986084,6.762905120849609,2.17157244682312
1730865963.68373,-1.863053321838379,1.0553536415100098,-9.826824188232422,-0.0025063753436527225,-0.006637632447764272,-0.01361019303144434,2.4558095932006836,6.733042240142822,2.138361692428589
1730865963.7337158,-1.8265241384506226,1.0528087615966797,-9.850543975830078,-0.01640877009920687,-0.010276597131307963,-0.005099816716277573,2.463895559310913,6.747132778167725,2.1436126232147217
1730865963.7837036,-1.7715882062911987,1.0776413679122925,-9.877630233764648,-0.030280904245337224,0.006821008103855696,0.004791772552150137,2.4715304374694824,6.760530948638916,2.148606777191162
1730865963.8336518,-1.7354477643966675,1.0973707437515259,-9.941924095153809,-0.0352594214772746,0.03231741884753083,0.010396271539597077,2.438215494155884,6.746503829956055,2.11616849899292
1730865963.8837056,-1.689695954322815,1.1317925453186035,-9.966397285461426,-0.02452009892717326,0.05031524285411611,0.0065703649346226176,2.445725440979004,6.760333061218262,2.121173620223999
1730865963.9335935,-1.689695954322815,1.1317925453186035,-9.966397285461426,0.0013662004571162057,0.05109563471721667,-0.007495848737187224,2.4531500339508057,6.774184703826904,2.1261398792266846
1730865963.9335935,-1.6389662027359009,1.1293141841888428,-9.971222877502441,0.03403997880186489,0.03471575329009118,-0.026686801196322607,2.453212022781372,6.774301052093506,2.1261813640594482
1730865963.9836588,-1.6623183488845825,1.1505361795425415,-9.938908576965332,0.06328067248440558,0.008298603059022325,-0.04319472075513516,2.420363187789917,6.7714972496032715,2.094364881515503
1730865964.0335605,-1.685981035232544,1.114296793937683,-9.907242774963379,0.0824051300381721,-0.0188135210837022,-0.050961729281176274,2.4281249046325684,6.78582239151001,2.099139928817749
1730865964.0836053,-1.685981035232544,1.114296793937683,-9.907242774963379,0.08810266161658273,-0.03818978510910227,-0.04737581043152594,2.396516799926758,6.773947238922119,2.068023204803467
1730865964.0836053,-1.7127622365951538,1.098321795463562,-9.828071594238281,0.07904332352607063,-0.04406437152334342,-0.03306170617401892,2.3965799808502197,6.774059772491455,2.068058490753174
1730865964.1335196,-1.7381293773651123,1.0863145589828491,-9.812661170959473,0.05692082841857653,-0.035502243568944034,-0.010840529522232672,2.404359817504883,6.787741184234619,2.072355031967163
1730865964.1835907,-1.7394286394119263,1.1070185899734497,-9.751754760742188,0.026836935868772727,-0.01699909425428229,0.016032015332813353,2.3741252422332764,6.7757391929626465,2.0423901081085205
1730865964.2335656,-1.7783422470092773,1.099996566772461,-9.74980354309082,-0.004627625803360786,0.004022428705579316,0.04450939708871965,2.381845474243164,6.789188861846924,2.046602964401245
1730865964.2834716,-1.775434136390686,1.1180026531219482,-9.734968185424805,-0.03145150604821259,0.02059091929932843,0.06995618033737004,2.3895111083984375,6.802652835845947,2.0509536266326904
1730865964.3334875,-1.775434136390686,1.1180026531219482,-9.734968185424805,-0.04945617816694243,0.028420384998300463,0.08562576040978821,2.3596293926239014,6.790248870849609,2.0220999717712402
1730865964.3334875,-1.7961090803146362,1.0978853702545166,-9.74190616607666,-0.057163476948406344,0.026860684195215104,0.08651616444938123,2.3596909046173096,6.790361404418945,2.0221376419067383
1730865964.3834748,-1.8024729490280151,1.096219539642334,-9.761283874511719,-0.055766450119288394,0.018842376243173795,0.07286278917952044,2.3669023513793945,6.803730487823486,2.026697874069214
1730865964.4334664,-1.8024729490280151,1.096219539642334,-9.761283874511719,-0.04824925366982766,0.00945043215069549,0.049219412512648525,2.337716579437256,6.791160583496094,1.9992314577102661
1730865964.4334664,-1.8615046739578247,1.0873790979385376,-9.789366722106934,-0.038467492191464225,0.0032242800051142727,0.02176554122785232,2.337775707244873,6.7912750244140625,1.9992713928222656
1730865964.4834557,-1.8615046739578247,1.0873790979385376,-9.789366722106934,-0.0304328263021905,0.001972235421343847,-0.0036653460192599572,2.3446083068847656,6.804593563079834,2.0039026737213135
1730865964.4834557,-1.8906596899032593,1.113863468170166,-9.796687126159668,-0.02746053489508314,0.004515478858778451,-0.02295366611122989,2.3446645736694336,6.804703712463379,2.0039408206939697
1730865964.533443,-1.8906596899032593,1.113863468170166,-9.796687126159668,-0.03128185294696585,0.00787145600921276,-0.03451054346983486,2.351398229598999,6.817990303039551,2.008509397506714
1730865964.533443,-1.8843986988067627,1.1354656219482422,-9.818350791931152,-0.04154144346309454,0.00885134251566955,-0.039263485220020274,2.3514435291290283,6.818080425262451,2.008539915084839
1730865964.5834439,-1.8520234823226929,1.1645499467849731,-9.829914093017578,-0.05566555501822783,0.005256126063703614,-0.03997576115423661,2.3580923080444336,6.8314290046691895,2.0130317211151123
1730865964.6334517,-1.8085271120071411,1.176212191581726,-9.861815452575684,-0.06910423059629857,-0.00383793145578147,-0.04027909758969873,2.328359603881836,6.817525386810303,1.9855095148086548
1730865964.6834452,-1.7181299924850464,1.1627516746520996,-9.876137733459473,-0.07600607978266445,-0.01769546067669617,-0.04314937344182604,2.3345508575439453,6.830807209014893,1.989682912826538
1730865964.7333987,-1.6924563646316528,1.1392431259155273,-9.905946731567383,-0.07033781141694723,-0.032549103042499174,-0.04884049020003328,2.3055295944213867,6.8167948722839355,1.9629954099655151
1730865964.7834475,-1.6710063219070435,1.1597439050674438,-9.915834426879883,-0.048636323818588484,-0.04208022122943118,-0.054456343702250005,2.3111400604248047,6.829587459564209,1.966726541519165
1730865964.8333828,-1.6623401641845703,1.1732234954833984,-9.910504341125488,-0.01406155770662683,-0.04195061953722687,-0.05623096277552193,2.3168983459472656,6.8427910804748535,1.9704667329788208
1730865964.8834436,-1.6623401641845703,1.1732234954833984,-9.910504341125488,0.023307286153213733,-0.03367677840079644,-0.051970577574655195,2.322390079498291,6.8552680015563965,1.9738954305648804
1730865964.8834436,-1.664509892463684,1.188157320022583,-9.918722152709961,0.05221164143788355,-0.023098404365361494,-0.04199389747620637,2.3224377632141113,6.855375289916992,1.9739245176315308
1730865964.933397,-1.664509892463684,1.188157320022583,-9.918722152709961,0.06629709275909704,-0.01608131806005217,-0.028922362495166706,2.293160915374756,6.839400768280029,1.9468275308609009
1730865964.933397,-1.6572636365890503,1.1673773527145386,-9.908549308776855,0.06560057285989783,-0.01539170341854302,-0.016310753182135387,2.2932069301605225,6.839502811431885,1.9468538761138916
1730865964.9834638,-1.6591688394546509,1.130024790763855,-9.90406608581543,0.054388336121451566,-0.019151879721413086,-0.006645123160306399,2.2989273071289062,6.852020740509033,1.9500805139541626
1730865965.0333724,-1.6591688394546509,1.130024790763855,-9.90406608581543,0.0382254664902166,-0.021572787024283512,-0.0002976037005384597,2.270878314971924,6.835847854614258,1.9239509105682373
1730865965.0333724,-1.6374982595443726,1.1253414154052734,-9.897210121154785,0.02212257374152326,-0.017027432637592835,0.0037634433107151723,2.2709286212921143,6.83595609664917,1.9239780902862549
1730865965.0834715,-1.6542800664901733,1.1127800941467285,-9.890379905700684,0.009770133742761491,-0.004663945607298153,0.00660856375229967,2.2442243099212646,6.820157527923584,1.8990925550460815
1730865965.1333466,-1.6624219417572021,1.1077226400375366,-9.87459659576416,0.0028940725212249054,0.011081597303812633,0.008774035122706537,2.2498528957366943,6.832363128662109,1.9020919799804688
1730865965.183495,-1.6803877353668213,1.1172305345535278,-9.872438430786133,0.0007212047989199434,0.024080478058302716,0.010513289950289668,2.2555220127105713,6.844691276550293,1.905134916305542
1730865965.2333581,-1.6642932891845703,1.1443051099777222,-9.851571083068848,0.0005820542234842866,0.029951803421883562,0.012160491060671075,2.229259729385376,6.828640937805176,1.8807669878005981
1730865965.2835011,-1.676072597503662,1.1518168449401855,-9.866317749023438,-0.00020742119362665153,0.0272179236456078,0.014069876225040592,2.2347590923309326,6.840909957885742,1.8837342262268066
1730865965.3333554,-1.688549518585205,1.173169493675232,-9.839729309082031,-0.002797276108436584,0.017247264713217386,0.015961735087682852,2.209257125854492,6.824643611907959,1.8602021932601929
1730865965.3832452,-1.7406500577926636,1.1670211553573608,-9.839791297912598,-0.007049056650549005,0.0035880005705914235,0.016756105014325586,2.2146124839782715,6.8368821144104,1.8631362915039062
1730865965.4331973,-1.7592371702194214,1.1434805393218994,-9.807424545288086,-0.012881956171894485,-0.009185385888566419,0.01572900471090625,2.1898436546325684,6.820548057556152,1.840331792831421
1730865965.4832108,-1.7919294834136963,1.1425443887710571,-9.786770820617676,-0.020678670390325466,-0.016815311025544965,0.013573147500977044,2.1950244903564453,6.8326735496521,1.843244194984436
1730865965.5332005,-1.8289555311203003,1.1339582204818726,-9.734051704406738,-0.030235699183913264,-0.017134087771846673,0.012189763971569994,2.2001190185546875,6.844703197479248,1.8461759090423584
1730865965.5832748,-1.8289555311203003,1.1339582204818726,-9.734051704406738,-0.040302460787928,-0.011189462323095735,0.01391560578592976,2.1755478382110596,6.82774019241333,1.823869228363037
1730865965.5832748,-1.906752586364746,1.1017496585845947,-9.722082138061523,-0.0496380814357548,-0.0021028003304266792,0.020285987491536688,2.1755905151367188,6.827844619750977,1.8238946199417114
1730865965.6332035,-1.9440362453460693,1.0649313926696777,-9.711519241333008,-0.057950079232489876,0.0074082436874739685,0.03015923749956113,2.1802937984466553,6.839575290679932,1.8267731666564941
1730865965.6832056,-1.954621434211731,1.0486096143722534,-9.747272491455078,-0.06605223813167371,0.01673501632876012,0.03940074816382169,2.156106472015381,6.822341442108154,1.805226445198059
1730865965.733109,-1.9300211668014526,1.0519165992736816,-9.785317420959473,-0.07469063724552355,0.02668675799348672,0.04315840392134084,2.1605098247528076,6.834442138671875,1.8082942962646484
1730865965.7832572,-1.8917458057403564,1.0662336349487305,-9.863221168518066,-0.08140866186367182,0.03652631335060344,0.03791458062378207,2.164537191390991,6.846112251281738,1.8113327026367188
1730865965.8331983,-1.8917458057403564,1.0662336349487305,-9.863221168518066,-0.07962142985661849,0.042517582845950246,0.021829874638498076,2.1684415340423584,6.858098030090332,1.8145015239715576
1730865965.8331983,-1.8261340856552124,1.0515388250350952,-9.917787551879883,-0.06316044133085172,0.04071786133347971,-0.005087279328262306,2.168466091156006,6.858175754547119,1.81452214717865
1730865965.8832433,-1.7325536012649536,1.0188775062561035,-9.973783493041992,-0.030577010596591375,0.030839510398803706,-0.040828818542783425,2.1435797214508057,6.840154647827148,1.7932469844818115
1730865965.9331484,-1.6438817977905273,1.0134690999984741,-9.997303009033203,0.014929231005355384,0.016941436216068438,-0.081270866402852,2.1472089290618896,6.852174282073975,1.7961397171020508
1730865965.9832146,-1.6068297624588013,1.0392526388168335,-10.010113716125488,0.06596460462582462,0.0044826287555851125,-0.11858641476577914,2.1231637001037598,6.833984851837158,1.7751458883285522
1730865966.0331244,-1.5930547714233398,1.1113393306732178,-9.983500480651855,0.11130886473057558,-0.0037097527866921214,-0.14148687404211008,2.126991033554077,6.845881938934326,1.7773610353469849
1730865966.0831685,-1.6152253150939941,1.2080261707305908,-9.939994812011719,0.13922831242613434,-0.009621482747339835,-0.14065689186050911,2.1041479110717773,6.827746391296387,1.7563456296920776
1730865966.1329873,-1.6628810167312622,1.2549554109573364,-9.904179573059082,0.1419697638672064,-0.01859771668179129,-0.11424814315797535,2.108515739440918,6.839443206787109,1.7577935457229614
1730865966.183079,-1.7237470149993896,1.2498868703842163,-9.840123176574707,0.11844585719547716,-0.034038303318991076,-0.06869377513356972,2.1132447719573975,6.851168155670166,1.7590241432189941
1730865966.232996,-1.7540323734283447,1.1959750652313232,-9.810408592224121,0.07388605823877055,-0.05278435124976889,-0.015165492577488244,2.091543674468994,6.832081317901611,1.7378168106079102
1730865966.282932,-1.7761001586914062,1.1373709440231323,-9.77637004852295,0.017747220121482544,-0.06653672098017313,0.03546961597233069,2.070854902267456,6.813170433044434,1.717491865158081
1730865966.3329697,-1.7739691734313965,1.080772876739502,-9.734260559082031,-0.037358266447345176,-0.06721285701318996,0.07480836225673287,2.0756893157958984,6.824197769165039,1.7185959815979004
1730865966.3838212,-1.7863746881484985,1.0190056562423706,-9.72805404663086,-0.07770639347594484,-0.05119809515737424,0.09707385731292886,2.055440902709961,6.8051886558532715,1.6992335319519043
1730865966.4338863,-1.7863746881484985,1.0190056562423706,-9.72805404663086,-0.0940391583210115,-0.020956578384622927,0.10059566187612323,2.059809446334839,6.815851211547852,1.7007187604904175
1730865966.4338863,-1.763444423675537,0.9958710074424744,-9.702902793884277,-0.0859933747730828,0.01530819451629565,0.08848317356485971,2.0599329471588135,6.816160678863525,1.7007657289505005
1730865966.4838243,-1.7485802173614502,0.980993390083313,-9.72205638885498,-0.060674132658738514,0.04655070667939251,0.06689753117924782,2.063967227935791,6.8265061378479,1.7024097442626953
1730865966.5338418,-1.7739217281341553,0.9647471904754639,-9.749009132385254,-0.02799615178076288,0.06460680513642769,0.04264641340504412,2.043384313583374,6.807033061981201,1.6839485168457031
1730865966.5839176,-1.776928424835205,1.0090956687927246,-9.792386054992676,0.0027510654559548776,0.06782056227505202,0.020767015671211572,2.0473082065582275,6.817895412445068,1.6857763528823853
1730865966.6337254,-1.776928424835205,1.0090956687927246,-9.792386054992676,0.024551837344340032,0.05877523788729269,0.0030831712513769097,2.027243137359619,6.798414707183838,1.6679271459579468
1730865966.6337254,-1.7719019651412964,1.0469619035720825,-9.85647201538086,0.033954318660499826,0.04065683739854014,-0.011083815528165428,2.0272626876831055,6.7984700202941895,1.667936086654663
1730865966.6840096,-1.742720127105713,1.0767850875854492,-9.918389320373535,0.03196694484930124,0.0168186587398068,-0.02352479784097606,2.031221389770508,6.809539318084717,1.6696988344192505
1730865966.733826,-1.7308605909347534,1.0838773250579834,-9.983128547668457,0.023510018732266248,-0.008780232590751638,-0.036987193800433756,2.011781930923462,6.790164947509766,1.6522393226623535
1730865966.7839155,-1.7244657278060913,1.1198302507400513,-10.016728401184082,0.01493861639821822,-0.03237752307459584,-0.05440914733697606,2.0157363414764404,6.800996780395508,1.6537219285964966
1730865966.8337839,-1.7244657278060913,1.1198302507400513,-10.016728401184082,0.010519539796931363,-0.050802593902716804,-0.07514158968365814,1.9969396591186523,6.781438827514648,1.6365004777908325
1730865966.8337839,-1.6922295093536377,1.1217204332351685,-10.01152515411377,0.010681704164382156,-0.06138113109107113,-0.09263246882162228,1.9969581365585327,6.78148889541626,1.6365059614181519
1730865966.8839517,-1.6949405670166016,1.091368556022644,-10.003122329711914,0.013613561354441467,-0.06238342433009026,-0.09844500586920932,2.0009043216705322,6.7920098304748535,1.6375364065170288
1730865966.9338105,-1.6541407108306885,1.079060673713684,-9.937772750854492,0.017831972050419708,-0.05347200089211397,-0.08798674105975833,1.982635498046875,6.7720842361450195,1.6203681230545044
1730865966.9837117,-1.6541407108306885,1.079060673713684,-9.937772750854492,0.02291059485004784,-0.03616459689748064,-0.062445601155113654,1.9865421056747437,6.782123565673828,1.6208957433700562
1730865966.9837117,-1.6971153020858765,1.0559735298156738,-9.882655143737793,0.027933780303009872,-0.0144193505443186,-0.027995456873328346,1.9865682125091553,6.782189846038818,1.620898723602295
1730865967.0336804,-1.7184339761734009,1.0200108289718628,-9.829143524169922,0.029790524645967653,0.006466377125913121,0.006989768419820039,1.9689348936080933,6.762033939361572,1.6039867401123047
1730865967.0837424,-1.7796587944030762,0.9819168448448181,-9.78043270111084,0.024331523822837507,0.022754635588221196,0.036278808862888284,1.9729090929031372,6.772004127502441,1.604430079460144
1730865967.1336548,-1.7767276763916016,0.9837790727615356,-9.749464988708496,0.00973370893361334,0.03358788672575045,0.05749645223418353,1.976890206336975,6.781955242156982,1.6049861907958984
1730865967.1838517,-1.7815088033676147,1.03798508644104,-9.75819206237793,-0.011703338641430475,0.03942074790646134,0.07055952157852209,1.9595791101455688,6.761780261993408,1.5887316465377808
1730865967.2337184,-1.7815088033676147,1.03798508644104,-9.75819206237793,-0.03457162219262682,0.040194755883428426,0.07623745740123158,1.963413953781128,6.771799564361572,1.5895613431930542
1730865967.2337184,-1.7619465589523315,1.1153185367584229,-9.77953052520752,-0.052281618542556536,0.03517266219758602,0.07493675122895024,1.9634431600570679,6.771877288818359,1.5895684957504272
1730865967.283684,-1.7306779623031616,1.2181533575057983,-9.794438362121582,-0.05892632774286907,0.023080311468917862,0.0659609765994831,1.9671419858932495,6.781923294067383,1.5905705690383911
1730865967.3336196,-1.7306779623031616,1.2181533575057983,-9.794438362121582,-0.05142808632372685,0.0016341634997838759,0.0489265262871151,1.9707293510437012,6.792068958282471,1.5917221307754517
1730865967.3336196,-1.73723566532135,1.2622041702270508,-9.825244903564453,-0.031122938141203524,-0.031237662907271868,0.025563059692852143,1.9707584381103516,6.7921528816223145,1.591732144355774
1730865967.3837023,-1.7728885412216187,1.2536513805389404,-9.841352462768555,-0.003650695371063245,-0.07448042028191336,-0.0006649908547183923,1.9529732465744019,6.771066665649414,1.5761345624923706
1730865967.4336104,-1.7957485914230347,1.2329119443893433,-9.852080345153809,0.02273363371313375,-0.12169798186025348,-0.025958718892827398,1.9564255475997925,6.780742168426514,1.5772442817687988
1730865967.4835632,-1.8130037784576416,1.187165379524231,-9.869086265563965,0.039842024830124126,-0.1599873670592468,-0.046394885468079086,1.9392545223236084,6.758910179138184,1.5619651079177856
1730865967.5335834,-1.8130037784576416,1.187165379524231,-9.869086265563965,0.04272647940819993,-0.17354322512307116,-0.05813042851853372,1.9428093433380127,6.767704963684082,1.5627893209457397
1730865967.5335834,-1.8403993844985962,1.1168467998504639,-9.861696243286133,0.03201451161681536,-0.153775046351151,-0.059012082771521715,1.9428391456604004,6.767776012420654,1.5627955198287964
1730865967.5836523,-1.8365612030029297,1.1099493503570557,-9.855596542358398,0.013223696109582048,-0.10561185564664513,-0.049762966196547825,1.926295280456543,6.744991779327393,1.5476808547973633
1730865967.6335382,-1.8015090227127075,1.1125519275665283,-9.858222961425781,-0.0064229448844658026,-0.043632966363914755,-0.03364766161390276,1.9104702472686768,6.722550868988037,1.5330277681350708
1730865967.683565,-1.7416749000549316,1.0947171449661255,-9.853496551513672,-0.020305681678401473,0.014960830729938021,-0.015417995457081193,1.9139070510864258,6.7305121421813965,1.5334258079528809
1730865967.7336876,-1.707353949546814,1.0896289348602295,-9.870576858520508,-0.023267506817087773,0.05605390720206836,0.00015308514088582803,1.9173463582992554,6.738699913024902,1.5338112115859985
1730865967.7836096,-1.6856294870376587,1.0882185697555542,-9.87708854675293,-0.01272673883813263,0.07337087540531674,0.009699129931271717,1.9206498861312866,6.746830940246582,1.5341984033584595
1730865967.833548,-1.6856732368469238,1.1131680011749268,-9.89499282836914,0.010316561984062231,0.06956148227607986,0.011851525797012794,1.9046207666397095,6.72415828704834,1.5196502208709717
1730865967.8835711,-1.6620116233825684,1.1451038122177124,-9.884458541870117,0.04096952797256911,0.05242903691512601,0.0072687188572452145,1.9079434871673584,6.732582092285156,1.5200318098068237
1730865967.9334772,-1.6606212854385376,1.1801331043243408,-9.870457649230957,0.07076368986109478,0.029768177714506964,-0.0011666659976507575,1.892560601234436,6.709951877593994,1.5059128999710083
1730865967.9834714,-1.653437852859497,1.1797866821289062,-9.851520538330078,0.09013509316261607,0.006722300464891345,-0.008833011442591025,1.8961459398269653,6.7183918952941895,1.5062309503555298
1730865968.0334425,-1.653437852859497,1.1797866821289062,-9.851520538330078,0.09301981946639279,-0.013243212726761877,-0.011592064473563327,1.899956464767456,6.726816177368164,1.5065232515335083
1730865968.0334425,-1.6758476495742798,1.1824043989181519,-9.821070671081543,0.07966596202855714,-0.026804514126895485,-0.007944376004212049,1.8999885320663452,6.726884841918945,1.5065255165100098
1730865968.0835173,-1.7237505912780762,1.1566532850265503,-9.81063461303711,0.05519447541586005,-0.03159407770021069,0.0011759415069018662,1.9039660692214966,6.735213279724121,1.506803274154663
1730865968.1334534,-1.7237505912780762,1.1566532850265503,-9.81063461303711,0.025862978153634933,-0.027555037671637035,0.013928366949416106,1.8891628980636597,6.711847305297852,1.4927974939346313
1730865968.1334534,-1.7996176481246948,1.1426687240600586,-9.782665252685547,-0.003516542581080595,-0.016813923040672613,0.0281411888020594,1.889197587966919,6.711916923522949,1.4927997589111328
1730865968.1835039,-1.8628112077713013,1.1092867851257324,-9.77823543548584,-0.03014913167348512,-0.002757168794326961,0.04100003948221702,1.8931849002838135,6.719987392425537,1.493106722831726
1730865968.2334023,-1.8774480819702148,1.0935637950897217,-9.79169750213623,-0.053510879038906736,0.011422398939814232,0.04947037672828814,1.8786920309066772,6.696406364440918,1.4796509742736816
1730865968.2834685,-1.8534674644470215,1.108945369720459,-9.822172164916992,-0.07422906652119224,0.023773234520797493,0.05140131962126779,1.8646368980407715,6.67316198348999,1.4667857885360718
1730865968.3333826,-1.8534674644470215,1.108945369720459,-9.822172164916992,-0.0902371899774999,0.03265326696800171,0.046010685061215424,1.8680455684661865,6.681173801422119,1.4673465490341187
1730865968.3333826,-1.7973651885986328,1.1064001321792603,-9.855999946594238,-0.09551177240822487,0.03593781427783923,0.034049410000597156,1.8680663108825684,6.681224346160889,1.4673504829406738
1730865968.3833833,-1.7973651885986328,1.1064001321792603,-9.855999946594238,-0.08469400545065525,0.032597258515444524,0.017841081262872142,1.8712214231491089,6.689230918884277,1.4679844379425049
1730865968.3833833,-1.749116063117981,1.0848197937011719,-9.900351524353027,-0.05760576640081999,0.024228571679359198,0.0002229058638592695,1.8712469339370728,6.689298152923584,1.4679899215698242
1730865968.4334073,-1.749116063117981,1.0848197937011719,-9.900351524353027,-0.019117327386757726,0.014468795396680416,-0.01698438969666181,1.8742918968200684,6.697412014007568,1.4686287641525269
1730865968.4334073,-1.6887575387954712,1.0780417919158936,-9.944061279296875,0.02375560028818511,0.007238941806961053,-0.03349998368429144,1.8743171691894531,6.697480201721191,1.4686338901519775
1730865968.4834383,-1.660573959350586,1.0784896612167358,-9.943114280700684,0.06505556869339993,0.005036586882498525,-0.05005537136146496,1.8596614599227905,6.67385196685791,1.4559741020202637
1730865968.5333052,-1.6808581352233887,1.0688133239746094,-9.9386625289917,0.10072090631732672,0.008014115450837791,-0.06676931402844961,1.8458223342895508,6.650598049163818,1.443622350692749
1730865968.5834394,-1.6925055980682373,1.0484857559204102,-9.91047477722168,0.1255758505420251,0.014137568844815093,-0.08054016331137033,1.84929621219635,6.658580780029297,1.4437471628189087
1730865968.6333168,-1.7340891361236572,1.0040960311889648,-9.874168395996094,0.132095384572811,0.020631451273771226,-0.08478995210696336,1.8363999128341675,6.635648727416992,1.4313476085662842
1730865968.6832635,-1.7513102293014526,0.9668171405792236,-9.831408500671387,0.11554915080793957,0.02603155849710794,-0.07381260423632699,1.8404215574264526,6.643571853637695,1.431018590927124
1730865968.7332773,-1.7513102293014526,0.9668171405792236,-9.831408500671387,0.07941664603749471,0.030561393270863838,-0.047664963368879834,1.844699740409851,6.651590347290039,1.4305366277694702
1730865968.7332773,-1.7555934190750122,0.9132131338119507,-9.825553894042969,0.034567514192402615,0.03487293447896669,-0.012796722004483643,1.8447355031967163,6.651656150817871,1.4305322170257568
1730865968.783267,-1.7511773109436035,0.8991687297821045,-9.808719635009766,-0.006332323098966234,0.039872521894127634,0.021642377253767348,1.8324600458145142,6.628452777862549,1.4180233478546143
1730865968.833155,-1.7669599056243896,0.9138646125793457,-9.811017036437988,-0.03433066544707923,0.0466210129067703,0.04814428735503803,1.8367034196853638,6.6365227699279785,1.4175482988357544
1730865968.8833268,-1.7647291421890259,0.9623916149139404,-9.817171096801758,-0.04648055876027505,0.05363952052411117,0.06238727933717385,1.8408513069152832,6.644728660583496,1.4172109365463257
1730865968.9331322,-1.7647291421890259,0.9623916149139404,-9.817171096801758,-0.04506849013849433,0.055249593756676936,0.06287261431917356,1.8284062147140503,6.62156343460083,1.4053220748901367
1730865968.9331322,-1.774051547050476,0.9942019581794739,-9.836055755615234,-0.03534148004885415,0.045510738901877956,0.051107392400410484,1.82843816280365,6.621631145477295,1.4053208827972412
1730865968.9830694,-1.7563841342926025,1.0308074951171875,-9.850176811218262,-0.022912273610187713,0.023762388078710485,0.031447116894846236,1.8322612047195435,6.629818916320801,1.4052133560180664
1730865969.0331802,-1.7418923377990723,1.052126407623291,-9.863423347473145,-0.01165935990871993,-0.004986132698101348,0.00926135260989532,1.8361237049102783,6.638206958770752,1.4051542282104492
1730865969.0830772,-1.7634446620941162,1.1164103746414185,-9.859697341918945,-0.0029936292725031345,-0.03452855625990286,-0.011161499116675478,1.8399232625961304,6.646448612213135,1.4050936698913574
1730865969.1331055,-1.7613576650619507,1.1499154567718506,-9.857751846313477,0.003161816513261068,-0.06169243680277151,-0.027371541324957938,1.8272078037261963,6.622341156005859,1.3934518098831177
1730865969.1830616,-1.7668864727020264,1.152148723602295,-9.854114532470703,0.0069722734062871074,-0.08614307361257899,-0.038202859471356515,1.8150242567062378,6.598228454589844,1.3821274042129517
1730865969.2330203,-1.7597706317901611,1.146106243133545,-9.849930763244629,0.008392121906439285,-0.10569041473510066,-0.04281983730936293,1.8187534809112549,6.605724334716797,1.381744146347046
1730865969.2830868,-1.7832831144332886,1.1196283102035522,-9.831854820251465,0.007616519597956782,-0.11384858130119868,-0.04053242188656957,1.8068934679031372,6.581323623657227,1.370529055595398
1730865969.3329446,-1.7911642789840698,1.0579688549041748,-9.824539184570312,0.0051502410759713905,-0.1043393658714596,-0.03165949631568103,1.8105785846710205,6.588110446929932,1.3699111938476562
1730865969.3830001,-1.793712854385376,1.0126854181289673,-9.833224296569824,0.0015570682900277796,-0.0763628026506318,-0.01835102224151487,1.799054503440857,6.563300132751465,1.358796238899231
1730865969.432937,-1.7517714500427246,1.0202561616897583,-9.849518775939941,-0.0022768747974752307,-0.035301813375563235,-0.004391402727919237,1.8026936054229736,6.569608211517334,1.3580448627471924
1730865969.4829564,-1.7155946493148804,1.0792349576950073,-9.881749153137207,-0.004340381612468139,0.008319481636729433,0.005923714963645085,1.791430950164795,6.544620990753174,1.347170114517212
1730865969.532836,-1.6973638534545898,1.1483683586120605,-9.885079383850098,-0.0017686141066129094,0.04093924379874878,0.009360863128572514,1.7949868440628052,6.550816535949707,1.3464012145996094
1730865969.5827827,-1.6990910768508911,1.1914793252944946,-9.90003490447998,0.0066114168204071296,0.05139999679558804,0.005402291494316178,1.7985554933547974,6.5571393966674805,1.345649242401123
1730865969.6338701,-1.7048535346984863,1.1952179670333862,-9.894710540771484,0.018215200062556655,0.03640167237617937,-0.0033165394598537014,1.8022547960281372,6.563750267028809,1.344879150390625
1730865969.6838133,-1.7279154062271118,1.140415906906128,-9.889106750488281,0.02816463859861229,0.0014960345764361196,-0.012710109556653892,1.8058953285217285,6.570200443267822,1.3441133499145508
1730865969.7338028,-1.727390170097351,1.0967813730239868,-9.850716590881348,0.03231362648878487,-0.04127162845502539,-0.019235144683409977,1.7944481372833252,6.544698238372803,1.33327054977417
1730865969.7837937,-1.7448590993881226,1.0502889156341553,-9.854978561401367,0.028985366447532846,-0.07716011226397182,-0.02065002253833331,1.7981854677200317,6.550833702087402,1.3323746919631958
1730865969.8337355,-1.7205950021743774,1.0371060371398926,-9.837763786315918,0.01936726504559231,-0.09363592698923187,-0.016530054564515256,1.7871750593185425,6.524878978729248,1.3216476440429688
1730865969.8838043,-1.7044275999069214,1.004769206047058,-9.838481903076172,0.007038179788355667,-0.08511242903146636,-0.0086028194106114,1.7909682989120483,6.530483722686768,1.320629596710205
1730865969.9337204,-1.6762114763259888,1.0011883974075317,-9.852025985717773,-0.0032948230259608846,-0.0553100085928361,5.100554937152073e-05,1.7947537899017334,6.535894393920898,1.3196043968200684
1730865969.9836867,-1.6579885482788086,0.9812003374099731,-9.872231483459473,-0.007425315425321401,-0.01513023928755221,0.006230497047285592,1.7985248565673828,6.541215896606445,1.3185871839523315
1730865970.0337353,-1.6788157224655151,1.0039273500442505,-9.869159698486328,-0.003137106181308331,0.02310622116709507,0.007488710596415606,1.7873677015304565,6.51429557800293,1.3080058097839355
1730865970.0836577,-1.7302862405776978,0.9892690777778625,-9.866273880004883,0.008259545208409404,0.050554808988561684,0.0031247569779033705,1.7910712957382202,6.519588470458984,1.3069815635681152
1730865970.1336935,-1.7302862405776978,0.9892690777778625,-9.866273880004883,0.021006535892880478,0.06329545792190588,-0.004936223788294578,1.7802720069885254,6.492987632751465,1.296610713005066
1730865970.1336935,-1.7561147212982178,1.0005706548690796,-9.84821891784668,0.027246067995574316,0.061763209733633445,-0.01274229880884325,1.7803021669387817,6.4930315017700195,1.2966020107269287
1730865970.1836424,-1.7367112636566162,1.0267400741577148,-9.844929695129395,0.02243894250409762,0.04934091571808421,-0.016439193660089307,1.769879937171936,6.466845989227295,1.286457896232605
1730865970.2335315,-1.7292639017105103,1.0034098625183105,-9.847564697265625,0.008652230310140726,0.03069309289751411,-0.014267525762210798,1.773606777191162,6.472276210784912,1.285291314125061
1730865970.283596,-1.7082710266113281,1.0320013761520386,-9.856908798217773,-0.007274381797129477,0.011025442959357706,-0.007409373180646613,1.7773261070251465,6.477745532989502,1.2841006517410278
1730865970.3336132,-1.7297741174697876,1.0265306234359741,-9.872505187988281,-0.018148411662883255,-0.0046363484860998845,0.0005665980591860174,1.781042456626892,6.483265399932861,1.282892107963562
1730865970.3835676,-1.73284912109375,1.026072382926941,-9.879054069519043,-0.020161000136643795,-0.013248759866904006,0.005529280018930258,1.7704116106033325,6.4571452140808105,1.2728798389434814
1730865970.4335475,-1.7507237195968628,1.0402652025222778,-9.899032592773438,-0.014295977524217872,-0.014826254976750837,0.004852658435195749,1.773963212966919,6.462456226348877,1.2716625928878784
1730865970.4835615,-1.7441734075546265,1.067531943321228,-9.886956214904785,-0.005016313007131609,-0.011905178183141876,-0.0013116644344725568,1.7774877548217773,6.4677300453186035,1.2704507112503052
1730865970.5335526,-1.7646288871765137,1.0706843137741089,-9.89332103729248,0.002550789908903808,-0.008418159340948559,-0.010202793216910297,1.7810194492340088,6.47299337387085,1.2692208290100098
1730865970.583584,-1.8092890977859497,1.0768513679504395,-9.85693645477295,0.0047159723976559036,-0.008129308236872607,-0.01800612637249165,1.7702476978302002,6.446296691894531,1.259317398071289
1730865970.6335008,-1.8451093435287476,1.0780317783355713,-9.835271835327148,-0.00021226028693860756,-0.012706288899449381,-0.021479778106925782,1.7737332582473755,6.451380252838135,1.2579702138900757
1730865970.6835158,-1.8778879642486572,1.068177342414856,-9.794242858886719,-0.011688190509246186,-0.02045583907749747,-0.018698094010761834,1.7632468938827515,6.4247212409973145,1.248181939125061
1730865970.7335863,-1.8792659044265747,1.0619271993637085,-9.761591911315918,-0.02670403223866925,-0.027096235003256617,-0.009327634038540778,1.7666125297546387,6.429574489593506,1.246716856956482
1730865970.7835293,-1.8781741857528687,1.0342954397201538,-9.767451286315918,-0.04041040212931689,-0.02848053027959488,0.004984057745980545,1.7562605142593384,6.402914047241211,1.2371556758880615
1730865970.8334446,-1.8452465534210205,1.0448501110076904,-9.792409896850586,-0.04763065138088713,-0.023032260344390706,0.02035451742601035,1.7462289333343506,6.376830577850342,1.227899432182312
1730865970.8834481,-1.7909832000732422,1.0523160696029663,-9.833215713500977,-0.04479455566493262,-0.01251257067844785,0.03139289487347328,1.7491707801818848,6.381243705749512,1.2264668941497803
1730865970.9334626,-1.7380390167236328,1.0403714179992676,-9.891928672790527,-0.031034871584026083,-0.0010564648712207904,0.03297459094100669,1.7520289421081543,6.38565731048584,1.2251094579696655
1730865970.9834626,-1.6841381788253784,1.027842402458191,-9.939653396606445,-0.007494956427171587,0.007408123881873386,0.021859866592800564,1.7548326253890991,6.390069007873535,1.2238236665725708
1730865971.0333781,-1.598343849182129,1.0370818376541138,-9.97574520111084,0.02434601768276199,0.011417819876296038,-0.0027250178303848847,1.7444628477096558,6.363743305206299,1.2150256633758545
1730865971.083417,-1.598343849182129,1.0370818376541138,-9.97574520111084,0.062452258881662046,0.011835364155227679,-0.03806298887986476,1.747338891029358,6.368078231811523,1.2136857509613037
1730865971.083417,-1.5712602138519287,1.0332560539245605,-9.993497848510742,0.10045935983210973,0.010227526888859199,-0.07572300974985738,1.7473630905151367,6.368113994598389,1.2136744260787964
1730865971.133399,-1.550557255744934,1.039259433746338,-9.944525718688965,0.12690225782176962,0.007796492004201513,-0.10275962299371068,1.7375928163528442,6.341927528381348,1.2049148082733154
1730865971.1834455,-1.5575945377349854,1.0153611898422241,-9.915091514587402,0.13240236173755915,0.005371883966684565,-0.10855508812810752,1.7409851551055908,6.346190929412842,1.2031034231185913
1730865971.233443,-1.6128383874893188,0.9890211224555969,-9.859123229980469,0.11579711291102623,0.003971005981469844,-0.09062721620902925,1.7446844577789307,6.350461959838867,1.2010449171066284
1730865971.283348,-1.6128383874893188,0.9890211224555969,-9.859123229980469,0.08236741862411483,0.0051651640013014415,-0.054306363690732794,1.7486271858215332,6.354740142822266,1.1988075971603394
1730865971.283348,-1.700724482536316,0.9786924719810486,-9.800239562988281,0.03944442599972784,0.010421231239860215,-0.008668745308760445,1.7486628293991089,6.354777812957764,1.1987873315811157
1730865971.3333108,-1.7688379287719727,1.0146944522857666,-9.755945205688477,-0.006804950071771152,0.019748870212509026,0.037839430156170945,1.7396448850631714,6.328413009643555,1.189590573310852
1730865971.3833656,-1.7688379287719727,1.0146944522857666,-9.755945205688477,-0.05228762078559803,0.030823080051163066,0.07930271578372167,1.730981469154358,6.302523612976074,1.1808146238327026
1730865971.3833656,-1.8208271265029907,1.02140212059021,-9.763900756835938,-0.09175039331980811,0.03944994797783075,0.1099987239541099,1.7310148477554321,6.302560329437256,1.180796504020691
1730865971.433279,-1.8217395544052124,1.0340009927749634,-9.765320777893066,-0.11717399611260337,0.041572293609628226,0.12280656700392749,1.7346371412277222,6.306748390197754,1.1788990497589111
1730865971.48329,-1.782911777496338,1.0537012815475464,-9.80487060546875,-0.12285350030347415,0.03539047230954473,0.11326602120584828,1.7257622480392456,6.281307220458984,1.1708961725234985
1730865971.5332751,-1.7525897026062012,1.0612386465072632,-9.85537052154541,-0.10959188825601532,0.022013880147588236,0.08375181571316703,1.7287850379943848,6.28558874130249,1.1694941520690918
1730865971.5832372,-1.7406247854232788,1.1116029024124146,-9.87990665435791,-0.08267496164093466,0.004762972841559465,0.042291071472404455,1.7315577268600464,6.289888381958008,1.1682541370391846
1730865971.633259,-1.770524501800537,1.115897536277771,-9.90289306640625,-0.048691681057550694,-0.012600078986423006,-0.001517194224357683,1.7341829538345337,6.294205188751221,1.1670575141906738
1730865971.683197,-1.7900440692901611,1.1545110940933228,-9.899785995483398,-0.014683300593987278,-0.027987908905778736,-0.040081674828520326,1.7244545221328735,6.268547534942627,1.1596295833587646
1730865971.7331789,-1.8505797386169434,1.163799524307251,-9.896068572998047,0.012111759966685322,-0.04120710814449098,-0.06889639789584069,1.7151193618774414,6.243287563323975,1.152288794517517
1730865971.783353,-1.8505797386169434,1.163799524307251,-9.896068572998047,0.025882538709253142,-0.051635283493824395,-0.0849562573408818,1.717616319656372,6.247117042541504,1.1506613492965698
1730865971.783353,-1.8653908967971802,1.1624170541763306,-9.862640380859375,0.02503879592303844,-0.056662202567362666,-0.08590359297471684,1.717637300491333,6.247148036956787,1.1506470441818237
1730865971.8332534,-1.84821355342865,1.119704008102417,-9.858514785766602,0.013486072365714141,-0.0534199029951312,-0.07167396853673816,1.7201449871063232,6.25078821182251,1.1488497257232666
1730865971.8832345,-1.8270213603973389,1.114829421043396,-9.805334091186523,-0.001517591696832858,-0.0411176722086037,-0.04559516305729636,1.7227025032043457,6.254361152648926,1.146881103515625
1730865971.9334147,-1.793975830078125,1.0453251600265503,-9.822367668151855,-0.012734506774592123,-0.021080469264072706,-0.013027480356634234,1.713376522064209,6.22843074798584,1.1391597986221313
1730865971.9832606,-1.7209333181381226,1.0137131214141846,-9.828447341918945,-0.0150305345249139,0.0041864221648024265,0.02004767918837925,1.7158160209655762,6.231762409210205,1.1371195316314697
1730865972.0332992,-1.6012029647827148,0.9719731211662292,-9.870986938476562,-0.0058310894045256086,0.030895148367551736,0.04670484848166878,1.706679344177246,6.205966949462891,1.1297237873077393
1730865972.0832047,-1.5673483610153198,0.9927900433540344,-9.874567985534668,0.015020951980561078,0.05374350072028712,0.05981009940730091,1.7090626955032349,6.209336757659912,1.1278750896453857
1730865972.133241,-1.5673483610153198,0.9927900433540344,-9.874567985534668,0.04369866648028028,0.06702293383891983,0.05597552599671822,1.7002419233322144,6.184072971343994,1.1209582090377808
1730865972.133241,-1.5617990493774414,1.0194441080093384,-9.915316581726074,0.07118524165990643,0.06668461087827075,0.03839942199605716,1.7002620697021484,6.184101581573486,1.120944619178772
1730865972.1831715,-1.576568603515625,1.0584110021591187,-9.886327743530273,0.08711672340525407,0.05233071837701825,0.014538931160503064,1.7028130292892456,6.187623977661133,1.1193246841430664
1730865972.2332606,-1.631142258644104,1.0728533267974854,-9.91388988494873,0.08546680997975135,0.027381005738004963,-0.008259893449566569,1.705623745918274,6.191306114196777,1.1176843643188477
1730865972.283102,-1.7173388004302979,1.079965353012085,-9.86382007598877,0.06586487074584418,-0.002921622263162573,-0.02505594040271419,1.6973633766174316,6.166330337524414,1.111031413078308
1730865972.3331964,-1.7173388004302979,1.079965353012085,-9.86382007598877,0.0319466416449954,-0.03298075383477584,-0.03347296071449077,1.7004531621932983,6.169897079467773,1.1092499494552612
1730865972.3331964,-1.82231605052948,1.1077828407287598,-9.826631546020508,-0.009021179342016825,-0.05683480102880032,-0.033096204029316095,1.7004719972610474,6.169918537139893,1.1092389822006226
1730865972.383157,-1.8533849716186523,1.1184059381484985,-9.800682067871094,-0.047733591093037875,-0.06935645321573877,-0.02480379709910647,1.692520260810852,6.144853115081787,1.1026500463485718
1730865972.4330823,-1.8954871892929077,1.0949914455413818,-9.761144638061523,-0.07746990125986265,-0.0689167680162681,-0.01025903858484141,1.6953705549240112,6.147981643676758,1.100745439529419
1730865972.4830406,-1.8989217281341553,1.0262970924377441,-9.779446601867676,-0.09560736621551305,-0.05732423563715407,0.007864151941540987,1.697989583015442,6.150935173034668,1.098848819732666
1730865972.5331557,-1.8536771535873413,1.0082930326461792,-9.78778076171875,-0.101161649842351,-0.03674565980667172,0.025429639747023648,1.7003977298736572,6.153813362121582,1.0969668626785278
1730865972.5831227,-1.783974289894104,1.004658818244934,-9.84261703491211,-0.09368771889684879,-0.008503635022152392,0.03761507917947301,1.691522240638733,6.128078460693359,1.0906542539596558
1730865972.6330674,-1.783974289894104,1.004658818244934,-9.84261703491211,-0.0739757627646816,0.024608031819861292,0.04066664818546992,1.6829068660736084,6.102449417114258,1.0846076011657715
1730865972.6330674,-1.7528783082962036,1.0574264526367188,-9.855023384094238,-0.04533720856209181,0.05558059070254116,0.03374317886721522,1.6829211711883545,6.102470874786377,1.0845940113067627
1730865972.6830595,-1.7219197750091553,1.080628514289856,-9.910914421081543,-0.01386414757875978,0.07401458795232232,0.019443183855746112,1.674483060836792,6.077591896057129,1.078900694847107
1730865972.7331333,-1.7219197750091553,1.080628514289856,-9.910914421081543,0.014026432941688798,0.07186765705255292,0.001951580880548454,1.6761866807937622,6.080383777618408,1.0772597789764404
1730865972.7331333,-1.704637885093689,1.1132997274398804,-9.919187545776367,0.0338429258376813,0.04965541761688069,-0.014655600953356926,1.6762006282806396,6.08040714263916,1.0772465467453003
1730865972.7830756,-1.6880874633789062,1.1303209066390991,-9.951221466064453,0.04345169655353496,0.016413408157695594,-0.026791216223611407,1.6779521703720093,6.083271026611328,1.0755974054336548
1730865972.8330402,-1.6892642974853516,1.1353075504302979,-9.929433822631836,0.04364830329557758,-0.01661769107611275,-0.032590362044243926,1.6798330545425415,6.08616828918457,1.073854684829712
1730865972.8830557,-1.6928538084030151,1.1137971878051758,-9.93874454498291,0.03802639357696905,-0.04173699182073942,-0.03286918199153042,1.681808590888977,6.088981628417969,1.0720371007919312
1730865972.9329422,-1.7044410705566406,1.0738990306854248,-9.894899368286133,0.030914613002347657,-0.05574384895567175,-0.02979342632205237,1.6735323667526245,6.063971519470215,1.066274642944336
1730865972.9829872,-1.7288248538970947,1.0470776557922363,-9.854463577270508,0.025006728303874903,-0.05810424011809357,-0.024742086474493934,1.675630807876587,6.066422462463379,1.06428861618042
1730865973.0330038,-1.782965898513794,1.0143132209777832,-9.822835922241211,0.02001904053443575,-0.04949690116862956,-0.017279132258687976,1.6777833700180054,6.0687360763549805,1.062252163887024
1730865973.082945,-1.8363450765609741,1.0109021663665771,-9.767317771911621,0.012669333591458323,-0.03160147987202577,-0.005601936741853695,1.6697920560836792,6.043242931365967,1.0565801858901978
1730865973.132889,-1.8869452476501465,0.9894759058952332,-9.760782241821289,-0.0011714279162174145,-0.007586276105167992,0.011634943174429696,1.671962857246399,6.045299530029297,1.0545058250427246
1730865973.1829495,-1.8473352193832397,1.0347927808761597,-9.739604949951172,-0.02214529396119232,0.017235522240660404,0.032482933139788506,1.6740922927856445,6.047356128692627,1.0524982213974
1730865973.232936,-1.816389560699463,1.0465000867843628,-9.774761199951172,-0.04465685707958614,0.03583064531464645,0.05087289640583949,1.6660815477371216,6.021945953369141,1.0472005605697632
1730865973.2828844,-1.783855676651001,1.0769073963165283,-9.79489803314209,-0.05956936612419246,0.04213107585994319,0.060002526318459724,1.6582684516906738,5.997032165527344,1.042240023612976
1730865973.3328242,-1.7646828889846802,1.053520679473877,-9.82564926147461,-0.06010955713661825,0.03465562206979206,0.05634986372842417,1.6599668264389038,5.999142169952393,1.040585994720459
1730865973.3828576,-1.7351040840148926,1.0145779848098755,-9.854711532592773,-0.045657047333060724,0.01825551050401575,0.04076902951255255,1.6615322828292847,6.001317501068115,1.0390541553497314
1730865973.432912,-1.7351040840148926,1.0145779848098755,-9.854711532592773,-0.021095079660820453,0.0022061496461123764,0.01720243632707638,1.6630172729492188,6.003523349761963,1.0375916957855225
1730865973.432912,-1.683071255683899,0.9749651551246643,-9.900102615356445,0.0067965219753504365,-0.004556557310080174,-0.009474372898032896,1.6630290746688843,6.003541469573975,1.0375800132751465
1730865973.4828544,-1.6453770399093628,0.9578630328178406,-9.910890579223633,0.03308599053722016,0.0025192147452804247,-0.035440735030456444,1.6645104885101318,6.005725860595703,1.0361130237579346
1730865973.532847,-1.649688720703125,0.9565423130989075,-9.945751190185547,0.05639038087377693,0.02275141903670184,-0.05900434044369574,1.666116714477539,6.007961750030518,1.034515380859375
1730865973.5828483,-1.6442580223083496,0.9954084157943726,-9.940225601196289,0.07762900094888707,0.05129100934888019,-0.08030621900321891,1.6579861640930176,5.982701778411865,1.0297640562057495
1730865973.632834,-1.6689367294311523,1.0497392416000366,-9.937795639038086,0.09669426716064264,0.07998267633129981,-0.09925930075028719,1.6599379777908325,5.985084056854248,1.0277572870254517
1730865973.682793,-1.6859419345855713,1.0834542512893677,-9.915569305419922,0.10937967146798495,0.0981391855909981,-0.11246898933188486,1.6525025367736816,5.960424900054932,1.0227391719818115
1730865973.7328548,-1.71327543258667,1.1262437105178833,-9.893120765686035,0.10842388915282401,0.09597004522015928,-0.11332961760243257,1.6549534797668457,5.9631733894348145,1.0201674699783325
1730865973.782775,-1.7269731760025024,1.1472166776657104,-9.872698783874512,0.08950777305994959,0.07071623126189212,-0.09722217248491476,1.6576448678970337,5.966122150421143,1.0173399448394775
1730865973.8327966,-1.735066294670105,1.1401067972183228,-9.833118438720703,0.05569520844863727,0.029302838866321256,-0.06578139378765951,1.650907039642334,5.9419145584106445,1.011845350265503
1730865973.8827624,-1.717958927154541,1.1496965885162354,-9.815305709838867,0.015924294429487076,-0.015611734418025398,-0.02587923160375801,1.6538318395614624,5.9448981285095215,1.0086899995803833
1730865973.9327734,-1.6673269271850586,1.18075430393219,-9.812365531921387,-0.01874959863642531,-0.051657394734999265,0.013361065122926754,1.6473432779312134,5.920840263366699,1.003311038017273
1730865973.9827108,-1.718985915184021,1.200554609298706,-9.816550254821777,-0.038900919975370825,-0.07118193467539825,0.04307734430648818,1.6501485109329224,5.9234724044799805,1.0002100467681885
1730865974.032757,-1.777178168296814,1.1863377094268799,-9.796299934387207,-0.04190413989527951,-0.07313179888571639,0.05752610848119028,1.6436294317245483,5.8993635177612305,0.995237410068512
1730865974.0837018,-1.8267006874084473,1.1075407266616821,-9.833602905273438,-0.03449892021223239,-0.06125992161085804,0.05606441866832508,1.6462572813034058,5.901589393615723,0.9923359751701355
1730865974.1328225,-1.8129234313964844,1.0744457244873047,-9.833734512329102,-0.027272057637553953,-0.04000306220310941,0.042243170063083674,1.6487162113189697,5.903611660003662,0.9896582961082458
1730865974.1827915,-1.7848941087722778,1.034195899963379,-9.854951858520508,-0.02622656266744397,-0.011853771495840448,0.02116702651641273,1.6511493921279907,5.905603408813477,0.9870147109031677
1730865974.2327878,-1.7069191932678223,1.0519814491271973,-9.866008758544922,-0.02990004034068616,0.021890224702960523,-0.002438725925532244,1.644206166267395,5.880912780761719,0.9826446771621704
1730865974.2827125,-1.7330290079116821,1.0380792617797852,-9.891645431518555,-0.032381276357426526,0.05819073218961268,-0.024780729955342574,1.6464661359786987,5.8829216957092285,0.9799706935882568
1730865974.333654,-1.723747968673706,1.0607243776321411,-9.90710735321045,-0.028962195548226655,0.08981488510140682,-0.04268966691006332,1.6395938396453857,5.858778476715088,0.9755904674530029
1730865974.383695,-1.6333900690078735,1.1029419898986816,-9.92292594909668,-0.01964263947908456,0.10682960777312364,-0.053589349726289745,1.641672134399414,5.861112117767334,0.9727118611335754
1730865974.4336932,-1.7185343503952026,1.0912126302719116,-9.885492324829102,-0.006957264129967554,0.102275122864242,-0.05609731914926187,1.643713355064392,5.863702774047852,0.9697014689445496
1730865974.4835937,-1.7632367610931396,1.0811116695404053,-9.884361267089844,0.006564566705487914,0.07695028295785514,-0.05014592013426826,1.6367374658584595,5.840163707733154,0.965212881565094
1730865974.533778,-1.7660847902297974,1.066494345664978,-9.817702293395996,0.017401990154505553,0.03944898613979575,-0.03664986426658172,1.6387865543365479,5.843038558959961,0.9619346261024475
1730865974.583637,-1.76335608959198,1.0730304718017578,-9.786660194396973,0.02172489928471681,0.002200094018824523,-0.017170713449085953,1.6320607662200928,5.819857597351074,0.957450807094574
1730865974.6336203,-1.755035638809204,1.0663394927978516,-9.755593299865723,0.018655018932591992,-0.024007972266877765,0.0062534365654404525,1.6341608762741089,5.822634696960449,0.9541090130805969
1730865974.683558,-1.7797462940216064,1.05051851272583,-9.727736473083496,0.010887926400209462,-0.03413625537464837,0.03040132124936606,1.62765371799469,5.799556255340576,0.9498410224914551
1730865974.7336075,-1.7905184030532837,1.0506978034973145,-9.733460426330566,0.002139854609858877,-0.02955000031225604,0.050539704663086604,1.6297805309295654,5.802088260650635,0.9466310739517212
1730865974.7834837,-1.7196898460388184,1.0897799730300903,-9.776664733886719,-0.004752704864785084,-0.016133974260914515,0.06164886378152727,1.6234214305877686,5.779022216796875,0.9427543878555298
1730865974.8335426,-1.7713710069656372,1.1019127368927002,-9.835098266601562,-0.007903996695542759,-0.0017096936540281086,0.05991612377542986,1.6254973411560059,5.781374931335449,0.9398322701454163
1730865974.8835092,-1.8028919696807861,1.1387075185775757,-9.852670669555664,-0.007461516579043851,0.007012266530630877,0.04418641024948475,1.6191833019256592,5.758350372314453,0.9363688826560974
1730865974.9336016,-1.8285831212997437,1.182466745376587,-9.922863006591797,-0.00692241011050177,0.006828001221132087,0.017135308664769894,1.6211835145950317,5.7606201171875,0.9336591362953186
1730865974.9834633,-1.8077365159988403,1.2220063209533691,-9.935257911682129,-0.010217485250613507,-0.001913345729811221,-0.015321464198656029,1.6231532096862793,5.762885570526123,0.930964469909668
1730865975.0335941,-1.8268399238586426,1.19771409034729,-9.958266258239746,-0.017388031837957056,-0.016779135863172402,-0.046464045180582204,1.6251006126403809,5.76514196395874,0.9281752109527588
1730865975.0834959,-1.7553056478500366,1.1827597618103027,-9.942646980285645,-0.024730674142259004,-0.03428646765013143,-0.07143465450152549,1.6269835233688354,5.76732063293457,0.9252563118934631
1730865975.1334362,-1.7702215909957886,1.131227731704712,-9.93575382232666,-0.02767758510147075,-0.05005344496386516,-0.08824395763947503,1.6202651262283325,5.743715286254883,0.9217538833618164
1730865975.1834197,-1.7350672483444214,1.0756663084030151,-9.8892240524292,-0.02308793163430494,-0.05900493749888405,-0.09634875287398323,1.6219921112060547,5.745558738708496,0.9183942079544067
1730865975.2334309,-1.6980245113372803,1.014807939529419,-9.849322319030762,-0.010710842360544518,-0.056290972108646135,-0.09407316541308375,1.615350365638733,5.72167444229126,0.9145652651786804
1730865975.2833824,-1.74787175655365,0.9247363805770874,-9.83838939666748,0.006519494415811779,-0.03898927105202052,-0.07861001583858543,1.6169918775558472,5.723147869110107,0.9107627272605896
1730865975.3333728,-1.7218077182769775,0.9190731048583984,-9.835184097290039,0.02291812235833187,-0.008302233727389826,-0.05038571221592634,1.6105220317840576,5.6992692947387695,0.9067486524581909
1730865975.3833628,-1.710154414176941,0.9689270853996277,-9.809120178222656,0.031965799868826195,0.028965423470488368,-0.016041453893726652,1.6122437715530396,5.700615406036377,0.9026862978935242
1730865975.4333987,-1.6837084293365479,0.9878154993057251,-9.841340065002441,0.030700621055509567,0.061049610779061396,0.014812102813097585,1.606041431427002,5.677154064178467,0.8987576961517334
1730865975.483403,-1.650559425354004,1.0081390142440796,-9.836055755615234,0.02225938360312474,0.07559619900114437,0.034793767778074046,1.6078741550445557,5.678683280944824,0.8947618007659912
1730865975.5333564,-1.6746716499328613,1.0141290426254272,-9.857386589050293,0.013018104050091399,0.0669534325465236,0.04110967486595574,1.6019690036773682,5.655630111694336,0.8911551237106323
1730865975.5833364,-1.6851810216903687,1.004333734512329,-9.852632522583008,0.007602412817906841,0.04006181441289643,0.0353983724028843,1.5963387489318848,5.633126735687256,0.8877111077308655
1730865975.6333683,-1.6851810216903687,1.004333734512329,-9.852632522583008,0.006496077811118037,0.006990296889699188,0.02236942352649799,1.5982004404067993,5.634832859039307,0.8839786648750305
1730865975.6333683,-1.5812643766403198,1.044628381729126,-9.859695434570312,0.007890870631898588,-0.02020737281175767,0.007749904901397921,1.5982155799865723,5.6348466873168945,0.8839487433433533
1730865975.683324,-1.7228114604949951,1.0327458381652832,-9.875347137451172,0.01090891728103635,-0.0352035616269415,-0.004000309316528424,1.6000736951828003,5.636495113372803,0.880289614200592
1730865975.7333395,-1.7228114604949951,1.0327458381652832,-9.875347137451172,0.0150656563090223,-0.03859447281359672,-0.01118207075461455,1.6020022630691528,5.638084411621094,0.8765367269515991
1730865975.7333395,-1.8088876008987427,1.0366780757904053,-9.752493858337402,0.01715325061547149,-0.0349156454151604,-0.014006430678420933,1.6020183563232422,5.638097286224365,0.8765055537223816
1730865975.7832942,-1.8492463827133179,1.0879586935043335,-9.823813438415527,0.01131695494454727,-0.029360133362805935,-0.01204285716669803,1.5963772535324097,5.615246772766113,0.8734654784202576
1730865975.8332365,-1.8476037979125977,1.0733569860458374,-9.768607139587402,-0.0066782671227905675,-0.026047537127779477,-0.00399558458329022,1.5982999801635742,5.616573333740234,0.8696958422660828
1730865975.8832293,-1.7965223789215088,1.0459142923355103,-9.815152168273926,-0.03377534220056403,-0.026070712640561905,0.009486785710485762,1.5928040742874146,5.5936079025268555,0.8667325377464294
1730865975.933179,-1.7969716787338257,1.0425485372543335,-9.871280670166016,-0.058556266409266394,-0.026443370925980054,0.024181728974835517,1.5874249935150146,5.571174144744873,0.8638651371002197
1730865975.9832678,-1.7303887605667114,1.079399585723877,-9.879664421081543,-0.06867909626676627,-0.023318006815725323,0.03372068935800834,1.5889695882797241,5.572120666503906,0.8602160215377808
1730865976.0331671,-1.6776671409606934,1.154143214225769,-9.950304985046387,-0.058735009336434114,-0.01694805490755924,0.0329651967823092,1.59035062789917,5.573014259338379,0.8566602468490601
1730865976.0831647,-1.6643404960632324,1.210000991821289,-9.945380210876465,-0.030564073401194464,-0.012965068657824168,0.020641714353199656,1.5846738815307617,5.550393581390381,0.8542173504829407
1730865976.1330926,-1.6949403285980225,1.204162359237671,-9.977410316467285,0.009176851730967436,-0.018269387919177107,-0.0006418491986773878,1.5858876705169678,5.551116466522217,0.8507636189460754
1730865976.1830785,-1.715383529663086,1.1504161357879639,-9.959513664245605,0.04901874077471789,-0.033571971578344836,-0.025233450011952922,1.5804804563522339,5.528601169586182,0.8484309315681458
1730865976.2331274,-1.7309974431991577,1.0735752582550049,-9.935346603393555,0.07487521219126414,-0.04985238300276249,-0.04560711683009361,1.5754485130310059,5.506338596343994,0.8459756970405579
1730865976.2831085,-1.751832365989685,1.0295008420944214,-9.867960929870605,0.07756462448248141,-0.054554393935711654,-0.05481474957082014,1.577030062675476,5.506580829620361,0.8422821164131165
1730865976.333172,-1.7894331216812134,1.0231446027755737,-9.804779052734375,0.058240274464429725,-0.04139734301286081,-0.04863995191136879,1.578788161277771,5.506704330444336,0.8384439945220947
1730865976.3830342,-1.7807178497314453,0.9962002635002136,-9.770801544189453,0.025782465766469774,-0.013747663623326951,-0.026122162033996348,1.5742007493972778,5.484257221221924,0.8358803987503052
1730865976.4331918,-1.7807178497314453,0.9962002635002136,-9.770801544189453,-0.009029127543506925,0.019196516742503493,0.009761761114700639,1.5760656595230103,5.48422908782959,0.8319209218025208
1730865976.4331918,-1.7861945629119873,0.9779112339019775,-9.746031761169434,-0.03685878084484348,0.04737410265324186,0.050276417092972515,1.57608163356781,5.48422908782959,0.8318869471549988
1730865976.4830334,-1.7849152088165283,0.9251965284347534,-9.751386642456055,-0.05153254516532216,0.06352276858236676,0.08248285706092798,1.5778307914733887,5.484302997589111,0.8281285166740417
1730865976.5330846,-1.784656286239624,0.8895010352134705,-9.759675979614258,-0.051668453988509486,0.06650445227442653,0.09623444485849847,1.5794864892959595,5.4845404624938965,0.8245177268981934
1730865976.583109,-1.7826882600784302,0.8732828497886658,-9.80506706237793,-0.040677859637180014,0.062019227070102795,0.0894493994166479,1.5745820999145508,5.4624433517456055,0.822752833366394
1730865976.6331296,-1.7952266931533813,0.8966658711433411,-9.827330589294434,-0.024589461834345676,0.057989280309126895,0.06688472574920305,1.5760111808776855,5.462902545928955,0.8195852041244507
1730865976.6830444,-1.813761830329895,0.8992002606391907,-9.887080192565918,-0.009518897571208561,0.057514932795393395,0.036030117162354346,1.5773921012878418,5.463504314422607,0.816558301448822
1730865976.7331476,-1.7603381872177124,1.0126773118972778,-9.927574157714844,0.00021287931204677863,0.05608108725436166,0.0034845198598322854,1.572392225265503,5.441706657409668,0.815284013748169
1730865976.7829556,-1.7603381872177124,1.0126773118972778,-9.927574157714844,0.003499956447612739,0.046035745120584656,-0.026669593561770354,1.5676296949386597,5.4202799797058105,0.8139801621437073
1730865976.7829556,-1.7341268062591553,1.0816811323165894,-9.964619636535645,0.0024821722307457224,0.024123554431461844,-0.05120505800083506,1.5676405429840088,5.420286178588867,0.8139553666114807
1730865976.8330567,-1.7341268062591553,1.0816811323165894,-9.964619636535645,0.0007044949949998313,-0.00547491320465604,-0.06634754817388631,1.5689666271209717,5.421027660369873,0.8108563423156738
1730865976.8330567,-1.752147912979126,1.1004984378814697,-9.94594955444336,0.0009888501764788301,-0.03517578860936782,-0.06997075931179803,1.5689774751663208,5.42103385925293,0.810830295085907
1730865976.882986,-1.7777737379074097,1.0999888181686401,-9.936602592468262,0.004013403933177851,-0.05930939812360901,-0.06346138914732181,1.5643506050109863,5.3997955322265625,0.8093366622924805
1730865976.9328961,-1.7552416324615479,1.0999363660812378,-9.89273738861084,0.008141105257504694,-0.07532367983542142,-0.05022884685141395,1.5656801462173462,5.400205135345459,0.8059282898902893
1730865976.9829338,-1.7443795204162598,1.0299259424209595,-9.859451293945312,0.011290111362412281,-0.08152789964975947,-0.03310852311671838,1.56703782081604,5.400420188903809,0.8024061322212219
1730865977.0329692,-1.738450288772583,0.9913241267204285,-9.821126937866211,0.013150549071348314,-0.07507442369568877,-0.012988790717594838,1.5625125169754028,5.378727436065674,0.8007566332817078
1730865977.0829315,-1.738450288772583,0.9913241267204285,-9.821126937866211,0.014945488355493561,-0.05385834381802744,0.010016895996310532,1.5639089345932007,5.3784990310668945,0.7971901893615723
1730865977.0829315,-1.72636079788208,1.0042277574539185,-9.780694961547852,0.017314830652201425,-0.021331796381959246,0.033522579650030734,1.563920497894287,5.3784966468811035,0.7971612215042114
1730865977.1329029,-1.7019740343093872,1.0301756858825684,-9.777835845947266,0.01952713723325737,0.012178384589637317,0.05234790047270783,1.5596027374267578,5.356649875640869,0.7956825494766235
1730865977.1829247,-1.7100615501403809,1.0236696004867554,-9.772236824035645,0.020706366375159393,0.03491562679271815,0.06205633342674009,1.5610705614089966,5.35634183883667,0.7923429608345032
1730865977.2328663,-1.6848812103271484,1.0475960969924927,-9.79813289642334,0.020554843123857115,0.0408143349933192,0.06143246217772596,1.5625927448272705,5.356127738952637,0.789151668548584
1730865977.282879,-1.6928070783615112,1.0816024541854858,-9.839337348937988,0.01904301737304977,0.03154907625112756,0.05139960494234925,1.564159631729126,5.35600471496582,0.7861106395721436
1730865977.3328586,-1.6928070783615112,1.0816024541854858,-9.839337348937988,0.016474110536913014,0.013047735295530589,0.03352362781768382,1.5599548816680908,5.334450721740723,0.7853779792785645
1730865977.3328586,-1.6839771270751953,1.121504783630371,-9.875795364379883,0.013544504969345426,-0.008562710683716291,0.010151592403365658,1.559968113899231,5.334449768066406,0.7853542566299438
1730865977.382834,-1.7058701515197754,1.1514695882797241,-9.901827812194824,0.010837516556471985,-0.028527931834615487,-0.014890737510132446,1.561579942703247,5.334279537200928,0.7824705839157104
1730865977.4328403,-1.718064785003662,1.188222885131836,-9.899704933166504,0.008246992581479286,-0.04419208999681158,-0.03708545827355493,1.557547688484192,5.312643051147461,0.7817297577857971
1730865977.4828014,-1.7559535503387451,1.210862636566162,-9.879318237304688,0.004827777899121524,-0.055383306076007006,-0.052868273125534625,1.5591917037963867,5.31217098236084,0.7786518335342407
1730865977.5329611,-1.7530285120010376,1.21330988407135,-9.857230186462402,-0.000592397484629604,-0.06263933844909902,-0.0595945550698569,1.5552767515182495,5.290373802185059,0.7777630090713501
1730865977.5827668,-1.771667242050171,1.2144695520401,-9.824956893920898,-0.00831981260132563,-0.06507031449770892,-0.0550969812089011,1.5568877458572388,5.2895121574401855,0.7744212746620178
1730865977.6327608,-1.7904527187347412,1.173574447631836,-9.815088272094727,-0.0172020236105985,-0.060876530959946176,-0.03930343888099169,1.5584697723388672,5.288492202758789,0.77095627784729
1730865977.6826727,-1.791128396987915,1.1400463581085205,-9.794534683227539,-0.02534088656175169,-0.04886829058257425,-0.01561423786950853,1.5545226335525513,5.266488075256348,0.7699366211891174
1730865977.732706,-1.7754602432250977,1.096877932548523,-9.804055213928223,-0.031175170428131123,-0.029187714615467257,0.01021895307323854,1.5559604167938232,5.265150547027588,0.7664044499397278
1730865977.7826765,-1.7451756000518799,1.0755596160888672,-9.820162773132324,-0.033205774670822766,-0.00406551116343702,0.031693528376090074,1.5520323514938354,5.2430877685546875,0.7655088305473328
1730865977.8326948,-1.7535194158554077,1.0384587049484253,-9.841119766235352,-0.02966111052696829,0.022052528954627715,0.04289047581446633,1.5532989501953125,5.241638660430908,0.762109637260437
1730865977.8826828,-1.7427948713302612,1.0323339700698853,-9.852581024169922,-0.020276449199481093,0.04401255077238688,0.04081054657933782,1.5544887781143188,5.240288257598877,0.7588537931442261
