Timestamp,IMU_Linear_Acc_X,IMU_Linear_Acc_Y,IMU_Linear_Acc_Z,Filtered_X,Filtered_Y,Filtered_Z,Pose_X,Pose_Y,Pose_Z
1730865946.8340745,-1.6464816331863403,1.1096014976501465,-9.926274299621582,-0.12884183942096883,-0.22460512433718116,0.15388041786598464,0.8860386610031128,3.8324952125549316,0.8989497423171997
1730865946.8840554,-1.6525182723999023,1.072100281715393,-9.886634826660156,-0.084442775136436,-0.26790527580495693,0.4893364439747929,0.883325457572937,3.8326847553253174,0.898941695690155
1730865946.9339588,-1.6460669040679932,1.1705397367477417,-9.888028144836426,-0.08200507391427742,-0.31386528994467733,0.5686367882475187,0.8907859325408936,3.857419967651367,0.8865319490432739
1730865946.9839773,-1.5448205471038818,1.3515266180038452,-9.916738510131836,-0.10829877146454123,-0.349463088034795,0.46893185835442863,0.8902991414070129,3.8603336811065674,0.8851557374000549
1730865947.0338826,-1.4505513906478882,1.3764179944992065,-9.885746955871582,-0.14238022520591698,-0.37386094130770364,0.29112338572151675,0.8736892342567444,-0.8383402824401855,0.8868961334228516
1730865947.083904,-1.483825922012329,1.3574954271316528,-9.83907413482666,-0.16335720249209426,-0.39700456674915496,0.12145421595422917,0.869534969329834,-1.8605186939239502,0.8865339159965515
1730865947.1338828,-1.5220105648040771,1.4168083667755127,-9.791072845458984,-0.1584988561732784,-0.42892811509175854,0.012321622788381774,0.8545919060707092,-5.63126277923584,0.8836410045623779
1730865947.1838188,-1.466209888458252,1.5062932968139648,-9.781386375427246,-0.1285873234817484,-0.47246060872110385,-0.0197191980243357,0.8167828917503357,-14.83184814453125,0.8785383701324463
1730865947.2339377,-1.6475468873977661,1.4503509998321533,-9.745635986328125,-0.08578188626458735,-0.5245065652366452,0.014063694609563828,0.7787824869155884,-24.01488494873047,0.8734390735626221
1730865947.2838902,-1.7597566843032837,1.3032793998718262,-9.741059303283691,-0.0478370486741725,-0.5782829394042344,0.08709275627413236,0.859764814376831,-4.318203449249268,0.8843005895614624
1730865947.3337905,-1.6816997528076172,1.2365984916687012,-9.753911018371582,-0.03248642587443111,-0.6224372876812823,0.17009935817097296,0.863037109375,-1.4550232887268066,0.8860509991645813
1730865947.3838024,-1.757475733757019,1.2633165121078491,-9.788309097290039,-0.04971366733619988,-0.6432948105215888,0.23988476327042418,0.8571538329124451,-2.150223731994629,0.8864720463752747
1730865947.4338114,-1.9410609006881714,1.2342725992202759,-9.715015411376953,-0.09718545787650569,-0.6328454082022582,0.2834354618733008,0.8906472325325012,2.0694570541381836,0.8939301371574402
1730865947.4836771,-1.7980672121047974,1.2204742431640625,-9.816902160644531,-0.16480848126677505,-0.5944628731411017,0.298708058015531,0.8974037766456604,2.7064311504364014,0.8977972865104675
1730865947.5337312,-1.6201061010360718,1.2407430410385132,-9.861479759216309,-0.2390201321048205,-0.5406035421782539,0.29138194437860876,0.9037003517150879,3.3465609550476074,0.9024348855018616
1730865947.5837328,-1.6417081356048584,1.2559638023376465,-9.932706832885742,-0.3016647454333781,-0.486504585538391,0.2686324268139027,0.888080894947052,2.195943593978882,0.892524003982544
1730865947.6336718,-1.4783844947814941,1.2720919847488403,-9.962823867797852,-0.33340543014404206,-0.4449753843536792,0.23520397318119401,0.8874440789222717,2.2608249187469482,0.8941972255706787
1730865947.6836586,-1.4127205610275269,1.249739170074463,-9.95790958404541,-0.3222865374857633,-0.4231128291825155,0.19407758577812761,0.8859879374504089,2.3246042728424072,0.8964065313339233
1730865947.7336457,-1.4345476627349854,1.2176520824432373,-9.960887908935547,-0.26832486617662793,-0.42071534872162425,0.14897990630673794,0.8807084560394287,1.7276561260223389,0.8899306058883667
1730865947.7836764,-1.6071974039077759,1.2252144813537598,-9.856568336486816,-0.18423437272451448,-0.43111673308626064,0.10595655683030833,0.8781851530075073,1.6486594676971436,0.8905231952667236
1730865947.8337014,-1.532752275466919,1.1856809854507446,-9.923158645629883,-0.09372254760810089,-0.4447076044412012,0.07281207336684986,0.8753092885017395,1.5684221982955933,0.8913406729698181
1730865947.8835726,-1.49844229221344,1.2116985321044922,-9.878271102905273,-0.022509804369248425,-0.4532652152017883,0.05589200991161762,0.8757757544517517,1.352993130683899,0.8877677917480469
1730865947.9345996,-1.521494746208191,1.106750726699829,-9.946966171264648,0.014631210965361786,-0.45235524770975033,0.05617679342463705,0.8739874958992004,1.2527977228164673,0.887793779373169
1730865947.9846032,-1.521235466003418,1.066617727279663,-9.89339542388916,0.01870793557832222,-0.4405895355627658,0.06856015792762256,0.8743865489959717,0.9907482862472534,0.885807454586029
1730865948.034629,-1.6524330377578735,0.9745575785636902,-9.893824577331543,0.00029549029299750194,-0.41734987770065235,0.08519751624684405,0.8732929229736328,0.7233275771141052,0.8856258392333984
1730865948.0845356,-1.714928388595581,0.9513433575630188,-9.833707809448242,-0.030044086592475424,-0.3819957916457689,0.1001591384212148,0.8722556829452515,0.5615100264549255,0.8857142329216003
1730865948.1347377,-1.6118273735046387,0.9223973155021667,-9.884674072265625,-0.06660027151945741,-0.3352285801356514,0.11172334672112702,0.8710910081863403,0.3978688418865204,0.8860694169998169
1730865948.1846237,-1.3661701679229736,0.9260615110397339,-9.857068061828613,-0.10436285981970711,-0.28073359974390727,0.12087029763438445,0.8697184920310974,0.234277606010437,0.8867136836051941
1730865948.2345996,-1.2212275266647339,0.8862243294715881,-9.932165145874023,-0.1312139812769958,-0.22504226823727053,0.12829986053898437,0.8715835213661194,0.7419243454933167,0.885624885559082
1730865948.2835228,-1.0323896408081055,0.8774198889732361,-9.941996574401855,-0.12781848101877255,-0.17510681715964738,0.1327402248119189,0.8704894781112671,0.714011549949646,0.8861683011054993
1730865948.3344536,-1.2495695352554321,0.9381879568099976,-9.924843788146973,-0.07858685440584756,-0.1358436556389228,0.1315559906564832,0.8699971437454224,0.8035903573036194,0.8855885863304138
1730865948.3844686,-1.4342632293701172,1.0002256631851196,-9.9284086227417,0.013334195138800964,-0.1103006857882083,0.12330996190855253,0.8689519762992859,0.7973231077194214,0.8861992955207825
1730865948.4344435,-1.6491162776947021,1.1198151111602783,-9.88106918334961,0.11928956815010502,-0.10157201867953802,0.10990622499289643,0.868075430393219,0.7908162474632263,0.8870977759361267
1730865948.4846096,-1.8150001764297485,1.2128596305847168,-9.911548614501953,0.19536208744872308,-0.11362542260625884,0.09609297623142984,0.8675866723060608,0.7839637398719788,0.8882664442062378
1730865948.5345068,-1.8747748136520386,1.2866096496582031,-9.855307579040527,0.2038378599058518,-0.1499052635805478,0.08697089783789724,0.8675776124000549,0.8321836590766907,0.8854750394821167
1730865948.5845046,-1.8972151279449463,1.2438414096832275,-9.890105247497559,0.13131316766670054,-0.21007696578451224,0.08565988884701731,0.8660956621170044,0.8417701721191406,0.8851414918899536
1730865948.6345894,-1.8699368238449097,1.2726092338562012,-9.829380989074707,-0.006040010651630109,-0.2868720455338008,0.09249466572647545,0.8656526803970337,0.8424199223518372,0.8855371475219727
1730865948.6844258,-1.9649289846420288,1.1705948114395142,-9.842905044555664,-0.1715293899525564,-0.36630397577479346,0.10572857671110962,0.8645970225334167,0.8490496873855591,0.8853020071983337
1730865948.7343395,-1.755480170249939,1.117276906967163,-9.814167976379395,-0.32465689263293884,-0.4316163189874547,0.12283273023498044,0.8632137775421143,0.8495014309883118,0.8858947157859802
1730865948.7843802,-1.648979902267456,1.0715574026107788,-9.870731353759766,-0.4336019042379442,-0.4684348074504349,0.14108633017063116,0.8627820611000061,0.8560369610786438,0.8855195641517639
1730865948.8343627,-1.619248390197754,1.0923936367034912,-9.766934394836426,-0.47965218458455294,-0.46977406212926603,0.15770933901250275,0.860255241394043,0.8564264178276062,0.8863018155097961
1730865948.8843756,-1.5719029903411865,1.1600306034088135,-9.814069747924805,-0.45969194116267276,-0.43963258287187496,0.17104618128015056,0.8630549311637878,0.8631415963172913,0.8856406211853027
1730865948.9342463,-1.4718180894851685,1.2043366432189941,-9.855443000793457,-0.38672092634556443,-0.39268852827854156,0.18117146401158932,0.8608284592628479,0.8640292286872864,0.8865526914596558
1730865948.9843962,-1.5622344017028809,1.2559999227523804,-9.844598770141602,-0.28420333314354973,-0.3489580233105014,0.18803318266952393,0.8639808893203735,0.8685401678085327,0.8857435584068298
1730865949.0343103,-1.6065484285354614,1.3037285804748535,-9.91126537322998,-0.17846483205476626,-0.32584134439177675,0.1900946361304899,0.8626207113265991,0.8697048425674438,0.8867550492286682
1730865949.084335,-1.6464300155639648,1.3352413177490234,-9.848318099975586,-0.09342569326192884,-0.33214538809424743,0.18558636856908384,0.8609103560447693,0.8700523972511292,0.8882448077201843
1730865949.1342292,-1.7890230417251587,1.2793657779693604,-9.847938537597656,-0.04615572441680907,-0.3661807512044405,0.17476981653776766,0.8638100624084473,0.8732239007949829,0.8875576853752136
1730865949.1843033,-1.9112098217010498,1.1769911050796509,-9.826825141906738,-0.04440635606394067,-0.4165646479637118,0.16115741734692135,0.8631323575973511,0.87301105260849,0.8888893723487854
1730865949.2342906,-1.7468112707138062,1.169215440750122,-9.872337341308594,-0.08644442521679911,-0.4653806801305888,0.14988299644336953,0.8622900247573853,0.871700644493103,0.890611469745636
1730865949.2843397,-1.7610691785812378,1.1731765270233154,-9.90518856048584,-0.15956000879235402,-0.495157314886003,0.14398935910235447,0.8633918762207031,0.878921389579773,0.8894660472869873
1730865949.3341703,-1.772855281829834,1.1963719129562378,-9.869773864746094,-0.24116426627742577,-0.4972324703782557,0.14241223739151648,0.8623120784759521,0.8784963488578796,0.8908929824829102
1730865949.3842542,-1.7723252773284912,1.1582468748092651,-9.856871604919434,-0.30805650046318334,-0.4750248609649177,0.14199131279834148,0.8605363368988037,0.8768501281738281,0.8926860094070435
1730865949.4341888,-1.5951693058013916,1.1924304962158203,-9.84045124053955,-0.34592091506730877,-0.43999856063903314,0.1410399521078116,0.8636652231216431,0.8863431811332703,0.8911960124969482
1730865949.4842129,-1.4303251504898071,1.1096744537353516,-9.871488571166992,-0.3492850840610243,-0.40462406188315786,0.14026624607293073,0.8620498776435852,0.8863534927368164,0.8926084041595459
1730865949.5342839,-1.4494115114212036,1.127644419670105,-9.831385612487793,-0.3167263555550953,-0.37689913073378933,0.1409756315500494,0.8625885844230652,0.8950074911117554,0.893031120300293
1730865949.5842733,-1.374488115310669,1.0864741802215576,-9.847817420959473,-0.25100750184889586,-0.3585093675897663,0.14369769737278665,0.8606544137001038,0.8965582847595215,0.8946780562400818
1730865949.634126,-1.4525998830795288,1.0719263553619385,-9.802490234375,-0.1625271693242321,-0.3465681421767434,0.1484111068023882,0.8632189035415649,0.9015682339668274,0.8947930335998535
1730865949.684152,-1.5784028768539429,1.0320987701416016,-9.840079307556152,-0.06949417920699871,-0.33649781855094685,0.1550157679068146,0.8622772693634033,0.9029542803764343,0.8964856863021851
1730865949.734146,-1.5448294878005981,0.9901504516601562,-9.828018188476562,0.006243819979206016,-0.3239681222182176,0.16301800761931945,0.8652971982955933,0.9079939723014832,0.8963664174079895
1730865949.7841535,-1.495914340019226,0.9905200004577637,-9.897010803222656,0.04752797817322114,-0.30599340772341305,0.1707645912280692,0.8655029535293579,0.9090872406959534,0.8979833126068115
1730865949.8341901,-1.5989469289779663,0.96947181224823,-9.889765739440918,0.05024793313389683,-0.2818649764769827,0.17523164501659805,0.8665496706962585,0.9158070683479309,0.8982710242271423
1730865949.8841543,-1.5671354532241821,0.9694827198982239,-9.91878890991211,0.023229684558108053,-0.2535609012930752,0.1731471236085654,0.8673232197761536,0.9205182194709778,0.8981269001960754
1730865949.9341342,-1.4966825246810913,0.9941743016242981,-9.964380264282227,-0.01865784256521829,-0.22503226319587605,0.16269821791063693,0.8678131103515625,0.9227561950683594,0.8994506597518921
1730865949.984129,-1.4800490140914917,0.969645619392395,-9.981051445007324,-0.05964978669127765,-0.2008033290512867,0.1440292938391853,0.8682070970535278,0.9244711995124817,0.9011672139167786
1730865950.0342054,-1.459653377532959,1.016774296760559,-9.992463111877441,-0.08628282822885591,-0.18444475333083882,0.11871460309357809,0.8684165477752686,0.9256951212882996,0.9032031297683716
1730865950.0840492,-1.5144121646881104,1.049118995666504,-9.973414421081543,-0.09152603529778815,-0.17779583205247845,0.08967059140208801,0.8666656613349915,0.9281872510910034,0.8981467485427856
1730865950.1340241,-1.6105612516403198,1.0086636543273926,-9.94045639038086,-0.07797456637652839,-0.18112591268736933,0.06135138069350772,0.8662601113319397,0.9295514822006226,0.8988803029060364
1730865950.1840804,-1.5536221265792847,1.06661057472229,-9.94149398803711,-0.05683131608211607,-0.19291554086466706,0.039137533605372504,0.8659162521362305,0.936146080493927,0.8980340957641602
1730865950.2339597,-1.603241205215454,1.065562129020691,-9.964529037475586,-0.041511441263273,-0.2099919997393208,0.027278988140123323,0.8654412627220154,0.9385783076286316,0.8984889388084412
1730865950.2839465,-1.879683494567871,1.0326447486877441,-9.866992950439453,-0.04162390698745456,-0.22880547863911,0.02688145363581176,0.864857017993927,0.9404892921447754,0.8990166187286377
1730865950.3339956,-2.0737950801849365,0.9914940595626831,-9.809025764465332,-0.06465305005173927,-0.2457386182731837,0.03689233847063418,0.8674501180648804,0.9438039064407349,0.8963873982429504
1730865950.3840535,-1.8243703842163086,0.9407444000244141,-9.798154830932617,-0.11799240173159299,-0.25639611768993675,0.05673359557600611,0.8673206567764282,0.9449954032897949,0.8963958621025085
1730865950.4339852,-1.6435387134552002,1.0102969408035278,-9.805895805358887,-0.19958788278615142,-0.2566330422548286,0.08600684148421438,0.8692009449005127,0.9532491564750671,0.8946722149848938
1730865950.4839067,-1.5730770826339722,1.1460793018341064,-9.76155948638916,-0.2877998880456195,-0.2464419788015644,0.12205870894371162,0.8688766956329346,0.9559431672096252,0.8945366740226746
1730865950.5338778,-1.402429223060608,1.2469379901885986,-9.80485725402832,-0.34865423066946166,-0.23375528524571293,0.15970823346512864,0.867760419845581,0.9580398201942444,0.8947517275810242
1730865950.5837739,-1.2801685333251953,1.27745521068573,-9.844583511352539,-0.3541737031050015,-0.23265012720189215,0.1928105431071408,0.865772008895874,0.9595547318458557,0.895404577255249
1730865950.6338754,-1.3144124746322632,1.2810062170028687,-9.876189231872559,-0.2948149442119229,-0.25507702926696385,0.21530962461784936,0.8629599809646606,0.9604672193527222,0.8965722322463989
1730865950.6837897,-1.3720238208770752,1.2254197597503662,-9.91110610961914,-0.1828102500397446,-0.3025896465622707,0.22242548374465063,0.8595530390739441,0.9606796503067017,0.8982869386672974
1730865950.7338083,-1.4993278980255127,1.1518988609313965,-9.931300163269043,-0.04872205088570304,-0.36423837804292813,0.21241951870853082,0.8710229396820068,0.9596509337425232,0.8934823274612427
1730865950.78379,-1.6006672382354736,1.0863429307937622,-9.86929702758789,0.06877783976928206,-0.4211038820794055,0.18786771346542128,0.8708760142326355,0.9593877792358398,0.8942636847496033
1730865950.8337855,-1.81550133228302,1.01986563205719,-9.81452465057373,0.13596776160377602,-0.45433110713603114,0.15618448199065882,0.8745445609092712,0.9660492539405823,0.8921302556991577
1730865950.8837059,-1.9375649690628052,0.9927679896354675,-9.77560806274414,0.13331001541654428,-0.45259514599737055,0.12851824782826143,0.8758467435836792,0.9662913680076599,0.8925078511238098
1730865950.9336746,-2.0457820892333984,0.9714118242263794,-9.726194381713867,0.05866751533966033,-0.41584677554868144,0.11593224531772135,0.8773858547210693,0.9654515981674194,0.8931891918182373
1730865950.9836621,-2.0869340896606445,1.0083929300308228,-9.737180709838867,-0.07365777771981319,-0.3545590233527768,0.12469731236021932,0.8779177665710449,0.9772661328315735,0.890630304813385
1730865951.0336392,-2.0562994480133057,1.051559329032898,-9.758321762084961,-0.23704618058428897,-0.2857753303387164,0.15347984556069685,0.8785237073898315,0.9785869717597961,0.8909336924552917
1730865951.083622,-1.9736506938934326,1.1039338111877441,-9.822582244873047,-0.3991012640951446,-0.2277919537581099,0.1934135411474061,0.8840363025665283,0.9890913963317871,0.8890698552131653
1730865951.133597,-1.9302725791931152,1.1401413679122925,-9.887577056884766,-0.5292117313083505,-0.19485754998210103,0.23089789094751578,0.8847569823265076,0.992563009262085,0.8894078135490417
1730865951.1835477,-1.8705997467041016,1.1601102352142334,-9.892549514770508,-0.6061316815224186,-0.19325468987105904,0.2524257102778045,0.8897305130958557,1.000595211982727,0.8876953721046448
1730865951.233644,-1.852792739868164,1.1702474355697632,-9.919771194458008,-0.6233828873126093,-0.22010337045712902,0.24997056176968135,0.8898788690567017,1.0049667358398438,0.8882114291191101
1730865951.2836158,-1.850260853767395,1.1229956150054932,-9.914119720458984,-0.5898062334248791,-0.2650578529983834,0.2241824031917038,0.8945128321647644,1.013013482093811,0.8882208466529846
1730865951.3335752,-1.8229795694351196,1.0839333534240723,-9.910886764526367,-0.5250148866044586,-0.31368446964131536,0.18336624153759418,0.8940649032592773,1.0171642303466797,0.8892614245414734
1730865951.3836124,-1.7985893487930298,1.0479875802993774,-9.888747215270996,-0.45161904163280553,-0.3514954263894844,0.13948557220686444,0.9009709358215332,1.023067593574524,0.8885160684585571
1730865951.4335694,-1.7535266876220703,0.9978740811347961,-9.872357368469238,-0.38737588420219593,-0.3680195451119642,0.10379766500962645,0.907389223575592,1.032294750213623,0.888367235660553
1730865951.4836032,-1.7225205898284912,0.9698752164840698,-9.863229751586914,-0.34068255857236196,-0.35941642415347164,0.08364966420631308,0.9091150164604187,1.0368255376815796,0.8889991044998169
1730865951.533507,-1.668954610824585,0.9353963732719421,-9.8529052734375,-0.3106691242920222,-0.32852153570559883,0.08100200713401093,0.9100223183631897,1.0404858589172363,0.88983553647995
1730865951.583536,-1.6359572410583496,0.9215210676193237,-9.852986335754395,-0.2905199208661161,-0.28288241556558286,0.09282026867672638,0.9101782441139221,1.0433863401412964,0.890890896320343
1730865951.6334298,-1.6144894361495972,0.9229671359062195,-9.850465774536133,-0.27191228678934953,-0.23201976908722258,0.11295288141308338,0.911334753036499,1.0436012744903564,0.8883737921714783
1730865951.6834772,-1.6067534685134888,0.9610587358474731,-9.857247352600098,-0.24895151608120294,-0.18514634989401463,0.1345498258975337,0.9112202525138855,1.045789361000061,0.8890323638916016
1730865951.7344527,-1.5976148843765259,1.0084751844406128,-9.867647171020508,-0.22026679203929278,-0.1500013997539842,0.15203802830501456,0.9135347008705139,1.0563863515853882,0.8883735537528992
1730865951.7843916,-1.6114647388458252,1.0301212072372437,-9.874835968017578,-0.1886727193913171,-0.13218130227498157,0.16213672115980235,0.9136470556259155,1.0611175298690796,0.8891773819923401
1730865951.8344188,-1.5975745916366577,1.018343448638916,-9.889068603515625,-0.15913990792487762,-0.1338516551230019,0.16397619055894702,0.9133250117301941,1.0655235052108765,0.8903899788856506
1730865951.8845086,-1.6075562238693237,0.9683912396430969,-9.893061637878418,-0.13628677507276327,-0.15201911195981577,0.15862854711384966,0.9148423075675964,1.0687111616134644,0.8886095881462097
1730865951.934418,-1.626556634902954,0.905511736869812,-9.897462844848633,-0.12263371358117583,-0.17803140884282595,0.14837537311652865,0.9146267175674438,1.0718700885772705,0.8895115256309509
1730865951.9844997,-1.6508206129074097,0.8503293991088867,-9.890620231628418,-0.11850875595538418,-0.19968098480160895,0.13602562880229796,0.9173309206962585,1.0835380554199219,0.888695240020752
1730865952.034278,-1.668717384338379,0.7852784395217896,-9.882685661315918,-0.12298924260620045,-0.2054157987913767,0.12440102922510268,0.9176719784736633,1.0889023542404175,0.8895121216773987
1730865952.0843859,-1.666137456893921,0.7490000128746033,-9.847501754760742,-0.13448378859379753,-0.1884556686310226,0.1160386521892601,0.919750988483429,1.0938341617584229,0.8886264562606812
1730865952.134316,-1.6244356632232666,0.7482098340988159,-9.854060173034668,-0.1503872912239344,-0.14900192839270293,0.11300726921519667,0.920158326625824,1.098555326461792,0.8893193006515503
1730865952.1843207,-1.5937052965164185,0.7874472141265869,-9.882034301757812,-0.16640569884155054,-0.09435534328030781,0.11617188310419814,0.9201700091362,1.1029804944992065,0.8903000950813293
1730865952.2342668,-1.5707736015319824,0.8576775789260864,-9.910017013549805,-0.1769701578931426,-0.03726241247681354,0.1238963340428536,0.917879581451416,1.104938268661499,0.8886058330535889
1730865952.2842512,-1.587791085243225,0.9232023358345032,-9.935588836669922,-0.17748827536826872,0.007384104122457408,0.13181656244204903,0.9164417386054993,1.1148252487182617,0.8885056376457214
1730865952.3342435,-1.5839658975601196,0.9715844392776489,-9.951668739318848,-0.16703595310037705,0.02701914032791911,0.1346624839483768,0.9151113629341125,1.1204094886779785,0.8891979455947876
1730865952.3842833,-1.6285433769226074,0.9795622229576111,-9.949352264404297,-0.14925362487852675,0.01579400670996606,0.1289180650730993,0.9129648804664612,1.1258922815322876,0.8884373903274536
1730865952.4342704,-1.6731714010238647,0.9589577913284302,-9.931402206420898,-0.13105416452588933,-0.022908537333922743,0.11466432970445631,0.9108532667160034,1.131623387336731,0.8890905976295471
1730865952.4843504,-1.7608195543289185,0.9085907340049744,-9.892904281616211,-0.12054029362772459,-0.0771374253616243,0.09586534551702856,0.9084203243255615,1.1372461318969727,0.890009343624115
1730865952.5342863,-1.8198007345199585,0.8613375425338745,-9.845653533935547,-0.12505452893903454,-0.13018523310112598,0.07916975230643142,0.9103496074676514,1.1383031606674194,0.8883036375045776
1730865952.5842535,-1.8743910789489746,0.8098325729370117,-9.812735557556152,-0.1492326199268218,-0.16613516754906174,0.07169597397160013,0.9086816906929016,1.1422033309936523,0.8887856006622314
1730865952.634168,-1.8814746141433716,0.8248398900032043,-9.78154468536377,-0.1931001990389148,-0.17514760278666547,0.07844732268359134,0.9084301590919495,1.15257728099823,0.8881957530975342
1730865952.6841817,-1.8178749084472656,0.9012826681137085,-9.799697875976562,-0.2507993363638618,-0.1571139312698438,0.10021796021427573,0.9064068794250488,1.1581957340240479,0.8886680006980896
1730865952.7341259,-1.7743693590164185,0.9895063042640686,-9.821540832519531,-0.3107688871320962,-0.12261661463688414,0.13273765299175513,0.9061766862869263,1.162376880645752,0.8882429599761963
1730865952.7841399,-1.7426655292510986,1.0704177618026733,-9.879551887512207,-0.35865412442282296,-0.08971997482337003,0.16747120096174734,0.903556227684021,1.1673240661621094,0.8889418244361877
1730865952.834016,-1.7173658609390259,1.144403100013733,-9.899643898010254,-0.382797067675579,-0.07690869613013288,0.1941697836041536,0.9060099720954895,1.1748738288879395,0.8884175419807434
1730865952.884022,-1.7238008975982666,1.201750636100769,-9.902915954589844,-0.3791131340362537,-0.09578838727764448,0.2046856298729653,0.9036880135536194,1.180315613746643,0.8894017934799194
1730865952.9340377,-1.7645459175109863,1.1820310354232788,-9.86949348449707,-0.35255008882621297,-0.14707845965952562,0.19665327733127708,0.9066768884658813,1.184268832206726,0.8888142108917236
1730865952.9839852,-1.83077871799469,1.1543887853622437,-9.82955265045166,-0.315274106327162,-0.2205402703284273,0.17501203674368934,0.907699465751648,1.1926722526550293,0.8889634609222412
1730865953.0339887,-1.8594506978988647,1.0799541473388672,-9.79504680633545,-0.28260352536573213,-0.2982369426718651,0.15015213601661317,0.9062724113464355,1.197471022605896,0.8900015354156494
1730865953.0839276,-1.8404059410095215,1.018115758895874,-9.759230613708496,-0.26731742999598074,-0.36026790852655055,0.13350593150756984,0.9041600823402405,1.2014482021331787,0.8913930654525757
1730865953.1339393,-1.7897979021072388,0.9865586757659912,-9.764646530151367,-0.27405281830402384,-0.3912001048309891,0.13286471912689107,0.9013680219650269,1.2044926881790161,0.8931195735931396
1730865953.1840162,-1.698754072189331,1.0258070230484009,-9.786855697631836,-0.29681820331830955,-0.3853548179363582,0.1493843703247218,0.9082485437393188,1.2067190408706665,0.8893018960952759
1730865953.2339149,-1.6195176839828491,1.096706748008728,-9.849236488342285,-0.32134228563487455,-0.3494243061649023,0.1770850483648414,0.9066889882087708,1.2089660167694092,0.8902735710144043
1730865953.2839737,-1.5690386295318604,1.1863417625427246,-9.894932746887207,-0.3312650390227012,-0.30084159893870743,0.20493994553833905,0.9043000936508179,1.2104109525680542,0.8917312026023865
1730865953.3338645,-1.5596836805343628,1.2637195587158203,-9.941064834594727,-0.3154625970216505,-0.26166658200641296,0.2210215335789843,0.9076274037361145,1.2195391654968262,0.8895329236984253
1730865953.384044,-1.59630286693573,1.3051685094833374,-9.960204124450684,-0.27322299068856376,-0.25030656929379597,0.21717443992526797,0.9057572484016418,1.222805380821228,0.8907769918441772
1730865953.4338489,-1.6284863948822021,1.3273265361785889,-9.94701862335205,-0.21480698928824782,-0.274751848263562,0.19220931756204557,0.9032987952232361,1.2253868579864502,0.8925175666809082
1730865953.4840422,-1.6553434133529663,1.316172480583191,-9.920696258544922,-0.15699241639984898,-0.33024824329446645,0.1524142676901335,0.9072157740592957,1.23387610912323,0.8897693753242493
1730865953.5338588,-1.6599690914154053,1.2806527614593506,-9.860176086425781,-0.11572008113407337,-0.40196910043126344,0.10940732276390758,0.9102237820625305,1.2476762533187866,0.8897997140884399
1730865953.583919,-1.6765570640563965,1.1801283359527588,-9.819402694702148,-0.09975691336941758,-0.4705391007348744,0.07626673225327267,0.910274088382721,1.252753496170044,0.8905856013298035
1730865953.6338382,-1.6765570640563965,1.1801283359527588,-9.819402694702148,-0.10853414982553396,-0.5179286005448971,0.06307493759781926,0.9133954644203186,1.2584667205810547,0.8900318145751953
1730865953.6338382,-1.6720153093338013,1.0732054710388184,-9.787087440490723,-0.13425234852003293,-0.5326262040843941,0.07323358769821672,0.9134021401405334,1.2585067749023438,0.8900373578071594
1730865953.6838663,-1.6663193702697754,0.9791675806045532,-9.763050079345703,-0.16600661685827744,-0.512044784495499,0.10275503987933358,0.9138118028640747,1.261577844619751,0.8906770944595337
1730865953.7339408,-1.6707918643951416,0.9239218235015869,-9.750232696533203,-0.1938455931768185,-0.4607370441532329,0.14315424126059534,0.9137777090072632,1.2634739875793457,0.891631543636322
1730865953.7837968,-1.6994575262069702,0.9047927856445312,-9.781537055969238,-0.21178290243315107,-0.3874653461713968,0.18516992998022255,0.9161044955253601,1.2710673809051514,0.8902072906494141
1730865953.8338177,-1.7137017250061035,0.9450106620788574,-9.824131965637207,-0.21915711097196683,-0.3040073014811551,0.22065628477350518,0.9160333275794983,1.2739417552947998,0.8912053108215332
1730865953.8838098,-1.7199853658676147,1.0237822532653809,-9.900525093078613,-0.21972815105286647,-0.22462891765533038,0.2428604243909884,0.918622612953186,1.2848845720291138,0.8906571269035339
1730865953.933771,-1.7121604681015015,1.109671950340271,-9.941783905029297,-0.21878938115823005,-0.164461577024891,0.24665247505748397,0.9213380813598633,1.2941066026687622,0.8909004330635071
1730865953.9838536,-1.7125602960586548,1.1412822008132935,-9.991416931152344,-0.22010579648750983,-0.13605812812720633,0.2295911125863963,0.921868622303009,1.29978609085083,0.8922699093818665
1730865954.033785,-1.7383090257644653,1.1559922695159912,-9.991555213928223,-0.22471325621037708,-0.144784245536056,0.1933253403636538,0.921842634677887,1.305083155632019,0.8941577076911926
1730865954.0837812,-1.7700742483139038,1.0934906005859375,-9.966474533081055,-0.23202844990464486,-0.18553840960694024,0.14422857608771977,0.9231210350990295,1.3075311183929443,0.8910378813743591
1730865954.1337168,-1.7931220531463623,1.0574482679367065,-9.924484252929688,-0.24170403782892702,-0.24330194376438466,0.09263288032109696,0.9226784110069275,1.3111326694488525,0.8919723033905029
1730865954.1838078,-1.8051255941390991,0.9757516384124756,-9.861323356628418,-0.25423681605464454,-0.2979316161650423,0.05053312947457236,0.9251681566238403,1.3221418857574463,0.8906565308570862
1730865954.233678,-1.8243852853775024,0.909440279006958,-9.807530403137207,-0.2701248383760509,-0.33098522393500046,0.028361000044795578,0.9248497486114502,1.327344536781311,0.8910942673683167
1730865954.2837088,-1.831785798072815,0.8526820540428162,-9.77783489227295,-0.28895762861936464,-0.3312631514368856,0.03196660111021273,0.927388608455658,1.3301551342010498,0.8903683423995972
1730865954.3335953,-1.7967559099197388,0.8678164482116699,-9.767488479614258,-0.3090964851303062,-0.29753622803872026,0.060684463832105816,0.9269671440124512,1.3335157632827759,0.8906493782997131
1730865954.3836603,-1.7605763673782349,0.9291214346885681,-9.799591064453125,-0.3274383300110818,-0.23887185541637623,0.10714007135829096,0.9300602078437805,1.3421714305877686,0.8903367519378662
1730865954.433618,-1.710945725440979,1.0032237768173218,-9.818702697753906,-0.3394678353647744,-0.1725725317179665,0.15914209336570245,0.929550290107727,1.3463996648788452,0.890899121761322
1730865954.4836576,-1.7012803554534912,1.053971767425537,-9.838756561279297,-0.34054805728984733,-0.11906898018103404,0.20342406948778222,0.9332451224327087,2.009916305541992,0.8905554413795471
1730865954.5335536,-1.6881037950515747,1.0379717350006104,-9.849413871765137,-0.32828855933472334,-0.09445905808762055,0.23007150624383826,0.9329391717910767,2.2270944118499756,0.8915534019470215
1730865954.5836434,-1.7113316059112549,0.9963055849075317,-9.854170799255371,-0.30443584399304274,-0.10370594403818148,0.23555211431434334,0.9347066879272461,2.714061737060547,0.8908132910728455
1730865954.6335702,-1.745736837387085,0.9328804016113281,-9.85682487487793,-0.27497690842586403,-0.13832205194635758,0.2229429068283737,0.9341365694999695,3.032322645187378,0.8920229077339172
1730865954.683587,-1.7479357719421387,0.8603179454803467,-9.831171989440918,-0.2482823951072131,-0.180174408381267,0.1998222001024517,0.9329091310501099,3.3517096042633057,0.8937671184539795
1730865954.733575,-1.7491909265518188,0.843873918056488,-9.839099884033203,-0.23176663132432934,-0.20940986159065622,0.17523872004093605,0.9356816411018372,3.1804869174957275,0.8909537196159363
1730865954.7836032,-1.719849944114685,0.8954249024391174,-9.856204986572266,-0.22852560846086173,-0.21301953966651482,0.1565963190757056,0.9348137974739075,3.362539529800415,0.8920081853866577
1730865954.8335345,-1.719849944114685,0.8954249024391174,-9.856204986572266,-0.2361080135435694,-0.19038866167581386,0.14720955717923762,0.9375936388969421,3.7457315921783447,0.8907953500747681
1730865954.8335345,-1.69038987159729,1.013269066810608,-9.893735885620117,-0.2482011082658716,-0.15279642235254015,0.1458053864477471,0.9375922679901123,3.7475571632385254,0.8908001184463501
1730865954.8834958,-1.6407148838043213,1.1782209873199463,-9.94733715057373,-0.25761847691642054,-0.11840292450738199,0.14779281942895456,0.9402558207511902,4.492802619934082,0.8905341625213623
1730865954.9335127,-1.5968351364135742,1.3148117065429688,-9.980710983276367,-0.2583893831362736,-0.10685262975597266,0.14698035011402621,0.9406695365905762,5.014667510986328,0.8912730813026428
1730865954.9834745,-1.5788203477859497,1.3853707313537598,-9.986942291259766,-0.2468176843357786,-0.13368857387417987,0.13778437050096703,0.9404509663581848,5.534757137298584,0.8923656344413757
1730865955.0333755,-1.59587824344635,1.345052719116211,-9.986001014709473,-0.22264448737162762,-0.2036468417271137,0.11793643801222622,0.9411299824714661,4.907193660736084,0.8906154632568359
1730865955.0834413,-1.6471034288406372,1.241713523864746,-9.92891788482666,-0.19015941630484096,-0.3057762005458866,0.0901671693842571,0.9405579566955566,5.134886264801025,0.8912901282310486
1730865955.1334794,-1.7504501342773438,1.1041513681411743,-9.85863208770752,-0.15819491448502876,-0.41455334830006696,0.061935599350969796,0.9395486116409302,5.361902236938477,0.892156183719635
1730865955.1834555,-1.8304283618927002,0.9711137413978577,-9.74976921081543,-0.13840354695730137,-0.4980048202664403,0.04361046012115297,0.9435368776321411,5.331667900085449,0.8904704451560974
1730865955.2333221,-1.9156988859176636,0.9128645658493042,-9.670672416687012,-0.14175884040802228,-0.5296198096608021,0.045571088988888266,0.9434590935707092,5.5233025550842285,0.8908306360244751
1730865955.2834413,-1.9563443660736084,0.903839647769928,-9.61693286895752,-0.17427951622204801,-0.498841103640872,0.07461800533301122,0.9429845213890076,5.715261936187744,0.8913446068763733
1730865955.3332965,-1.9563443660736084,0.903839647769928,-9.61693286895752,-0.23398433829460114,-0.41529344883800134,0.1306377288894092,0.9420059323310852,5.904628753662109,0.892109751701355
1730865955.3332965,-1.9662718772888184,0.9583784937858582,-9.625625610351562,-0.3107061918660109,-0.30448990738535736,0.20522969102937968,0.9419949054718018,5.906265735626221,0.8921177983283997
1730865955.3834836,-1.923431158065796,1.0500279664993286,-9.705564498901367,-0.3891936956982054,-0.19792197656154575,0.28347994292771583,0.9470570683479309,5.800593852996826,0.890608012676239
1730865955.4342368,-1.8367159366607666,1.1513241529464722,-9.823517799377441,-0.4537506720412995,-0.12325089366804709,0.34782524406728615,0.9461445808410645,5.952138900756836,0.8919111490249634
1730865955.4842105,-1.7143102884292603,1.2665013074874878,-9.948857307434082,-0.49151612020147595,-0.09792395599774782,0.3820321777510443,0.9504906535148621,6.376790523529053,0.8910757303237915
1730865955.5342638,-1.5934988260269165,1.3747628927230835,-10.055098533630371,-0.493785871492613,-0.12677701114359505,0.3748124022396212,0.9496447443962097,6.630420684814453,0.8929495811462402
1730865955.5842412,-1.4835880994796753,1.4298890829086304,-10.111140251159668,-0.4568695216309796,-0.2030525133962628,0.3231404051088286,0.9534050226211548,6.949239730834961,0.8913688659667969
1730865955.6342456,-1.443881630897522,1.4316983222961426,-10.103753089904785,-0.3832868171852728,-0.31122062696851466,0.2343204372357764,0.9526170492172241,7.22966194152832,0.8930935263633728
1730865955.6842623,-1.4952565431594849,1.3775787353515625,-10.049909591674805,-0.2830512718240959,-0.4302161448580315,0.12552991340148267,0.9558784365653992,6.83530855178833,0.8887880444526672
1730865955.7341847,-1.6399167776107788,1.2702287435531616,-9.953142166137695,-0.17428778831235048,-0.5369926663841051,0.020259603276858818,0.9553626179695129,6.906713485717773,0.8890788555145264
1730865955.7842758,-1.8158236742019653,1.1555479764938354,-9.814238548278809,-0.08165824564843072,-0.6105449558919941,-0.05746460760509245,0.9598454236984253,6.726222991943359,0.8850424885749817
1730865955.8341494,-1.987913966178894,1.0372942686080933,-9.684324264526367,-0.031133658694700313,-0.6360538679231599,-0.08895048162480104,0.9637317657470703,6.681052207946777,0.8825028538703918
1730865955.8841746,-2.1046435832977295,0.9711049795150757,-9.589987754821777,-0.04184694217813735,-0.608361078134324,-0.06523364207233956,0.9654978513717651,6.6819167137146,0.8808362483978271
1730865955.9341092,-2.1483964920043945,0.9394667744636536,-9.553539276123047,-0.1183698094369144,-0.5336968277454978,0.010478234066778547,0.9670581817626953,6.6813554763793945,0.8791072964668274
1730865955.9841945,-2.121264934539795,0.9565346837043762,-9.586009979248047,-0.24723348025187195,-0.42870152909867454,0.12280938206410859,0.9681681990623474,6.6795854568481445,0.8775365948677063
1730865956.0340698,-2.039263963699341,0.9619608521461487,-9.645097732543945,-0.3997009004161506,-0.31629150547576546,0.24728681036977915,0.9659960865974426,6.65158748626709,0.880436360836029
1730865956.0840585,-1.9312196969985962,0.9948458671569824,-9.719782829284668,-0.5400024278780944,-0.21916320996762872,0.3564293957207983,0.9650378227233887,6.648617744445801,0.8807669281959534
1730865956.1340225,-1.8107657432556152,1.0069457292556763,-9.799466133117676,-0.6358579423833138,-0.15341434955280162,0.42730300448256464,0.9626159071922302,6.645191669464111,0.8820738792419434
1730865956.184022,-1.7375962734222412,1.0039891004562378,-9.883305549621582,-0.6674702353707743,-0.12485249832325743,0.44751687207952295,0.9585644006729126,6.641413688659668,0.8844742178916931
1730865956.2339506,-1.6901278495788574,0.9899908900260925,-9.963652610778809,-0.6323611030325496,-0.1288288296529313,0.4171592706076804,0.9689787030220032,6.640076637268066,0.8797802925109863
1730865956.2840056,-1.6511867046356201,1.0167818069458008,-10.022025108337402,-0.5447574068804945,-0.153365074744451,0.3465918427078861,0.9668819904327393,6.637434482574463,0.8813216090202332
1730865956.3338845,-1.626352071762085,1.0566904544830322,-10.058816909790039,-0.4295620827291921,-0.18480528670140647,0.25203518537534025,0.9732677340507507,6.638625144958496,0.878067135810852
1730865956.3839247,-1.6089198589324951,1.1275053024291992,-10.08283519744873,-0.3134077735865665,-0.2136751615090851,0.15099892137962814,0.9723416566848755,6.636733531951904,0.878839373588562
1730865956.433835,-1.548673152923584,1.161179542541504,-10.08017635345459,-0.21659903906563038,-0.23759652203725914,0.058628858101897684,0.9786274433135986,6.637030601501465,0.8753709197044373
1730865956.4838657,-1.5168516635894775,1.1840696334838867,-10.051786422729492,-0.14842399836904654,-0.25974470143155276,-0.014447767976234992,0.9824925065040588,6.637520790100098,0.8752080202102661
1730865956.533793,-1.4813148975372314,1.1318827867507935,-9.987784385681152,-0.10699232831858368,-0.28415191827671915,-0.06240940584401448,0.9839229583740234,6.63592529296875,0.8749455213546753
1730865956.5838237,-1.4938756227493286,1.0512200593948364,-9.905617713928223,-0.08344683584436398,-0.31081173818048585,-0.08305536660002222,0.9851239323616028,6.633574962615967,0.8744990825653076
1730865956.6337664,-1.5253958702087402,0.9455553293228149,-9.82075309753418,-0.06822708639228157,-0.3334082868361732,-0.07634839664871157,0.9861304759979248,6.630429744720459,0.8738554120063782
1730865956.683823,-1.6069215536117554,0.8572342395782471,-9.72569751739502,-0.05625160965128877,-0.34115527046777816,-0.04372536893049739,0.9857670664787292,6.636744499206543,0.8750596046447754
1730865956.7337284,-1.7038275003433228,0.803158164024353,-9.66273307800293,-0.04904878811359949,-0.32393530475346,0.011756865737349236,0.9864569306373596,6.634742259979248,0.8748341798782349
1730865956.7837372,-1.8090814352035522,0.8006678223609924,-9.635173797607422,-0.0534594363571469,-0.27800195176872067,0.08480922580085379,0.991142213344574,6.636332988739014,0.8752713203430176
1730865956.8336544,-1.8090814352035522,0.8006678223609924,-9.635173797607422,-0.07736098412031939,-0.20911794700945702,0.16727025834402404,0.9956949949264526,6.637868881225586,0.8778561353683472
1730865956.8336544,-1.8927173614501953,0.8072279691696167,-9.634767532348633,-0.12415072883869539,-0.1310626657327876,0.24849606148719489,0.9957106709480286,6.637864112854004,0.8778648972511292
1730865956.883653,-1.9440635442733765,0.8602471947669983,-9.668485641479492,-0.19007344946791313,-0.06036223842771553,0.3174781045341508,0.9976969957351685,6.637104034423828,0.8795056939125061
1730865956.9336395,-1.9826576709747314,0.9154075980186462,-9.733817100524902,-0.26649468627578526,-0.010880185061516856,0.3654355324584523,0.9991236329078674,6.636251449584961,0.8820071816444397
1730865956.9837236,-1.9989776611328125,0.9727869033813477,-9.810914993286133,-0.34382397626048733,0.009180409731503227,0.38706133269306586,1.0016738176345825,6.63929557800293,0.881344735622406
1730865957.033659,-1.9968469142913818,1.0430967807769775,-9.891023635864258,-0.41379398871464046,-0.0019452377273547743,0.3804498819577544,1.0022377967834473,6.639350891113281,0.8839910626411438
1730865957.083661,-1.9078164100646973,1.1033395528793335,-9.982389450073242,-0.4698902757952811,-0.04041695476384376,0.34675359223814606,1.0016992092132568,6.6393537521362305,0.8875645399093628
1730865957.1336153,-1.811535358428955,1.1505705118179321,-10.037453651428223,-0.5063950137591462,-0.09874523823990608,0.28987979408609243,1.0053050518035889,6.640111446380615,0.8840425610542297
1730865957.1835968,-1.684177279472351,1.158101201057434,-10.068291664123535,-0.5173804778521423,-0.16774970509777448,0.21629043270466333,1.004427194595337,6.639803409576416,0.88644939661026
1730865957.2335598,-1.607757568359375,1.1402833461761475,-10.083259582519531,-0.4976493623707479,-0.23770402507537813,0.134814546395502,1.0022848844528198,6.63899040222168,0.8892880082130432
1730865957.2836456,-1.5794684886932373,1.0847864151000977,-10.054425239562988,-0.4458798057580029,-0.2989026462795405,0.05582672170036444,0.9989600777626038,6.637505531311035,0.8923695683479309
1730865957.3335211,-1.6266781091690063,1.0333889722824097,-10.00820255279541,-0.3681621219626016,-0.34242570944683537,-0.01027145194452933,1.0101956129074097,6.630767345428467,0.8857288360595703
1730865957.3835816,-1.7076492309570312,0.985153317451477,-9.948284149169922,-0.27932871590270436,-0.3616511869085972,-0.05467761509375337,1.0145196914672852,6.622472286224365,0.8869202733039856
1730865957.4335127,-1.7534598112106323,0.9991579055786133,-9.872818946838379,-0.20000775923147215,-0.35442248917314845,-0.07164448498623747,1.0149688720703125,6.617330551147461,0.8877619504928589
1730865957.4836228,-1.761965274810791,1.019677996635437,-9.80775260925293,-0.14939299136148998,-0.3249548099290668,-0.05946744799442919,1.0149813890457153,6.6113128662109375,0.8884426951408386
1730865957.5335631,-1.7332777976989746,1.0601274967193604,-9.740081787109375,-0.13702365124777982,-0.28379672341916007,-0.0206551030473835,1.0146360397338867,6.6045660972595215,0.8890197277069092
1730865957.5835302,-1.7360866069793701,1.0578792095184326,-9.706241607666016,-0.15880562870859635,-0.24463489760986112,0.0386580512446043,1.0139192342758179,6.597135543823242,0.889621376991272
1730865957.633568,-1.7078824043273926,1.0534155368804932,-9.675688743591309,-0.19999517875919848,-0.21892522527191965,0.10979087565781531,1.0191417932510376,6.6065521240234375,0.888802707195282
1730865957.683474,-1.7233083248138428,1.0290294885635376,-9.678693771362305,-0.24272866146173105,-0.21135016441940874,0.1829177911050082,1.01901376247406,6.601983070373535,0.8897866010665894
1730865957.733404,-1.7296462059020996,1.0342074632644653,-9.693284034729004,-0.27339218144471583,-0.21887934572226078,0.2486108326258106,1.0238289833068848,6.591414451599121,0.8913488984107971
1730865957.7834828,-1.7782323360443115,1.0552161931991577,-9.738544464111328,-0.2867972085358357,-0.23386987378269297,0.2991297315982404,1.0243722200393677,6.583862781524658,0.8934680223464966
1730865957.833414,-1.8271551132202148,1.1032934188842773,-9.756502151489258,-0.2864756881533739,-0.2490911127727068,0.32932461453212303,1.0241988897323608,6.575730323791504,0.896364688873291
1730865957.8834038,-1.8970963954925537,1.1459044218063354,-9.80887222290039,-0.28191174279539666,-0.2615540352870279,0.33734797990403786,1.0233138799667358,6.566934108734131,0.9001045823097229
1730865957.933347,-1.9201931953430176,1.1988476514816284,-9.833016395568848,-0.284078905272141,-0.2731622354621118,0.3248691607973371,1.0273760557174683,6.576357841491699,0.8918330669403076
1730865957.983341,-1.93211030960083,1.2210768461227417,-9.855461120605469,-0.30063021969648346,-0.2884647998170774,0.2964587594505811,1.026821494102478,6.570949077606201,0.8937532901763916
1730865958.0332818,-1.8952357769012451,1.1917591094970703,-9.863088607788086,-0.3323871349624165,-0.31102949521154577,0.2585538114124953,1.032861351966858,6.559492111206055,0.8916370868682861
1730865958.0833924,-1.8420480489730835,1.143674373626709,-9.883455276489258,-0.3726367343381293,-0.34006729927837404,0.21820078766189843,1.0333267450332642,6.550540447235107,0.8932076096534729
1730865958.1332362,-1.7618697881698608,1.129366159439087,-9.8805570602417,-0.4094343990780895,-0.36946106816566593,0.18152075999337375,1.0362637042999268,6.542941570281982,0.8911294937133789
1730865958.1833367,-1.694387674331665,1.115341305732727,-9.905627250671387,-0.4298149294309558,-0.39065351120640657,0.15241985035815955,1.03605318069458,6.533290386199951,0.8921778798103333
1730865958.2332082,-1.6100733280181885,1.094612956047058,-9.931663513183594,-0.424222644188299,-0.3973952883514633,0.13193037168778765,1.0347859859466553,6.522620677947998,0.8935825228691101
1730865958.2832747,-1.5418109893798828,1.0807050466537476,-9.972339630126953,-0.3893650815550361,-0.38850929980491344,0.11812894793331102,1.039955973625183,6.524342060089111,0.8906199932098389
1730865958.3331993,-1.499990701675415,1.0729589462280273,-10.015694618225098,-0.3286609869184546,-0.3674511566007516,0.10680251775853647,1.043055772781372,6.509688854217529,0.8901407122612
1730865958.383289,-1.4388550519943237,1.0682786703109741,-10.016959190368652,-0.25073446881078193,-0.34021267558205515,0.09310056800122274,1.0430912971496582,6.499005317687988,0.8906588554382324
1730865958.4332135,-1.4234479665756226,1.0768064260482788,-10.036955833435059,-0.16665129208246912,-0.3131222423232009,0.07383989218040418,1.0477616786956787,6.485987663269043,0.889755368232727
1730865958.4831707,-1.4432932138442993,1.1116139888763428,-10.005428314208984,-0.08713770014397529,-0.2913968301737474,0.04924487254683545,1.04905366897583,6.472158908843994,0.8900641202926636
1730865958.5341525,-1.5085569620132446,1.1484904289245605,-9.962830543518066,-0.02135533475059071,-0.27879226994336637,0.02320852093203566,1.0502243041992188,6.457414150238037,0.8904696702957153
1730865958.5831633,-1.5824558734893799,1.1850098371505737,-9.87814998626709,0.0230029727472293,-0.2777678689327412,0.002432700734722996,1.0507373809814453,6.4786858558654785,0.8893953561782837
1730865958.6341417,-1.7026240825653076,1.1562330722808838,-9.797066688537598,0.03979215164015443,-0.2890166574400311,-0.0051082688971890566,1.0518311262130737,6.471764087677002,0.8894389271736145
1730865958.6841717,-1.8434793949127197,1.0966352224349976,-9.701960563659668,0.024916181638584493,-0.3099123618492511,0.0076960881069455655,1.0529860258102417,6.464217662811279,0.8894847631454468
1730865958.7341104,-1.9647480249404907,1.0394996404647827,-9.635427474975586,-0.023248166973601363,-0.33330081041924586,0.04479597193881669,1.0541400909423828,6.4558892250061035,0.8895958065986633
1730865958.7841659,-2.0362460613250732,0.9632866978645325,-9.589738845825195,-0.10299401421250295,-0.3488487846232749,0.1052457601889139,1.053040623664856,6.470752716064453,0.8892699480056763
1730865958.8331368,-2.0580220222473145,0.9396564364433289,-9.595098495483398,-0.20762910893724068,-0.34697202594537596,0.1825591104151201,1.0532807111740112,6.465559005737305,0.8897528052330017
1730865958.8841126,-2.0260348320007324,0.9472898840904236,-9.640368461608887,-0.3243973694092859,-0.3232834236106592,0.26534609911014334,1.054957628250122,6.460050582885742,0.8895527124404907
1730865958.9341154,-1.9630955457687378,1.0134309530258179,-9.721592903137207,-0.4357112442510109,-0.28154720346709594,0.339193354230896,1.0543439388275146,6.453881740570068,0.8908093571662903
1730865958.984118,-1.895137906074524,1.0919886827468872,-9.815616607666016,-0.5229796278337246,-0.2336277315764192,0.3896055006366998,1.0562450885772705,6.446884632110596,0.8899760246276855
1730865959.0339692,-1.8222602605819702,1.1473636627197266,-9.905097961425781,-0.5717321058490779,-0.19575810031795582,0.40550500608033346,1.0546455383300781,6.439750671386719,0.8918612003326416
1730865959.0840662,-1.7455374002456665,1.1361726522445679,-9.956357955932617,-0.5757201531153505,-0.18193334441512432,0.38241604672714813,1.058565616607666,6.435311794281006,0.8900835514068604
1730865959.1339521,-1.700907826423645,1.1482601165771484,-10.000899314880371,-0.5381177980521997,-0.19736708548918425,0.32424520765317866,1.0570733547210693,6.427597999572754,0.8919792175292969
1730865959.1839936,-1.7207727432250977,1.1174755096435547,-10.020934104919434,-0.47013505902714725,-0.236175583266282,0.2425383696720854,1.0543028116226196,6.419281005859375,0.8946011662483215
1730865959.233999,-1.7523990869522095,1.134559988975525,-9.988039016723633,-0.38854325978011717,-0.28482426060445065,0.15327114351714488,1.0595823526382446,6.4234137535095215,0.8912590146064758
1730865959.2839696,-1.8286563158035278,1.1376848220825195,-9.950651168823242,-0.31243835585558627,-0.32879636343715035,0.07292399770381808,1.0579321384429932,6.417247295379639,0.8926084041595459
1730865959.3339097,-1.8731988668441772,1.1633003950119019,-9.883402824401855,-0.2590260845816255,-0.3585970305861672,0.015226962506385031,1.0621616840362549,6.40916633605957,0.8923760056495667
1730865959.3839538,-1.87714421749115,1.2097761631011963,-9.829784393310547,-0.23904947692019976,-0.3724854729335285,-0.011224662681232114,1.0638439655303955,6.399804592132568,0.8933554887771606
1730865959.43391,-1.8527741432189941,1.2444229125976562,-9.779115676879883,-0.2532054799035992,-0.37564421086634453,-0.004298472001345805,1.063342571258545,6.391695976257324,0.8941717743873596
1730865959.483997,-1.7791498899459839,1.2536530494689941,-9.761033058166504,-0.29141855584499754,-0.3767492487408421,0.03162146194833687,1.0621490478515625,6.3824944496154785,0.895037829875946
1730865959.5338774,-1.7433054447174072,1.2289862632751465,-9.7857084274292,-0.33613976189390504,-0.38320443499797857,0.08667640311846464,1.065280795097351,6.375820159912109,0.8948459029197693
1730865959.583923,-1.7001326084136963,1.2023404836654663,-9.813427925109863,-0.3688733185589105,-0.3972274701550308,0.14742276637240875,1.0640887022018433,6.366039752960205,0.8958559632301331
1730865959.6338441,-1.658395528793335,1.1724835634231567,-9.855494499206543,-0.37699066263722936,-0.41506459599867285,0.19969253235542317,1.0672118663787842,6.352172374725342,0.8965649604797363
1730865959.6838272,-1.589672565460205,1.1396898031234741,-9.88569164276123,-0.35705177126475096,-0.4295446233321637,0.23216516575338775,1.0686497688293457,6.335402011871338,0.8981035947799683
1730865959.733828,-1.5081108808517456,1.1046420335769653,-9.922158241271973,-0.31323215506363267,-0.43386102370846136,0.23927851050260648,1.067784309387207,6.321322441101074,0.9001348614692688
1730865959.7838185,-1.4295170307159424,1.1049782037734985,-9.95274543762207,-0.2530108072614162,-0.4244380786288397,0.22206600338374824,1.0662108659744263,6.306192398071289,0.9027405977249146
1730865959.833836,-1.4276865720748901,1.1359474658966064,-9.951932907104492,-0.1837498400183838,-0.4024159847898919,0.18684646127763743,1.064094066619873,6.290051460266113,0.9058533906936646
1730865959.8838398,-1.4848183393478394,1.1582427024841309,-9.916403770446777,-0.11256753284604445,-0.37375840855942033,0.14309264794728127,1.0700042247772217,6.313258647918701,0.899653434753418
1730865959.9337692,-1.5948827266693115,1.1681678295135498,-9.850994110107422,-0.04853709153971182,-0.34727788440169677,0.10168721709981982,1.0720633268356323,6.300084114074707,0.9002584218978882
1730865959.9839382,-1.7093874216079712,1.1369863748550415,-9.79179573059082,-0.003683877925905795,-0.33067066879893753,0.07334713849234178,1.0724056959152222,6.289463520050049,0.9014689326286316
1730865960.0338023,-1.8193243741989136,1.1080282926559448,-9.737626075744629,0.009506521668455708,-0.32662313129953235,0.066447024665651,1.0744249820709229,6.280316352844238,0.9014701247215271
1730865960.083812,-1.884267807006836,1.1029753684997559,-9.714607238769531,-0.01698472526802626,-0.3317164089060653,0.08450900264580632,1.075176477432251,6.269317150115967,0.9025603532791138
1730865960.1337838,-1.9105286598205566,1.1115912199020386,-9.716594696044922,-0.08227416909181737,-0.33914980003265555,0.12460365086508218,1.0758026838302612,6.257503509521484,0.9039091467857361
1730865960.1837988,-1.9257912635803223,1.116139531135559,-9.744019508361816,-0.17530518965471859,-0.3431532841721167,0.1776728423354556,1.0760573148727417,6.256737232208252,0.9027538299560547
1730865960.2337227,-1.9447674751281738,1.1083884239196777,-9.78177261352539,-0.2780052338718732,-0.3416314996987652,0.23092135977228148,1.075879693031311,6.245936870574951,0.9041770696640015
1730865960.28374,-1.942165493965149,1.0875669717788696,-9.824285507202148,-0.3715917274240729,-0.33567047648279075,0.27154013963626544,1.0771763324737549,6.237794399261475,0.9026094079017639
1730865960.3336928,-1.9253342151641846,1.0885087251663208,-9.844911575317383,-0.4424212197603242,-0.32740433352052767,0.2904762268646973,1.0762097835540771,6.226035118103027,0.9040587544441223
1730865960.383695,-1.8715403079986572,1.0781447887420654,-9.8873929977417,-0.4843568259553438,-0.3184940364246337,0.28487503977752227,1.0740830898284912,6.213443756103516,0.906230092048645
1730865960.4336674,-1.8378441333770752,1.0401469469070435,-9.917705535888672,-0.4976372148072105,-0.3097117521602152,0.2580810269429684,1.0707371234893799,6.200097560882568,0.9090732932090759
1730865960.48365,-1.7672381401062012,1.032460331916809,-9.951805114746094,-0.48634663845930276,-0.30076668508561233,0.21733120082591462,1.0784262418746948,6.218105792999268,0.9008482694625854
1730865960.5337403,-1.7021394968032837,1.0370874404907227,-9.975760459899902,-0.4560476229056867,-0.29062350996691755,0.17074906363420222,1.0763638019561768,6.2106194496154785,0.9018421173095703
1730865960.5838394,-1.65043306350708,1.073177456855774,-10.0149564743042,-0.4120692527162491,-0.27895278843590565,0.12502922228244198,1.0815417766571045,5.636442184448242,0.8982610702514648
1730865960.6337297,-1.6014059782028198,1.14634108543396,-10.020565032958984,-0.3589335074441593,-0.2678333182812912,0.08424808491530913,1.080474615097046,5.448497772216797,0.8982881903648376
1730865960.6836996,-1.5850491523742676,1.22859787940979,-9.987622261047363,-0.3008348430770869,-0.2623755425881209,0.050208289060816896,1.084838628768921,5.089535236358643,0.8958625197410583
1730865960.733647,-1.6096011400222778,1.2526041269302368,-9.945744514465332,-0.2424915555411923,-0.26930523247756344,0.024230478587068748,1.084481954574585,4.855644226074219,0.8953433036804199
1730865960.7837098,-1.665219783782959,1.2559261322021484,-9.857342720031738,-0.1899593284919019,-0.29326025651706306,0.008890766976590875,1.0835845470428467,4.621181011199951,0.8948658108711243
1730865960.8336103,-1.7471556663513184,1.2027697563171387,-9.769553184509277,-0.15079821877022365,-0.332757063090793,0.008346723396242952,1.0822644233703613,4.386492729187012,0.8944109082221985
1730865960.8836133,-1.8258168697357178,1.1118991374969482,-9.667461395263672,-0.13288373040657728,-0.3787368733567763,0.027246556355092624,1.0874093770980835,4.632816314697266,0.8937250375747681
1730865960.9335773,-1.8258168697357178,1.1118991374969482,-9.667461395263672,-0.14166330100055058,-0.4171452208476936,0.06839753231864919,1.0871983766555786,4.482883453369141,0.8933582305908203
1730865960.9335773,-1.8815194368362427,1.0185134410858154,-9.608986854553223,-0.17685725159415178,-0.4348341638473613,0.12982971844662414,1.0871953964233398,4.48173713684082,0.8933560848236084
1730865960.9835758,-1.8734042644500732,0.954424262046814,-9.58102798461914,-0.23132715268833792,-0.42484300121184293,0.20386306200402252,1.090272068977356,4.219139575958252,0.8920928239822388
1730865961.033538,-1.824157476425171,0.9195178747177124,-9.613903045654297,-0.29316988860432536,-0.38758239184434184,0.279557800806551,1.0900579690933228,4.0484819412231445,0.8923221230506897
1730865961.0836797,-1.7324042320251465,0.9404146075248718,-9.695297241210938,-0.34858409455326844,-0.329641291005179,0.3455953505352347,1.089035987854004,3.875917673110962,0.8933385610580444
1730865961.133535,-1.6441199779510498,0.9858413338661194,-9.814929962158203,-0.3841284137895959,-0.2626425648606687,0.39120689645070666,1.0927155017852783,3.7422749996185303,0.8927252292633057
1730865961.1836119,-1.5686087608337402,1.074684739112854,-9.920032501220703,-0.389426836525224,-0.20146522701991693,0.40676300642652863,1.0917140245437622,3.5781619548797607,0.8944582939147949
1730865961.2334654,-1.542607307434082,1.151999592781067,-10.003628730773926,-0.36044149129195735,-0.16104961895572753,0.38591900943475904,1.094870686531067,3.235494375228882,0.8931004405021667
1730865961.283573,-1.5542049407958984,1.2301385402679443,-10.041191101074219,-0.30182586361548336,-0.15246173508592878,0.328725089538606,1.0941001176834106,3.0037429332733154,0.8949859142303467
1730865961.3333614,-1.6225168704986572,1.2406723499298096,-10.066964149475098,-0.2268525538620227,-0.17939670088597387,0.24342161580615704,1.0926775932312012,2.7730467319488525,0.8975703716278076
1730865961.3834236,-1.7253564596176147,1.2138913869857788,-10.027120590209961,-0.15455957620330568,-0.23618662496912993,0.14522900056187532,1.090768575668335,2.540262460708618,0.900658130645752
1730865961.4334004,-1.8377536535263062,1.1672279834747314,-9.96264362335205,-0.10496168175401484,-0.30838346166708847,0.05274261514999134,1.0968767404556274,2.82373309135437,0.8929334878921509
1730865961.4834306,-1.8791604042053223,1.118408203125,-9.90227222442627,-0.09335527259197227,-0.37672918497485286,-0.016427922468072512,1.096538782119751,2.6970834732055664,0.8935757875442505
1730865961.5334456,-1.8703622817993164,1.049418330192566,-9.87574577331543,-0.12475039281027892,-0.423368300195512,-0.050088345233559095,1.0996366739273071,2.334527015686035,0.8919122815132141
1730865961.5833516,-1.7904411554336548,0.9940613508224487,-9.860814094543457,-0.19054399163797706,-0.43719011097937177,-0.04516234530615515,1.1021020412445068,1.829192042350769,0.8913272023200989
1730865961.6333067,-1.6464136838912964,0.9628157019615173,-9.86606502532959,-0.26969709285970467,-0.41618917967088365,-0.00871530268958823,1.1025785207748413,1.50289785861969,0.8910793662071228
1730865961.683353,-1.6464136838912964,0.9628157019615173,-9.86606502532959,-0.33522914669366,-0.36705359206494853,0.04484241617982427,1.1022982597351074,1.1745097637176514,0.890876054763794
1730865961.683353,-1.5627888441085815,0.9482263922691345,-9.848698616027832,-0.3646990965926738,-0.30268436439403806,0.09926055061736272,1.1022909879684448,1.171096920967102,0.8908745050430298
1730865961.7333167,-1.562458872795105,0.9341247081756592,-9.841981887817383,-0.34925952881781286,-0.23790135623751288,0.1421277269174403,1.101162314414978,0.8462124466896057,0.8909057974815369
1730865961.783527,-1.5797141790390015,0.9555282592773438,-9.840194702148438,-0.29572630206349315,-0.1847184520852241,0.16805076512951084,1.1021877527236938,1.4005166292190552,0.8930556178092957
1730865961.8334281,-1.656130313873291,1.0449622869491577,-9.828990936279297,-0.22248552822743017,-0.15008177231959277,0.17825698541807028,1.10111403465271,1.2415424585342407,0.8940761685371399
1730865961.883437,-1.7408385276794434,1.130565881729126,-9.812065124511719,-0.15298314900757434,-0.13722727089394032,0.17803182044076807,1.099586009979248,1.0840319395065308,0.8955273032188416
1730865961.933372,-1.8037424087524414,1.1793253421783447,-9.80042552947998,-0.10868952776844118,-0.14778699685651803,0.17396288926512093,1.0977282524108887,0.9256221652030945,0.8974201083183289
1730865961.9834905,-1.8700915575027466,1.1633671522140503,-9.820185661315918,-0.10289325080779174,-0.18115977834965125,0.17159327955791695,1.1021480560302734,1.5305135250091553,0.8950875401496887
1730865962.0333447,-1.9134926795959473,1.100498914718628,-9.80792236328125,-0.13738975701610767,-0.23161847030772992,0.17363944670436618,1.1014738082885742,1.5030744075775146,0.8964138627052307
1730865962.083408,-1.9134926795959473,1.100498914718628,-9.80792236328125,-0.20323118073000157,-0.2871812071839468,0.1796928871477272,1.1025149822235107,1.597920536994934,0.8967393636703491
1730865962.083408,-1.9817607402801514,0.9967160820960999,-9.799867630004883,-0.2847748326739543,-0.3329022578026197,0.18763374254156298,1.1025103330612183,1.5978609323501587,0.8967499732971191
1730865962.1332574,-2.009242534637451,0.8998187184333801,-9.762540817260742,-0.3657132547096802,-0.35587063264651975,0.19552098193811207,1.1014291048049927,1.589566707611084,0.8983907103538513
1730865962.1833553,-2.0146119594573975,0.8520634174346924,-9.732019424438477,-0.43452527038265243,-0.3482340318616023,0.2029956656355983,1.1025235652923584,1.6241347789764404,0.8983309268951416
1730865962.2332752,-1.9653370380401611,0.8578269481658936,-9.763777732849121,-0.48592838250922027,-0.3090982670429192,0.21136836926899877,1.1023999452590942,1.6299413442611694,0.8998215198516846
1730865962.2832632,-1.8760980367660522,0.9307280778884888,-9.811843872070312,-0.5182155664480189,-0.24640337676295834,0.22153961586242607,1.1001781225204468,1.6280816793441772,0.9017862677574158
1730865962.3331802,-1.7786275148391724,1.0387083292007446,-9.875558853149414,-0.529799287807067,-0.17675441166507816,0.231286410148055,1.096648931503296,1.6256909370422363,0.9043194055557251
1730865962.3832405,-1.7020138502120972,1.1243410110473633,-9.926508903503418,-0.5180953944263103,-0.12143922798533564,0.23494295371267215,1.091785192489624,1.6229121685028076,0.9074521660804749
1730865962.4332123,-1.6601722240447998,1.1989141702651978,-9.964488983154297,-0.4815170707726406,-0.09931964770451399,0.2261201091662,1.1016626358032227,1.6330631971359253,0.8999229669570923
1730865962.4832904,-1.6342209577560425,1.2611186504364014,-9.975395202636719,-0.4226321851415168,-0.11985041730764998,0.20140503484351244,1.098997712135315,1.6322404146194458,0.9013238549232483
1730865962.5331616,-1.622498869895935,1.2675787210464478,-9.962905883789062,-0.3495140899325314,-0.17995813998982543,0.16274821807105333,1.1024519205093384,1.6343570947647095,0.8994735479354858
1730865962.5832772,-1.639206886291504,1.2061913013458252,-9.937066078186035,-0.2740601011240196,-0.2653936532301519,0.117421736097178,1.100551724433899,1.6334400177001953,0.9004539251327515
1730865962.6331246,-1.6860491037368774,1.1449236869812012,-9.880510330200195,-0.20872194017404855,-0.35481043863618816,0.07579787084517993,1.0980491638183594,1.6317521333694458,0.901675820350647
1730865962.6834114,-1.7109571695327759,1.0855287313461304,-9.83228588104248,-0.16357699302485704,-0.42571336598076864,0.04817601056313856,1.1034332513809204,1.6346509456634521,0.8991132974624634
1730865962.7330935,-1.709753394126892,1.0741137266159058,-9.788422584533691,-0.14401594075482532,-0.4615241518169663,0.04182019352437492,1.10237717628479,1.6326478719711304,0.8995733857154846
1730865962.7832174,-1.6724727153778076,1.0828081369400024,-9.795247077941895,-0.14886173256441643,-0.4572296066305534,0.05869613750198698,1.1043992042541504,2.169069766998291,0.9006348848342896
1730865962.8330767,-1.6206578016281128,1.0981696844100952,-9.837224006652832,-0.16994057155442302,-0.4206816018041927,0.09419774476811128,1.103637933731079,2.3393032550811768,0.9016280174255371
1730865962.8830912,-1.5427521467208862,1.13316011428833,-9.84755802154541,-0.1941449919796735,-0.36871089025509873,0.13776269212760087,1.1049799919128418,2.7005743980407715,0.9024582505226135
1730865962.933006,-1.5629488229751587,1.1618047952651978,-9.863628387451172,-0.20786651779708532,-0.3202685386976626,0.17641741951592455,1.1041533946990967,2.9226388931274414,0.9039170145988464
1730865962.9830446,-1.629149079322815,1.215698003768921,-9.845447540283203,-0.20296853079082666,-0.2901661582247145,0.20011712422037187,1.1028064489364624,3.145085573196411,0.9058563709259033
1730865963.0340078,-1.6967530250549316,1.2590280771255493,-9.838217735290527,-0.18162396031310254,-0.2857973713708677,0.20564007860521794,1.10091233253479,3.373535394668579,0.9083892703056335
1730865963.084012,-1.7413307428359985,1.2730633020401,-9.82457160949707,-0.15576758728277995,-0.3069352432957105,0.19686221782646016,1.1053807735443115,3.1269731521606445,0.9024449586868286
1730865963.1339903,-1.7646113634109497,1.2583575248718262,-9.81188678741455,-0.14045913509102442,-0.3470925131689416,0.18184218388846168,1.104573369026184,3.2599990367889404,0.9036052227020264
1730865963.1839724,-1.7786732912063599,1.2127102613449097,-9.802888870239258,-0.14585470341663456,-0.3953642756058375,0.16885833780522508,1.106284737586975,3.555206298828125,0.9020818471908569
1730865963.233917,-1.8130278587341309,1.14822256565094,-9.807696342468262,-0.1730902226421855,-0.4387956154151842,0.16337236799550578,1.1056853532791138,3.7416422367095947,0.9030437469482422
1730865963.2838762,-1.809478998184204,1.100132703781128,-9.810400009155273,-0.2155566986687204,-0.46538429489289884,0.16668669808623315,1.1046161651611328,3.9239342212677,0.9043976068496704
1730865963.333905,-1.797210454940796,1.1131501197814941,-9.829365730285645,-0.26296832929759006,-0.46758911843163875,0.1763073538714912,1.1071401834487915,3.966317653656006,0.9019381403923035
1730865963.383851,-1.7991148233413696,1.125964879989624,-9.836786270141602,-0.30515771594466395,-0.445504324994654,0.18755193449420182,1.1060469150543213,4.102874755859375,0.9029220342636108
1730865963.4338167,-1.7826963663101196,1.1695894002914429,-9.845488548278809,-0.3348002673798543,-0.407571636562403,0.19564796686894426,1.1080739498138428,4.449021816253662,0.9017834663391113
1730865963.4838102,-1.7767739295959473,1.2048052549362183,-9.856528282165527,-0.3489148340143104,-0.36753864070702447,0.1975223089599716,1.106825828552246,4.6607346534729,0.9027968049049377
1730865963.5337822,-1.8129676580429077,1.1983704566955566,-9.851751327514648,-0.34894131746181767,-0.33897191102940993,0.19260943545203718,1.1086721420288086,4.924340724945068,0.9017160534858704
1730865963.5838563,-1.865580439567566,1.1427628993988037,-9.82577133178711,-0.3401738633939344,-0.3295810822858299,0.18275694530401437,1.1072731018066406,5.149103164672852,0.9027031660079956
1730865963.633715,-1.881205439567566,1.0834192037582397,-9.824111938476562,-0.3306145624082231,-0.33766326196469204,0.1716320519835106,1.104880928993225,5.390143871307373,0.9042336344718933
1730865963.68373,-1.863053321838379,1.0553536415100098,-9.826824188232422,-0.3280413665401821,-0.3530729052532225,0.16334724844904988,1.1094216108322144,5.283791542053223,0.9017121195793152
1730865963.7337158,-1.8265241384506226,1.0528087615966797,-9.850543975830078,-0.3359282283716133,-0.36295706375058623,0.160394316741743,1.1077837944030762,5.43144416809082,0.9027054905891418
1730865963.7837036,-1.7715882062911987,1.0776413679122925,-9.877630233764648,-0.351191536731291,-0.35884847053268215,0.16217180691980143,1.1054577827453613,5.566173076629639,0.904003918170929
1730865963.8336518,-1.7354477643966675,1.0973707437515259,-9.941924095153809,-0.3656186369523663,-0.3406516952948191,0.1649997264477855,1.1102386713027954,5.718437671661377,0.901581883430481
1730865963.8837056,-1.689695954322815,1.1317925453186035,-9.966397285461426,-0.369984078159982,-0.31565955211416535,0.16341184963686084,1.1085410118103027,5.878520965576172,0.9024926424026489
1730865963.9335935,-1.6389662027359009,1.1293141841888428,-9.971222877502441,-0.3581536528282633,-0.2940524994113897,0.1525398294812364,1.1059497594833374,6.036744594573975,0.9037898778915405
1730865963.9836588,-1.6623183488845825,1.1505361795425415,-9.938908576965332,-0.32922238604596377,-0.28381565154941724,0.13108520407146537,1.1110633611679077,6.131377696990967,0.9032471179962158
1730865964.0335605,-1.685981035232544,1.114296793937683,-9.907242774963379,-0.2879846992563382,-0.28753152106925184,0.10305556790648543,1.109393835067749,6.283681392669678,0.9044745564460754
1730865964.0836053,-1.7127622365951538,1.098321795463562,-9.828071594238281,-0.24398505431044146,-0.30187520972477033,0.07683312618971339,1.111973762512207,6.048879146575928,0.9030236601829529
1730865964.1335196,-1.7381293773651123,1.0863145589828491,-9.812661170959473,-0.20838485116536076,-0.319498939134545,0.06208774724345435,1.1108278036117554,6.081885814666748,0.9036418795585632
1730865964.1835907,-1.7394286394119263,1.1070185899734497,-9.751754760742188,-0.18961382381171243,-0.3327134594252369,0.06593494555524682,1.1128193140029907,5.982958793640137,0.9049617648124695
1730865964.2335656,-1.7783422470092773,1.099996566772461,-9.74980354309082,-0.1904143288883783,-0.33721083376487626,0.0900792255698656,1.1119744777679443,5.985752582550049,0.9061111807823181
1730865964.2834716,-1.775434136390686,1.1180026531219482,-9.734968185424805,-0.20783863444762704,-0.3334304825996238,0.13030070003937133,1.1106359958648682,5.987701416015625,0.9075314998626709
1730865964.3334875,-1.7961090803146362,1.0978853702545166,-9.74190616607666,-0.2354644603489391,-0.32508935513246395,0.17811588254035712,1.1133729219436646,5.946988582611084,0.9087690114974976
1730865964.3834748,-1.8024729490280151,1.096219539642334,-9.761283874511719,-0.2660688373112615,-0.3164290636827808,0.2236193467426842,1.1122466325759888,5.9436116218566895,0.9106009602546692
1730865964.4334664,-1.8615046739578247,1.0873790979385376,-9.789366722106934,-0.2940249467249566,-0.3100364234119849,0.25827812286552687,1.1140267848968506,5.927980422973633,0.9127759337425232
1730865964.4834557,-1.8906596899032593,1.113863468170166,-9.796687126159668,-0.3171691456097748,-0.30644766489764746,0.2767999305149516,1.112737774848938,5.922123908996582,0.9154496192932129
1730865964.533443,-1.8843986988067627,1.1354656219482422,-9.818350791931152,-0.3368840719287636,-0.30539599707308973,0.2780528577629082,1.1106340885162354,5.915517330169678,0.9188104271888733
1730865964.5834439,-1.8520234823226929,1.1645499467849731,-9.829914093017578,-0.3555299187882547,-0.3072342285053129,0.2648682890677199,1.107664704322815,5.908143520355225,0.9228503704071045
1730865964.6334517,-1.8085271120071411,1.176212191581726,-9.861815452575684,-0.37309394412627617,-0.3131476396390855,0.24248712072710546,1.1141159534454346,5.911872386932373,0.9168921113014221
1730865964.6834452,-1.7181299924850464,1.1627516746520996,-9.876137733459473,-0.385828985259832,-0.3240158237532666,0.21634161449856415,1.1122398376464844,5.906158924102783,0.9194047451019287
1730865964.7333987,-1.6924563646316528,1.1392431259155273,-9.905946731567383,-0.38755054075738626,-0.33885021999677806,0.19036791606764608,1.1145100593566895,5.898288249969482,0.9191259741783142
1730865964.7834475,-1.6710063219070435,1.1597439050674438,-9.915834426879883,-0.3729802605785907,-0.354364870087941,0.16648026369773092,1.1126939058303833,5.890932083129883,0.9213871359825134
1730865964.8333828,-1.6623401641845703,1.1732234954833984,-9.910504341125488,-0.3414590450960181,-0.3667313316212075,0.1451417780168709,1.1098169088363647,5.882099151611328,0.9242181181907654
1730865964.8834436,-1.664509892463684,1.188157320022583,-9.918722152709961,-0.29820475289952525,-0.37414894419960076,0.12649395027961208,1.106383204460144,5.8730316162109375,0.9271663427352905
1730865964.933397,-1.6572636365890503,1.1673773527145386,-9.908549308776855,-0.25218179033192184,-0.3775526408753315,0.11106831109700495,1.1148699522018433,5.883615016937256,0.920994758605957
1730865964.9834638,-1.6591688394546509,1.130024790763855,-9.90406608581543,-0.21236699537777615,-0.37879892526370423,0.09967422878603276,1.1133792400360107,5.877601623535156,0.9224117994308472
1730865965.0333724,-1.6591688394546509,1.130024790763855,-9.90406608581543,-0.18463662314389712,-0.37841268499619446,0.09294983886919184,1.115776777267456,5.870611190795898,0.9229998588562012
1730865965.0333724,-1.6374982595443726,1.1253414154052734,-9.897210121154785,-0.17044749611350002,-0.3753806920716954,0.09092692723464085,1.115770697593689,5.870551109313965,0.9230120778083801
1730865965.0834715,-1.6542800664901733,1.1127800941467285,-9.890379905700684,-0.16729099052460267,-0.3687946979748318,0.09286812129471496,1.1168091297149658,5.858351707458496,0.9250637888908386
1730865965.1333466,-1.6624219417572021,1.1077226400375366,-9.87459659576416,-0.1706043342541684,-0.35898164716122405,0.09761986699079278,1.1162313222885132,5.8488850593566895,0.9269305467605591
1730865965.183495,-1.6803877353668213,1.1172305345535278,-9.872438430786133,-0.17630215621992235,-0.34733834127603774,0.10415880560064783,1.1152164936065674,5.838494300842285,0.929057776927948
1730865965.2333581,-1.6642932891845703,1.1443051099777222,-9.851571083068848,-0.1821898958313664,-0.33598148193540744,0.11184784712772675,1.1172138452529907,5.844513416290283,0.9254970550537109
1730865965.2835011,-1.676072597503662,1.1518168449401855,-9.866317749023438,-0.18754657467011832,-0.32757405370254405,0.12031540482384578,1.11638343334198,5.837646484375,0.9265477657318115
1730865965.3333554,-1.688549518585205,1.173169493675232,-9.839729309082031,-0.19221118034156015,-0.3246819066873836,0.1291585709267422,1.1178631782531738,5.830042362213135,0.9258034825325012
1730865965.3832452,-1.7406500577926636,1.1670211553573608,-9.839791297912598,-0.19661985156190964,-0.328655809335896,0.13790186758034192,1.1171015501022339,5.82139253616333,0.9268513321876526
1730865965.4331973,-1.7592371702194214,1.1434805393218994,-9.807424545288086,-0.2024245705417601,-0.3386868709274824,0.14638659231280576,1.1185846328735352,5.815168857574463,0.9241373538970947
1730865965.4832108,-1.7919294834136963,1.1425443887710571,-9.786770820617676,-0.21221528598113168,-0.3515967000688871,0.15516368918666734,1.1178350448608398,5.80601167678833,0.9245346784591675
1730865965.5332005,-1.8289555311203003,1.1339582204818726,-9.734051704406738,-0.22817120500518506,-0.36295148429222135,0.165608667468788,1.116528868675232,5.795835971832275,0.9253352284431458
1730865965.5832748,-1.906752586364746,1.1017496585845947,-9.722082138061523,-0.2512654744820664,-0.36898627664057065,0.1796555340384926,1.1191047430038452,5.799319744110107,0.9226419925689697
1730865965.6332035,-1.9440362453460693,1.0649313926696777,-9.711519241333008,-0.2817775308045388,-0.3675675578186253,0.1987999072822383,1.1179943084716797,5.791046142578125,0.9231722354888916
1730865965.6832056,-1.954621434211731,1.0486096143722534,-9.747272491455078,-0.31952463558173166,-0.35790615095293055,0.2225245746263002,1.1180731058120728,5.782599449157715,0.9213583469390869
1730865965.733109,-1.9300211668014526,1.0519165992736816,-9.785317420959473,-0.36257396802409114,-0.34050553322159993,0.24721577903738684,1.1161175966262817,5.772127151489258,0.9219682216644287
1730865965.7832572,-1.8917458057403564,1.0662336349487305,-9.863221168518066,-0.4058279977188382,-0.3177984109935842,0.26649878122587023,1.1133439540863037,5.761462688446045,0.9231659770011902
1730865965.8331983,-1.8261340856552124,1.0515388250350952,-9.917787551879883,-0.44141346642266993,-0.2941432257235445,0.27298244748398537,1.1094532012939453,5.749753475189209,0.9250590801239014
1730865965.8832433,-1.7325536012649536,1.0188775062561035,-9.973783493041992,-0.4607248090175056,-0.2740528496360627,0.26083558710352217,1.1167482137680054,5.768331050872803,0.9206130504608154
1730865965.9331484,-1.6438817977905273,1.0134690999984741,-9.997303009033203,-0.4567007552565562,-0.2597088781586353,0.22830040267856314,1.1141488552093506,5.762345790863037,0.92172771692276
1730865965.9832146,-1.6068297624588013,1.0392526388168335,-10.010113716125488,-0.42585587084146603,-0.25037619531092825,0.1789750612116881,1.116077184677124,5.750944137573242,0.920437216758728
1730865966.0331244,-1.5930547714233398,1.1113393306732178,-9.983500480651855,-0.3703085950867145,-0.2446855406874112,0.12121484282330308,1.1135233640670776,5.74169397354126,0.9213184714317322
1730865966.0831685,-1.6152253150939941,1.2080261707305908,-9.939994812011719,-0.2988067574204889,-0.24377554323587924,0.06608048558973602,1.1156638860702515,5.737198352813721,0.9199286699295044
1730865966.1329873,-1.6628810167312622,1.2549554109573364,-9.904179573059082,-0.2252571870126016,-0.2522826027708761,0.024592079449964742,1.1136457920074463,5.728569984436035,0.9202840924263
1730865966.183079,-1.7237470149993896,1.2498868703842163,-9.840123176574707,-0.16504130123113991,-0.27548826559560274,0.004901128690111289,1.1111235618591309,5.71921443939209,0.9206790924072266
1730865966.232996,-1.7540323734283447,1.1959750652313232,-9.810408592224121,-0.13061121977751738,-0.3141098084797902,0.010305757173969407,1.115555763244629,5.718389987945557,0.919430673122406
1730865966.282932,-1.7761001586914062,1.1373709440231323,-9.77637004852295,-0.12767465599255184,-0.36097130270244276,0.03874422144467825,1.115402102470398,5.702547550201416,0.9191276431083679
1730865966.3329697,-1.7739691734313965,1.080772876739502,-9.734260559082031,-0.15335798190815828,-0.40268468609476504,0.08375902713299485,1.1142631769180298,5.691614151000977,0.9192752838134766
1730865966.3838212,-1.7863746881484985,1.0190056562423706,-9.72805404663086,-0.197516705418254,-0.42532132843095727,0.13671594303677637,1.1144180297851562,5.6835551261901855,0.9188422560691833
1730865966.4338863,-1.7863746881484985,1.0190056562423706,-9.72805404663086,-0.24682452297579388,-0.4203999418637559,0.18915353422101525,1.112840175628662,5.671157360076904,0.9193263053894043
1730865966.4338863,-1.763444423675537,0.9958710074424744,-9.702902793884277,-0.2894286380797775,-0.3882960560875798,0.23428798057262618,1.1127616167068481,5.670622825622559,0.9193565845489502
1730865966.4838243,-1.7485802173614502,0.980993390083313,-9.72205638885498,-0.3177569832254409,-0.3376881573101772,0.2680275051833189,1.110567569732666,5.657863616943359,0.9203751683235168
1730865966.5338418,-1.7739217281341553,0.9647471904754639,-9.749009132385254,-0.32925627064242835,-0.28129492452485094,0.2891725636839356,1.1139929294586182,5.669285774230957,0.9189939498901367
1730865966.5839176,-1.776928424835205,1.0090956687927246,-9.792386054992676,-0.32627710765573426,-0.23086318350825105,0.2981807454242584,1.1121965646743774,5.661623477935791,0.9202630519866943
1730865966.6337254,-1.7719019651412964,1.0469619035720825,-9.85647201538086,-0.3148723577887632,-0.1946685311935484,0.2955482837263812,1.113342523574829,5.651219367980957,0.9189946055412292
1730865966.6840096,-1.742720127105713,1.0767850875854492,-9.918389320373535,-0.3018287188781035,-0.1773832129713296,0.28104115728720225,1.111398696899414,5.641498565673828,0.9204067587852478
1730865966.733826,-1.7308605909347534,1.0838773250579834,-9.983128547668457,-0.29142978909351835,-0.1800409901734094,0.2539669940420093,1.1129862070083618,5.637441158294678,0.9189133048057556
1730865966.7839155,-1.7244657278060913,1.1198302507400513,-10.016728401184082,-0.2843153576448844,-0.1997315259375806,0.21426980758694317,1.1111633777618408,5.628590106964111,0.9202041625976562
1730865966.8337839,-1.7244657278060913,1.1198302507400513,-10.016728401184082,-0.2788468912447566,-0.23044762751636494,0.16402286443381775,1.1138606071472168,5.620114803314209,0.9186201095581055
1730865966.8337839,-1.6922295093536377,1.1217204332351685,-10.01152515411377,-0.2731184540795426,-0.26503869120401613,0.10848957470922833,1.1138521432876587,5.620048522949219,0.9186261296272278
1730865966.8839517,-1.6949405670166016,1.091368556022644,-10.003122329711914,-0.26585440324426823,-0.29681293740736947,0.05555969432181948,1.1124417781829834,5.6112380027771,0.9194638133049011
1730865966.9338105,-1.6949405670166016,1.091368556022644,-10.003122329711914,-0.2565517275146204,-0.32040716469221886,0.01324043797689382,1.1151169538497925,5.60471773147583,0.9181304574012756
1730865966.9338105,-1.6541407108306885,1.079060673713684,-9.937772750854492,-0.24556050737387422,-0.3326137170931166,-0.013051346770872487,1.1151118278503418,5.604655742645264,0.9181320667266846
1730865966.9837117,-1.6971153020858765,1.0559735298156738,-9.882655143737793,-0.23377199250149477,-0.33304459278002896,-0.021127081788296156,1.1141045093536377,5.595579147338867,0.9183288812637329
1730865967.0336804,-1.7184339761734009,1.0200108289718628,-9.829143524169922,-0.22258666244702915,-0.32362820042780305,-0.01088450278158756,1.117026448249817,5.586251735687256,0.9178252816200256
1730865967.0837424,-1.7796587944030762,0.9819168448448181,-9.78043270111084,-0.21467581423881213,-0.3069880933477266,0.016397447847992463,1.1166656017303467,5.574032306671143,0.9178544878959656
1730865967.1336548,-1.7767276763916016,0.9837790727615356,-9.749464988708496,-0.21385716440053298,-0.28524373107855,0.05776775273309082,1.1157735586166382,5.5611772537231445,0.9179757237434387
1730865967.1838517,-1.7815088033676147,1.03798508644104,-9.75819206237793,-0.2229925581222468,-0.26060272411396784,0.10824485095548254,1.117897629737854,5.5696001052856445,0.9178880453109741
1730865967.2337184,-1.7815088033676147,1.03798508644104,-9.75819206237793,-0.2415776878027966,-0.2369377610978368,0.16090079886771427,1.1170785427093506,5.561378002166748,0.9183995127677917
1730865967.2337184,-1.7619465589523315,1.1153185367584229,-9.77953052520752,-0.2653779546167714,-0.21986160750949763,0.2078631179799273,1.1170680522918701,5.561298370361328,0.9184061884880066
1730865967.283684,-1.7306779623031616,1.2181533575057983,-9.794438362121582,-0.28810517565496463,-0.21528978033744678,0.2422774855689805,1.1155987977981567,5.552579879760742,0.9194133281707764
1730865967.3336196,-1.73723566532135,1.2622041702270508,-9.825244903564453,-0.30365843847373253,-0.22832636481450463,0.2601324782431218,1.113381266593933,5.543229103088379,0.9210534691810608
1730865967.3837023,-1.7728885412216187,1.2536513805389404,-9.841352462768555,-0.308556362291015,-0.2614983754775946,0.26095306313442196,1.1189552545547485,5.557622909545898,0.9183260202407837
1730865967.4336104,-1.7957485914230347,1.2329119443893433,-9.852080345153809,-0.3039722528895257,-0.3116788757976985,0.2474321282240485,1.1177324056625366,5.551712989807129,0.9195752143859863
1730865967.4835632,-1.8130037784576416,1.187165379524231,-9.869086265563965,-0.29545337033086405,-0.36890616909150686,0.22445605093222085,1.1200897693634033,5.537785530090332,0.9184516072273254
1730865967.5335834,-1.8403993844985962,1.1168467998504639,-9.861696243286133,-0.2899731491230546,-0.41915758743988973,0.19775850426464103,1.1189510822296143,5.528789520263672,0.9196345210075378
1730865967.5836523,-1.8365612030029297,1.1099493503570557,-9.855596542358398,-0.29257057400926406,-0.44935766578182745,0.1726459260799017,1.1223186254501343,5.514115810394287,0.9184683561325073
1730865967.6335382,-1.8015090227127075,1.1125519275665283,-9.858222961425781,-0.3042738606114759,-0.4524499587215528,0.15315965605051463,1.124277949333191,5.4977006912231445,0.9183036088943481
1730865967.683565,-1.8015090227127075,1.1125519275665283,-9.858222961425781,-0.3216353964551807,-0.43044267491688853,0.14143161247823444,1.1238042116165161,5.484195232391357,0.9191583395004272
1730865967.683565,-1.7416749000549316,1.0947171449661255,-9.853496551513672,-0.3382136232104961,-0.393092441883747,0.13735020660276173,1.1237972974777222,5.484084129333496,0.9191665053367615
1730865967.7336876,-1.707353949546814,1.0896289348602295,-9.870576858520508,-0.3471627525257424,-0.352765873193492,0.13895945659950143,1.1224792003631592,5.4695611000061035,0.9203765392303467
1730865967.7836096,-1.6856294870376587,1.0882185697555542,-9.87708854675293,-0.3434554852112549,-0.31924111333409844,0.14326220737660547,1.1203112602233887,5.454286098480225,0.9219300150871277
1730865967.833548,-1.6856732368469238,1.1131680011749268,-9.89499282836914,-0.3256270603023591,-0.29745238669915813,0.14701168754964478,1.1257798671722412,5.477682590484619,0.918158233165741
1730865967.8835711,-1.6620116233825684,1.1451038122177124,-9.884458541870117,-0.29659975694533247,-0.28827772530286444,0.14761163065271254,1.1246315240859985,5.469231128692627,0.9189459681510925
1730865967.9334772,-1.6606212854385376,1.1801331043243408,-9.870457649230957,-0.2624402936794933,-0.2906117690239896,0.1441378829218754,1.1277029514312744,5.457484245300293,0.9179890751838684
1730865967.9834714,-1.653437852859497,1.1797866821289062,-9.851520538330078,-0.22970912998512477,-0.3027477848098524,0.1379562763134922,1.1270955801010132,5.446085453033447,0.9187326431274414
1730865968.0334425,-1.6758476495742798,1.1824043989181519,-9.821070671081543,-0.2033962530837724,-0.3222663901088731,0.1323117700525429,1.125947117805481,5.433900356292725,0.9198140501976013
1730865968.0835173,-1.7237505912780762,1.1566532850265503,-9.81063461303711,-0.18651403653135154,-0.3453604558190008,0.13097225233419255,1.1243079900741577,5.420855522155762,0.9212273359298706
1730865968.1334534,-1.7996176481246948,1.1426687240600586,-9.782665252685547,-0.1810732101249471,-0.36695208816431235,0.13664165982399828,1.1293469667434692,5.440331935882568,0.9178568124771118
1730865968.1835039,-1.8628112077713013,1.1092867851257324,-9.77823543548584,-0.18918152119679796,-0.38185843793703156,0.1499224144156448,1.1286711692810059,5.433017730712891,0.918620765209198
1730865968.2334023,-1.8774480819702148,1.0935637950897217,-9.79169750213623,-0.2126283316860019,-0.3863064314673258,0.1690957437534013,1.1317607164382935,5.4198832511901855,0.9173414707183838
1730865968.2834685,-1.8534674644470215,1.108945369720459,-9.822172164916992,-0.25053954825227487,-0.37920790316402325,0.19033751616130445,1.1334882974624634,5.399904727935791,0.916870653629303
1730865968.3333826,-1.7973651885986328,1.1064001321792603,-9.855999946594238,-0.2969618143931295,-0.36288840105519354,0.20832719802029534,1.1332799196243286,5.385265350341797,0.9175994992256165
1730865968.3833833,-1.749116063117981,1.0848197937011719,-9.900351524353027,-0.3410208499589721,-0.34237059171629947,0.21754638647625452,1.132279872894287,5.369825839996338,0.9188538193702698
1730865968.4334073,-1.6887575387954712,1.0780417919158936,-9.944061279296875,-0.3703505578416724,-0.3228946324437084,0.21387478443050278,1.1303776502609253,5.35341739654541,0.920660674571991
1730865968.4834383,-1.660573959350586,1.0784896612167358,-9.943114280700684,-0.3758560903266046,-0.3076143579002953,0.1959120771100838,1.1345398426055908,5.379222393035889,0.916854977607727
1730865968.5333052,-1.6808581352233887,1.0688133239746094,-9.9386625289917,-0.3554069861485937,-0.29723025036978207,0.16595297512318635,1.135718822479248,5.363986492156982,0.916427493095398
1730865968.5834394,-1.6925055980682373,1.0484857559204102,-9.91047477722168,-0.31512438573730095,-0.29078060737456857,0.13012204708120723,1.1345582008361816,5.353283882141113,0.9171832799911499
1730865968.6333168,-1.7340891361236572,1.0040960311889648,-9.874168395996094,-0.2674814055085743,-0.2861500488421092,0.09694391726459589,1.1376909017562866,5.348047256469727,0.9161385297775269
1730865968.6832635,-1.7513102293014526,0.9668171405792236,-9.831408500671387,-0.22668377391120625,-0.2802043089524329,0.0748225803326406,1.1370280981063843,5.338474273681641,0.9166451096534729
1730865968.7332773,-1.7555934190750122,0.9132131338119507,-9.825553894042969,-0.2034849254110791,-0.26927256609923733,0.06947342514551827,1.1358243227005005,5.328183650970459,0.9173340201377869
1730865968.783267,-1.7511773109436035,0.8991687297821045,-9.808719635009766,-0.2016394058383994,-0.2503169525379741,0.08197773354991095,1.138877511024475,5.328239440917969,0.9158077836036682
1730865968.833155,-1.7669599056243896,0.9138646125793457,-9.811017036437988,-0.21749559459409704,-0.22260892861488155,0.10835457986102237,1.1381341218948364,5.319145202636719,0.9162495136260986
1730865968.8833268,-1.7647291421890259,0.9623916149139404,-9.817171096801758,-0.2428468740359891,-0.18929916439534133,0.1411560807722355,1.1368134021759033,5.309523105621338,0.9170041680335999
1730865968.9331322,-1.774051547050476,0.9942019581794739,-9.836055755615234,-0.26902082098331526,-0.15752951707958257,0.1721108681622282,1.1402769088745117,5.310525417327881,0.9156897068023682
1730865968.9830694,-1.7563841342926025,1.0308074951171875,-9.850176811218262,-0.28975989832679766,-0.1360694881631195,0.1944582382896398,1.1393035650253296,5.303006649017334,0.9164953827857971
1730865969.0331802,-1.7418923377990723,1.052126407623291,-9.863423347473145,-0.3019932862845667,-0.1315328920361109,0.2044208490450672,1.1375676393508911,5.295019626617432,0.9178177118301392
1730865969.0830772,-1.7634446620941162,1.1164103746414185,-9.859697341918945,-0.305326976152592,-0.14580592553331556,0.20177593370002256,1.1350946426391602,5.2867817878723145,0.9196311831474304
1730865969.1331055,-1.7613576650619507,1.1499154567718506,-9.857751846313477,-0.30157700045265645,-0.1763226302104759,0.18955835982259672,1.1415365934371948,5.2894816398620605,0.9157517552375793
1730865969.1830616,-1.7668864727020264,1.152148723602295,-9.854114532470703,-0.29423868472078685,-0.21794740145541655,0.17288794072450042,1.1432607173919678,5.269622325897217,0.9154332280158997
1730865969.2330203,-1.7597706317901611,1.146106243133545,-9.849930763244629,-0.2871094335318412,-0.2641930237951336,0.15715688583609552,1.142415165901184,5.258625507354736,0.9162707328796387
1730865969.2830868,-1.7832831144332886,1.1196283102035522,-9.831854820251465,-0.2828175776343239,-0.30774081763905087,0.14639599840343684,1.1450597047805786,5.249302864074707,0.9153558015823364
1730865969.3329446,-1.7911642789840698,1.0579688549041748,-9.824539184570312,-0.28249057283618095,-0.34131945816152975,0.1425918142265299,1.1443086862564087,5.238424777984619,0.9161398410797119
1730865969.3830001,-1.793712854385376,1.0126854181289673,-9.833224296569824,-0.28623744135669915,-0.3588088325869708,0.14573179779732715,1.1475907564163208,5.2291460037231445,0.913605272769928
1730865969.432937,-1.7517714500427246,1.0202561616897583,-9.849518775939941,-0.2931761535301568,-0.35665018668102433,0.15390796016886787,1.147026538848877,5.2180070877075195,0.9139113426208496
1730865969.4829564,-1.7155946493148804,1.0792349576950073,-9.881749153137207,-0.30076203809428786,-0.336121552533952,0.16352687210378003,1.150018334388733,5.207564830780029,0.9117741584777832
1730865969.532836,-1.6973638534545898,1.1483683586120605,-9.885079383850098,-0.3047808522519456,-0.30514674262111485,0.17018192670140508,1.1495224237442017,5.195234298706055,0.9119249582290649
1730865969.5827827,-1.6990910768508911,1.1914793252944946,-9.90003490447998,-0.30117805570110306,-0.2768776615100904,0.17030216311104857,1.1482739448547363,5.182219505310059,0.9124990105628967
1730865969.6338701,-1.7048535346984863,1.1952179670333862,-9.894710540771484,-0.2886750549371646,-0.26434846731564365,0.16274014956248833,1.1462271213531494,5.168140888214111,0.9135201573371887
1730865969.6838133,-1.7048535346984863,1.1952179670333862,-9.894710540771484,-0.26983778737162617,-0.27419195507335287,0.14921019118589912,1.1435391902923584,5.153801441192627,0.9149030447006226
1730865969.6838133,-1.7279154062271118,1.140415906906128,-9.889106750488281,-0.2498050856192599,-0.3035075464935166,0.1334054645142666,1.143518090248108,5.153698921203613,0.9149140119552612
1730865969.7338028,-1.727390170097351,1.0967813730239868,-9.850716590881348,-0.23397719761449365,-0.34128852771468715,0.11959014350935565,1.1517646312713623,5.192032814025879,0.9090443849563599
1730865969.7837937,-1.7448590993881226,1.0502889156341553,-9.854978561401367,-0.2260735331998277,-0.37306982058358307,0.11148206456434853,1.1508915424346924,5.185670852661133,0.9091985821723938
1730865969.8337355,-1.7205950021743774,1.0371060371398926,-9.837763786315918,-0.22702304328814352,-0.38674356226945217,0.11132508450201994,1.154735803604126,5.1736249923706055,0.9056863784790039
1730865969.8838043,-1.7044275999069214,1.004769206047058,-9.838481903076172,-0.23468304818049607,-0.3770926925895015,0.11907929157109315,1.154542088508606,5.163327693939209,0.9051058292388916
1730865969.9337204,-1.6762114763259888,1.0011883974075317,-9.852025985717773,-0.24445058209388423,-0.3468926269349356,0.1323756969099756,1.1537506580352783,5.152159690856934,0.9048412442207336
1730865969.9836867,-1.6579885482788086,0.9812003374099731,-9.872231483459473,-0.2508677676772799,-0.3045509951466329,0.14722429186796704,1.1523425579071045,5.140186786651611,0.9049251079559326
1730865970.0337353,-1.6788157224655151,1.0039273500442505,-9.869159698486328,-0.24987526597058252,-0.2602965936690342,0.1591500623398472,1.1570290327072144,5.1525492668151855,0.9030348062515259
1730865970.0836577,-1.7302862405776978,0.9892690777778625,-9.866273880004883,-0.24104062453012248,-0.22293484505544903,0.16484263358532186,1.1562860012054443,5.145278453826904,0.9031468033790588
1730865970.1336935,-1.7561147212982178,1.0005706548690796,-9.84821891784668,-0.22857414925415143,-0.19783900864777987,0.16368044002208043,1.159899353981018,5.135290145874023,0.8999660015106201
1730865970.1836424,-1.7367112636566162,1.0267400741577148,-9.844929695129395,-0.21943740338495943,-0.18635130263433036,0.15795905260143916,1.1603316068649292,5.1167192459106445,0.8966348171234131
1730865970.2335315,-1.7292639017105103,1.0034098625183105,-9.847564697265625,-0.2189344199326374,-0.18663709302207415,0.15150445556264353,1.1598633527755737,5.103104591369629,0.8953593969345093
1730865970.283596,-1.7082710266113281,1.0320013761520386,-9.856908798217773,-0.22733247688405242,-0.19502240995736797,0.14751864946581736,1.1588400602340698,5.089053153991699,0.8944604396820068
1730865970.3336132,-1.7297741174697876,1.0265306234359741,-9.872505187988281,-0.24032866081309068,-0.2072265251815652,0.14701245951718353,1.1572223901748657,5.074406147003174,0.8939259052276611
1730865970.3835676,-1.73284912109375,1.026072382926941,-9.879054069519043,-0.2524566442991893,-0.2195906507270784,0.14866275684546432,1.1602734327316284,5.103371620178223,0.894201397895813
1730865970.4335475,-1.7507237195968628,1.0402652025222778,-9.899032592773438,-0.2603993952779974,-0.22977803784735795,0.14988300055360623,1.159095287322998,5.096609592437744,0.8940740823745728
1730865970.4835615,-1.7441734075546265,1.067531943321228,-9.886956214904785,-0.2640048531323562,-0.23703129070006165,0.1483057270313721,1.1572623252868652,5.089268207550049,0.8943197131156921
1730865970.5335526,-1.7646288871765137,1.0706843137741089,-9.89332103729248,-0.26517710237988523,-0.24231466165950216,0.14300250641553006,1.1628049612045288,5.093014717102051,0.8921102285385132
1730865970.583584,-1.8092890977859497,1.0768513679504395,-9.85693645477295,-0.2664965389802723,-0.24762875861148204,0.13504910964098912,1.1619539260864258,5.087477684020996,0.8921416401863098
1730865970.6335008,-1.8451093435287476,1.0780317783355713,-9.835271835327148,-0.27081120186708274,-0.2545463675796229,0.12734194615521488,1.16042160987854,5.081239223480225,0.8925004601478577
1730865970.6835158,-1.8778879642486572,1.068177342414856,-9.794242858886719,-0.2810476777547204,-0.2632001771163758,0.12379085008196128,1.1658508777618408,5.074304103851318,0.8892822861671448
1730865970.7335863,-1.8792659044265747,1.0619271993637085,-9.761591911315918,-0.29912752220246686,-0.2722608899468593,0.12806410813711758,1.1651928424835205,5.066595554351807,0.8890504240989685
1730865970.7835293,-1.8781741857528687,1.0342954397201538,-9.767451286315918,-0.32446098108135313,-0.2795189291966937,0.1421517076799161,1.1684727668762207,5.056211471557617,0.8879497647285461
1730865970.8334446,-1.8452465534210205,1.0448501110076904,-9.792409896850586,-0.3533052833618065,-0.2827335305126815,0.16495104048585782,1.1703805923461914,5.043455600738525,0.8870053291320801
1730865970.8834481,-1.7909832000732422,1.0523160696029663,-9.833215713500977,-0.37943690641018585,-0.2807617380227009,0.19152798669498822,1.1699166297912598,5.0324296951293945,0.887043833732605
1730865970.9334626,-1.7380390167236328,1.0403714179992676,-9.891928672790527,-0.39567117045454236,-0.2744366022285195,0.21405329625953684,1.1684800386428833,5.020685195922852,0.8875908255577087
1730865970.9834626,-1.6841381788253784,1.027842402458191,-9.939653396606445,-0.39585120063392487,-0.2660376745092265,0.22428018773885083,1.166062831878662,5.008316516876221,0.8886820077896118
1730865971.0333781,-1.598343849182129,1.0370818376541138,-9.97574520111084,-0.3766746078653802,-0.2577427045516166,0.2164448491971257,1.1718783378601074,5.029160022735596,0.8877164721488953
1730865971.083417,-1.5712602138519287,1.0332560539245605,-9.993497848510742,-0.3384140689387599,-0.25082395058983303,0.1894972624802072,1.1704695224761963,5.022707939147949,0.8887615203857422
1730865971.133399,-1.550557255744934,1.039259433746338,-9.944525718688965,-0.2848760466855712,-0.24587465752892165,0.14798540549860928,1.1744611263275146,5.015036106109619,0.8880735039710999
1730865971.1834455,-1.5575945377349854,1.0153611898422241,-9.915091514587402,-0.22322765907111375,-0.24299019603033006,0.10144540115152012,1.1739253997802734,5.006485462188721,0.8889473080635071
1730865971.233443,-1.6128383874893188,0.9890211224555969,-9.859123229980469,-0.1631451023319892,-0.24142164455561302,0.062012570431321634,1.172906517982483,4.997330188751221,0.8900254368782043
1730865971.283348,-1.700724482536316,0.9786924719810486,-9.800239562988281,-0.11530047974853469,-0.23930364584332742,0.040612810391795595,1.1715433597564697,4.987599849700928,0.8912286758422852
1730865971.3333108,-1.7688379287719727,1.0146944522857666,-9.755945205688477,-0.08963545822837513,-0.23457960249254395,0.04362156600516056,1.176445484161377,5.002370357513428,0.887988269329071
1730865971.3833656,-1.8208271265029907,1.02140212059021,-9.763900756835938,-0.09292759974875334,-0.226977679326546,0.07114472454725734,1.179137945175171,4.989321708679199,0.8877671360969543
1730865971.433279,-1.8217395544052124,1.0340009927749634,-9.765320777893066,-0.12585686387713524,-0.21886228729393356,0.11674638382861369,1.1796319484710693,4.98097038269043,0.8882059454917908
1730865971.48329,-1.782911777496338,1.0537012815475464,-9.80487060546875,-0.18123587164865093,-0.21381534824398196,0.1689852985783262,1.1840617656707764,4.971851825714111,0.8878858089447021
1730865971.5332751,-1.7525897026062012,1.0612386465072632,-9.85537052154541,-0.24500313227339404,-0.21458752779666784,0.21472054858462306,1.185136318206787,4.962343215942383,0.8887372016906738
1730865971.5832372,-1.7406247854232788,1.1116029024124146,-9.87990665435791,-0.30056823004716793,-0.2221953538422684,0.24284431072464066,1.1855286359786987,4.952308177947998,0.8901574611663818
1730865971.633259,-1.770524501800537,1.115897536277771,-9.90289306640625,-0.33520058274944925,-0.2362849468688911,0.24738664341033284,1.185125470161438,4.941653728485107,0.8921986222267151
1730865971.683197,-1.7900440692901611,1.1545110940933228,-9.899785995483398,-0.3451139968426732,-0.2557935827203669,0.22921445485038855,1.187851071357727,4.959546089172363,0.8883891105651855
1730865971.7331789,-1.8505797386169434,1.163799524307251,-9.896068572998047,-0.3362760316861453,-0.27921793866880196,0.19543103807477252,1.1888984441757202,4.94825553894043,0.8883848786354065
1730865971.783353,-1.8653908967971802,1.1624170541763306,-9.862640380859375,-0.3208325286644759,-0.3046298859774581,0.15671284618442716,1.1882421970367432,4.940326690673828,0.8894645571708679
1730865971.8332534,-1.84821355342865,1.119704008102417,-9.858514785766602,-0.3111319776412473,-0.32937710199291426,0.12384895158029702,1.1867996454238892,4.931644916534424,0.8908895254135132
1730865971.8832345,-1.8270213603973389,1.114829421043396,-9.805334091186523,-0.31396117343859253,-0.34974008418613123,0.10473638341938518,1.1845766305923462,4.922111988067627,0.8926002979278564
1730865971.9334147,-1.793975830078125,1.0453251600265503,-9.822367668151855,-0.3279925456463584,-0.3614899009917184,0.10271765990067747,1.1904892921447754,4.933145523071289,0.8885469436645508
1730865971.9832606,-1.7209333181381226,1.0137131214141846,-9.828447341918945,-0.3454927703913672,-0.361084118493393,0.11617733204014308,1.1892454624176025,4.927105903625488,0.889292299747467
1730865972.0332992,-1.6012029647827148,0.9719731211662292,-9.870986938476562,-0.3558573771490134,-0.3466492826773995,0.1389727072240125,1.1928201913833618,4.917819499969482,0.8883455991744995
1730865972.0832047,-1.5673483610153198,0.9927900433540344,-9.874567985534668,-0.34886136908732734,-0.318976392774456,0.16220704264545716,1.1919488906860352,4.908999443054199,0.889125645160675
1730865972.133241,-1.5617990493774414,1.0194441080093384,-9.915316581726074,-0.31841359692229365,-0.2825542735628229,0.17739004522899843,1.1950627565383911,4.902851581573486,0.8883808851242065
1730865972.1831715,-1.576568603515625,1.0584110021591187,-9.886327743530273,-0.2664292406707539,-0.2454853796119061,0.17952143255826913,1.1944442987442017,4.893709659576416,0.8893092274665833
1730865972.2332606,-1.631142258644104,1.0728533267974854,-9.91388988494873,-0.20354360164027227,-0.21724317509148458,0.16864415191467386,1.193230390548706,4.883906841278076,0.8906829357147217
1730865972.283102,-1.7173388004302979,1.079965353012085,-9.86382007598877,-0.14565123348716155,-0.20492780745690964,0.14934281055646487,1.1970707178115845,4.8907670974731445,0.8884637951850891
1730865972.3331964,-1.82231605052948,1.1077828407287598,-9.826631546020508,-0.1088780874632766,-0.21039803584407815,0.1288914835597462,1.1967265605926514,4.884685516357422,0.8893364667892456
1730865972.383157,-1.8533849716186523,1.1184059381484985,-9.800682067871094,-0.10491850733340595,-0.2302779132882872,0.11512373764968759,1.20049250125885,4.875914573669434,0.8883413672447205
1730865972.4330823,-1.8954871892929077,1.0949914455413818,-9.761144638061523,-0.13712325656471994,-0.2581330772601764,0.1141079475733689,1.201019287109375,4.867640495300293,0.889042854309082
1730865972.4830406,-1.8989217281341553,1.0262970924377441,-9.779446601867676,-0.1988297102682702,-0.28630672126876033,0.1279917964071482,1.2011257410049438,4.858743190765381,0.8900405168533325
1730865972.5331557,-1.8536771535873413,1.0082930326461792,-9.78778076171875,-0.27540972999800284,-0.3067985842173919,0.15398331036946708,1.2006335258483887,4.848972320556641,0.8914086222648621
1730865972.5831227,-1.783974289894104,1.004658818244934,-9.84261703491211,-0.34863863663661027,-0.3130596472823307,0.1848849616069503,1.2029706239700317,4.861965179443359,0.8885226249694824
1730865972.6330674,-1.783974289894104,1.004658818244934,-9.84261703491211,-0.4016100162326919,-0.30294180788271585,0.21133404244303325,1.2063891887664795,4.841567039489746,0.8886473774909973
1730865972.6330674,-1.7528783082962036,1.0574264526367188,-9.855023384094238,-0.42385514821832765,-0.2802828610546502,0.22541395373543777,1.2063965797424316,4.84144401550293,0.888654887676239
1730865972.6830595,-1.7219197750091553,1.080628514289856,-9.910914421081543,-0.41455980552726335,-0.2537415496070009,0.22368679551245713,1.208935260772705,4.8270721435546875,0.8908599615097046
1730865972.7331333,-1.704637885093689,1.1132997274398804,-9.919187545776367,-0.38128770978204063,-0.23355521575034388,0.2073759883375844,1.2093278169631958,4.812600612640381,0.8929832577705383
1730865972.7830756,-1.6880874633789062,1.1303209066390991,-9.951221466064453,-0.33558424403235493,-0.22754046019175717,0.1804460952355991,1.2088234424591064,4.797652244567871,0.8955758810043335
1730865972.8330402,-1.6892642974853516,1.1353075504302979,-9.929433822631836,-0.2887473927203897,-0.23825351254680927,0.14802758490718765,1.2075345516204834,4.782043933868408,0.8985931277275085
1730865972.8830557,-1.6928538084030151,1.1137971878051758,-9.93874454498291,-0.24925309045618732,-0.26246732874438694,0.11566713686863657,1.2055816650390625,4.765890598297119,0.9019238352775574
1730865972.9329422,-1.7044410705566406,1.0738990306854248,-9.894899368286133,-0.2218398833265575,-0.2925142015068209,0.08866341098715717,1.2098599672317505,4.816281795501709,0.8925062417984009
1730865972.9829872,-1.7288248538970947,1.0470776557922363,-9.854463577270508,-0.20782798230884614,-0.318762274477034,0.07145242728002957,1.209037184715271,4.810476779937744,0.8935672044754028
1730865973.0330038,-1.782965898513794,1.0143132209777832,-9.822835922241211,-0.20632552452097364,-0.3327377976628174,0.06722967623428412,1.207694172859192,4.803849220275879,0.894802987575531
1730865973.082945,-1.8363450765609741,1.0109021663665771,-9.767317771911621,-0.21592650361078924,-0.32996866977428285,0.07748342316828877,1.2128233909606934,4.804100036621094,0.893629252910614
1730865973.132889,-1.8869452476501465,0.9894759058952332,-9.760782241821289,-0.23587942829157896,-0.3112930954243913,0.10146953109946899,1.2125731706619263,4.796969413757324,0.8946883678436279
1730865973.1829495,-1.8473352193832397,1.0347927808761597,-9.739604949951172,-0.2654754317381199,-0.28221471314978047,0.13598999378943155,1.2116965055465698,4.789083480834961,0.8960461020469666
1730865973.232936,-1.816389560699463,1.0465000867843628,-9.774761199951172,-0.3016823471333818,-0.2510758205921829,0.17554080768878408,1.215067982673645,4.790904521942139,0.8950108885765076
1730865973.2828844,-1.783855676651001,1.0769073963165283,-9.79489803314209,-0.3375682189034494,-0.22665567881381846,0.21298438737098294,1.2171889543533325,4.778570652008057,0.8963208794593811
1730865973.3328242,-1.7646828889846802,1.053520679473877,-9.82564926147461,-0.3641566617539273,-0.2152622927040209,0.24098596273526865,1.2165895700454712,4.770499229431152,0.8980655670166016
1730865973.3828576,-1.7351040840148926,1.0145779848098755,-9.854711532592773,-0.3745166556032101,-0.2180665621169972,0.25404373556926346,1.2150663137435913,4.761892318725586,0.9004283547401428
1730865973.432912,-1.683071255683899,0.9749651551246643,-9.900102615356445,-0.3664486960263448,-0.23017889991089063,0.25004028551475344,1.212608814239502,4.752701759338379,0.9034298658370972
1730865973.4828544,-1.6453770399093628,0.9578630328178406,-9.910890579223633,-0.3421072138651043,-0.2426710439468311,0.23039488067640274,1.2092766761779785,4.742959499359131,0.907018780708313
1730865973.532847,-1.649688720703125,0.9565423130989075,-9.945751190185547,-0.30616708538876247,-0.24698863497521503,0.19923400381427817,1.205133080482483,4.732598781585693,0.9111465811729431
1730865973.5828483,-1.6442580223083496,0.9954084157943726,-9.940225601196289,-0.26470125323836924,-0.23927622902717047,0.16221361585565294,1.2190178632736206,4.76146125793457,0.8982360363006592
1730865973.632834,-1.6689367294311523,1.0497392416000366,-9.937795639038086,-0.22461275944367973,-0.22236891834279496,0.125312182118583,1.217846393585205,4.75669002532959,0.8995872139930725
1730865973.682793,-1.6859419345855713,1.0834542512893677,-9.915569305419922,-0.19253272166118074,-0.20459420868900682,0.09394465118481009,1.2220656871795654,4.750624179840088,0.8992019891738892
1730865973.7328548,-1.71327543258667,1.1262437105178833,-9.893120765686035,-0.17337520551956093,-0.19583043586269136,0.0723491525243524,1.2217862606048584,4.744933128356934,0.9003309607505798
1730865973.782775,-1.7269731760025024,1.1472166776657104,-9.872698783874512,-0.16923977229952164,-0.20294739271889772,0.06302927115654713,1.2210792303085327,4.738766193389893,0.901624858379364
1730865973.8327966,-1.735066294670105,1.1401067972183228,-9.833118438720703,-0.17899092132478372,-0.22703382589560753,0.06642521630902004,1.223928689956665,4.7332634925842285,0.9007254242897034
1730865973.8827624,-1.717958927154541,1.1496965885162354,-9.815305709838867,-0.19855175548230714,-0.2632306790934112,0.08112094934586718,1.2234852313995361,4.726545810699463,0.9017254114151001
1730865973.9327734,-1.6673269271850586,1.18075430393219,-9.812365531921387,-0.2216216550093423,-0.303152267806177,0.10430770773192165,1.2260721921920776,4.719391345977783,0.9024473428726196
1730865973.9827108,-1.718985915184021,1.200554609298706,-9.816550254821777,-0.24108085706443824,-0.3389938699063524,0.1319856946915983,1.225813388824463,4.711254119873047,0.903814971446991
1730865974.032757,-1.777178168296814,1.1863377094268799,-9.796299934387207,-0.25213012095750964,-0.36656844622028667,0.1594146402626868,1.2277390956878662,4.706253528594971,0.9041235446929932
1730865974.0837018,-1.8267006874084473,1.1075407266616821,-9.833602905273438,-0.2557464521593277,-0.3848553271173424,0.1822942922018601,1.227281093597412,4.697562217712402,0.905775249004364
1730865974.1328225,-1.8129234313964844,1.0744457244873047,-9.833734512329102,-0.25827388993446576,-0.3931396572150571,0.19768306811874978,1.2262061834335327,4.688209056854248,0.9078380465507507
1730865974.1827915,-1.7848941087722778,1.034195899963379,-9.854951858520508,-0.2663061313202555,-0.3895273119727697,0.20413171215540815,1.2244648933410645,4.67773962020874,0.9104307293891907
1730865974.2327878,-1.7069191932678223,1.0519814491271973,-9.866008758544922,-0.2811543105880749,-0.3726795553890183,0.2017044186957173,1.2293369770050049,4.690465927124023,0.9040837287902832
1730865974.2827125,-1.7330290079116821,1.0380792617797852,-9.891645431518555,-0.297521687841348,-0.3445203932680437,0.19183994988259842,1.2283531427383423,4.683561325073242,0.9053226113319397
1730865974.333654,-1.723747968673706,1.0607243776321411,-9.90710735321045,-0.3075382742595668,-0.31083969290634555,0.1767008706913583,1.2312710285186768,4.678405284881592,0.9037860631942749
1730865974.383695,-1.6333900690078735,1.1029419898986816,-9.92292594909668,-0.30605439334012086,-0.27948822897158543,0.1584540677063655,1.230417013168335,4.6710405349731445,0.9048211574554443
1730865974.4336932,-1.7185343503952026,1.0912126302719116,-9.885492324829102,-0.2923660342306122,-0.25782682509080934,0.1391805064143964,1.228814959526062,4.663008213043213,0.9062279462814331
1730865974.4835937,-1.7632367610931396,1.0811116695404053,-9.884361267089844,-0.27005228747277976,-0.25011823068806294,0.12146406562406412,1.2325549125671387,4.662341594696045,0.9036220908164978
1730865974.533778,-1.7660847902297974,1.066494345664978,-9.817702293395996,-0.24696490335322235,-0.25554159879819016,0.10872312455107616,1.2315133810043335,4.655608654022217,0.9043987393379211
1730865974.583637,-1.76335608959198,1.0730304718017578,-9.786660194396973,-0.23227710531944187,-0.2686934262654892,0.1047357528320787,1.2342838048934937,4.648644924163818,0.9035336971282959
1730865974.6336203,-1.755035638809204,1.0663394927978516,-9.755593299865723,-0.23119254332052208,-0.28265538464336815,0.11257740872997904,1.233636498451233,4.640786647796631,0.9042132496833801
1730865974.683558,-1.7797462940216064,1.05051851272583,-9.727736473083496,-0.24259201120422558,-0.29212246595241903,0.13319156077930872,1.2355955839157104,4.634806156158447,0.9036005735397339
1730865974.7336075,-1.7905184030532837,1.0506978034973145,-9.733460426330566,-0.2611973103119706,-0.2946590730123112,0.1644034395770731,1.2348878383636475,4.626327037811279,0.9043998718261719
1730865974.7834837,-1.7196898460388184,1.0897799730300903,-9.776664733886719,-0.2809206352650938,-0.29066015651376675,0.20091368115596978,1.2365894317626953,4.618616580963135,0.9038105010986328
1730865974.8335426,-1.7713710069656372,1.1019127368927002,-9.835098266601562,-0.296459755500479,-0.28316373364486025,0.234879037056993,1.2355836629867554,4.610200881958008,0.9049075841903687
1730865974.8835092,-1.8028919696807861,1.1387075185775757,-9.852670669555664,-0.30455295344614297,-0.2770256933883911,0.25749248325250673,1.2357975244522095,4.599794387817383,0.9040107131004333
1730865974.9336016,-1.8285831212997437,1.182466745376587,-9.922863006591797,-0.30600114802406536,-0.27716273186539975,0.2619070231701466,1.2341302633285522,4.589868068695068,0.9053553938865662
1730865974.9834633,-1.8077365159988403,1.2220063209533691,-9.935257911682129,-0.30536114119470487,-0.2870568283087949,0.24576187278664774,1.2317123413085938,4.579297065734863,0.9073238372802734
1730865975.0335941,-1.8268399238586426,1.19771409034729,-9.958266258239746,-0.30740856839278397,-0.3077960586369166,0.21177275745589233,1.2285106182098389,4.567910671234131,0.9098783135414124
1730865975.0834959,-1.7553056478500366,1.1827597618103027,-9.942646980285645,-0.31381975584663907,-0.3369633253985739,0.1668466293694758,1.2245539426803589,4.555788040161133,0.9128895998001099
1730865975.1334362,-1.7702215909957886,1.131227731704712,-9.93575382232666,-0.3222932326633132,-0.36822825536491377,0.12027992173678842,1.2348313331604004,4.5842604637146,0.9039698243141174
1730865975.1834197,-1.7350672483444214,1.0756663084030151,-9.8892240524292,-0.32813078836035925,-0.3928638213627505,0.08138198221843082,1.2328972816467285,4.57797908782959,0.9048124551773071
1730865975.2334309,-1.6980245113372803,1.014807939529419,-9.849322319030762,-0.32701983926911776,-0.402503816732951,0.057434803248778074,1.2362134456634521,4.566833972930908,0.9032685160636902
1730865975.2833824,-1.74787175655365,0.9247363805770874,-9.83838939666748,-0.3170655581073997,-0.3915643845208446,0.0523849409965028,1.2348073720932007,4.55683708190918,0.9036387801170349
1730865975.3333728,-1.7218077182769775,0.9190731048583984,-9.835184097290039,-0.299775905903254,-0.35861241866556964,0.06584665169784641,1.2374422550201416,4.549099922180176,0.9029409885406494
1730865975.3833628,-1.710154414176941,0.9689270853996277,-9.809120178222656,-0.2795756937903181,-0.3074783516938731,0.09296062240165014,1.2362676858901978,4.538360118865967,0.9032976031303406
1730865975.4333987,-1.6837084293365479,0.9878154993057251,-9.841340065002441,-0.26110511655703605,-0.24807970334055918,0.12606236379572122,1.2381421327590942,4.53493070602417,0.9028732180595398
1730865975.483403,-1.650559425354004,1.0081390142440796,-9.836055755615234,-0.24644226572512476,-0.19431579706097524,0.15717257765315162,1.23697030544281,4.526573181152344,0.9034823179244995
1730865975.5333564,-1.6746716499328613,1.0141290426254272,-9.857386589050293,-0.2347349228713412,-0.15851705994242943,0.17995016225177218,1.241094708442688,4.517619609832764,0.9029269218444824
1730865975.5833364,-1.6851810216903687,1.004333734512329,-9.852632522583008,-0.22421862807528126,-0.14629794994897072,0.19103217848608778,1.2436190843582153,4.505588531494141,0.9028611779212952
1730865975.6333683,-1.5812643766403198,1.044628381729126,-9.859695434570312,-0.21401954673558143,-0.1552717032324291,0.19057912904612467,1.243806004524231,4.495450019836426,0.9037587642669678
1730865975.683324,-1.7228114604949951,1.0327458381652832,-9.875347137451172,-0.20387460196377533,-0.17777893040902462,0.18159495067567435,1.2434719800949097,4.484951972961426,0.905114471912384
1730865975.7333395,-1.8088876008987427,1.0366780757904053,-9.752493858337402,-0.19499702232448812,-0.2049617275168131,0.1688499811354257,1.2426356077194214,4.473898887634277,0.9069191217422485
1730865975.7832942,-1.8492463827133179,1.0879586935043335,-9.823813438415527,-0.19264904724474835,-0.22975382295436197,0.1583457964757652,1.2460485696792603,4.488373756408691,0.9028925895690918
1730865975.8332365,-1.8476037979125977,1.0733569860458374,-9.768607139587402,-0.2043322991618089,-0.24865248824000644,0.15566735750949734,1.24570894241333,4.481361389160156,0.9037890434265137
1730865975.8832293,-1.8476037979125977,1.0733569860458374,-9.768607139587402,-0.23346762745748117,-0.26173701641366204,0.16316524757975243,1.2487308979034424,4.471101760864258,0.9025604724884033
1730865975.8832293,-1.7965223789215088,1.0459142923355103,-9.815152168273926,-0.2755565041968725,-0.2705170470838991,0.17902907958722317,1.2487335205078125,4.471013069152832,0.9025661945343018
1730865975.933179,-1.7969716787338257,1.0425485372543335,-9.871280670166016,-0.31980915437337293,-0.2757500468340083,0.19796430344393215,1.251083493232727,4.463266849517822,0.9022130966186523
1730865975.9832678,-1.7303887605667114,1.079399585723877,-9.879664421081543,-0.3540129536747863,-0.27733942583379145,0.21232794918781303,1.250869870185852,4.45560359954834,0.903058648109436
1730865976.0331671,-1.6776671409606934,1.154143214225769,-9.950304985046387,-0.3690775460526079,-0.2762493217299569,0.2148475154681281,1.2497528791427612,4.447262763977051,0.9044365286827087
1730865976.0831647,-1.6643404960632324,1.210000991821289,-9.945380210876465,-0.36116448698475967,-0.27644354966532414,0.20168834250734183,1.255688190460205,4.446903228759766,0.9023715257644653
1730865976.1330926,-1.6949403285980225,1.204162359237671,-9.977410316467285,-0.33241828693763265,-0.2840301350390685,0.1737412088935376,1.2554370164871216,4.439416408538818,0.9034059047698975
1730865976.1830785,-1.715383529663086,1.1504161357879639,-9.959513664245605,-0.29105829282033574,-0.3029747343549889,0.13614330486309575,1.2608214616775513,4.43461275100708,0.9022039771080017
1730865976.2331274,-1.7309974431991577,1.0735752582550049,-9.935346603393555,-0.24924925244356627,-0.3305796710174863,0.09666233016467758,1.2638721466064453,4.423180103302002,0.9002112746238708
1730865976.2831085,-1.751832365989685,1.0295008420944214,-9.867960929870605,-0.21857363346555125,-0.357022867162477,0.06381879743576438,1.2647947072982788,4.41333532333374,0.90003901720047
1730865976.333172,-1.7894331216812134,1.0231446027755737,-9.804779052734375,-0.20597602743866858,-0.3701907494485571,0.04543320139609841,1.2651866674423218,4.40255880355835,0.9000033736228943
1730865976.3830342,-1.7807178497314453,0.9962002635002136,-9.770801544189453,-0.21245090101171935,-0.3624965650956291,0.04716011822192738,1.2664631605148315,4.408038139343262,0.8984290361404419
1730865976.4331918,-1.7807178497314453,0.9962002635002136,-9.770801544189453,-0.2338231532246548,-0.3345857230086391,0.07045661334387653,1.2663682699203491,4.400691032409668,0.8982885479927063
1730865976.4331918,-1.7861945629119873,0.9779112339019775,-9.746031761169434,-0.2625441824459137,-0.2939842164744077,0.11107279725806166,1.266364574432373,4.400616645812988,0.8982880711555481
1730865976.4830334,-1.7849152088165283,0.9251965284347534,-9.751386642456055,-0.29044598017652634,-0.2506237389636282,0.16008460233066968,1.265625,4.3927083015441895,0.8984341621398926
1730865976.5330846,-1.784656286239624,0.8895010352134705,-9.759675979614258,-0.31151738698595244,-0.2119882252251044,0.2072173326698723,1.2641209363937378,4.384068489074707,0.8990411162376404
1730865976.583109,-1.7826882600784302,0.8732828497886658,-9.80506706237793,-0.3232224399401917,-0.180539545913106,0.24390144426184923,1.2695403099060059,4.398108959197998,0.8971860408782959
1730865976.6331296,-1.7952266931533813,0.8966658711433411,-9.827330589294434,-0.3262608034382942,-0.15496182400569875,0.26463363082686736,1.2688593864440918,4.3934197425842285,0.8979288935661316
1730865976.6830444,-1.813761830329895,0.8992002606391907,-9.887080192565918,-0.3236331909800221,-0.13355514530281992,0.26718009093498485,1.2673687934875488,4.388376712799072,0.8993340730667114
1730865976.7331476,-1.7603381872177124,1.0126773118972778,-9.927574157714844,-0.3191965128989521,-0.11687799262285795,0.2521889502521951,1.2709006071090698,4.382224082946777,0.8961236476898193
1730865976.7829556,-1.7341268062591553,1.0816811323165894,-9.964619636535645,-0.31538677614849975,-0.1087820245900526,0.22242816532583762,1.2736122608184814,4.368335247039795,0.894757091999054
1730865976.8330567,-1.752147912979126,1.1004984378814697,-9.94594955444336,-0.31173829245600887,-0.11527392015084531,0.18234243337914804,1.2731976509094238,4.360257625579834,0.8952450752258301
1730865976.882986,-1.7777737379074097,1.0999888181686401,-9.936602592468262,-0.30649315486142525,-0.14037297447057134,0.13820046585047624,1.276828408241272,4.353290557861328,0.893012523651123
1730865976.9328961,-1.7552416324615479,1.0999363660812378,-9.89273738861084,-0.2994645307662362,-0.18182340226504254,0.09780696166343855,1.2767643928527832,4.344674587249756,0.8930021524429321
1730865976.9829338,-1.7443795204162598,1.0299259424209595,-9.859451293945312,-0.29228910016294296,-0.2306681099178335,0.06899674348505917,1.2759606838226318,4.33553409576416,0.8932002186775208
