Timestamp,IMU_Linear_Acc_X,IMU_Linear_Acc_Y,IMU_Linear_Acc_Z,Filtered_X,Filtered_Y,Filtered_Z,Pose_X,Pose_Y,Pose_Z
1730865801.23918,-1.8182239532470703,0.7671011090278625,-9.85269546508789,0.08920034464884459,-0.026035925752768495,-0.03297684927209281,0.9112138152122498,6.641661167144775,0.8983848094940186
1730865801.2889752,-1.9239161014556885,0.7055597901344299,-9.846834182739258,0.08355782948282281,0.007167558484468523,-0.0463424958336101,0.9110475778579712,6.642632961273193,0.9010999202728271
1730865801.3391228,-2.005452871322632,0.6732217073440552,-9.81328296661377,0.05808846966833335,0.034783672155839794,-0.048751251726512165,0.9114499092102051,6.643128871917725,0.9039592146873474
1730865801.3891785,-2.0644314289093018,0.6799764037132263,-9.805063247680664,0.01578290964906849,0.05396452098320475,-0.03945215333940102,0.9119376540184021,6.643726348876953,0.9066582918167114
1730865801.4390163,-2.0683774948120117,0.6526409983634949,-9.804412841796875,-0.034919582796523685,0.06362719536444973,-0.02090860966787371,0.9109820127487183,6.644090175628662,0.906028151512146
1730865801.4890428,-2.0184898376464844,0.6696649193763733,-9.84837532043457,-0.08265562130705378,0.06402200499144997,0.0015804561313379067,0.9109048247337341,6.644725799560547,0.907707154750824
1730865801.5389404,-2.050720691680908,0.7066246271133423,-9.841150283813477,-0.11552760199514403,0.056457687436483245,0.02082362358368887,0.9106532335281372,6.645654678344727,0.9073712825775146
1730865801.589047,-2.1100802421569824,0.6919991374015808,-9.812328338623047,-0.12423308453168283,0.04230526162061484,0.030203334986867635,0.9101787209510803,6.646511077880859,0.9086033701896667
1730865801.6389573,-2.0646238327026367,0.6876412630081177,-9.837465286254883,-0.1081088805203948,0.023937779259748285,0.02783312453955506,0.9093949794769287,6.6474928855896,0.9099717736244202
1730865801.6889772,-1.9538490772247314,0.6933215260505676,-9.872831344604492,-0.07598424935964337,0.00610453971439083,0.01755811973032255,0.9083819389343262,6.648510932922363,0.9113947153091431
1730865801.7399108,-1.9198485612869263,0.671986997127533,-9.895611763000488,-0.038221805559334535,-0.005892964207911764,0.004762675727371374,0.9104399085044861,6.646986484527588,0.9019526243209839
1730865801.7899184,-1.934713363647461,0.6202641725540161,-9.903653144836426,-0.0007771946900865002,-0.00903017652458513,-0.00744555758403897,0.9101483225822449,6.647444248199463,0.9013077616691589
1730865801.839801,-1.9566596746444702,0.5958650708198547,-9.893868446350098,0.03184875593470805,-0.003091798832339777,-0.01767733328082175,0.9106523990631104,6.6484150886535645,0.9035126566886902
1730865801.8898396,-2.0700433254241943,0.5887209177017212,-9.879047393798828,0.05249632833289121,0.00994388035297674,-0.024256166245901177,0.9109199047088623,6.649635314941406,0.9051012396812439
1730865801.9398322,-2.035611152648926,0.5595297813415527,-9.890375137329102,0.05429247246096655,0.02594428616191347,-0.025451254599391914,0.911156177520752,6.650449752807617,0.9057504534721375
1730865801.9898298,-1.9543719291687012,0.4899158477783203,-9.868303298950195,0.038064643919564864,0.03986181504561698,-0.021170022600644052,0.9115056991577148,6.651341438293457,0.9063392281532288
1730865802.0397954,-1.9543719291687012,0.4899158477783203,-9.868303298950195,0.0153820466300989,0.049218535948619926,-0.013312815110067516,0.9119232892990112,6.652348518371582,0.9068880081176758
1730865802.0397954,-1.9788174629211426,0.4535840153694153,-9.852202415466309,0.0019284107277621892,0.05589986552597986,-0.0043544036104524375,0.9119430780410767,6.6523966789245605,0.906912088394165
1730865802.0897422,-1.9162050485610962,0.461326539516449,-9.841979026794434,0.007196769960940391,0.06387369206073097,0.004090187826553909,0.9111531376838684,6.651077747344971,0.9069015979766846
1730865802.139785,-1.814025640487671,0.4669111669063568,-9.861021995544434,0.030573343936569082,0.07516416703064063,0.01135372997128416,0.9112970232963562,6.65178918838501,0.9073808193206787
1730865802.1899219,-1.7876211404800415,0.5232841968536377,-9.835824012756348,0.06430583901343916,0.08639794665275635,0.01664534186666704,0.9111705422401428,6.652560234069824,0.9087228775024414
1730865802.2398098,-1.726980209350586,0.6060428619384766,-9.866418838500977,0.097996353226503,0.08903672611481653,0.018563448245070918,0.911500871181488,6.653628349304199,0.9095703363418579
1730865802.289803,-1.6326024532318115,0.624464750289917,-9.861770629882812,0.12265082272836161,0.07498250070754135,0.015951112241206978,0.9121090173721313,6.654906272888184,0.9104645848274231
1730865802.3397233,-1.6743065118789673,0.6467580795288086,-9.867176055908203,0.1342203383642258,0.04251246122437449,0.008757925378456717,0.9130362272262573,6.656327247619629,0.9113869667053223
1730865802.3898108,-1.7152729034423828,0.6908243894577026,-9.82553482055664,0.13434145425104105,-0.003075757883269043,-0.0015665715591625436,0.9114097952842712,6.654345512390137,0.9102655053138733
1730865802.4397688,-1.7444225549697876,0.6811246275901794,-9.810441970825195,0.1265521093547151,-0.052375746305697954,-0.011917524946433042,0.9115234613418579,6.65580940246582,0.9116520881652832
1730865802.4897354,-1.609479546546936,0.7078298926353455,-9.893141746520996,0.11269483341997968,-0.09386364005872944,-0.018906007980675713,0.9122018218040466,6.656425476074219,0.9123444557189941
1730865802.5396903,-1.5528618097305298,0.7540518045425415,-9.904732704162598,0.09535413676093171,-0.11683926810327648,-0.022080881038602347,0.9131390452384949,6.656778335571289,0.9129850268363953
1730865802.5897274,-1.5462818145751953,0.7540452480316162,-9.93464469909668,0.0818107343855115,-0.11746854444880592,-0.025319811129409286,0.9143072366714478,6.656838417053223,0.9135709404945374
1730865802.6396115,-1.5564309358596802,0.7970483303070068,-9.944168090820312,0.08108418227173371,-0.10170505768043256,-0.03390147946350304,0.9156714081764221,6.656623363494873,0.9140785932540894
1730865802.689655,-1.5336229801177979,0.8152827024459839,-9.944314002990723,0.09699868013249208,-0.08133996964609086,-0.05052571290033327,0.9172524213790894,6.6561808586120605,0.914479672908783
1730865802.7396019,-1.5408025979995728,0.8996717929840088,-9.944598197937012,0.1258668956125137,-0.06814629997477939,-0.07379324371986988,0.9118477702140808,6.65785026550293,0.9114622473716736
1730865802.7897346,-1.5502585172653198,0.9368717670440674,-9.92910385131836,0.15854562477324674,-0.0693764230081604,-0.09851738093846847,0.9125834703445435,6.657883644104004,0.9112022519111633
1730865802.8395882,-1.5549274682998657,1.0118160247802734,-9.894685745239258,0.18214721349059226,-0.08416071578374162,-0.11618880256016521,0.9137576222419739,6.65772819519043,0.9106706976890564
1730865802.8897681,-1.5752161741256714,1.057442545890808,-9.899685859680176,0.18353334227486454,-0.10438040753900046,-0.11730885514246821,0.9121123552322388,6.022453784942627,0.9109715819358826
1730865802.9395435,-1.6066447496414185,1.0976213216781616,-9.853158950805664,0.15660109569973815,-0.12124024570116629,-0.09699314281954585,0.9130924940109253,5.895299911499023,0.9104207754135132
1730865802.9895918,-1.6563889980316162,1.138081431388855,-9.844616889953613,0.10645804820041718,-0.12958173277291604,-0.05895387230658898,0.9124168157577515,5.312714576721191,0.9154223203659058
1730865803.0395062,-1.6927284002304077,1.1569839715957642,-9.807908058166504,0.04593251897852586,-0.12720940177359238,-0.013507112813981627,0.9131582975387573,5.066067218780518,0.9164561033248901
1730865803.0894754,-1.740952491760254,1.1635854244232178,-9.798731803894043,-0.01096497898806006,-0.11424132149580978,0.027737558219010115,0.9125082492828369,4.62501859664917,0.9202038645744324
1730865803.1394646,-1.7913299798965454,1.1778644323349,-9.783830642700195,-0.05398000897309614,-0.09314080630531377,0.0562847980200417,0.9127474427223206,4.322987079620361,0.9221383929252625
1730865803.1894956,-1.8195726871490479,1.2003886699676514,-9.765666007995605,-0.07893019988811345,-0.06817279170314974,0.06873375683921217,0.9125010967254639,3.9601550102233887,0.9195472002029419
1730865803.239462,-1.8631542921066284,1.1998851299285889,-9.779664039611816,-0.08728102879318843,-0.044363956717751764,0.06647239863442211,0.9123727679252625,3.618898630142212,0.9202063679695129
1730865803.289468,-1.8739923238754272,1.1984258890151978,-9.770062446594238,-0.08380561174673525,-0.025640537966764437,0.053796983974003156,0.912030041217804,3.277372360229492,0.9210165143013
1730865803.3394802,-1.8863242864608765,1.1963108777999878,-9.795825004577637,-0.07413530831957099,-0.01325168251098719,0.03567523802035913,0.9129171967506409,3.467783212661743,0.9187249541282654
1730865803.3895547,-1.8934587240219116,1.1652177572250366,-9.788002967834473,-0.06311982849610341,-0.005965398747356609,0.016492068402572627,0.9127114415168762,3.2651419639587402,0.9189541935920715
1730865803.4393966,-1.8831759691238403,1.1383507251739502,-9.804329872131348,-0.05336230656993157,-0.001162165794799048,-0.00010710403457313798,0.9123654961585999,3.0659661293029785,0.9191999435424805
1730865803.4894183,-1.8819334506988525,1.1222338676452637,-9.825764656066895,-0.0445438659589472,0.004342551282727162,-0.011556594744400453,0.9136536121368408,2.8941409587860107,0.9142436385154724
1730865803.539469,-1.8772187232971191,1.0729050636291504,-9.835578918457031,-0.03500747380731349,0.013135440892419973,-0.01729269705055175,0.9136199355125427,2.676954746246338,0.9132006764411926
1730865803.5895002,-1.8618934154510498,1.0460854768753052,-9.853119850158691,-0.02398759752677757,0.025700084547462296,-0.018751059269500797,0.9135123491287231,2.4594645500183105,0.9121108651161194
1730865803.6394267,-1.8080321550369263,1.0195688009262085,-9.850418090820312,-0.011832269884232617,0.040400872623878196,-0.01813374109135771,0.915729284286499,2.321716785430908,0.9101365804672241
1730865803.689436,-1.7563374042510986,0.9985421299934387,-9.867792129516602,0.00126347973843871,0.0548965765309045,-0.017336160577589445,0.9161689281463623,2.115180492401123,0.9088740944862366
1730865803.7393243,-1.714673638343811,0.9950452446937561,-9.877016067504883,0.015630943799286277,0.06643794060334057,-0.017405229585180353,0.9179049730300903,1.7064034938812256,0.9063625335693359
1730865803.789357,-1.6055939197540283,0.9753503799438477,-9.914520263671875,0.03147669774938719,0.07171468268168152,-0.018542540172053167,0.918771505355835,1.4329824447631836,0.9046881794929504
1730865803.8393056,-1.6582939624786377,0.9247524738311768,-9.872783660888672,0.048397701330688936,0.06884956076056709,-0.02047467862074059,0.9202848672866821,1.035337209701538,0.9024081826210022
1730865803.8892963,-1.641167402267456,0.8970024585723877,-9.921512603759766,0.06446993394723852,0.05961140013401737,-0.02255214568960802,0.9215718507766724,0.7017834186553955,0.9003656506538391
1730865803.9393156,-1.6443581581115723,0.8761228919029236,-9.890645980834961,0.0756241366148943,0.04842196558632977,-0.024110279332853972,0.9220934510231018,0.5309826731681824,0.9012885689735413
1730865803.9892652,-1.6640797853469849,0.849124550819397,-9.922901153564453,0.07743873344211803,0.03929518384000594,-0.025073735699685615,0.9232730269432068,0.2792719304561615,0.9001705050468445
1730865804.0393271,-1.612823247909546,0.8238906860351562,-9.935628890991211,0.0682016213233205,0.03408690446882914,-0.02584648776460938,0.9243800640106201,0.6343082785606384,0.8968767523765564
1730865804.089237,-1.589545488357544,0.8188869953155518,-9.942728996276855,0.050591640328272285,0.03262565977015785,-0.026841469501449937,0.9269260168075562,0.7200550436973572,0.893761396408081
1730865804.139207,-1.588443636894226,0.8178478479385376,-9.955975532531738,0.030615311368465986,0.03316930158695351,-0.0279309789343254,0.9287227392196655,0.6976467370986938,0.891418993473053
1730865804.1892223,-1.5597964525222778,0.8117115497589111,-9.9310302734375,0.014246347860675286,0.03302456057475817,-0.028061427896772434,0.9305692315101624,0.6753994226455688,0.8890147805213928
1730865804.2391493,-1.5895116329193115,0.8059566020965576,-9.93821907043457,0.004698569144961386,0.03010018541500123,-0.025815573681477355,0.9324426651000977,0.6531919836997986,0.8865389823913574
1730865804.2891953,-1.6338859796524048,0.788579523563385,-9.900981903076172,0.0017579304053157467,0.024421095145596004,-0.020327627618483342,0.9298592805862427,0.7711191773414612,0.8899745941162109
1730865804.339082,-1.6665456295013428,0.7899959087371826,-9.877118110656738,0.002148610702815071,0.017925022831764628,-0.011578234480549607,0.9308285713195801,0.7677492499351501,0.8886335492134094
1730865804.389136,-1.6961336135864258,0.8016496896743774,-9.85210132598877,0.0012394162584938586,0.01259197624839868,-0.00031733132961951713,0.9330704212188721,1.5283920764923096,0.8842195272445679
1730865804.4391422,-1.7162957191467285,0.8131167888641357,-9.827624320983887,-0.004160779078901775,0.008773178492641379,0.012017924867798315,0.935363233089447,2.11920428276062,0.8794530034065247
1730865804.4891734,-1.7316612005233765,0.8423091769218445,-9.829116821289062,-0.013899536746167871,0.0053577947914272015,0.023350700012323672,0.9368475079536438,2.4156126976013184,0.8767161965370178
1730865804.5391269,-1.7482595443725586,0.8576129078865051,-9.811513900756836,-0.024795683284036973,0.0009468898030099149,0.031171121420705647,0.938284695148468,2.7122838497161865,0.8740450739860535
1730865804.5892553,-1.7895129919052124,0.8559348583221436,-9.811506271362305,-0.03331499093520435,-0.005455489409937391,0.03361508374048633,0.9384459853172302,2.858664035797119,0.8796268701553345
1730865804.6391342,-1.8153523206710815,0.8762920498847961,-9.801729202270508,-0.03829966440830139,-0.013942309398187911,0.03081084846823882,0.9395737648010254,3.1314728260040283,0.8791467547416687
1730865804.6892211,-1.8437652587890625,0.872596263885498,-9.805374145507812,-0.04077837172136379,-0.02312996054056451,0.024709950721871106,0.9398108720779419,3.459942102432251,0.8804627060890198
1730865804.7390926,-1.862943172454834,0.8611101508140564,-9.827842712402344,-0.04194436775894211,-0.030371853357569676,0.01754814396932313,0.9406201839447021,3.7663919925689697,0.8803907632827759
1730865804.789014,-1.8640209436416626,0.8488389849662781,-9.84371280670166,-0.04206787983986628,-0.032871691790461136,0.010423762825498298,0.9413238763809204,4.072113037109375,0.880353569984436
1730865804.839004,-1.836978793144226,0.8383712768554688,-9.868281364440918,-0.04053742407314355,-0.028855338391090904,0.0028522527076236446,0.941929817199707,4.380180835723877,0.8803326487541199
1730865804.8889713,-1.7800979614257812,0.88373863697052,-9.9052152633667,-0.03608563343663304,-0.01857079964475075,-0.006694100130272709,0.9424393773078918,4.688097953796387,0.8803069591522217
1730865804.9390533,-1.7980400323867798,0.8457521796226501,-9.920720100402832,-0.027048026479919392,-0.004791375165989041,-0.019908704820968348,0.9409875869750977,3.965488910675049,0.8855440020561218
1730865804.9889972,-1.830538272857666,0.8917589783668518,-9.88571548461914,-0.012857921606997887,0.00809474874041169,-0.03697480165333937,0.9434694051742554,4.4841389656066895,0.8901439309120178
1730865805.0389898,-1.806710958480835,0.9327165484428406,-9.907770156860352,0.003732157594432708,0.015730439043802155,-0.05413812112502862,0.9444788694381714,4.746612548828125,0.8917694091796875
1730865805.088886,-1.775828242301941,0.9795467257499695,-9.913341522216797,0.017804145651215686,0.014887472856909351,-0.06471757552761426,0.9466347694396973,5.1652679443359375,0.8952897191047668
1730865805.1388822,-1.762521743774414,1.0135949850082397,-9.889751434326172,0.02646155102196811,0.004508864769337996,-0.06427838363241609,0.9479905366897583,5.462342262268066,0.8970877528190613
1730865805.18894,-1.764777421951294,1.0435967445373535,-9.88683032989502,0.030044646069844763,-0.013211542813939074,-0.053195292119796234,0.9493960738182068,5.754917621612549,0.8987123370170593
1730865805.2388415,-1.7540602684020996,1.0809378623962402,-9.871850967407227,0.02991169360037344,-0.03358701453342709,-0.03466342409474596,0.9507951736450195,5.775146961212158,0.9019989967346191
1730865805.28897,-1.7688608169555664,1.0992496013641357,-9.854341506958008,0.027114394753933353,-0.052027254864367024,-0.012733111521493598,0.9523468613624573,6.016797065734863,0.9041004776954651
1730865805.338828,-1.7483457326889038,1.0995420217514038,-9.853723526000977,0.022410796625021143,-0.06511617346120088,0.008232435683660699,0.9534722566604614,6.376479148864746,0.9087463617324829
1730865805.3899066,-1.7291067838668823,1.097556233406067,-9.850028038024902,0.01652540765131052,-0.06999571102581927,0.02418355659410616,0.9568294286727905,7.0113983154296875,0.9156980514526367
1730865805.4397683,-1.6968843936920166,1.0954731702804565,-9.861414909362793,0.010802151632419345,-0.06508816620345942,0.03239868201793454,0.9590746760368347,7.429713726043701,0.9201734662055969
1730865805.4897301,-1.672996163368225,1.093546748161316,-9.869815826416016,0.0073997161102958954,-0.05151525896439377,0.03210307145245867,0.9613373875617981,7.846920013427734,0.9247188568115234
1730865805.539689,-1.6386715173721313,1.1220670938491821,-9.85108470916748,0.008617741598056484,-0.0331054452803589,0.02450365252083999,0.9593493342399597,6.911267280578613,0.9215205907821655
1730865805.5897095,-1.6289420127868652,1.1102453470230103,-9.854703903198242,0.015724032365312182,-0.015018673706443955,0.012601316394767937,0.9605185389518738,7.001030445098877,0.923999011516571
1730865805.6396556,-1.602460503578186,1.1043914556503296,-9.833099365234375,0.02731550028577623,-0.001425168711442889,0.0004945189046631016,0.961739182472229,7.090580940246582,0.9264885187149048
1730865805.6896043,-1.623193383216858,1.0749561786651611,-9.823911666870117,0.03911242351773527,0.006570729870760708,-0.007902287254747595,0.963033139705658,7.17948579788208,0.9289507865905762
1730865805.7395995,-1.6190803050994873,1.0485148429870605,-9.822729110717773,0.04650386291637106,0.011116337891840706,-0.010063361301541552,0.9625535011291504,6.743078708648682,0.9268030524253845
1730865805.7896338,-1.6206814050674438,1.0298175811767578,-9.791159629821777,0.0471122467895821,0.015718197952990377,-0.005583487865242984,0.9637364149093628,6.758063316345215,0.9285457134246826
1730865805.83958,-1.639949917793274,1.023123025894165,-9.780258178710938,0.041064727904416995,0.022325111317859525,0.0038754437412983856,0.9650324583053589,6.773129463195801,0.9302902817726135
1730865805.8896503,-1.692975640296936,1.0145153999328613,-9.762642860412598,0.029650523109167732,0.029862587593687272,0.01567183501706326,0.9662608504295349,6.684391498565674,0.9306927919387817
1730865805.9395404,-1.7355408668518066,1.0195575952529907,-9.761652946472168,0.014035971721166966,0.03567662375241898,0.02730349489002857,0.9677180051803589,6.687078952789307,0.9324312210083008
1730865805.9895988,-1.7674942016601562,1.004983901977539,-9.784908294677734,-0.004601202340590778,0.03754782635717046,0.03618789549426694,0.9704169034957886,6.667522430419922,0.9331359267234802
1730865806.0395057,-1.792939305305481,1.0097278356552124,-9.801262855529785,-0.02412452370847477,0.03452023257008974,0.03925457264655974,0.9749293327331543,6.66193151473999,0.9302079081535339
1730865806.0895555,-1.8140133619308472,1.0029370784759521,-9.849255561828613,-0.04119649442012612,0.02722600793384337,0.034252670071878585,0.9777666926383972,6.66136360168457,0.9299423694610596
1730865806.1395786,-1.8050885200500488,1.0043569803237915,-9.888422966003418,-0.05211972640271451,0.017727531611202357,0.021132615133637983,0.9805108308792114,6.6608476638793945,0.9297444224357605
1730865806.1895123,-1.81528902053833,0.9995716214179993,-9.950535774230957,-0.054554096807265876,0.008680196151045944,0.0012189740860945406,0.9771742820739746,6.657848834991455,0.9278963804244995
1730865806.2395163,-1.8322930335998535,0.9851449131965637,-9.977985382080078,-0.04898470118001275,0.002321690139326922,-0.023783623926128487,0.9781622290611267,6.657283782958984,0.927459716796875
1730865806.289458,-1.817283272743225,0.9540071487426758,-9.994744300842285,-0.038402639184587646,-6.0976598037610285e-05,-0.05028404779849425,0.9802480340003967,6.65488862991333,0.9257725477218628
1730865806.3394527,-1.805342197418213,0.9163051843643188,-9.996027946472168,-0.02637865077095851,0.002016735134781742,-0.07174280874051793,0.9816890358924866,6.653858184814453,0.9247908592224121
1730865806.3895001,-1.7979077100753784,0.9016949534416199,-9.96889877319336,-0.015251220220678006,0.008368122284824892,-0.08138058568027814,0.9830779433250427,6.652841091156006,0.9236174821853638
1730865806.4394233,-1.7643449306488037,0.893666684627533,-9.941459655761719,-0.005566858753002535,0.01800311428636597,-0.07566348740259428,0.9844385385513306,6.651858329772949,0.9222498536109924
1730865806.4895172,-1.7328189611434937,0.8893005847930908,-9.883574485778809,0.0036863317176176365,0.02937146064665659,-0.05513969114496142,0.9819285273551941,6.648625373840332,0.9239308834075928
1730865806.539391,-1.720992088317871,0.8956393003463745,-9.844512939453125,0.014125199447308202,0.040540814920656275,-0.023587269140595724,0.9826030135154724,6.64745569229126,0.923189640045166
1730865806.5894206,-1.7138744592666626,0.8974305391311646,-9.807974815368652,0.02580588422019539,0.04864425825610397,0.012641029194309903,0.9849057197570801,6.641560077667236,0.9221576452255249
1730865806.6394296,-1.7238755226135254,0.8960354328155518,-9.779609680175781,0.03593779619096631,0.050262008383922696,0.04568635668916495,0.9874860644340515,6.634542465209961,0.9203475117683411
1730865806.6894228,-1.7410492897033691,0.90216463804245,-9.7726411819458,0.04055540936646216,0.04373948670783228,0.06851800212438566,0.9893977642059326,6.630465984344482,0.9192975163459778
1730865806.7394316,-1.749348759651184,0.8849286437034607,-9.777583122253418,0.037185571035723855,0.030830697981703317,0.07700105470402772,0.9914012551307678,6.626494884490967,0.918432891368866
1730865806.7893822,-1.7400946617126465,0.8772354125976562,-9.810627937316895,0.026165278122561062,0.015851052910540814,0.07072355434554561,0.9934707880020142,6.62260627746582,0.9177567362785339
1730865806.8394294,-1.7406824827194214,0.8560046553611755,-9.832695960998535,0.010479291218835986,0.0036957159177206586,0.05257901404309435,0.9903095960617065,6.627498149871826,0.9187561869621277
1730865806.8895154,-1.7052135467529297,0.8411079049110413,-9.869582176208496,-0.005293364989594552,-0.0020286131858428453,0.02727714423825052,0.9913538098335266,6.625214099884033,0.9184003472328186
1730865806.9394238,-1.6587433815002441,0.8261370062828064,-9.912433624267578,-0.016006469462003316,-0.00041148531503087775,-9.433535217397062e-05,0.9921626448631287,6.6204118728637695,0.9170458912849426
1730865806.9894695,-1.6249260902404785,0.8132799863815308,-9.938201904296875,-0.017160978204016703,0.006579531788408044,-0.02504622272210527,0.9932410717010498,6.616966247558594,0.9162269234657288
1730865807.0394177,-1.5902959108352661,0.8213804364204407,-9.94753646850586,-0.007212721477056288,0.015326644062641054,-0.04415564117855454,0.994874894618988,6.614204406738281,0.915195643901825
1730865807.0894237,-1.537490963935852,0.7936891913414001,-9.958992958068848,0.011036872523805238,0.022283638981770118,-0.0550765987309418,0.9961806535720825,6.610992908477783,0.9141424298286438
1730865807.1394358,-1.5050733089447021,0.8044121861457825,-9.983200073242188,0.032201672749635306,0.025498115523956796,-0.057017947769665116,0.9968398213386536,6.608616352081299,0.9151992797851562
1730865807.1893222,-1.4997307062149048,0.8338360786437988,-9.925864219665527,0.05105453956081376,0.024926506043069233,-0.05107937025464844,0.9979643821716309,6.606032371520996,0.9146372675895691
1730865807.2394254,-1.6252689361572266,0.8675009608268738,-9.879318237304688,0.06279112429060209,0.02086753461167653,-0.03872303954586694,0.9992361068725586,6.603494167327881,0.9139606356620789
1730865807.2892952,-1.6930696964263916,0.9286378026008606,-9.846896171569824,0.06136622922664168,0.01227530619472848,-0.019793920280137947,0.9995986223220825,6.60246467590332,0.9143631458282471
1730865807.3392224,-1.749725341796875,0.9867957234382629,-9.801274299621582,0.04105555647166122,-0.0026793524952645315,0.006306813300042497,1.0007802248001099,6.60031795501709,0.9139123558998108
1730865807.389268,-1.7324427366256714,1.0334569215774536,-9.788030624389648,0.002919290186327002,-0.023999345401343727,0.03686943987399102,1.0020203590393066,6.59813117980957,0.9135140776634216
1730865807.4392316,-1.796298861503601,1.0987920761108398,-9.785404205322266,-0.04223518427870272,-0.04885922672934019,0.06503331615794927,1.0032155513763428,6.595844745635986,0.9132422804832458
1730865807.489281,-1.820189118385315,1.1449280977249146,-9.786797523498535,-0.08077619807494715,-0.07444701894583909,0.0838608391057767,1.0021857023239136,6.595614433288574,0.913593053817749
1730865807.5392325,-1.8784258365631104,1.1600382328033447,-9.791539192199707,-0.1050378449167799,-0.0996280531672976,0.09019903099957646,1.0026949644088745,6.59326696395874,0.9136447310447693
1730865807.5892818,-1.902036190032959,1.1576188802719116,-9.824762344360352,-0.11444463747424524,-0.12123635604318547,0.08429016197464931,1.0049660205841064,6.587977409362793,0.9125747084617615
1730865807.6392498,-1.9118447303771973,1.1408166885375977,-9.842151641845703,-0.11166311593472125,-0.1316903754989871,0.06776897711476657,1.0074150562286377,6.586103916168213,0.9116941094398499
1730865807.6892452,-1.8829870223999023,1.111227035522461,-9.873979568481445,-0.09956391204319463,-0.12386235479618396,0.043559396836274834,1.0083563327789307,6.583305835723877,0.911491334438324
1730865807.7391553,-1.8567336797714233,1.073843002319336,-9.894579887390137,-0.07987124344515364,-0.09689632557546371,0.01626842307974217,1.0090696811676025,6.580244541168213,0.9113641381263733
1730865807.789209,-1.8130202293395996,1.0622434616088867,-9.90457820892334,-0.05339741733861784,-0.05636212848239085,-0.009321262336194389,1.0098209381103516,6.577098369598389,0.9105097055435181
1730865807.8392713,-1.7737609148025513,1.0503885746002197,-9.891095161437988,-0.021586718982247642,-0.011126951331202235,-0.02984502286508791,1.0104762315750122,6.573736190795898,0.9101147651672363
1730865807.8892496,-1.7865691184997559,1.0232267379760742,-9.879498481750488,0.011778300441821547,0.029198469519183184,-0.04274437028832777,1.0128679275512695,6.568553924560547,0.9093151092529297
1730865807.939099,-1.796024203300476,1.0128744840621948,-9.850198745727539,0.040284230750277074,0.056632363316034946,-0.04554348071154647,1.015235185623169,6.561988830566406,0.9083685278892517
1730865807.989088,-1.8058702945709229,1.002795934677124,-9.829051971435547,0.0572080343973912,0.06743770422905615,-0.037383385311500775,1.0168977975845337,6.55769681930542,0.9075862169265747
1730865808.0391452,-1.7865263223648071,1.0061930418014526,-9.811508178710938,0.05908698010320761,0.06296395534802093,-0.020690129021462358,1.018723964691162,6.553524971008301,0.9067228436470032
1730865808.0890915,-1.7652517557144165,1.028363585472107,-9.799084663391113,0.04789989811646077,0.04813479016673112,-0.00025278933092008453,1.020661473274231,6.549541473388672,0.9058436155319214
1730865808.139099,-1.7140493392944336,1.0442558526992798,-9.8060941696167,0.03058835059712226,0.02885815872613467,0.019253194114902675,1.018453598022461,6.553321361541748,0.9073144793510437
1730865808.1890833,-1.6641981601715088,1.065116047859192,-9.822724342346191,0.016085989839275158,0.009788891901467178,0.03448843164224493,1.0202726125717163,6.5460286140441895,0.906575620174408
1730865808.2390976,-1.6295918226242065,1.0825806856155396,-9.850811004638672,0.01092299788040261,-0.006276429021218366,0.04277267643319458,1.021576166152954,6.5420145988464355,0.9062243700027466
1730865808.2890978,-1.6162434816360474,1.0963817834854126,-9.875141143798828,0.01601692093528751,-0.01787921499251963,0.04171906815122077,1.0228813886642456,6.536358833312988,0.905514121055603
1730865808.3389797,-1.6079838275909424,1.0689780712127686,-9.920032501220703,0.02723475492560196,-0.024455485513198805,0.030495279763944408,1.024228572845459,6.531925678253174,0.9051764607429504
1730865808.38905,-1.6232343912124634,1.0557737350463867,-9.938828468322754,0.0383981326605043,-0.025647016232070982,0.011056935862818761,1.0256657600402832,6.527404308319092,0.9048887491226196
1730865808.4390843,-1.6125240325927734,1.035064458847046,-9.952767372131348,0.044024188387922006,-0.020676671842428954,-0.012431163063837677,1.025186538696289,6.528552532196045,0.9054427742958069
1730865808.4890573,-1.5999295711517334,1.0265685319900513,-9.959125518798828,0.04150628002550853,-0.00931122415872416,-0.035187720523235204,1.0263445377349854,6.525209903717041,0.9052515029907227
1730865808.539104,-1.5883557796478271,1.0123610496520996,-9.952188491821289,0.032244396717388095,0.00628015468613039,-0.05247746215130092,1.0275644063949585,6.52224588394165,0.9052473306655884
1730865808.5890257,-1.5935077667236328,1.0323050022125244,-9.926918983459473,0.02043837016984202,0.02139272120484191,-0.05996080767705078,1.0294840335845947,6.516321659088135,0.9051526188850403
1730865808.6390107,-1.635353684425354,1.0407569408416748,-9.874760627746582,0.01000109186136415,0.030903582431441676,-0.055168770648119134,1.0309937000274658,6.512171745300293,0.9047840237617493
1730865808.6889453,-1.6841142177581787,1.0485197305679321,-9.828630447387695,0.0017665706891653637,0.031752604816546036,-0.038534565457638295,1.0324805974960327,6.508202075958252,0.9043084979057312
1730865808.739035,-1.7433897256851196,1.035152554512024,-9.788883209228516,-0.007108442063209075,0.024266442788698335,-0.012490797994172322,1.0314594507217407,6.508944034576416,0.9036287069320679
1730865808.789005,-1.7837682962417603,1.0139175653457642,-9.7584810256958,-0.020755495115265195,0.01192769962688048,0.019406153907056994,1.032228708267212,6.5063934326171875,0.9031808376312256
1730865808.8389173,-1.8219598531723022,1.0152819156646729,-9.733688354492188,-0.0401895090127287,-0.00012221164428996437,0.05158001251164381,1.0332701206207275,6.507579803466797,0.9020608067512512
1730865808.8889852,-1.81965970993042,1.0164152383804321,-9.734174728393555,-0.06103298188311655,-0.007387472890210788,0.07644156827547727,1.0340651273727417,6.506003379821777,0.9016017913818359
1730865808.9389725,-1.7921717166900635,1.0163779258728027,-9.751802444458008,-0.07576699571953224,-0.008245157366002455,0.08733477104095437,1.034693717956543,6.504396438598633,0.9013450741767883
1730865808.9888957,-1.7682859897613525,1.0255091190338135,-9.782183647155762,-0.07760924274890084,-0.004423778509204838,0.08143350754028295,1.0351269245147705,6.502785682678223,0.9013002514839172
1730865809.0388844,-1.7597546577453613,1.0292768478393555,-9.827459335327148,-0.06354739424560019,0.0006059786980309667,0.060165694516872884,1.035386562347412,6.501158237457275,0.901432454586029
1730865809.0889406,-1.7442939281463623,1.0208643674850464,-9.870224952697754,-0.03574732846682459,0.0037411733086936735,0.02768870072216921,1.0341311693191528,6.503988742828369,0.9008690118789673
1730865809.1388762,-1.7406567335128784,1.013596773147583,-9.920209884643555,-0.0008140644848363184,0.0036614892476793362,-0.010707088335809278,1.0356656312942505,6.500095844268799,0.8995185494422913
1730865809.1888547,-1.7510731220245361,1.0002256631851196,-9.946127891540527,0.03203850633525083,0.0012107021946049902,-0.0483315138622457,1.0363761186599731,6.498198986053467,0.8988717198371887
1730865809.238848,-1.7676812410354614,0.9974242448806763,-9.955206871032715,0.05357814665888766,-0.0014005566766977678,-0.07702060981745766,1.037196159362793,6.496471405029297,0.8976520299911499
1730865809.2888036,-1.766279697418213,0.9994038939476013,-9.970085144042969,0.05828575504373121,-0.0021566696451035313,-0.09026409333396249,1.0381426811218262,6.494586944580078,0.8965215086936951
1730865809.3388863,-1.7637736797332764,1.0094035863876343,-9.944705963134766,0.04715226999740256,-0.0006133619631311367,-0.08661520176469106,1.0392205715179443,6.492700576782227,0.8951705098152161
1730865809.3887668,-1.7542051076889038,1.0195280313491821,-9.916258811950684,0.026968248000928577,0.0018146450041378267,-0.06938093508379432,1.038209319114685,6.492507457733154,0.8963194489479065
1730865809.438808,-1.738637924194336,1.0191810131072998,-9.884007453918457,0.006569266036438223,0.002975202325438057,-0.04398359089064906,1.0387941598892212,6.4910664558410645,0.895464301109314
1730865809.4888208,-1.729909062385559,1.0267118215560913,-9.864330291748047,-0.007140072946126638,0.0016994387168927866,-0.015978285273760984,1.0417983531951904,6.487929821014404,0.8950662016868591
1730865809.5388165,-1.7260125875473022,1.011767029762268,-9.847454071044922,-0.011295429593632863,-0.0013697889466117456,0.009792311138875508,1.0431615114212036,6.485889434814453,0.8942957520484924
1730865809.5888197,-1.7386693954467773,1.020333170890808,-9.828889846801758,-0.007265917346599635,-0.004369112628741413,0.029599203264005485,1.044727087020874,6.4828925132751465,0.893873393535614
1730865809.6388326,-1.747549057006836,1.0094645023345947,-9.841649055480957,0.0006043228244725224,-0.005476982040461509,0.04113480928821838,1.0461071729660034,6.48052453994751,0.8932970762252808
1730865809.6887884,-1.7569096088409424,1.0093729496002197,-9.843027114868164,0.007349679630143531,-0.003929825570277276,0.043586493758514366,1.0474907159805298,6.478155612945557,0.892829179763794
1730865809.7388217,-1.78314208984375,0.9850938320159912,-9.856867790222168,0.009496361203060842,-9.807610539513002e-05,0.03746387722533246,1.0489014387130737,6.475771427154541,0.8924607038497925
1730865809.7887287,-1.7686655521392822,1.0098743438720703,-9.852697372436523,0.005749002894460202,0.005191725288518798,0.02461046240294886,1.0475943088531494,6.475961685180664,0.8927162885665894
1730865809.8388007,-1.7527257204055786,1.013428807258606,-9.868826866149902,-0.0028980013684269824,0.010879088240291771,0.00820372525926611,1.0485247373580933,6.474025726318359,0.8924184441566467
1730865809.889689,-1.7075562477111816,1.041865587234497,-9.847051620483398,-0.012743738272175576,0.015210196006854252,-0.007746108703367399,1.050091028213501,6.46879768371582,0.891302227973938
1730865809.9387643,-1.654815435409546,1.0581852197647095,-9.83951473236084,-0.018104975276790433,0.015933452011660368,-0.01931796400363841,1.0511590242385864,6.466015815734863,0.8907100558280945
1730865809.988694,-1.600664496421814,1.1035875082015991,-9.81267261505127,-0.014079578340430023,0.011502430543727248,-0.02376046389911046,1.0522129535675049,6.46320104598999,0.8900505900382996
1730865810.0396755,-1.57957124710083,1.1331899166107178,-9.795560836791992,0.0010985657914921575,0.001649950078210062,-0.020144815214244726,1.0504233837127686,6.461952209472656,0.8913120627403259
1730865810.0896769,-1.583113670349121,1.1828019618988037,-9.783905982971191,0.025335622164565988,-0.013010065468662808,-0.009456810076415401,1.050840973854065,6.459699630737305,0.8910799622535706
1730865810.1396544,-1.6233574151992798,1.2025305032730103,-9.796943664550781,0.051776507002508104,-0.030705058252048594,0.005175762714782875,1.051218867301941,6.454159736633301,0.8914021849632263
1730865810.1896055,-1.6931583881378174,1.2101404666900635,-9.803348541259766,0.06955682999381288,-0.04793703342143275,0.018792440817765814,1.0519145727157593,6.450611591339111,0.8913342952728271
1730865810.2396607,-1.7372900247573853,1.214646577835083,-9.836629867553711,0.06890535319817227,-0.06017711123291436,0.0264714655115458,1.0519639253616333,6.449102878570557,0.8914355039596558
1730865810.2895882,-1.7385966777801514,1.2035129070281982,-9.8632230758667,0.04709053175176339,-0.06358826206229898,0.025419713552960948,1.0526776313781738,6.445983409881592,0.8914815783500671
1730865810.3396025,-1.7356531620025635,1.200295090675354,-9.891715049743652,0.010919331945322758,-0.05677610905894348,0.015769626171666717,1.0520662069320679,6.442843437194824,0.8914139866828918
1730865810.389553,-1.7017052173614502,1.180310606956482,-9.909303665161133,-0.02583267976177624,-0.041448415230951184,0.00022827230767676673,1.0523487329483032,6.439920425415039,0.8914478421211243
1730865810.4395752,-1.7126314640045166,1.1477820873260498,-9.912548065185547,-0.04948608717219934,-0.02141087778690916,-0.016839812954573315,1.0520046949386597,6.435027122497559,0.8912707567214966
1730865810.4895468,-1.6930773258209229,1.1188794374465942,-9.92471694946289,-0.053242426987590144,-0.0007249325418871664,-0.030722973718057975,1.0519615411758423,6.431401252746582,0.8911601305007935
1730865810.539482,-1.7095423936843872,1.0940046310424805,-9.927793502807617,-0.039217646802232345,0.017543370117774022,-0.0380620817678172,1.052076816558838,6.428250789642334,0.891057550907135
1730865810.5895264,-1.7352492809295654,1.0633323192596436,-9.91775131225586,-0.01596547259954931,0.031564130389502384,-0.03798400148553187,1.05204439163208,6.424198150634766,0.8908175230026245
1730865810.6395643,-1.7794690132141113,1.033979892730713,-9.879069328308105,0.0057829164477460875,0.04069306692622195,-0.0315231697180819,1.0519990921020508,6.420219421386719,0.8904892206192017
1730865810.6895583,-1.8111286163330078,1.0329363346099854,-9.843250274658203,0.01683200473503585,0.0455399191741091,-0.019900034776475346,1.0499353408813477,6.421510219573975,0.8909265398979187
1730865810.7395241,-1.830483078956604,1.0520234107971191,-9.805130004882812,0.01245341095657657,0.047421664781834454,-0.0037915214404363167,1.0495359897613525,6.418951511383057,0.8907718062400818
1730865810.7894328,-1.8202637434005737,1.09245765209198,-9.786202430725098,-0.005181401762994635,0.04640900380316959,0.015382145281064963,1.0479620695114136,6.413241863250732,0.8908995389938354
1730865810.839476,-1.793792486190796,1.140233039855957,-9.786334991455078,-0.027332424649099334,0.04017433842851073,0.0342108373364018,1.0471936464309692,6.409611701965332,0.8909001350402832
1730865810.8894455,-1.7469581365585327,1.1743274927139282,-9.789886474609375,-0.04305814875135982,0.026170931370676852,0.04797345579905331,1.0457298755645752,6.407405853271484,0.8910362124443054
1730865810.9395387,-1.716355323791504,1.1693017482757568,-9.821833610534668,-0.04451926235421171,0.004930308052999448,0.0524994415140341,1.044618844985962,6.404246807098389,0.8912345767021179
1730865810.9894452,-1.693709373474121,1.164009928703308,-9.862489700317383,-0.030272480692519345,-0.01863455451790506,0.04578603974483296,1.0434209108352661,6.401090621948242,0.8915548324584961
1730865811.0395799,-1.6616560220718384,1.127307653427124,-9.911490440368652,-0.0051371526098052045,-0.03672870673813525,0.028208865743778254,1.0443406105041504,6.40027379989624,0.8911416530609131
1730865811.0894105,-1.639211893081665,1.0974748134613037,-9.95149040222168,0.02323283998914494,-0.0425611240474576,0.0019975548532243587,1.0437666177749634,6.397720813751221,0.8912937641143799
1730865811.1393924,-1.6117043495178223,1.0550577640533447,-9.975610733032227,0.047670943451401146,-0.0339277531607055,-0.028246486544870525,1.043279767036438,6.3950700759887695,0.8914135694503784
1730865811.1893418,-1.5794895887374878,1.0274195671081543,-9.956439018249512,0.06336386427400544,-0.013454261931620089,-0.05569012804312,1.0453152656555176,6.392982006072998,0.8910133242607117
1730865811.2393718,-1.6097033023834229,1.0139482021331787,-9.932598114013672,0.06902733796169197,0.013509293486970754,-0.07374240721851254,1.0456104278564453,6.390063762664795,0.890799880027771
1730865811.2893956,-1.671201229095459,1.022403597831726,-9.859914779663086,0.06528657951580208,0.04004979136236061,-0.07783785312680586,1.0460766553878784,6.387195110321045,0.8903942108154297
1730865811.3393745,-1.7305662631988525,1.0226489305496216,-9.778594970703125,0.05131743035563642,0.058591662634527794,-0.06500635119236442,1.0465577840805054,6.383007526397705,0.8908102512359619
1730865811.3892748,-1.7799675464630127,1.0450265407562256,-9.719396591186523,0.025457538149822198,0.06379894319683614,-0.03450115009675751,1.0470281839370728,6.380112648010254,0.890501081943512
1730865811.4393144,-1.8259960412979126,1.0488255023956299,-9.682326316833496,-0.01020711282059091,0.055041524922385204,0.009130315234437402,1.0477569103240967,6.371442794799805,0.890856146812439
1730865811.4892042,-1.8704147338867188,1.0496845245361328,-9.674406051635742,-0.048048621598237695,0.03604091647033738,0.055002021120042516,1.048202395439148,6.366783142089844,0.8908542990684509
1730865811.5391674,-1.8600775003433228,1.0358331203460693,-9.6969633102417,-0.07846540390435952,0.013221212010971243,0.0898634270737518,1.0484930276870728,6.362143039703369,0.8910341858863831
1730865811.5891643,-1.8599807024002075,1.0283616781234741,-9.765049934387207,-0.09446340610022852,-0.006263168994882959,0.10344379857638113,1.048566222190857,6.357536315917969,0.8914545178413391
1730865811.639173,-1.8042025566101074,1.0282390117645264,-9.836407661437988,-0.09388159879182079,-0.017009506030336616,0.09132029241921988,1.0497801303863525,6.361703395843506,0.8911368250846863
1730865811.689162,-1.7845064401626587,1.0124263763427734,-9.921504020690918,-0.0789579807724213,-0.017308246495255815,0.05546379869054825,1.0525704622268677,5.616049289703369,0.8911885023117065
1730865811.7391903,-1.7263685464859009,1.0015523433685303,-10.000845909118652,-0.05430434887606779,-0.009324169011803062,0.0042162072051781345,1.0536410808563232,5.300660610198975,0.8914483785629272
1730865811.7891574,-1.6830116510391235,1.0052834749221802,-10.0507230758667,-0.024841895021034267,0.00238959724690014,-0.049413266826220194,1.0546082258224487,4.986598968505859,0.8916507959365845
1730865811.8392007,-1.5932613611221313,1.0221129655838013,-10.063727378845215,0.006162976570089251,0.012981351462385878,-0.09331926865992367,1.0554723739624023,4.959035396575928,0.8910197019577026
1730865811.8891172,-1.5829417705535889,1.0166102647781372,-10.061050415039062,0.0375044153228973,0.0189718186432625,-0.1211392138249506,1.0565301179885864,4.718447685241699,0.8906667828559875
1730865811.93912,-1.5934773683547974,1.0332272052764893,-10.008152961730957,0.06655472805207195,0.019145137238111058,-0.13067912850967303,1.057721495628357,4.477049350738525,0.8899986147880554
1730865811.98911,-1.6549477577209473,1.038321614265442,-9.932876586914062,0.08624937130460839,0.014421447826222511,-0.12007946631077723,1.05812406539917,4.439056396484375,0.8906689286231995
1730865812.0390882,-1.7024167776107788,1.0530755519866943,-9.854124069213867,0.08845805959772671,0.006800444588987924,-0.0885358986096726,1.0594093799591064,4.238319396972656,0.8900848627090454
1730865812.089062,-1.7909834384918213,1.0409398078918457,-9.767016410827637,0.06987561632045905,-0.0015749856377079902,-0.039855368275163394,1.0653654336929321,3.8430163860321045,0.8906629085540771
1730865812.1391065,-1.8540312051773071,1.0751734972000122,-9.704127311706543,0.03387872968715417,-0.008854853873744028,0.016852985940145677,1.0711708068847656,3.3418543338775635,0.8908296823501587
1730865812.1890278,-1.8830654621124268,1.0836762189865112,-9.672188758850098,-0.01079103231930447,-0.014007617890738412,0.06960257133545747,1.07450270652771,3.039301633834839,0.8908555507659912
1730865812.2389188,-1.893843173980713,1.097272276878357,-9.674484252929688,-0.052275784623127534,-0.017019875288120205,0.10664264253999743,1.077754259109497,2.736859083175659,0.891101062297821
1730865812.288973,-1.8709759712219238,1.083659052848816,-9.703479766845703,-0.07982374145430947,-0.018345895694166562,0.12038733816221098,1.0779695510864258,2.6747891902923584,0.8911660313606262
1730865812.3389924,-1.845847725868225,1.062360405921936,-9.775331497192383,-0.08812955214806824,-0.01823108105362947,0.11018268160064221,1.0817124843597412,2.154775381088257,0.8912854194641113
1730865812.3889108,-1.7623988389968872,1.0431565046310425,-9.833829879760742,-0.07773567731378771,-0.01628156465269781,0.08101069650037965,1.0842424631118774,1.8171614408493042,0.891797661781311
1730865812.4389431,-1.714375615119934,0.9995929598808289,-9.901044845581055,-0.052203946020037674,-0.011532927374472503,0.04032049723658472,1.0858962535858154,1.5406826734542847,0.8913262486457825
1730865812.4888644,-1.6319431066513062,0.9907410740852356,-9.944351196289062,-0.01605490275853222,-0.0032622159535139143,-0.003981711716942551,1.0880364179611206,1.2273973226547241,0.8915901780128479
1730865812.5389068,-1.5861573219299316,0.9777129292488098,-9.989462852478027,0.02503203765156457,0.007768306950034184,-0.0443193433551333,1.0901943445205688,0.9131743311882019,0.8917945027351379
1730865812.5889294,-1.5558050870895386,0.9732392430305481,-10.004075050354004,0.06453799743181059,0.018952772851320576,-0.07462172569652835,1.0924636125564575,0.5990701913833618,0.8918499946594238
1730865812.6388814,-1.5732550621032715,0.9816887974739075,-9.983721733093262,0.09752639825452014,0.027355461157802605,-0.09240592066000021,1.0895373821258545,1.046114206314087,0.8909217119216919
1730865812.688914,-1.6145069599151611,1.0117554664611816,-9.947794914245605,0.12114486828153363,0.031195080508045175,-0.09859881131593662,1.0922120809555054,0.573367178440094,0.8906212449073792
1730865812.7388396,-1.6856449842453003,1.0286082029342651,-9.886138916015625,0.13137908848285273,0.029620999423813982,-0.09401855100830243,1.094363808631897,0.31312867999076843,0.8901293873786926
1730865812.7888749,-1.761828899383545,1.0327963829040527,-9.829639434814453,0.12195192469218019,0.022477395050543084,-0.07738915778090188,1.0968213081359863,0.05405955761671066,0.8894264698028564
1730865812.838785,-1.7972073554992676,1.0547963380813599,-9.78181266784668,0.08855109711644243,0.010897019668988643,-0.047330583516986297,1.0995538234710693,-0.20622509717941284,0.88856440782547
1730865812.8887892,-1.8146533966064453,1.0550235509872437,-9.763869285583496,0.03316115836881601,-0.00291550984354295,-0.004881937298604009,1.0957084894180298,0.6053809523582458,0.8898133039474487
1730865812.9387777,-1.8244588375091553,1.050093650817871,-9.755017280578613,-0.03471387019603715,-0.016512530945399655,0.04492614768993072,1.0969698429107666,0.5604925155639648,0.8895594477653503
1730865812.9887643,-1.8272135257720947,1.0317392349243164,-9.785670280456543,-0.09872864799870062,-0.027076353353765802,0.09149566095222958,1.0989882946014404,0.700302243232727,0.8893828988075256
1730865813.0387902,-1.805919885635376,1.020313024520874,-9.818737030029297,-0.1403972437603274,-0.03146018458146953,0.12058758406269349,1.1002628803253174,0.689974308013916,0.8894675374031067
1730865813.0887403,-1.800048589706421,0.9707573652267456,-9.872796058654785,-0.14801778298123358,-0.027684760437374816,0.12167944008748363,1.1021935939788818,0.7382146120071411,0.8890051245689392
1730865813.1387908,-1.7682044506072998,0.9714911580085754,-9.899637222290039,-0.12246896518086142,-0.016286177562870107,0.09421587458005934,1.103265643119812,0.7367579340934753,0.8892596364021301
1730865813.1887283,-1.745426058769226,0.9819692969322205,-9.923626899719238,-0.07523810224557657,-0.0006047478874432726,0.04768765414778808,1.101764440536499,0.7544661164283752,0.8885011076927185
1730865813.238715,-1.7231227159500122,0.9829715490341187,-9.933746337890625,-0.02197719377848753,0.013939379946648794,-0.002929961001908253,1.1018809080123901,0.7553614377975464,0.8885439038276672
1730865813.2886426,-1.6922789812088013,1.0102338790893555,-9.905637741088867,0.023610030540153603,0.022239807061269566,-0.04324340193368389,1.1017149686813354,0.763486921787262,0.8876468539237976
1730865813.3386793,-1.681717872619629,1.028136968612671,-9.891910552978516,0.053326236891137024,0.021975122417658803,-0.06403545357492212,1.1042066812515259,0.7679443955421448,0.8868461847305298
1730865813.388656,-1.675647497177124,1.0748018026351929,-9.833235740661621,0.06510876572760604,0.013960192563109463,-0.0630657486517105,1.1055431365966797,0.7704195976257324,0.8861832022666931
1730865813.4386342,-1.7008036375045776,1.1143532991409302,-9.810477256774902,0.061362497268360634,0.0006873431629220677,-0.04409531567437294,1.1070314645767212,0.7729014754295349,0.8853893280029297
1730865813.4886055,-1.754218339920044,1.1550451517105103,-9.770038604736328,0.04647345017682958,-0.0157745387645938,-0.01377457320229946,1.1086517572402954,0.7753607034683228,0.8845246434211731
1730865813.5386872,-1.8018460273742676,1.164002776145935,-9.770550727844238,0.02444008351848332,-0.034949794403462575,0.021375644100046692,1.108042597770691,0.7739114165306091,0.886154055595398
1730865813.588648,-1.8289064168930054,1.152039647102356,-9.790093421936035,-0.001997402793114606,-0.05632933602467689,0.05546536761098536,1.1091759204864502,0.7754349708557129,0.8859790563583374
1730865813.6396666,-1.820834755897522,1.1252535581588745,-9.823324203491211,-0.029353259658559713,-0.07574524452012611,0.08132374867670825,1.111548900604248,0.7793909311294556,0.8857937455177307
1730865813.6886315,-1.796215295791626,1.101804256439209,-9.861130714416504,-0.051561901069727877,-0.08506535601277522,0.09064010005789991,1.1129571199417114,0.7814846634864807,0.8858518600463867
1730865813.7386749,-1.7316592931747437,1.0951037406921387,-9.89039421081543,-0.06168573337367923,-0.07785458271328814,0.07871037040439677,1.1154853105545044,0.7873424291610718,0.8854508996009827
1730865813.7886255,-1.7036404609680176,1.0826287269592285,-9.936335563659668,-0.055363421226761994,-0.0548418914856682,0.04841844552639567,1.1171209812164307,0.790525496006012,0.8855506777763367
1730865813.8389711,-1.6689395904541016,1.0547343492507935,-9.946418762207031,-0.03351659645690982,-0.023368696865761932,0.008867421117798865,1.1188308000564575,0.7961688041687012,0.8849406838417053
1730865813.8885593,-1.6366477012634277,1.0700783729553223,-9.94968318939209,-0.002687089715302916,0.007121079139490173,-0.02890260663791229,1.1221404075622559,0.7990677952766418,0.8849152326583862
1730865813.9395704,-1.5962538719177246,1.1024845838546753,-9.933490753173828,0.027963091700591143,0.028799174757298984,-0.055504345068369355,1.1241755485534668,0.8020427823066711,0.884724497795105
1730865813.9895813,-1.5839227437973022,1.0948424339294434,-9.914730072021484,0.05081605800081913,0.037042247031071174,-0.06527459066726926,1.1262524127960205,0.8050167560577393,0.8843864798545837
1730865814.0396051,-1.600816249847412,1.0788135528564453,-9.865269660949707,0.06243467110250929,0.03146090128007526,-0.05715955852141865,1.1284778118133545,0.8080859780311584,0.8838939070701599
1730865814.089519,-1.6573599576950073,1.0740543603897095,-9.835155487060547,0.06340019838331518,0.016266884319507353,-0.03402846955156118,1.1308462619781494,0.811195969581604,0.8832908272743225
1730865814.1394851,-1.706217885017395,1.0341768264770508,-9.788670539855957,0.05562290128941495,-0.0013753591251277654,-0.0006238972333348844,1.133378505706787,0.814344048500061,0.8826407194137573
1730865814.189436,-1.783722996711731,0.9747114181518555,-9.780953407287598,0.03971187859490256,-0.013910783466459561,0.03824390497845694,1.1255532503128052,0.8047055006027222,0.8848666548728943
1730865814.2395446,-1.832045555114746,0.9906551837921143,-9.757572174072266,0.015242179535677997,-0.01583447059851886,0.07753184690475706,1.1265195608139038,0.8060011863708496,0.8849740028381348
1730865814.2894285,-1.8954801559448242,1.0151761770248413,-9.768068313598633,-0.016163980104100518,-0.00689798354419659,0.10999206430257327,1.1288663148880005,0.8100157380104065,0.8851402401924133
1730865814.3394256,-1.8929266929626465,1.0652801990509033,-9.779274940490723,-0.04882768029934875,0.006411853145319501,0.1265754610312555,1.1300983428955078,0.8120564818382263,0.8856261968612671
1730865814.3894403,-1.8618519306182861,1.0717358589172363,-9.812434196472168,-0.07432581347178915,0.014802726058084987,0.12121375688576166,1.1311768293380737,0.8141264319419861,0.8864244818687439
1730865814.4394615,-1.8382326364517212,1.0851203203201294,-9.847888946533203,-0.084423671219913,0.012193304827975631,0.09459620295625579,1.1318001747131348,0.8182365894317627,0.8853897452354431
1730865814.4894474,-1.791839599609375,1.103935956954956,-9.864344596862793,-0.07470991512476911,-0.0015460250670590167,0.053486176912078486,1.132509708404541,0.8207504749298096,0.8858928680419922
1730865814.5394273,-1.75223970413208,1.118669867515564,-9.884513854980469,-0.04728180829776379,-0.021350745901372335,0.008249040248280848,1.1356210708618164,0.8269217014312744,0.8852834701538086
1730865814.5893736,-1.7268301248550415,1.1012369394302368,-9.910140991210938,-0.009876695234303786,-0.039657812379499,-0.030226904686134058,1.1370784044265747,0.8305732011795044,0.8854160308837891
1730865814.6394985,-1.7049185037612915,1.1074860095977783,-9.915491104125977,0.027411134383580123,-0.04976092768518395,-0.05443335646973946,1.1385869979858398,0.8341824412345886,0.8854431509971619
1730865814.6894226,-1.7059950828552246,1.1111924648284912,-9.913209915161133,0.05569325192312525,-0.04835133071865541,-0.06262225029038944,1.1401681900024414,0.8375961780548096,0.8853240609169006
1730865814.7393458,-1.7042840719223022,1.1028101444244385,-9.891716003417969,0.07037858394923859,-0.03652883696537103,-0.05800745314164889,1.141919493675232,0.8409315347671509,0.8850535154342651
1730865814.7894413,-1.7027829885482788,1.0718598365783691,-9.880584716796875,0.07218806861191515,-0.01867296194180952,-0.045959407583797386,1.1371132135391235,0.8360567092895508,0.8850030899047852
1730865814.83955,-1.709888219833374,1.0461570024490356,-9.860268592834473,0.06522572804878143,0.0002958163039981955,-0.03125650916181561,1.1354095935821533,0.8436241745948792,0.8849260807037354
1730865814.8894455,-1.720041036605835,1.018819808959961,-9.847776412963867,0.05369494288246944,0.01676927704146589,-0.016868871706245042,1.134067416191101,0.85122150182724,0.884915292263031
1730865814.9394755,-1.7402244806289673,0.9865167140960693,-9.832244873046875,0.03993281803348927,0.02860872894474727,-0.004301057081626165,1.1337937116622925,0.8562029004096985,0.8848158717155457
1730865814.9893546,-1.7305431365966797,0.9814295768737793,-9.83960247039795,0.025004057933964118,0.0351126370130171,0.005601409097693813,1.1336029767990112,0.8612256050109863,0.8847187757492065
1730865815.0393515,-1.7288353443145752,1.003906488418579,-9.838915824890137,0.010192075478076091,0.037010192163234035,0.012280158614858691,1.1334556341171265,0.8663437962532043,0.8846437931060791
1730865815.089289,-1.7306286096572876,1.059921145439148,-9.822648048400879,-0.0026176620342226154,0.035403364341332476,0.015649906175546867,1.134808897972107,0.8611641526222229,0.8849621415138245
1730865815.1392813,-1.742625117301941,1.1035493612289429,-9.822816848754883,-0.011715388068222591,0.030224401917742727,0.01635329507693392,1.1349430084228516,0.8643093109130859,0.8850111365318298
1730865815.1892672,-1.7423114776611328,1.1408727169036865,-9.815774917602539,-0.016453247610915597,0.020194121128735244,0.015405201168556298,1.1358084678649902,0.8694886565208435,0.8850264549255371
1730865815.2392302,-1.7346038818359375,1.1530565023422241,-9.822432518005371,-0.017329710805833544,0.004710072128667418,0.013489140632813517,1.1360878944396973,0.8736069202423096,0.8851003050804138
1730865815.2892625,-1.73955237865448,1.1579464673995972,-9.821778297424316,-0.01531437412245582,-0.014026529160562674,0.010789504220348318,1.136325478553772,0.877699077129364,0.8852042555809021
1730865815.3392112,-1.73048734664917,1.1392064094543457,-9.831724166870117,-0.011294238625074688,-0.030947230243695473,0.007281529661482232,1.1365294456481934,0.8817271590232849,0.8853305578231812
1730865815.3891435,-1.7230257987976074,1.124670386314392,-9.850509643554688,-0.006025151688197013,-0.04069860273853053,0.002882361772448996,1.1368626356124878,0.8799258470535278,0.8850470185279846
1730865815.439167,-1.738992691040039,1.0773900747299194,-9.868982315063477,-0.00031842351690666046,-0.04029946770250134,-0.0025368964700983342,1.1378024816513062,0.9384881854057312,0.8850201368331909
1730865815.4891396,-1.7361167669296265,1.030930995941162,-9.882095336914062,0.004651064718073544,-0.029769407180920485,-0.008785025530680418,1.1382310390472412,0.9586808681488037,0.8850137591362
1730865815.5391176,-1.726301670074463,0.9902836680412292,-9.908656120300293,0.007603127941081714,-0.01140497883010166,-0.01499675693726266,1.139021873474121,1.0105934143066406,0.8849834203720093
1730865815.5890572,-1.708971381187439,0.9924437999725342,-9.90434455871582,0.008243039238156667,0.010991309059658724,-0.02007065214667397,1.1395491361618042,1.037746548652649,0.8849161267280579
1730865815.6391225,-1.6875133514404297,0.9947184324264526,-9.916550636291504,0.007770802110998521,0.03217251079418503,-0.023090699445731035,1.140099287033081,1.0650944709777832,0.8847941756248474
1730865815.6891327,-1.6697807312011719,1.0177619457244873,-9.911837577819824,0.00826757173777112,0.04597354890259124,-0.023312634362720516,1.1401029825210571,1.0713762044906616,0.884931743144989
1730865815.7392328,-1.658893346786499,1.0385786294937134,-9.913145065307617,0.011539204832618305,0.0478368094143844,-0.020570132068307698,1.1405675411224365,1.0945380926132202,0.8848153948783875
1730865815.789212,-1.663242220878601,1.0354456901550293,-9.89077377319336,0.017572070752500415,0.037460962665754646,-0.015535408641398726,1.141152024269104,1.1289335489273071,0.8849228620529175
1730865815.8392236,-1.680859088897705,1.0326366424560547,-9.878704071044922,0.023833263835243854,0.01904674600121526,-0.009145232750218297,1.1417559385299683,1.1575024127960205,0.8848351240158081
1730865815.8890674,-1.710856556892395,1.0105249881744385,-9.85026741027832,0.026534858540895448,-0.0005871068769300967,-0.0020498246497829154,1.142418622970581,1.1859087944030762,0.8847339749336243
1730865815.9391243,-1.7475638389587402,1.028574824333191,-9.82970142364502,0.022438374426332133,-0.014766276908914414,0.0056004783605671645,1.1431459188461304,1.2144371271133423,0.8846368193626404
1730865815.9890175,-1.7913002967834473,1.0420212745666504,-9.807600975036621,0.009678493423800713,-0.019770681045533905,0.014366355452188706,1.1420351266860962,1.1746059656143188,0.8849642276763916
1730865816.0391283,-1.8024762868881226,1.0628304481506348,-9.798833847045898,-0.011438991325912327,-0.01640000482463412,0.024888584875501912,1.14235258102417,1.1889569759368896,0.8850159049034119
1730865816.088987,-1.8226783275604248,1.0606282949447632,-9.794069290161133,-0.03673858751361356,-0.009003218130086778,0.03603691279788343,1.147018313407898,1.2315958738327026,0.8851789236068726
1730865816.1389914,-1.8339388370513916,1.060251235961914,-9.795978546142578,-0.05844110656573637,-0.002521712424050578,0.04430565928502096,1.1486244201660156,1.25691819190979,0.8853858113288879
1730865816.188951,-1.8356475830078125,1.055641770362854,-9.81429386138916,-0.06936375605393047,0.00032566224293859687,0.045978718081521805,1.1518079042434692,1.290063738822937,0.8853778839111328
1730865816.2389655,-1.8327168226242065,1.042475700378418,-9.823471069335938,-0.06695127494878748,-0.00010428224795225506,0.03958126419972125,1.1536637544631958,1.3185981512069702,0.8856526017189026
1730865816.2889605,-1.8235185146331787,1.0431548357009888,-9.843002319335938,-0.053515759178179925,-0.001597059551739117,0.02649658786357472,1.1533350944519043,1.3387185335159302,0.8854933381080627
1730865816.3389904,-1.816612958908081,1.0641347169876099,-9.844173431396484,-0.03403909117984031,-0.002108060939069538,0.010158830520557636,1.1542869806289673,1.3633159399032593,0.8856918811798096
1730865816.3888428,-1.7919025421142578,1.0837526321411133,-9.869974136352539,-0.013804208772651122,-0.0014316452960292788,-0.005370178791249204,1.156063199043274,1.560027837753296,0.885414719581604
1730865816.4388704,-1.7524356842041016,1.1169095039367676,-9.873779296875,0.0034094801149269554,-0.0014252898611022372,-0.016874820766779736,1.1574357748031616,1.6455585956573486,0.8854365348815918
1730865816.4888868,-1.712036371231079,1.1257957220077515,-9.887256622314453,0.016403330770103558,-0.004350907413323531,-0.02290795879631431,1.15818190574646,1.7624223232269287,0.8853075504302979
1730865816.5389166,-1.685840129852295,1.1164393424987793,-9.902976036071777,0.026251231343602577,-0.010736915474280411,-0.02384548679858026,1.1595425605773926,1.8613908290863037,0.8852202296257019
1730865816.5888405,-1.662671685218811,1.0872187614440918,-9.899601936340332,0.03439761796070214,-0.01829427246937553,-0.02135118041560503,1.160973072052002,1.95991051197052,0.8850769996643066
1730865816.638794,-1.6662629842758179,1.0746742486953735,-9.90359878540039,0.04108503912393795,-0.022534489462931902,-0.017535907261335398,1.1603680849075317,1.858574628829956,0.8852362632751465
1730865816.6888032,-1.6583696603775024,1.056648850440979,-9.893016815185547,0.04560958282693134,-0.01940376870250734,-0.014010082567093365,1.1613889932632446,1.9060554504394531,0.8851385116577148
1730865816.738797,-1.653180718421936,1.0714088678359985,-9.87711238861084,0.046980611943048894,-0.00848245951269504,-0.01112450829938154,1.162520170211792,1.9532402753829956,0.8850098848342896
1730865816.7887864,-1.6478497982025146,1.0866968631744385,-9.850849151611328,0.04435790997368562,0.006161817818115685,-0.007737252046186423,1.162500262260437,1.975326418876648,0.8852351903915405
1730865816.8387935,-1.6817606687545776,1.0828176736831665,-9.8262357711792,0.03774196377787862,0.018462538061335985,-0.0020529024191811513,1.163561224937439,2.0246741771698,0.885183572769165
1730865816.8887994,-1.7021898031234741,1.0795505046844482,-9.805331230163574,0.027695887099148206,0.024089862081453077,0.006715731403602492,1.1647001504898071,2.073914051055908,0.8851379156112671
1730865816.938763,-1.7412941455841064,1.0820026397705078,-9.793757438659668,0.01420827410451882,0.022503825599721285,0.017599673574311882,1.1642605066299438,2.094618320465088,0.8848268985748291
1730865816.9886765,-1.764736533164978,1.0830817222595215,-9.780691146850586,-0.0029827035255811873,0.016205743799871747,0.028658984805492397,1.165066123008728,2.1400492191314697,0.8847876191139221
1730865817.0387669,-1.774626612663269,1.0836772918701172,-9.799144744873047,-0.02233775899556613,0.008536969376009826,0.037525772701303736,1.1655406951904297,2.229987144470215,0.8844175338745117
1730865817.0887196,-1.757235050201416,1.0996479988098145,-9.814448356628418,-0.039535611444376825,0.001933079731984373,0.04142636536147663,1.1662108898162842,2.292771577835083,0.8844007849693298
1730865817.1386733,-1.7490509748458862,1.1119893789291382,-9.839777946472168,-0.049207954045114424,-0.0027905401339858305,0.03813421605498044,1.166771411895752,2.3556597232818604,0.884483277797699
1730865817.1886752,-1.7345627546310425,1.1299653053283691,-9.874343872070312,-0.04767998604982458,-0.006387792505124344,0.027075615412673233,1.1672109365463257,2.4185423851013184,0.8846472501754761
1730865817.2386374,-1.7165025472640991,1.095436930656433,-9.91347885131836,-0.034654259481096836,-0.01032534533970265,0.00907306950282603,1.1672073602676392,2.342522144317627,0.884193480014801
1730865817.2886527,-1.6995805501937866,1.0749497413635254,-9.948820114135742,-0.013332131632122378,-0.015081413495069536,-0.01410902577065634,1.1675456762313843,2.3770763874053955,0.8841766715049744
1730865817.3386965,-1.6709890365600586,1.023335337638855,-9.982528686523438,0.010658123724228096,-0.0186839974718301,-0.038988162659893945,1.1687977313995361,2.474299907684326,0.883651077747345
1730865817.3886905,-1.6552313566207886,0.9864818453788757,-9.980341911315918,0.031249624292455026,-0.017354652883448105,-0.060153254296336896,1.1695243120193481,2.5317115783691406,0.8833157420158386
1730865817.4386797,-1.645906925201416,0.9878385663032532,-9.969047546386719,0.044165659859518355,-0.00855051150380701,-0.07202123488313536,1.169045329093933,2.6147143840789795,0.8830448389053345
1730865817.4886277,-1.6609752178192139,1.0030369758605957,-9.937766075134277,0.047906135120824984,0.00618714342043644,-0.0709656607887943,1.169546365737915,2.68288516998291,0.8824983835220337
1730865817.5386398,-1.6610475778579712,1.0220364332199097,-9.892232894897461,0.04316202970210933,0.021272185788556972,-0.05656019213748334,1.170161485671997,2.7511165142059326,0.8817920684814453
1730865817.5885684,-1.683023452758789,1.0454471111297607,-9.834220886230469,0.03179583791348181,0.029806721952313972,-0.031184265922005374,1.1692097187042236,2.7296314239501953,0.882591962814331
1730865817.6385105,-1.7216174602508545,1.044701337814331,-9.787727355957031,0.01620294112243268,0.027311350515058785,0.0013566511611806022,1.169360876083374,2.7026262283325195,0.8824508190155029
1730865817.6885006,-1.7547457218170166,1.031489372253418,-9.731492042541504,-0.000981080288385238,0.014695224451396299,0.03572449978870339,1.1696181297302246,2.719353675842285,0.8822633028030396
1730865817.7385213,-1.8090587854385376,0.9958593845367432,-9.708467483520508,-0.01733938453095635,-0.001691978130860904,0.06500540133931183,1.1696038246154785,2.685145854949951,0.882288932800293
1730865817.7884545,-1.833548903465271,0.9773791432380676,-9.700568199157715,-0.03137319039748483,-0.013643996313035495,0.0833822304537899,1.1697046756744385,2.6894097328186035,0.8824031352996826
1730865817.8385015,-1.8762398958206177,0.96510910987854,-9.703493118286133,-0.04244011886181413,-0.015856144858627644,0.08835690863577297,1.1697131395339966,2.6936793327331543,0.8827358484268188
1730865817.8884258,-1.8921681642532349,0.9760034084320068,-9.7389554977417,-0.05032209886165179,-0.008306964366095878,0.08026060491306912,1.1691700220108032,2.6733226776123047,0.8822043538093567
1730865817.9384856,-1.889176845550537,0.9831607937812805,-9.778921127319336,-0.055300529922777036,0.004765654749804151,0.061379013248881134,1.1689071655273438,2.673682928085327,0.8824843168258667
1730865817.9894738,-1.8832247257232666,0.9965329170227051,-9.834850311279297,-0.0571913898737485,0.017368324574377463,0.03529684721701412,1.1684937477111816,2.674079656600952,0.8828943371772766
1730865818.0385158,-1.8482859134674072,1.0052666664123535,-9.883817672729492,-0.05412854819749076,0.024123847907855656,0.005427252850492182,1.1693494319915771,2.6680452823638916,0.8819109797477722
1730865818.0883775,-1.8181275129318237,1.0025084018707275,-9.93980884552002,-0.04390435155463064,0.022366423241327836,-0.025881092285212192,1.1691443920135498,2.6677567958831787,0.8819041848182678
1730865818.1394439,-1.7656947374343872,1.0334141254425049,-9.972124099731445,-0.026297033450881784,0.013239694293603563,-0.05590200794765242,1.1688429117202759,2.6675055027008057,0.8817909955978394
1730865818.1894634,-1.7052290439605713,1.052293062210083,-9.994216918945312,-0.0030411421255868683,0.00045015555813664176,-0.08057745555961127,1.1699132919311523,2.6646740436553955,0.8818132281303406
1730865818.2393746,-1.6667287349700928,1.0787922143936157,-10.004070281982422,0.023613914701243174,-0.012439104999693197,-0.09639900096071499,1.1699787378311157,2.6640734672546387,0.8814731240272522
1730865818.2893934,-1.6475082635879517,1.0919073820114136,-9.9898681640625,0.05038448902704582,-0.023337408527799874,-0.10141070609607516,1.1712825298309326,2.6616129875183105,0.8817541599273682
1730865818.3394208,-1.6416387557983398,1.104737401008606,-9.971196174621582,0.07188019271512659,-0.031157105627064845,-0.0944028331878625,1.1719063520431519,2.6604347229003906,0.8813003301620483
1730865818.38946,-1.6468433141708374,1.0987123250961304,-9.937203407287598,0.08242692782918261,-0.03519344678569279,-0.07557814625824999,1.1727248430252075,2.6591713428497314,0.8806322813034058
1730865818.4393797,-1.6283766031265259,1.1043850183486938,-9.904807090759277,0.07927038544997927,-0.0350316584979509,-0.04752398660136821,1.1737425327301025,2.657824993133545,0.8798127174377441
1730865818.4893093,-1.6296297311782837,1.0978435277938843,-9.879395484924316,0.06433220761108696,-0.030963210691191956,-0.01420271444300934,1.1718831062316895,2.6584980487823486,0.8816942572593689
1730865818.5393248,-1.63441002368927,1.0845140218734741,-9.846223831176758,0.04338608588610259,-0.024188625042570605,0.020156354955240322,1.1723766326904297,2.657534599304199,0.8815312385559082
1730865818.5892758,-1.6584588289260864,1.0663095712661743,-9.801260948181152,0.022757112361752693,-0.016054986922284985,0.05077590258368326,1.1729533672332764,2.656519889831543,0.8814569115638733
1730865818.6392748,-1.676361083984375,1.0596923828125,-9.767251968383789,0.006040844749959275,-0.007158250004148937,0.0731496938864992,1.1735635995864868,2.6554806232452393,0.8815371990203857
1730865818.6891937,-1.7185555696487427,1.0595561265945435,-9.73734188079834,-0.006813851517972989,0.0025427506029135323,0.08603797013137807,1.172160267829895,2.6555426120758057,0.8820104598999023
1730865818.7392094,-1.7569310665130615,1.059631109237671,-9.697331428527832,-0.01808572604147732,0.012704639709633724,0.09222346687544877,1.1723288297653198,2.6546432971954346,0.8823741674423218
1730865818.7891896,-1.7838276624679565,1.0684095621109009,-9.696428298950195,-0.029650703593723016,0.021631188223425017,0.09469032011129812,1.1724358797073364,2.6537985801696777,0.8829651474952698
1730865818.839167,-1.8153623342514038,1.1034122705459595,-9.730071067810059,-0.04150474287671173,0.02641835800883093,0.09326545625185247,1.1741238832473755,2.6555533409118652,0.8822873830795288
1730865818.8890991,-1.8177140951156616,1.1448867321014404,-9.765937805175781,-0.052470644054028924,0.02434760576441978,0.08563353010906502,1.1744126081466675,2.655374765396118,0.8827738165855408
1730865818.9391391,-1.8034782409667969,1.1797497272491455,-9.812723159790039,-0.06040599741173389,0.014383972511394623,0.06978253101914607,1.1745613813400269,2.655243396759033,0.883461594581604
1730865818.9890933,-1.8014371395111084,1.1977509260177612,-9.865265846252441,-0.06188859062443095,-0.002465557626811215,0.0448687382317289,1.177920937538147,2.657484531402588,0.8823286890983582
1730865819.0391216,-1.8106732368469238,1.1963727474212646,-9.920449256896973,-0.05437313038784992,-0.02343363094776261,0.011755141292216652,1.1787595748901367,2.6578378677368164,0.8826168775558472
1730865819.089036,-1.8110836744308472,1.1584579944610596,-9.959956169128418,-0.039108256143825876,-0.043400759381252395,-0.025623597686315086,1.1794664859771729,2.65810227394104,0.8828827738761902
1730865819.1391616,-1.8016257286071777,1.0921586751937866,-9.989059448242188,-0.020929996871868452,-0.05479032303517367,-0.06070050387100235,1.1807293891906738,2.6590797901153564,0.8820979595184326
1730865819.1890216,-1.7869608402252197,1.0071313381195068,-9.987377166748047,-0.0051698276340792545,-0.05049347078700572,-0.08738647397141278,1.1815366744995117,2.6593017578125,0.8818862438201904
1730865819.23907,-1.774013638496399,0.9394608736038208,-9.966981887817383,0.0053041154109737185,-0.028044210995285018,-0.1013679804264396,1.1823545694351196,2.6594278812408447,0.8814342021942139
1730865819.2889545,-1.7523272037506104,0.9124341607093811,-9.922770500183105,0.010930020340689545,0.009239279023409572,-0.0992500196113783,1.184471845626831,2.6604793071746826,0.8817508220672607
1730865819.338941,-1.7384005784988403,0.8790520429611206,-9.871644973754883,0.014194441681174154,0.0539989123796875,-0.07979919272670154,1.1854205131530762,2.6608598232269287,0.8813123106956482
1730865819.3889103,-1.7256702184677124,0.8960235118865967,-9.80864429473877,0.017332697540544537,0.09573826436268498,-0.046066567618623266,1.1864937543869019,2.66145658493042,0.8806846737861633
1730865819.4389303,-1.738586664199829,0.9007468819618225,-9.773681640625,0.020826272617934988,0.12244368738402035,-0.004395018487373774,1.1885733604431152,2.665327548980713,0.8817428350448608
1730865819.4888406,-1.728912115097046,0.9223726987838745,-9.756010055541992,0.02375281216172998,0.125921675785178,0.03819159081523034,1.1899908781051636,2.6671366691589355,0.8816371560096741
1730865819.53892,-1.723097801208496,0.9532915353775024,-9.758511543273926,0.024952041116859166,0.10603853626371926,0.07421212918148754,1.192552089691162,2.6702871322631836,0.8819951415061951
1730865819.5888658,-1.7303041219711304,0.9945344924926758,-9.783703804016113,0.02381533848752782,0.06954190413195113,0.0955786998912791,1.1960535049438477,2.675062656402588,0.8821568489074707
1730865819.6388197,-1.7530086040496826,1.0263123512268066,-9.805904388427734,0.0202935998915822,0.026439214542122905,0.09675798929932021,1.1984412670135498,2.678279399871826,0.8825791478157043
1730865819.6890025,-1.7830452919006348,1.054008960723877,-9.849661827087402,0.014287190990534854,-0.013243341264307252,0.07811611743953309,1.2008639574050903,2.681501865386963,0.88321852684021
1730865819.7389154,-1.7926456928253174,1.06669020652771,-9.874794960021973,0.005296174718375658,-0.04255133503828187,0.04533015755155127,1.203311562538147,2.68465518951416,0.8840120434761047
1730865819.7888067,-1.805692195892334,1.0650113821029663,-9.905004501342773,-0.007136866051728733,-0.05959337675158538,0.005986232737671864,1.1990883350372314,2.681057929992676,0.8822829723358154
1730865819.8388848,-1.7963415384292603,1.062744140625,-9.914494514465332,-0.02224210640088659,-0.0664041584163082,-0.03285631713441621,1.2002038955688477,2.682755470275879,0.8824076056480408
1730865819.8887973,-1.7822153568267822,1.053162693977356,-9.935341835021973,-0.03662572374771272,-0.06546147954972796,-0.06445144496412152,1.2012392282485962,2.6842784881591797,0.8824106454849243
1730865819.9388185,-1.753190040588379,1.0388983488082886,-9.923018455505371,-0.04461510706516124,-0.05761906762885447,-0.08259714403057933,1.2017110586166382,2.6860804557800293,0.8819844126701355
1730865819.988792,-1.731019139289856,1.0214059352874756,-9.914786338806152,-0.04146883301483521,-0.04328459464940937,-0.08430361076383755,1.202513337135315,2.687523365020752,0.8816559910774231
1730865820.0388012,-1.6780762672424316,0.9920510053634644,-9.926895141601562,-0.026674170106929185,-0.02427171424407098,-0.07146026841762149,1.2032328844070435,2.6888866424560547,0.8811302781105042
1730865820.088737,-1.6486115455627441,0.9924954771995544,-9.918899536132812,-0.0037152989723983967,-0.003659484991185829,-0.049594559452494025,1.206356406211853,2.6933977603912354,0.881780743598938
1730865820.138815,-1.6230229139328003,0.9877237677574158,-9.908767700195312,0.022541398865179373,0.015377191133546854,-0.02550370972075952,1.2078648805618286,2.6957833766937256,0.8814975023269653
1730865820.1887321,-1.6118412017822266,0.9920108914375305,-9.897790908813477,0.04690216115188433,0.02984258796471008,-0.00485855685496719,1.2105695009231567,2.697871208190918,0.8818402886390686
1730865820.23872,-1.604966163635254,0.9808714985847473,-9.8911771774292,0.06391843382569605,0.03714092238020587,0.009380704368692481,1.2134937047958374,2.7027556896209717,0.8836780786514282
1730865820.2886853,-1.620074987411499,0.9494010210037231,-9.873948097229004,0.06951675980632473,0.036550756946424366,0.016902615443549863,1.2160069942474365,2.7063097953796387,0.8844603896141052
1730865820.338658,-1.650330901145935,0.9494590759277344,-9.84740161895752,0.0625782511724409,0.030370059801196052,0.01919017256930408,1.2186928987503052,2.7099578380584717,0.8852901458740234
1730865820.3886664,-1.6774898767471313,0.9382582902908325,-9.80755615234375,0.044690483573045614,0.022903583776150392,0.019139152238833966,1.2166204452514648,2.707307815551758,0.885130763053894
1730865820.4386823,-1.7277265787124634,0.9202629923820496,-9.767391204833984,0.019215852165072662,0.018063187050856203,0.02045243383436582,1.2181072235107422,2.709291934967041,0.8856772780418396
1730865820.48862,-1.7679845094680786,0.9182984232902527,-9.7586669921875,-0.00936154783885098,0.017418759691736965,0.02560584670203974,1.219597339630127,2.711308479309082,0.8862779140472412
1730865820.5387137,-1.8327093124389648,0.9489558339118958,-9.733166694641113,-0.036807610012036446,0.019769187851425254,0.034226032975997744,1.2185144424438477,2.711970090866089,0.8864946961402893
1730865820.5886412,-1.8901201486587524,0.9771365523338318,-9.745718955993652,-0.06087245882302727,0.022083710523324973,0.04380019533546993,1.2193472385406494,2.7139155864715576,0.8871423006057739
1730865820.6386669,-1.9438194036483765,0.9937816858291626,-9.756060600280762,-0.0806652276233207,0.020970527735412987,0.0506975326805018,1.2200062274932861,2.7159223556518555,0.8879106640815735
1730865820.6886322,-1.9542268514633179,1.017539381980896,-9.786070823669434,-0.09516878984526603,0.014052694317686548,0.05068534176430967,1.2212332487106323,2.7149412631988525,0.8878089189529419
1730865820.7386281,-1.9519046545028687,1.0443305969238281,-9.817914009094238,-0.10355504429717992,0.0010133822517220431,0.040846800475886166,1.2217886447906494,2.7162790298461914,0.8884852528572083
1730865820.788593,-1.9227221012115479,1.0485118627548218,-9.874975204467773,-0.10456587637100201,-0.01579031387196568,0.02168629705470743,1.2244491577148438,2.718747615814209,0.8869724869728088
1730865820.8385057,-1.8617112636566162,1.0325984954833984,-9.915719032287598,-0.09531274032299217,-0.031705018920736086,-0.003141938319528144,1.2278691530227661,2.721675395965576,0.8862598538398743
1730865820.888546,-1.8104084730148315,1.014996886253357,-9.980216026306152,-0.07346843521544805,-0.04150365844775313,-0.02858494364245321,1.2294338941574097,2.7236316204071045,0.88602614402771
1730865820.938691,-1.73280930519104,1.0172533988952637,-10.002622604370117,-0.04041269502242529,-0.04167441033696773,-0.049956544389134355,1.2307965755462646,2.7254092693328857,0.8857049345970154
1730865820.9884698,-1.6865818500518799,1.0413603782653809,-10.015657424926758,-0.00053614175824559,-0.032267466930351166,-0.06484595008621728,1.2321507930755615,2.727149248123169,0.885227620601654
1730865821.0384772,-1.6377278566360474,1.0669095516204834,-10.001293182373047,0.042094809795181445,-0.017329675511271007,-0.07391136201665678,1.2319560050964355,2.7251152992248535,0.8854355812072754
1730865821.0883863,-1.614379644393921,1.1112257242202759,-9.964507102966309,0.08436864114445544,-0.003320466752486066,-0.07876724009535388,1.2332104444503784,2.7261104583740234,0.8849520087242126
1730865821.1394134,-1.5816212892532349,1.144997477531433,-9.923843383789062,0.12071882921826059,0.003690198043447724,-0.0783812294008805,1.236144781112671,2.7286880016326904,0.8847314119338989
1730865821.1883988,-1.5738476514816284,1.1745151281356812,-9.86274242401123,0.14227640623187426,0.0005602888353252204,-0.06853914866819842,1.2384196519851685,2.7303175926208496,0.884097695350647
1730865821.2394211,-1.5731415748596191,1.1821424961090088,-9.818849563598633,0.14222292198526934,-0.011496084749098814,-0.04603024084555046,1.2411102056503296,2.7319722175598145,0.883303701877594
1730865821.2893775,-1.6095709800720215,1.1707409620285034,-9.77824592590332,0.12073129043530448,-0.02743861731901474,-0.01220786860515779,1.2441003322601318,2.733558177947998,0.8824454545974731
1730865821.338489,-1.640533208847046,1.129486322402954,-9.74138355255127,0.08424851561986729,-0.04095839243075701,0.028269693790781807,1.238785743713379,2.732259750366211,0.8864195346832275
1730865821.3893628,-1.67947518825531,1.087280035018921,-9.722867012023926,0.04166245192726599,-0.046889745411409556,0.06967627729163114,1.239514708518982,2.7356925010681152,0.8882049918174744
1730865821.4394367,-1.7431371212005615,1.0319645404815674,-9.733076095581055,0.0011887697039031728,-0.042258709745596965,0.10433874436593424,1.2406163215637207,2.737269163131714,0.8891094326972961
1730865821.4893925,-1.7904772758483887,0.9853580594062805,-9.739028930664062,-0.031521120166436295,-0.026730214926363603,0.12258889519526694,1.2407853603363037,2.7401747703552246,0.8886706829071045
1730865821.538398,-1.8280900716781616,0.9694893956184387,-9.771464347839355,-0.05448895803985647,-0.0027958072214455693,0.11769902901839407,1.2414865493774414,2.74200439453125,0.889424741268158
1730865821.5883653,-1.8361903429031372,0.9790876507759094,-9.810626983642578,-0.06830153713458968,0.02400385865267897,0.09065982151398337,1.2420518398284912,2.7439017295837402,0.8904526233673096
1730865821.6383514,-1.8165056705474854,0.9815708994865417,-9.834494590759277,-0.0737671791391543,0.04590619906118777,0.04906253699467094,1.2408777475357056,2.744838237762451,0.8887446522712708
1730865821.6884181,-1.8124045133590698,0.9782094955444336,-9.861376762390137,-0.07137158020964945,0.056359470476393,0.002882696328225187,1.2408844232559204,2.7467966079711914,0.8891498446464539
1730865821.7383068,-1.7983269691467285,1.0048445463180542,-9.88154411315918,-0.06189482163146466,0.05341776972282772,-0.038185389646947475,1.2391955852508545,2.749620199203491,0.8885535597801208
1730865821.789295,-1.7815325260162354,1.0146578550338745,-9.914069175720215,-0.046681239271845976,0.039780956883298954,-0.06642516151301626,1.237001895904541,2.7529308795928955,0.888435959815979
1730865821.8383403,-1.7517169713974,1.0286908149719238,-9.91403579711914,-0.027890880961598988,0.020644283584983755,-0.07815646813086756,1.2358640432357788,2.7554476261138916,0.8882384896278381
1730865821.8893306,-1.736396074295044,1.005607008934021,-9.94379997253418,-0.008322879909760064,0.0016973947635412004,-0.07442056220953587,1.234633445739746,2.7580974102020264,0.8878394365310669
1730865821.9393597,-1.7320566177368164,1.0055756568908691,-9.943452835083008,0.009567270812551246,-0.01229180645501807,-0.05995763769092256,1.2354615926742554,2.7753398418426514,0.8901879191398621
1730865821.989254,-1.7254838943481445,0.9886980056762695,-9.947930335998535,0.024209750597858008,-0.018534140424672402,-0.04144977961212046,1.234917402267456,2.780886173248291,0.890313446521759
1730865822.0393643,-1.7180981636047363,0.9952634572982788,-9.934826850891113,0.03431625544971895,-0.01680662540185037,-0.02478728181556932,1.2331198453903198,2.8008055686950684,0.8924533724784851
1730865822.0891974,-1.6993879079818726,0.9993807077407837,-9.912222862243652,0.03866392727857527,-0.009330927493479003,-0.012674392784154368,1.2322145700454712,2.8108747005462646,0.8931339979171753
1730865822.1393306,-1.6962443590164185,1.0230306386947632,-9.887798309326172,0.03718379351761116,-8.904885703426516e-06,-0.004470865707930359,1.2308635711669922,2.822368621826172,0.8945078253746033
1730865822.1892061,-1.668810248374939,1.0282886028289795,-9.86357593536377,0.03169209068104556,0.006918153175667665,0.0021827122685483574,1.2299343347549438,2.832627773284912,0.8953584432601929
1730865822.2392046,-1.721191644668579,1.0296218395233154,-9.830669403076172,0.02486933043293783,0.008754754098053222,0.00937702220300899,1.2290918827056885,2.842719793319702,0.8962078094482422
1730865822.2892196,-1.7318264245986938,1.033511757850647,-9.814858436584473,0.01821772284522158,0.0055893587687671845,0.017999902919483064,1.2309136390686035,2.8471012115478516,0.8964638710021973
1730865822.3392282,-1.7629891633987427,1.0183948278427124,-9.830656051635742,0.011152590819406904,-0.00027187724923387075,0.02777176465098589,1.2309317588806152,2.8665997982025146,0.8960008025169373
1730865822.3891559,-1.7744107246398926,1.0172163248062134,-9.829184532165527,0.002525497351359489,-0.005799455506140795,0.036667479635619164,1.2307666540145874,2.878760814666748,0.8963704705238342
1730865822.4392183,-1.8116140365600586,0.9994598031044006,-9.848525047302246,-0.007433189983230927,-0.008540712142757236,0.04101541054137245,1.2337377071380615,2.8969743251800537,0.8959593772888184
1730865822.4891584,-1.8087091445922852,0.9917630553245544,-9.857738494873047,-0.017136334344801704,-0.007473732856885384,0.03795588816381014,1.2347184419631958,2.9127418994903564,0.8962718844413757
1730865822.5393064,-1.8251001834869385,0.9997671842575073,-9.871160507202148,-0.024617913145068324,-0.003220729398812229,0.027643798777216275,1.2356593608856201,2.928709030151367,0.8966718316078186
1730865822.5891175,-1.816163420677185,1.0169641971588135,-9.845198631286621,-0.028183484705152497,0.0022451698450683764,0.01303448046193884,1.2356547117233276,2.9173576831817627,0.8959386944770813
1730865822.6392462,-1.8198473453521729,1.0062062740325928,-9.836186408996582,-0.027170300243676563,0.006435846164697616,-0.0015482834610775764,1.2361876964569092,2.92641019821167,0.8960841298103333
1730865822.6891563,-1.8122740983963013,1.0147533416748047,-9.795140266418457,-0.02234703288672671,0.007800939027668236,-0.011757067535779903,1.2366582155227661,2.935483932495117,0.8962127566337585
1730865822.7391696,-1.778674840927124,1.0090982913970947,-9.782415390014648,-0.01519465597189878,0.006616093920918907,-0.014223938753290928,1.2370742559432983,2.944420099258423,0.8963071703910828
1730865822.7891562,-1.767696499824524,1.0216978788375854,-9.757699012756348,-0.006690933559742424,0.00430870601600615,-0.007300772873350756,1.2373377084732056,2.937056064605713,0.8958995938301086
1730865822.839093,-1.7324103116989136,1.034316897392273,-9.75942325592041,0.003076463166694828,0.0020914297046392017,0.008012092326765564,1.2378004789352417,2.9437756538391113,0.8959271311759949
1730865822.889061,-1.7125691175460815,1.047145962715149,-9.77170181274414,0.014026565023715758,0.0001605550764599865,0.026965189969888736,1.2411322593688965,2.9836103916168213,0.8959875106811523
1730865822.9391801,-1.6812478303909302,1.0467898845672607,-9.819154739379883,0.025260155409899527,-0.0020626179025918464,0.041762225601436165,1.2424958944320679,3.0001981258392334,0.8961498141288757
1730865822.9889717,-1.6675662994384766,1.042413592338562,-9.868880271911621,0.03522734081775395,-0.004833797756665566,0.04497608115817488,1.247770071029663,3.032421588897705,0.8960387706756592
1730865823.0389931,-1.6185402870178223,1.0573036670684814,-9.932147026062012,0.04248243083369435,-0.0074255969913345895,0.0330394339144594,1.2532860040664673,3.0556395053863525,0.8961507678031921
1730865823.088987,-1.6078044176101685,1.0547637939453125,-9.997133255004883,0.046330628402872845,-0.008869154682960418,0.007875085943242743,1.2568172216415405,3.0750954151153564,0.8963558077812195
1730865823.1389902,-1.60062837600708,1.0458706617355347,-10.029970169067383,0.04662923449420314,-0.00877817816698176,-0.02384495392184849,1.2602711915969849,3.093482494354248,0.8965314626693726
1730865823.1889663,-1.6318727731704712,1.0628926753997803,-10.045072555541992,0.043239184992457866,-0.007199977613463365,-0.054309154360483884,1.2640700340270996,3.113062858581543,0.8966158628463745
1730865823.2390714,-1.6568337678909302,1.0877022743225098,-10.015616416931152,0.03597942633960263,-0.004656812050025011,-0.0783673619588734,1.258764624595642,3.0927748680114746,0.8962388038635254
1730865823.2889936,-1.6911972761154175,1.0645853281021118,-9.971029281616211,0.024802354920510205,-0.002373843848002462,-0.09351143825238419,1.260695219039917,3.1045098304748535,0.8959816098213196
1730865823.3389695,-1.7253808975219727,1.0784879922866821,-9.919425964355469,0.010105902690779045,-0.001239828633511588,-0.09678807076282928,1.2610145807266235,3.1266026496887207,0.8962172269821167
1730865823.388922,-1.761451005935669,1.071991205215454,-9.852091789245605,-0.006896940725074235,-0.0007422712150269959,-0.08411497508303062,1.2624884843826294,3.140718460083008,0.8958141207695007
1730865823.4389567,-1.781304121017456,1.0934967994689941,-9.77520751953125,-0.02410884029714909,9.823136128301092e-05,-0.054046699393004355,1.2638461589813232,3.1540772914886475,0.8952630162239075
1730865823.4888465,-1.809296727180481,1.073333501815796,-9.724777221679688,-0.03917253500188678,0.0013002011579477297,-0.010237708120128565,1.261384129524231,3.1793313026428223,0.8984343409538269
1730865823.5389073,-1.8334134817123413,1.0736743211746216,-9.679763793945312,-0.050581070622278505,0.0021362098604508052,0.04013935288603895,1.261764407157898,3.1949496269226074,0.8988418579101562
1730865823.5888886,-1.8708065748214722,1.068585753440857,-9.669645309448242,-0.05778648039506422,0.0022030564721918357,0.08743770470107884,1.2620117664337158,3.2388346195220947,0.9012880325317383
1730865823.6389372,-1.87260901927948,1.0906593799591064,-9.673341751098633,-0.06046112786852127,0.001632200168368539,0.12043366592632453,1.2622908353805542,3.2631945610046387,0.9025803208351135
1730865823.688918,-1.8780544996261597,1.089421272277832,-9.71674633026123,-0.058272603888148984,0.0004082659955240495,0.13039620753629666,1.2617084980010986,3.2927684783935547,0.903570830821991
1730865823.7388418,-1.8644664287567139,1.079145908355713,-9.763466835021973,-0.051068701990515546,-0.001787763744697908,0.11502937509782812,1.261600375175476,3.3203184604644775,0.905189037322998
1730865823.7888417,-1.8413264751434326,1.0734431743621826,-9.838960647583008,-0.039206005209865856,-0.004603027842545335,0.07880154323550811,1.261375069618225,3.348615884780884,0.9070966243743896
1730865823.8388224,-1.7913793325424194,1.05211341381073,-9.89866828918457,-0.023484013777821812,-0.006368135567107518,0.029987007603354078,1.2618803977966309,3.346059799194336,0.9051456451416016
1730865823.8888412,-1.7414640188217163,1.0156292915344238,-9.966034889221191,-0.00466094576900768,-0.00494379177844691,-0.022909379211941503,1.2618436813354492,3.3651394844055176,0.9060051441192627
1730865823.9388025,-1.6965566873550415,0.985097348690033,-10.021401405334473,0.01622147820789193,0.0009669279965000598,-0.07186038471228873,1.2618218660354614,3.383319139480591,0.9067136645317078
1730865823.9887164,-1.6680885553359985,0.9585201144218445,-10.0371675491333,0.03752027092688946,0.01147514545306898,-0.10948842404578428,1.2625221014022827,3.4079055786132812,0.9065365791320801
1730865824.0386865,-1.6607003211975098,0.9779941439628601,-10.024589538574219,0.05739410042854084,0.025468298222850197,-0.13127311111127157,1.2628378868103027,3.430177927017212,0.9067767858505249
1730865824.0887008,-1.6769468784332275,0.9600660800933838,-9.980515480041504,0.07289544960015276,0.039535408330792235,-0.1353807161715759,1.2633360624313354,3.453279733657837,0.9066736698150635
1730865824.1387787,-1.698906660079956,0.9828639030456543,-9.897794723510742,0.0791800779070599,0.04808601477648767,-0.12016547671503928,1.2634644508361816,3.463834047317505,0.9079084396362305
1730865824.1886523,-1.7345000505447388,0.9787940979003906,-9.839489936828613,0.0721545753653181,0.04674712872646087,-0.08521235447354118,1.2640687227249146,3.484545946121216,0.9079400300979614
1730865824.2386563,-1.7630187273025513,0.9583038687705994,-9.756281852722168,0.051851734185226664,0.03579042249509595,-0.03503768352645237,1.2616304159164429,3.524536371231079,0.9099591970443726
1730865824.2885711,-1.778839111328125,0.9493845701217651,-9.732060432434082,0.022766633859431312,0.02009763818974328,0.020289564278286838,1.2613837718963623,3.552586793899536,0.9106234312057495
1730865824.3386784,-1.7824066877365112,0.9606921672821045,-9.697330474853516,-0.007866419259369713,0.005927845605415519,0.0684447669828225,1.2594579458236694,3.5850303173065186,0.9122336506843567
1730865824.3885596,-1.7712342739105225,0.9990196228027344,-9.733101844787598,-0.032342451344175925,-0.0029513632929155146,0.09892322106689785,1.2586995363235474,3.613978385925293,0.9134190678596497
1730865824.4385567,-1.7401106357574463,1.016877293586731,-9.778341293334961,-0.04489397323895385,-0.007009569545148136,0.10575891521455802,1.257590889930725,3.6341702938079834,0.9141557216644287
1730865824.488496,-1.7070610523223877,1.0603395700454712,-9.849698066711426,-0.04325065345260716,-0.009700226565918518,0.08838589083982645,1.2567108869552612,3.657866954803467,0.9154131412506104
1730865824.5385177,-1.6693414449691772,1.0761983394622803,-9.916305541992188,-0.028909757742563554,-0.014490579880499087,0.0514189458444505,1.2579407691955566,3.692394733428955,0.9161746501922607
1730865824.5885024,-1.649141788482666,1.067576289176941,-9.971424102783203,-0.006418477312301389,-0.022359467652490906,0.0035883945557255627,1.257690668106079,3.720184564590454,0.9173851609230042
1730865824.6385193,-1.65805184841156,1.0510894060134888,-10.002197265625,0.017819996228184896,-0.030906416921095647,-0.04431896616396155,1.257454752922058,3.7479147911071777,0.9185450077056885
1730865824.6884573,-1.6913392543792725,1.0164906978607178,-10.012958526611328,0.036912696181504424,-0.03529095388465435,-0.08237562441572242,1.2572875022888184,3.7755239009857178,0.91954505443573
1730865824.7384841,-1.7279112339019775,0.9663646817207336,-9.986640930175781,0.04522854248170855,-0.03068272464172997,-0.10490676781108518,1.2572227716445923,3.8030893802642822,0.920312225818634
1730865824.7885003,-1.7666682004928589,0.9352697730064392,-9.934115409851074,0.03982967192238981,-0.014392657676143136,-0.11154011013243564,1.2584997415542603,3.734679698944092,0.9155414700508118
1730865824.8384087,-1.8084644079208374,0.9193426966667175,-9.859488487243652,0.021164854553677948,0.012715935578091284,-0.10441606250248661,1.2586623430252075,3.7475759983062744,0.9152239561080933
1730865824.8883982,-1.8142627477645874,0.9336434602737427,-9.800418853759766,-0.006320468031476777,0.044489885317053356,-0.08477273109149883,1.2616881132125854,3.7822890281677246,0.9149282574653625
1730865824.938424,-1.8387418985366821,0.969577968120575,-9.731938362121582,-0.034826676301666984,0.07013318527950527,-0.05284513326112372,1.2626433372497559,3.8044261932373047,0.9145333170890808
1730865824.9883604,-1.8460583686828613,1.035526990890503,-9.69360065460205,-0.056317742126522956,0.07918971294761527,-0.011216800229221655,1.2645740509033203,3.8338801860809326,0.9148271679878235
1730865825.038424,-1.8276958465576172,1.109084129333496,-9.68529224395752,-0.06584258455024311,0.06664002345789732,0.03288688602672512,1.2655774354934692,3.8590281009674072,0.9147171378135681
1730865825.088392,-1.8209121227264404,1.1660668849945068,-9.69603443145752,-0.06238911345324844,0.03460692490166799,0.06923923423967027,1.266526460647583,3.875730514526367,0.9150054454803467
1730865825.1384137,-1.8140759468078613,1.2034783363342285,-9.747115135192871,-0.04802531601171446,-0.008793750498930764,0.08837429944731573,1.2671921253204346,3.896012544631958,0.915273904800415
1730865825.1882198,-1.7965645790100098,1.2193920612335205,-9.80362319946289,-0.02713981012282128,-0.05214132833141467,0.08507216686758495,1.269028902053833,3.9257419109344482,0.915081262588501
1730865825.238313,-1.7558096647262573,1.199331521987915,-9.887811660766602,-0.005202014529246944,-0.08407827919550431,0.059976595286526796,1.2711025476455688,3.9511005878448486,0.9149924516677856
1730865825.2882514,-1.7261558771133423,1.1646502017974854,-9.957509994506836,0.013402288789683803,-0.09667007442684322,0.019418017359298087,1.272385597229004,3.972339153289795,0.9152217507362366
1730865825.3382928,-1.7194206714630127,1.130889654159546,-10.008896827697754,0.026600150556279872,-0.08747812399355318,-0.02629944883900845,1.2737350463867188,3.993605375289917,0.9154447913169861
1730865825.3882482,-1.697959542274475,1.0743356943130493,-10.0391845703125,0.034359305705488154,-0.05943384181110618,-0.06716354660641724,1.2751414775848389,4.014392852783203,0.9155488014221191
1730865825.43834,-1.6529749631881714,1.0059369802474976,-10.051814079284668,0.03840670199197177,-0.018513681233609074,-0.09801554107639987,1.2730534076690674,3.992034435272217,0.9148063659667969
1730865825.488185,-1.6237517595291138,0.9649898409843445,-10.026063919067383,0.04168631669068676,0.028550400582585126,-0.11830419990811361,1.2738912105560303,4.005604267120361,0.9144210815429688
1730865825.5382974,-1.6046981811523438,0.9388260245323181,-9.972424507141113,0.046222257280543716,0.07365400579634777,-0.1267961726134588,1.2748585939407349,4.019600868225098,0.9137169122695923
1730865825.588236,-1.601696491241455,0.9438629150390625,-9.887285232543945,0.05141900181776864,0.10718459218226242,-0.11830313269625627,1.274800181388855,4.027341842651367,0.9144633412361145
1730865825.6382475,-1.6314972639083862,0.9641637206077576,-9.792810440063477,0.054951947859656444,0.12188667329810715,-0.08768670673375648,1.2756677865982056,4.040072917938232,0.9138797521591187
1730865825.6882327,-1.6840543746948242,1.008382797241211,-9.695857048034668,0.05374874385746087,0.1157051151850399,-0.03641713927491794,1.2766610383987427,4.052969455718994,0.9131482243537903
1730865825.7382996,-1.7556308507919312,1.0472370386123657,-9.619538307189941,0.04379682190963279,0.09055328458989906,0.02688233371939816,1.2765698432922363,4.073763847351074,0.9094671010971069
1730865825.7891712,-1.825461745262146,1.0716389417648315,-9.588953971862793,0.0217051755839668,0.051219898706559894,0.09112663506276544,1.2774336338043213,4.089749813079834,0.90822434425354
1730865825.839185,-1.883821964263916,1.1115782260894775,-9.620940208435059,-0.011679413972615373,0.005901511549634779,0.14422662461520502,1.2784602642059326,4.122960567474365,0.904608964920044
1730865825.889105,-1.9299259185791016,1.1039916276931763,-9.688217163085938,-0.04986582143489892,-0.034933362571082316,0.17268058126442973,1.2785367965698242,4.1608991622924805,0.8997930884361267
1730865825.939164,-1.9584888219833374,1.1029152870178223,-9.793943405151367,-0.0832749075336284,-0.062059494317759055,0.16653404920496417,1.278877854347229,4.188591480255127,0.8973774313926697
1730865825.9891274,-1.9221254587173462,1.068781852722168,-9.899386405944824,-0.10297574690788264,-0.07053792363966445,0.12517340209701752,1.2789865732192993,4.216252326965332,0.8953160047531128
1730865826.039132,-1.8867970705032349,1.0299915075302124,-9.992692947387695,-0.10368478455102573,-0.06058079653307688,0.05642797018012217,1.275956392288208,4.200342655181885,0.8959635496139526
1730865826.089122,-1.8043923377990723,0.9857229590415955,-10.083009719848633,-0.08519908770319114,-0.0365111235112627,-0.02745071753701256,1.2751809358596802,4.215265274047852,0.8947455286979675
1730865826.1391113,-1.7250518798828125,0.9396134614944458,-10.119417190551758,-0.05132425371857727,-0.004978609896917766,-0.11056019372214584,1.2742180824279785,4.230490207672119,0.8933262228965759
1730865826.1890519,-1.6716982126235962,0.8984315395355225,-10.11806583404541,-0.0071068310830076035,0.027272347280142002,-0.17495441269156214,1.273146390914917,4.246262073516846,0.8914803862571716
1730865826.2391787,-1.6317377090454102,0.8991717100143433,-10.054717063903809,0.04335735788340789,0.05598444575079731,-0.20784504855240338,1.2737699747085571,4.2388434410095215,0.8950738310813904
1730865826.2891371,-1.6229068040847778,0.9068271517753601,-9.973865509033203,0.09572524478488782,0.07939195926168889,-0.20642643423157678,1.273433804512024,4.251330375671387,0.8936895728111267
1730865826.3391438,-1.6223030090332031,0.9546550512313843,-9.862372398376465,0.14114562297267588,0.0946151055671929,-0.1743186634133428,1.2733899354934692,4.2642316818237305,0.8918063640594482
1730865826.3890617,-1.637513279914856,0.9897220730781555,-9.759103775024414,0.16636796998169287,0.09584427426729555,-0.11612960014124099,1.2722725868225098,4.28683614730835,0.8937231302261353
1730865826.4390738,-1.6704459190368652,1.0245693922042847,-9.669963836669922,0.1618392298734698,0.07836947830985862,-0.03760093088691933,1.271162748336792,4.32860803604126,0.892947256565094
1730865826.4890575,-1.713204026222229,1.0506696701049805,-9.639286994934082,0.12864675815550972,0.044298741747008895,0.04898567587097667,1.2711968421936035,4.350452899932861,0.8921071887016296
1730865826.539149,-1.7412998676300049,1.0980318784713745,-9.633439064025879,0.07716466105328251,0.0030932673668849497,0.12324712264684165,1.2691006660461426,4.3988494873046875,0.8915144801139832
1730865826.589153,-1.7706358432769775,1.1401395797729492,-9.673748016357422,0.021257973997818362,-0.03396849475021285,0.16533192660122625,1.268416166305542,4.436151504516602,0.8909881711006165
1730865826.6390245,-1.81017005443573,1.1547178030014038,-9.745800018310547,-0.026766454002574252,-0.05949532980068584,0.16603222541277807,1.2677277326583862,4.47318696975708,0.8908756375312805
1730865826.6889942,-1.8507472276687622,1.142473816871643,-9.823884010314941,-0.05961679329732987,-0.07148126259202169,0.128243919921055,1.268125295639038,4.4004807472229,0.8909971714019775
1730865826.7390182,-1.856276512145996,1.1089869737625122,-9.936396598815918,-0.07640470131729347,-0.07161315990980205,0.06288292810843446,1.2674810886383057,4.41166353225708,0.8911330699920654
1730865826.7889502,-1.8416708707809448,1.0632330179214478,-10.019671440124512,-0.08000384964171221,-0.062219124801630894,-0.014615506521534163,1.269951343536377,4.406340599060059,0.8896568417549133
1730865826.8389661,-1.779650092124939,1.011526107788086,-10.084000587463379,-0.0727608452593482,-0.04434079498323547,-0.0875610884411737,1.2700145244598389,4.415304660797119,0.8890640735626221
1730865826.888894,-1.7076926231384277,0.9600398540496826,-10.123675346374512,-0.05521901128126491,-0.01900439549257558,-0.14186723504028134,1.269918441772461,4.424232482910156,0.8881820440292358
1730865826.938943,-1.6328097581863403,0.9724978804588318,-10.114960670471191,-0.02699825305998379,0.010987899726967211,-0.16938812283540539,1.2697190046310425,4.433172702789307,0.886907160282135
1730865826.988845,-1.5667001008987427,1.0105102062225342,-10.058923721313477,0.012531967194358576,0.04127823848173873,-0.1699218577744314,1.2719067335128784,4.431600570678711,0.8926387429237366
1730865827.0389345,-1.5373419523239136,1.0620132684707642,-9.957164764404297,0.06194280492005721,0.06628490448157393,-0.14922735282660493,1.2722984552383423,4.439089298248291,0.8923336863517761
1730865827.0888484,-1.5588669776916504,1.1141678094863892,-9.830131530761719,0.11288871507296802,0.07897612250942929,-0.11287305477182305,1.2776490449905396,4.472078800201416,0.8968932032585144
1730865827.138865,-1.6177358627319336,1.1486369371414185,-9.687850952148438,0.14946308608252018,0.07302599971080587,-0.06278480481767972,1.282779335975647,4.497767448425293,0.8996227979660034
1730865827.1889105,-1.7150630950927734,1.1705725193023682,-9.583572387695312,0.15642651938394675,0.047948935485432775,-0.001481862136845133,1.2862709760665894,4.516650676727295,0.9010202288627625
1730865827.2388651,-1.806476354598999,1.1433218717575073,-9.512519836425781,0.1280518952499168,0.01186307078132914,0.06257348941359668,1.2900686264038086,4.535345554351807,0.9024737477302551
1730865827.2888434,-1.899214744567871,1.118416428565979,-9.51824951171875,0.0690163824187881,-0.022175922062941944,0.11770035567347359,1.2941269874572754,4.554103851318359,0.9041576981544495
1730865827.3388677,-1.949869155883789,1.0791597366333008,-9.586325645446777,-0.010463650278408107,-0.04262801688720097,0.15583642334285835,1.2888091802597046,4.520676136016846,0.9030237197875977
1730865827.3887708,-1.9651979207992554,1.0471336841583252,-9.69525146484375,-0.0974987742726367,-0.043799151745288575,0.1734004131994857,1.290608286857605,4.529104709625244,0.9046072959899902
1730865827.4388082,-1.951682448387146,1.018293857574463,-9.837564468383789,-0.17427781161988867,-0.027221430623859955,0.1664237939822052,1.293751835823059,4.542842388153076,0.9026517271995544
1730865827.4887438,-1.9101407527923584,1.0166480541229248,-9.972423553466797,-0.2193559507717605,-0.0003577447982026725,0.12952300722584947,1.2955907583236694,4.554503917694092,0.9036604762077332
1730865827.5387235,-1.8400102853775024,1.0257471799850464,-10.073199272155762,-0.21796807959238546,0.02664739040558726,0.06285881378133842,1.2968796491622925,4.566180229187012,0.9049084186553955
1730865827.5886533,-1.7832610607147217,1.038144826889038,-10.148233413696289,-0.17036555167777306,0.044603815493346445,-0.023063515016053464,1.2976837158203125,4.5779595375061035,0.9062076807022095
1730865827.6388633,-1.7273386716842651,1.0540558099746704,-10.161871910095215,-0.08964105613218863,0.04830505885653538,-0.11287968948164857,1.2986414432525635,4.548707962036133,0.9020148515701294
1730865827.6887012,-1.701601505279541,1.0654284954071045,-10.114304542541504,0.004721614902704979,0.03796239337314607,-0.19229530672987985,1.303875207901001,4.555622100830078,0.9013106226921082
1730865827.7386177,-1.6947585344314575,1.0725332498550415,-10.011469841003418,0.0905927639468048,0.018516029701569535,-0.24565194627676692,1.306484580039978,4.5611677169799805,0.9004595279693604
1730865827.7885995,-1.7039052248001099,1.0801959037780762,-9.909374237060547,0.1471243553231541,-0.0027061512564260804,-0.2552421176039642,1.3112112283706665,4.566108703613281,0.9005934000015259
1730865827.8386664,-1.7008376121520996,1.0924370288848877,-9.79198932647705,0.16250647854655556,-0.019213566333595535,-0.21116869278297895,1.3149306774139404,4.571630001068115,0.8993244767189026
1730865827.8886235,-1.721585750579834,1.0864760875701904,-9.70018482208252,0.13944091395274355,-0.02773589716107428,-0.12136780599884789,1.319006323814392,4.577059745788574,0.8976462483406067
1730865827.9386418,-1.7110157012939453,1.0682035684585571,-9.65764045715332,0.09226255383789447,-0.028321123773938157,-0.009005767276633176,1.3233660459518433,4.582413673400879,0.8958073854446411
1730865827.9886286,-1.7513574361801147,1.0275766849517822,-9.671375274658203,0.038944698240516204,-0.02268751038995823,0.09993431107766079,1.3171634674072266,4.589587211608887,0.9005467891693115
1730865828.0385277,-1.745881199836731,1.0205698013305664,-9.699067115783691,-0.006022877540846966,-0.012659360859281505,0.18555011959688358,1.319340705871582,4.595565319061279,0.9006812572479248
1730865828.088517,-1.7504873275756836,0.9781461358070374,-9.770282745361328,-0.0346973014177426,-7.212891967160826e-05,0.2334049417131444,1.3214967250823975,4.60161018371582,0.9013423323631287
1730865828.1386116,-1.7358630895614624,0.9671769738197327,-9.8184175491333,-0.04519327279631165,0.013023127635447131,0.23316757367022578,1.319718837738037,4.614229202270508,0.9013646245002747
1730865828.1884937,-1.7309166193008423,0.9096390008926392,-9.893080711364746,-0.040221651512103954,0.02518818602760434,0.18391801629549825,1.3210430145263672,4.622460842132568,0.9023457169532776
1730865828.2384186,-1.717599630355835,0.8831720948219299,-9.91263198852539,-0.025519223088370593,0.0360960178665026,0.09945102854792078,1.32231867313385,4.604795932769775,0.9015280604362488
1730865828.2884605,-1.7108439207077026,0.8595607876777649,-9.950695991516113,-0.007726506727385684,0.0457978767880582,0.0047671983358170585,1.3234573602676392,4.605593204498291,0.9020782709121704
1730865828.3384361,-1.6826612949371338,0.8669135570526123,-9.936162948608398,0.007788817577572872,0.05348514295089586,-0.07427682056700483,1.3233822584152222,4.594290733337402,0.901237428188324
1730865828.3884819,-1.6797475814819336,0.8525959253311157,-9.930014610290527,0.01821734877901329,0.057072388463511245,-0.12031055822529589,1.3242082595825195,4.59226655960083,0.9010499715805054
1730865828.4383562,-1.6859499216079712,0.8902743458747864,-9.886892318725586,0.02304607632680846,0.05450266591311379,-0.12832285589575504,1.324475646018982,4.585983753204346,0.9008269906044006
1730865828.4883804,-1.6958060264587402,0.9126766324043274,-9.868230819702148,0.022795768367601367,0.045190494183073165,-0.10431483276362422,1.3252813816070557,4.583149433135986,0.9002846479415894
1730865828.5384433,-1.7209919691085815,0.9789461493492126,-9.845362663269043,0.018210595850607143,0.0299496192393841,-0.061215394819040585,1.3261369466781616,4.580414295196533,0.8995364308357239
1730865828.5884104,-1.728746771812439,1.0218889713287354,-9.846674919128418,0.01007605502980449,0.009807339778828795,-0.013945237240037432,1.3270267248153687,4.577732086181641,0.8986952900886536
1730865828.6383357,-1.7494091987609863,1.0909570455551147,-9.850651741027832,-0.0008926259061724112,-0.015235967683843324,0.025386982952706996,1.3252325057983398,4.579196453094482,0.9007200002670288
1730865828.688319,-1.7676504850387573,1.1346588134765625,-9.873368263244629,-0.01377150584562696,-0.04538925417901068,0.050053938590598125,1.325600504875183,4.577137470245361,0.9006965756416321
1730865828.7383904,-1.7973029613494873,1.1594364643096924,-9.888726234436035,-0.026766544354005332,-0.07751332878380102,0.058024636230078926,1.325829267501831,4.572242259979248,0.9009962677955627
1730865828.7882261,-1.8204829692840576,1.1464028358459473,-9.9091157913208,-0.03738116734610115,-0.10357636622527457,0.0504564331910713,1.3261103630065918,4.568915843963623,0.9012123346328735
1730865828.8381786,-1.854067325592041,1.1007578372955322,-9.917597770690918,-0.043760417774913615,-0.11433527084814332,0.0314236063405332,1.326293706893921,4.565272331237793,0.9015335440635681
1730865828.888218,-1.8514043092727661,1.082800030708313,-9.906006813049316,-0.045880144118430194,-0.1041429801665934,0.0074454974142087555,1.325958490371704,4.563187122344971,0.9011110067367554
1730865828.9382017,-1.8201770782470703,1.047919750213623,-9.887425422668457,-0.04507645801224929,-0.07364483817426369,-0.014386323653204258,1.3259031772613525,4.560016632080078,0.9011874198913574
1730865828.988202,-1.7908076047897339,1.0360807180404663,-9.847102165222168,-0.04166957572405487,-0.030382087631096573,-0.028143453512918196,1.3257391452789307,4.556709289550781,0.9012106657028198
1730865829.0381737,-1.7437266111373901,1.023146152496338,-9.824508666992188,-0.0333437239958472,0.013971602287359783,-0.029837141672136434,1.32548189163208,4.553389549255371,0.9011614918708801
1730865829.0881407,-1.6907497644424438,1.0466433763504028,-9.787721633911133,-0.016580469677541853,0.048974041330308804,-0.01802015077945216,1.3262079954147339,4.553977966308594,0.8994337320327759
1730865829.1380885,-1.648470401763916,1.0507038831710815,-9.787416458129883,0.010109330433813398,0.06894581613363679,0.00522705746316687,1.326217532157898,4.551584720611572,0.8990670442581177
1730865829.1881561,-1.617987871170044,1.090096116065979,-9.807242393493652,0.043150217624846776,0.07260614743782369,0.03308178623758341,1.3262946605682373,4.54933500289917,0.8987435698509216
1730865829.2380779,-1.6103068590164185,1.109500527381897,-9.842402458190918,0.07424891424760013,0.06126084178624927,0.05492211469450986,1.3265167474746704,4.547281265258789,0.8985337018966675
1730865829.288105,-1.6238698959350586,1.1228430271148682,-9.893508911132812,0.0954255572025104,0.03794431179570494,0.06092313634952507,1.325548529624939,4.54217004776001,0.8979264497756958
1730865829.3391025,-1.6612720489501953,1.11711585521698,-9.919839859008789,0.10296248597368127,0.007688418955732239,0.047053331386344266,1.325819969177246,4.539236545562744,0.8977982401847839
1730865829.3891,-1.7062418460845947,1.1080082654953003,-9.93022346496582,0.09609973132186168,-0.022026302818856806,0.01734691737316993,1.3256102800369263,4.535182476043701,0.8964518904685974
1730865829.4390996,-1.7846686840057373,1.0868663787841797,-9.909859657287598,0.07481299859529293,-0.04266264673079406,-0.017492516303680584,1.3260120153427124,4.531924724578857,0.895969033241272
1730865829.489078,-1.8689651489257812,1.0482702255249023,-9.868401527404785,0.04052496761128969,-0.04825386950108763,-0.044769531965960646,1.32655930519104,4.528539180755615,0.8954062461853027
1730865829.53906,-1.9302902221679688,0.9971740245819092,-9.793318748474121,-0.003293140056031244,-0.03767496700773389,-0.05451873956269479,1.3254013061523438,4.527497291564941,0.8972295522689819
1730865829.5890198,-1.9516618251800537,0.9614248275756836,-9.752548217773438,-0.05172955127872564,-0.013959961681430483,-0.04244195423182616,1.3254059553146362,4.524753093719482,0.8970776796340942
1730865829.6390316,-1.9399656057357788,0.927337646484375,-9.708346366882324,-0.0966945982410769,0.016693322471501543,-0.011899373388398875,1.3255044221878052,4.521831035614014,0.8982324004173279
1730865829.689091,-1.9021095037460327,0.923095166683197,-9.698596954345703,-0.12621551529450903,0.045995466332414636,0.02671141015973206,1.3252103328704834,4.518975734710693,0.8984656929969788
1730865829.7390177,-1.8148638010025024,0.9672458171844482,-9.731546401977539,-0.1296987353517307,0.06583052252701155,0.06026474713396871,1.3245972394943237,4.516271114349365,0.8988068103790283
1730865829.7890282,-1.7123396396636963,0.9900895953178406,-9.792790412902832,-0.10323073733656496,0.07034505176503636,0.07765465802702178,1.3236918449401855,4.513732433319092,0.8993210196495056
1730865829.8389225,-1.610396385192871,1.0295559167861938,-9.872499465942383,-0.049194168146391895,0.05729380483396404,0.07245813956505566,1.3257702589035034,4.513737201690674,0.8969141840934753
1730865829.8888602,-1.5535951852798462,1.0445973873138428,-9.953113555908203,0.024989429524672514,0.02918016188596499,0.04415087733150684,1.3255932331085205,4.511841773986816,0.8969926238059998
1730865829.9389522,-1.5511038303375244,1.018416404724121,-10.019755363464355,0.10439451856712101,-0.006178039536541493,-0.0012030255802227031,1.327776312828064,4.503726005554199,0.8950966000556946
1730865829.98891,-1.5939680337905884,1.011148452758789,-10.045137405395508,0.1670383910884562,-0.03737757370813312,-0.05201967537073457,1.3295750617980957,4.493189334869385,0.8934551477432251
1730865830.0389178,-1.6763089895248413,1.0060524940490723,-10.04072093963623,0.19298334629850666,-0.05452722683676801,-0.0945688259862358,1.3311643600463867,4.486993312835693,0.8923726081848145
1730865830.088923,-1.746936321258545,0.9845000505447388,-10.015297889709473,0.17402096169956074,-0.0541155528716228,-0.11698698551052093,1.333203673362732,4.480701446533203,0.8910319209098816
1730865830.138909,-1.797976016998291,0.9703430533409119,-9.969700813293457,0.1155312695190482,-0.03926272671511327,-0.11314157002710398,1.3356008529663086,4.474302768707275,0.8894063830375671
1730865830.1888258,-1.8505985736846924,0.9582089781761169,-9.899385452270508,0.0319051698153544,-0.016367365099682937,-0.08438954512707558,1.331635594367981,4.477571964263916,0.8916444182395935
1730865830.2388048,-1.8622832298278809,0.9732130765914917,-9.831989288330078,-0.058628558275505144,0.007883485048361503,-0.03789721550581693,1.3316253423690796,4.467902660369873,0.8904820680618286
1730865830.2888124,-1.8127779960632324,1.019288182258606,-9.767375946044922,-0.13560033669145188,0.027221584266677704,0.015503861580215163,1.331862211227417,4.462108135223389,0.889568567276001
1730865830.3389432,-1.768449306488037,1.0621390342712402,-9.740767478942871,-0.1785065853602176,0.035820545633252376,0.06344236381872093,1.3317365646362305,4.455535888671875,0.8907513618469238
1730865830.3887641,-1.7274810075759888,1.1241681575775146,-9.713075637817383,-0.17503013665692502,0.02988504423977326,0.09606370252641169,1.3313159942626953,4.449923992156982,0.8907856345176697
1730865830.4387124,-1.7040209770202637,1.1570360660552979,-9.732561111450195,-0.12898473215847342,0.009966748662767715,0.10905833740995322,1.3305171728134155,4.4443678855896,0.8910752534866333
1730865830.4887614,-1.7180955410003662,1.1689705848693848,-9.745683670043945,-0.05874761948978383,-0.01893985570007148,0.1031384869290119,1.3331106901168823,4.443848609924316,0.8912916779518127
1730865830.5389688,-1.7459684610366821,1.1298298835754395,-9.794836044311523,0.012061611367391924,-0.049380132557585055,0.08233553257606462,1.333238959312439,4.43898868560791,0.8917471170425415
1730865830.5887892,-1.7726895809173584,1.094590663909912,-9.832893371582031,0.0633800104163407,-0.07237723785735674,0.05223395009154361,1.3343589305877686,4.431751251220703,0.8914452195167542
1730865830.6387339,-1.7862608432769775,1.0611884593963623,-9.884589195251465,0.08383605636998911,-0.07886646107376202,0.01817649055509826,1.3350294828414917,4.4254350662231445,0.8917430639266968
1730865830.6887648,-1.7647861242294312,1.0372568368911743,-9.91538143157959,0.07362008621228451,-0.06461149328000122,-0.015181074717306352,1.3358995914459229,4.418910503387451,0.8920459151268005
1730865830.7387128,-1.7332943677902222,0.9958797693252563,-9.954663276672363,0.043794441815912744,-0.033509006266726225,-0.04396629194801434,1.3369196653366089,4.412243843078613,0.892275333404541
1730865830.7886794,-1.6992961168289185,0.970489501953125,-9.958045959472656,0.010776150433370275,0.005661067699145627,-0.06642697078976187,1.3350452184677124,4.419632911682129,0.887363851070404
1730865830.838915,-1.6736897230148315,0.9612129926681519,-9.946212768554688,-0.01110298708332925,0.04415228348061879,-0.08280292616917515,1.3353506326675415,4.416133403778076,0.8864721655845642
1730865830.88865,-1.666079044342041,0.9846764802932739,-9.918570518493652,-0.015273779736508827,0.07417011222149797,-0.09196814665309247,1.3349167108535767,4.405188083648682,0.882522463798523
1730865830.9386785,-1.666485071182251,1.004165530204773,-9.872113227844238,-0.004353578710335624,0.0886003728779247,-0.08980870810210143,1.3349875211715698,4.399305820465088,0.8804941773414612
1730865830.9886267,-1.6973685026168823,1.024204969406128,-9.841513633728027,0.01294925044705724,0.08361634885877663,-0.07283652433234714,1.3350467681884766,4.394237518310547,0.8806732892990112
1730865831.038631,-1.7264729738235474,1.0480949878692627,-9.818418502807617,0.026737862130372946,0.061390009694824846,-0.042488804633619884,1.3352110385894775,4.388763904571533,0.8792178630828857
1730865831.0885231,-1.780917763710022,1.0580365657806396,-9.797537803649902,0.029943719426416788,0.029310000016453605,-0.005644824877257142,1.3354452848434448,4.383422374725342,0.8777075409889221
1730865831.1385276,-1.8136887550354004,1.073069453239441,-9.790017127990723,0.019932154239615113,-0.0034569070938807005,0.02842995262266723,1.334194302558899,4.380469799041748,0.8794201016426086
1730865831.1886804,-1.849691390991211,1.06767737865448,-9.78526782989502,-0.0018362241670693358,-0.029484204307107083,0.05237081127614018,1.3340791463851929,4.375003814697266,0.8787305355072021
1730865831.2385516,-1.871397852897644,1.0649290084838867,-9.78875732421875,-0.029996122153174567,-0.04449417214811932,0.0628632511611825,1.3333890438079834,4.366415023803711,0.8783090114593506
1730865831.2885153,-1.8923689126968384,1.0335533618927002,-9.793503761291504,-0.05632097130462307,-0.046983021740966774,0.06015644043086432,1.3329813480377197,4.3595452308654785,0.8777972459793091
1730865831.3384886,-1.8614736795425415,1.009468913078308,-9.814248085021973,-0.07299725891099736,-0.0378391253341811,0.047145108236285316,1.3324133157730103,4.352583885192871,0.8774202466011047
1730865831.388499,-1.8302230834960938,0.9936456680297852,-9.835657119750977,-0.07543788192708237,-0.01983842731227311,0.028187788298545582,1.3316553831100464,4.345507621765137,0.8771355152130127
1730865831.4384484,-1.781769871711731,0.9923762679100037,-9.864917755126953,-0.06278422107423692,0.0033135054721114485,0.007267889258707752,1.3326367139816284,4.3551225662231445,0.8757235407829285
1730865831.4884632,-1.7135484218597412,1.023043155670166,-9.886897087097168,-0.037299037819468805,0.027190426217461944,-0.013002725569811815,1.3321791887283325,4.35166072845459,0.8751748204231262
1730865831.538349,-1.626560091972351,1.05994713306427,-9.9367036819458,-0.003480030618126847,0.04575350875892249,-0.030736306971282205,1.3325008153915405,4.341277599334717,0.8722188472747803
1730865831.5884566,-1.5794929265975952,1.0692113637924194,-9.970284461975098,0.03310790687201082,0.052214809923840394,-0.04423800203238322,1.3323198556900024,4.335213661193848,0.8707454800605774
1730865831.6383958,-1.5852240324020386,1.0573092699050903,-9.980672836303711,0.066278131698941,0.04354277028219118,-0.052504071585713546,1.3324930667877197,4.327095031738281,0.8688044548034668
1730865831.6883454,-1.5909336805343628,1.052281141281128,-9.970902442932129,0.08921119494576957,0.02386552040670121,-0.05528763234123425,1.332650899887085,4.320235729217529,0.8669914603233337
1730865831.7383947,-1.6216214895248413,1.0500705242156982,-9.964719772338867,0.09615790729974749,0.0019916267598438144,-0.05240945599158361,1.3320643901824951,4.313879013061523,0.8660643696784973
1730865831.7884474,-1.6581549644470215,1.0322474241256714,-9.915858268737793,0.0850920988125061,-0.013988855249787158,-0.04351898368524087,1.3322852849960327,4.307441711425781,0.864441454410553
1730865831.838446,-1.7035186290740967,1.0535157918930054,-9.878171920776367,0.05872292507179748,-0.020097652478288507,-0.028517056638472114,1.330861210823059,4.2980804443359375,0.8629159927368164
1730865831.8883858,-1.720142126083374,1.0179680585861206,-9.831005096435547,0.023492655945448585,-0.01683814465707156,-0.008116753115415036,1.3301671743392944,4.289855003356934,0.8623668551445007
