Timestamp,IMU_Linear_Acc_X,IMU_Linear_Acc_Y,IMU_Linear_Acc_Z,Filtered_X,Filtered_Y,Filtered_Z,Pose_X,Pose_Y,Pose_Z
1730865946.9339588,-1.6460669040679932,1.1705397367477417,-9.888028144836426,-0.21463211396753884,-0.3872857509042616,-0.04542291142801903,0.8905782103538513,3.8580567836761475,0.8861179351806641
1730865946.9839773,-1.6460669040679932,1.1705397367477417,-9.888028144836426,-0.22561466849242204,-0.3652879680620944,-0.022800458908794757,0.890080988407135,3.861456871032715,0.8844965100288391
1730865947.0338826,-1.5448205471038818,1.3515266180038452,-9.916738510131836,-0.19717973084446444,-0.3361669178332646,0.08939812895772074,0.8734105825424194,-0.9448250532150269,0.886959969997406
1730865947.0338826,-1.4505513906478882,1.3764179944992065,-9.885746955871582,-0.168806174858372,-0.35325084600912005,0.13172272678917882,0.8729300498962402,-1.0643330812454224,0.8869274258613586
1730865947.083904,-1.4505513906478882,1.3764179944992065,-9.885746955871582,-0.13479099301993314,-0.3960865327340085,0.15046579009386057,0.8686822056770325,-2.120706558227539,0.8866400122642517
1730865947.083904,-1.483825922012329,1.3574954271316528,-9.83907413482666,-0.09666492253474021,-0.4558054962202853,0.14904859601458986,0.8681926131248474,-2.2424583435058594,0.8866069316864014
1730865947.1338828,-1.5220105648040771,1.4168083667755127,-9.791072845458984,-0.05795812879327853,-0.5179973518784599,0.13780314997688206,0.8618501424789429,-3.92655348777771,0.8845345973968506
1730865947.1838188,-1.466209888458252,1.5062932968139648,-9.781386375427246,-0.02488319140061679,-0.570297553056821,0.1287467266582274,0.8351572155952454,-10.534232139587402,0.8811337947845459
1730865947.2339377,-1.6475468873977661,1.4503509998321533,-9.745635986328125,-0.003787700698371252,-0.6080779815254431,0.1309520210435723,0.808475136756897,-17.131790161132812,0.878064751625061
1730865947.2838902,-1.7597566843032837,1.3032793998718262,-9.741059303283691,1.914186174966845e-05,-0.6328330960863279,0.14768314137086083,0.8664576411247253,-2.7726080417633057,0.8853881359100342
1730865947.3337905,-1.6816997528076172,1.2365984916687012,-9.753911018371582,-0.018290265281232652,-0.6448067966477503,0.1762600404673892,0.8660479784011841,-0.7695148587226868,0.8865899443626404
1730865947.3838024,-1.757475733757019,1.2633165121078491,-9.788309097290039,-0.05976994724274358,-0.6398784671305651,0.20973573560607045,0.8611376285552979,-1.2582026720046997,0.887212336063385
1730865947.4338114,-1.9410609006881714,1.2342725992202759,-9.715015411376953,-0.11875545531394281,-0.6148601470928227,0.23974130902932805,0.8918067812919617,2.3334176540374756,0.8940954804420471
1730865947.4836771,-1.7980672121047974,1.2204742431640625,-9.816902160644531,-0.1866438247791534,-0.5731227086169526,0.2600827581279768,0.898747980594635,3.026956558227539,0.8978519439697266
1730865947.5337312,-1.6201061010360718,1.2407430410385132,-9.861479759216309,-0.2541126182992734,-0.5238607441765792,0.26801503532759796,0.9051520228385925,3.7204649448394775,0.9022752642631531
1730865947.5837328,-1.6417081356048584,1.2559638023376465,-9.932706832885742,-0.3077646453475689,-0.477884921349962,0.2622093263784645,0.888378381729126,2.273775100708008,0.8924974203109741
1730865947.6336718,-1.4783844947814941,1.2720919847488403,-9.962823867797852,-0.331107516041649,-0.44191183732953554,0.24114310979489256,0.8877506256103516,2.350503444671631,0.8941184878349304
1730865947.6836586,-1.4127205610275269,1.249739170074463,-9.95790958404541,-0.31047715814191934,-0.41091459192289004,0.20379364179946063,0.8863208889961243,2.4261348247528076,0.8962953090667725
1730865947.7336457,-1.4345476627349854,1.2176520824432373,-9.960887908935547,-0.24029924798486474,-0.368250587218182,0.15187456327024607,0.8808136582374573,1.7484508752822876,0.8899110555648804
1730865947.7836764,-1.6071974039077759,1.2252144813537598,-9.856568336486816,-0.13036084420051708,-0.29991958265120233,0.09249664581608999,0.8784357905387878,1.6721618175506592,0.8904898762702942
1730865947.8337014,-1.532752275466919,1.1856809854507446,-9.923158645629883,-0.010850991595373692,-0.2079483592718532,0.03823259569880224,0.8758760094642639,1.5950751304626465,0.8912337422370911
1730865947.8835726,-1.49844229221344,1.2116985321044922,-9.878271102905273,0.07858516300511292,-0.10891396615391519,0.002027445449535944,0.8760042786598206,1.3588294982910156,0.8876826167106628
1730865947.9345996,-1.521494746208191,1.106750726699829,-9.946966171264648,0.11233859181095818,-0.022609641700048217,-0.010338760358790687,0.8746882677078247,1.2607260942459106,0.8874602913856506
1730865947.9846032,-1.521235466003418,1.066617727279663,-9.89339542388916,0.0921930567073472,0.03881259719111012,-0.003974510056006531,0.8747032284736633,0.9937527179718018,0.8856071829795837
1730865948.034629,-1.6524330377578735,0.9745575785636902,-9.893824577331543,0.03996991369483532,0.074933629670781,0.008974315263246123,0.873539388179779,0.7254654765129089,0.8853930830955505
1730865948.0845356,-1.714928388595581,0.9513433575630188,-9.833707809448242,-0.019116197728042978,0.09244891580200433,0.01809478272330415,0.8727386593818665,0.5661880970001221,0.8850913643836975
1730865948.1347377,-1.6118273735046387,0.9223973155021667,-9.884674072265625,-0.06696193171381053,0.09750461816682393,0.020423405214513055,0.8718245625495911,0.40616121888160706,0.8848361968994141
1730865948.1846237,-1.3661701679229736,0.9260615110397339,-9.857068061828613,-0.09183882280233786,0.0932588797850693,0.018744852141933187,0.8707169890403748,0.24724581837654114,0.8846313953399658
1730865948.2345996,-1.2212275266647339,0.8862243294715881,-9.932165145874023,-0.08337404489064865,0.08257915373302246,0.01650621918973661,0.8717923164367676,0.7441027164459229,0.8852110505104065
1730865948.2835228,-1.0323896408081055,0.8774198889732361,-9.941996574401855,-0.03408194287761416,0.06965352318238306,0.014628856627936393,0.8709754943847656,0.7181077003479004,0.8851703405380249
1730865948.3344536,-1.2495695352554321,0.9381879568099976,-9.924843788146973,0.04956609187281722,0.0577078700913452,0.011899926856914933,0.8703181147575378,0.8050718307495117,0.8851212859153748
1730865948.3844686,-1.4342632293701172,1.0002256631851196,-9.9284086227417,0.1393200362990591,0.0460720407882222,0.007519121850365271,0.8698609471321106,0.8000863790512085,0.8850888013839722
1730865948.4344435,-1.6491162776947021,1.1198151111602783,-9.88106918334961,0.19451513122081385,0.030638992169382977,0.0025956136138581853,0.8698205351829529,0.7952141761779785,0.8850690126419067
1730865948.4846096,-1.8150001764297485,1.2128596305847168,-9.911548614501953,0.1817629866359465,0.006214103731347087,-0.0005399869202655453,0.8702546954154968,0.7903335690498352,0.8850515484809875
1730865948.5345068,-1.8747748136520386,1.2866096496582031,-9.855307579040527,0.08903868451265676,-0.032083150536146854,0.00024028920410400407,0.8678022027015686,0.8332149386405945,0.8849459886550903
1730865948.5845046,-1.8972151279449463,1.2438414096832275,-9.890105247497559,-0.06771775935571583,-0.08499205290311594,0.005533836621086269,0.8658998608589172,0.8424281477928162,0.8847588300704956
1730865948.6345894,-1.8699368238449097,1.2726092338562012,-9.829380989074707,-0.2424791541965464,-0.14191263484433966,0.013602597148822048,0.8646171689033508,0.8438016176223755,0.8846984505653381
1730865948.6844258,-1.9649289846420288,1.1705948114395142,-9.842905044555664,-0.37325452031401357,-0.18160713163939127,0.02157918418239998,0.8639594912528992,0.8497397899627686,0.8849173188209534
1730865948.7343395,-1.755480170249939,1.117276906967163,-9.814167976379395,-0.414396980194896,-0.18558033675145663,0.02791839458178062,0.8616563677787781,0.8512002229690552,0.8850330114364624
1730865948.7843802,-1.648979902267456,1.0715574026107788,-9.870731353759766,-0.3572337059653967,-0.14996473047457304,0.032318787026221256,0.8623786568641663,0.8569983243942261,0.885103702545166
1730865948.8343627,-1.619248390197754,1.0923936367034912,-9.766934394836426,-0.22465507033318752,-0.08622720693355404,0.03418631292750408,0.8600809574127197,0.8590162396430969,0.8853009343147278
1730865948.8843756,-1.5719029903411865,1.1600306034088135,-9.814069747924805,-0.05899216740070469,-0.01557545320212576,0.03387384439857927,0.8635565638542175,0.8645314574241638,0.885141909122467
1730865948.9342463,-1.4718180894851685,1.2043366432189941,-9.855443000793457,0.09089226274509579,0.03887806576858513,0.033511952101283236,0.8630673289299011,0.8675708770751953,0.8853316903114319
1730865948.9843962,-1.5622344017028809,1.2559999227523804,-9.844598770141602,0.18818701045269437,0.06151973980269558,0.033585784263895045,0.8653625845909119,0.8702196478843689,0.8851496577262878
1730865949.0343103,-1.6065484285354614,1.3037285804748535,-9.91126537322998,0.21996735377933796,0.05036622642661712,0.03084126879623028,0.8663048148155212,0.87360018491745,0.8853341341018677
1730865949.084335,-1.6464300155639648,1.3352413177490234,-9.848318099975586,0.19398954743343563,0.015546260594228579,0.021645136050112125,0.8677726984024048,0.8770862817764282,0.8855856657028198
1730865949.1342292,-1.7890230417251587,1.2793657779693604,-9.847938537597656,0.12876967674768836,-0.027201144255520088,0.006258055247760016,0.8653746247291565,0.8750282526016235,0.8868256211280823
1730865949.1843033,-1.9112098217010498,1.1769911050796509,-9.826825141906738,0.044749903578051156,-0.06247011493017008,-0.010528141907856343,0.8659852147102356,0.8768512010574341,0.8872218728065491
1730865949.2342906,-1.7468112707138062,1.169215440750122,-9.872337341308594,-0.03911678557447294,-0.07805090625532099,-0.022578625741400453,0.8666032552719116,0.8785006999969482,0.8875771760940552
1730865949.2843397,-1.7610691785812378,1.1731765270233154,-9.90518856048584,-0.10414923434132778,-0.06722060995768753,-0.026812318242374306,0.8643055558204651,0.8807569742202759,0.8886751532554626
1730865949.3341703,-1.772855281829834,1.1963719129562378,-9.869773864746094,-0.13494734807355824,-0.03247082255737429,-0.02481060748496857,0.8638108372688293,0.8826925158500671,0.8891395330429077
1730865949.3842542,-1.7723252773284912,1.1582468748092651,-9.856871604919434,-0.12764719424846394,0.013313382900353572,-0.01969542994052748,0.8629840016365051,0.8846171498298645,0.8895512819290161
1730865949.4341888,-1.5951693058013916,1.1924304962158203,-9.84045124053955,-0.091722934420299,0.05251760542168655,-0.012257034193315128,0.8644456267356873,0.8884167075157166,0.8904123902320862
1730865949.4842129,-1.4303251504898071,1.1096744537353516,-9.871488571166992,-0.04119513141913831,0.07250857640801704,-0.0017056882420178575,0.864097535610199,0.8911292552947998,0.8909329771995544
1730865949.5342839,-1.4494115114212036,1.127644419670105,-9.831385612487793,0.013707012717741192,0.07193881361127118,0.010619825153172594,0.8636525273323059,0.897047758102417,0.8923550248146057
1730865949.5842733,-1.374488115310669,1.0864741802215576,-9.847817420959473,0.06607837848359781,0.059114552128982575,0.020553825893235986,0.8633773922920227,0.901114284992218,0.8932406902313232
1730865949.634126,-1.4525998830795288,1.0719263553619385,-9.802490234375,0.10822659958606491,0.04468135258647424,0.024424292692985825,0.8644368052482605,0.9035096764564514,0.8941903114318848
1730865949.684152,-1.5784028768539429,1.0320987701416016,-9.840079307556152,0.13082346862113445,0.03547593034176931,0.021758171700896885,0.8649693131446838,0.9071481227874756,0.8951632380485535
1730865949.734146,-1.5448294878005981,0.9901504516601562,-9.828018188476562,0.12585908471924512,0.033417689925890975,0.014440738530863147,0.8662986755371094,0.9097668528556824,0.8957576751708984
1730865949.7841535,-1.495914340019226,0.9905200004577637,-9.897010803222656,0.09237648746386294,0.03714274190259284,0.00434226176845658,0.8673202395439148,0.912907063961029,0.8965585827827454
1730865949.8341901,-1.5989469289779663,0.96947181224823,-9.889765739440918,0.040916485975210616,0.04322202066330068,-0.007709846982783552,0.8670913577079773,0.917427659034729,0.8975808620452881
1730865949.8841543,-1.5671354532241821,0.9694827198982239,-9.91878890991211,-0.010442048641621252,0.04722278132702094,-0.021166026661915038,0.8675293922424316,0.9218408465385437,0.8974536657333374
1730865949.9341342,-1.4966825246810913,0.9941743016242981,-9.964380264282227,-0.045693703413286824,0.04565773241644866,-0.03446084337255262,0.8679782152175903,0.9257085919380188,0.8977789282798767
1730865949.984129,-1.4800490140914917,0.969645619392395,-9.981051445007324,-0.0563731348013364,0.03745828010160735,-0.04516712112639745,0.8683007955551147,0.9296993613243103,0.8980056047439575
1730865950.0342054,-1.459653377532959,1.016774296760559,-9.992463111877441,-0.04193075220677562,0.023965263652090806,-0.051895083046433324,0.8684988021850586,0.9337465167045593,0.8981097936630249
1730865950.0840492,-1.5144121646881104,1.049118995666504,-9.973414421081543,-0.00878131216621115,0.007634981311475094,-0.055335776344809934,0.8667792081832886,0.9295471906661987,0.8972700238227844
1730865950.1340241,-1.6105612516403198,1.0086636543273926,-9.94045639038086,0.031012285330922915,-0.00924629497203307,-0.05666232332517915,0.8667229413986206,0.9321277141571045,0.8971171975135803
1730865950.1840804,-1.5536221265792847,1.06661057472229,-9.94149398803711,0.062119924639200616,-0.02384230258160978,-0.054997612579329044,0.8662192225456238,0.937127947807312,0.8973879218101501
1730865950.2339597,-1.603241205215454,1.065562129020691,-9.964529037475586,0.07178430280276663,-0.032463457404687486,-0.04778895523001578,0.8663065433502197,0.9405732154846191,0.8972471356391907
1730865950.2839465,-1.879683494567871,1.0326447486877441,-9.866992950439453,0.05543548220599802,-0.032859887146500844,-0.034152370620875366,0.866553544998169,0.9439729452133179,0.897002637386322
1730865950.3339956,-1.879683494567871,1.0326447486877441,-9.866992950439453,0.014429778079523463,-0.025447660020231758,-0.01582281930933177,0.867877185344696,0.9447596073150635,0.8959236741065979
1730865950.3339956,-2.0737950801849365,0.9914940595626831,-9.809025764465332,-0.047830556912016556,-0.012258690198645845,0.005023199285702183,0.8678790330886841,0.9447702169418335,0.895922064781189
1730865950.3840535,-1.8243703842163086,0.9407444000244141,-9.798154830932617,-0.121159180660178,0.004146409724499454,0.02638547298965244,0.8681443929672241,0.9472006559371948,0.8955821394920349
1730865950.4339852,-1.8243703842163086,0.9407444000244141,-9.798154830932617,-0.1837274631483985,0.021737199701577024,0.04574427842441194,0.8695383071899414,0.9545189738273621,0.8943305611610413
1730865950.4339852,-1.6435387134552002,1.0102969408035278,-9.805895805358887,-0.2099107388843333,0.03880739256188219,0.06036032543514738,0.8695392608642578,0.9545373916625977,0.8943283557891846
1730865950.4839067,-1.5730770826339722,1.1460793018341064,-9.76155948638916,-0.18462900109562946,0.05062442121852534,0.06768725587190326,0.8695226907730103,0.9588162302970886,0.8939030170440674
1730865950.5338778,-1.402429223060608,1.2469379901885986,-9.80485725402832,-0.10936455416361211,0.04706780303608695,0.06612383304885197,0.8691411018371582,0.9632221460342407,0.8936432600021362
1730865950.5837739,-1.2801685333251953,1.27745521068573,-9.844583511352539,0.0029279495148111373,0.01686355676091984,0.05603084629415432,0.8686271905899048,0.9677088260650635,0.8935352563858032
1730865950.6338754,-1.3144124746322632,1.2810062170028687,-9.876189231872559,0.1355143804316264,-0.04413605937393635,0.03903557939439673,0.8682845234870911,0.9721843600273132,0.8935457468032837
1730865950.6837897,-1.3720238208770752,1.2254197597503662,-9.91110610961914,0.2707108266178557,-0.1280335570252039,0.01654840676254665,0.8684512376785278,0.9764373898506165,0.8936259150505066
1730865950.7338083,-1.4993278980255127,1.1518988609313965,-9.931300163269043,0.3890505450677998,-0.21661720441001714,-0.010421745059611794,0.8719496726989746,0.9607100486755371,0.8929662108421326
1730865950.78379,-1.6006672382354736,1.0863429307937622,-9.86929702758789,0.4691557879786494,-0.2869070356568214,-0.039586410512457836,0.8739344477653503,0.9614894986152649,0.8926545977592468
1730865950.8337855,-1.81550133228302,1.01986563205719,-9.81452465057373,0.4886461157812596,-0.3166877078485897,-0.06419644992135924,0.8759111166000366,0.9668331146240234,0.8913659453392029
1730865950.8837059,-1.9375649690628052,0.9927679896354675,-9.77560806274414,0.4306559360780553,-0.29183578473921407,-0.07348243064836027,0.879141628742218,0.9679346084594727,0.8905858397483826
1730865950.9336746,-2.0457820892333984,0.9714118242263794,-9.726194381713867,0.29861977460017386,-0.21587341580232106,-0.06025385691611253,0.8832762241363525,0.9684019088745117,0.8896401524543762
1730865950.9836621,-2.0869340896606445,1.0083929300308228,-9.737180709838867,0.1226218015157851,-0.11181040878253504,-0.027266155023932134,0.8793157935142517,0.9781451225280762,0.8897481560707092
1730865951.0336392,-2.0562994480133057,1.051559329032898,-9.758321762084961,-0.053449793270012105,-0.011280381951190716,0.014610648080285964,0.8812499642372131,0.9807432293891907,0.8891104459762573
1730865951.083622,-1.9736506938934326,1.1039338111877441,-9.822582244873047,-0.1878994668115682,0.05911272521969161,0.05124624801103825,0.8851265907287598,0.9901316165924072,0.8883346319198608
1730865951.133597,-1.9302725791931152,1.1401413679122925,-9.887577056884766,-0.2512450756131679,0.08588601324405558,0.06949858519387038,0.8871307373046875,0.9950931668281555,0.8878225088119507
1730865951.1835477,-1.8705997467041016,1.1601102352142334,-9.892549514770508,-0.23598471609568816,0.07126290618297891,0.06251439447765753,0.890952467918396,1.0017457008361816,0.8869541883468628
1730865951.233644,-1.852792739868164,1.1702474355697632,-9.919771194458008,-0.16028232317185226,0.03034403562894475,0.0335067870213422,0.8930442929267883,1.0075849294662476,0.8864417672157288
1730865951.2836158,-1.850260853767395,1.1229956150054932,-9.914119720458984,-0.058687862636439825,-0.016298744175204338,-0.005888440542524822,0.8962143659591675,1.014159083366394,0.8873611688613892
1730865951.3335752,-1.8229795694351196,1.0839333534240723,-9.910886764526367,0.03326047103654393,-0.05041809158684932,-0.04143024744507333,0.8984599709510803,1.0197372436523438,0.8872018456459045
1730865951.3836124,-1.7985893487930298,1.0479875802993774,-9.888747215270996,0.09199387848377667,-0.061378271261283826,-0.06222162567543933,0.9030963778495789,1.0242592096328735,0.8875957131385803
1730865951.4335694,-1.7535266876220703,0.9978740811347961,-9.872357368469238,0.11163651099757997,-0.04815807322967432,-0.06393995880022457,0.9093341827392578,1.0334150791168213,0.8876041769981384
1730865951.4836032,-1.7225205898284912,0.9698752164840698,-9.863229751586914,0.10086640645866102,-0.017996564091995584,-0.04906504356163723,0.9136945009231567,1.0396137237548828,0.8873195648193359
1730865951.533507,-1.668954610824585,0.9353963732719421,-9.8529052734375,0.0749085661233713,0.017436122490234022,-0.024914128692516906,0.9182589650154114,1.0457895994186401,0.886943519115448
1730865951.583536,-1.6359572410583496,0.9215210676193237,-9.852986335754395,0.04881011654066933,0.04738272436072426,-0.000102893538398997,0.9229900240898132,1.052062749862671,0.8865352272987366
1730865951.6334298,-1.6144894361495972,0.9229671359062195,-9.850465774536133,0.033983875996506124,0.0663958201976948,0.01893872392244912,0.9135007858276367,1.0451464653015137,0.8876392245292664
1730865951.6834772,-1.6067534685134888,0.9610587358474731,-9.857247352600098,0.035587519289715465,0.07425673766930643,0.029401218215258783,0.91539067029953,1.0490714311599731,0.887651264667511
1730865951.7344527,-1.5976148843765259,1.0084751844406128,-9.867647171020508,0.050060866178709106,0.0718143949703179,0.03129003321127588,0.9151296615600586,1.0576660633087158,0.8878050446510315
1730865951.7843916,-1.6114647388458252,1.0301212072372437,-9.874835968017578,0.066699362737586,0.058439486260745604,0.026054725221481397,0.9168614745140076,1.0637344121932983,0.8879297375679016
1730865951.8344188,-1.5975745916366577,1.018343448638916,-9.889068603515625,0.07441121492713607,0.03485611076658396,0.016027298180558352,0.9187747240066528,1.0699365139007568,0.8881074786186218
1730865951.8845086,-1.6075562238693237,0.9683912396430969,-9.893061637878418,0.06802075535375915,0.0067322142539315896,0.004069544106038193,0.9161707162857056,1.0697813034057617,0.8879712820053101
1730865951.934418,-1.626556634902954,0.905511736869812,-9.897462844848633,0.04948630899329233,-0.016566019398707717,-0.007181583120903005,0.917213499546051,1.0739647150039673,0.888035774230957
1730865951.9844997,-1.6508206129074097,0.8503293991088867,-9.890620231628418,0.024910872655417773,-0.02637209833653458,-0.01566927762152914,0.9182909727096558,1.084378957748413,0.8880448937416077
1730865952.034278,-1.668717384338379,0.7852784395217896,-9.882685661315918,0.0006490293313062686,-0.018448407521023273,-0.019857419194260602,0.9195272326469421,1.0907281637191772,0.8880361914634705
1730865952.0843859,-1.666137456893921,0.7490000128746033,-9.847501754760742,-0.01874599018944999,0.005146275476064989,-0.018906338630066917,0.9204748868942261,1.0946624279022217,0.8879832625389099
1730865952.134316,-1.6244356632232666,0.7482098340988159,-9.854060173034668,-0.03045978346553583,0.03659776828112801,-0.012973153357113125,0.9216035604476929,1.1004269123077393,0.8879107236862183
1730865952.1843207,-1.5937052965164185,0.7874472141265869,-9.882034301757812,-0.032623399431561007,0.06488289523879555,-0.003877991399656223,0.9226556420326233,1.1063305139541626,0.8878169059753418
1730865952.2342668,-1.5707736015319824,0.8576775789260864,-9.910017013549805,-0.024027339356474546,0.07896436820497235,0.004324316870211569,0.9185583591461182,1.1057385206222534,0.8879697322845459
1730865952.2842512,-1.587791085243225,0.9232023358345032,-9.935588836669922,-0.005469549789979695,0.0715808189664629,0.006832605684837975,0.9170442223548889,1.1153380870819092,0.8879954218864441
1730865952.3342435,-1.5839658975601196,0.9715844392776489,-9.951668739318848,0.017988986882484966,0.043079349374986656,0.001445806473073413,0.9166017770767212,1.1213266849517822,0.8880106806755066
1730865952.3842833,-1.6285433769226074,0.9795622229576111,-9.949352264404297,0.037628099121364306,0.0021782517770174026,-0.009587229759340166,0.9137110710144043,1.1261699199676514,0.8878597021102905
1730865952.4342704,-1.6731714010238647,0.9589577913284302,-9.931402206420898,0.04550833502736727,-0.03800362898544781,-0.021106335182400564,0.9125922918319702,1.1319715976715088,0.8877660036087036
1730865952.4843504,-1.7608195543289185,0.9085907340049744,-9.892904281616211,0.03807160023429244,-0.06521017648749713,-0.027795795998566235,0.9115747213363647,1.1376627683639526,0.8876106142997742
1730865952.5342863,-1.8198007345199585,0.8613375425338745,-9.845653533935547,0.01568464155281006,-0.07113593680610973,-0.02563893256247846,0.9111459255218506,1.1384526491165161,0.8877025246620178
1730865952.5842535,-1.8743910789489746,0.8098325729370117,-9.812735557556152,-0.01882775526556138,-0.05344124672996088,-0.012822448680519384,0.9103314876556396,1.1426622867584229,0.8875583410263062
1730865952.634168,-1.8814746141433716,0.8248398900032043,-9.78154468536377,-0.05893623575082365,-0.01761471944599574,0.008706942194921961,0.9091008305549622,1.1529213190078735,0.887736439704895
1730865952.6841817,-1.8178749084472656,0.9012826681137085,-9.799697875976562,-0.09346716073850464,0.02356876225061274,0.03284591586940793,0.9078799486160278,1.1592686176300049,0.8877570033073425
1730865952.7341259,-1.7743693590164185,0.9895063042640686,-9.821540832519531,-0.10990718617553137,0.053924705163739726,0.05140982195366183,0.9068958759307861,1.1629612445831299,0.8878574371337891
1730865952.7841399,-1.7426655292510986,1.0704177618026733,-9.879551887512207,-0.10016739920352005,0.05984570124874093,0.05721553851126121,0.905360996723175,1.168803334236145,0.8880739212036133
1730865952.834016,-1.7173658609390259,1.144403100013733,-9.899643898010254,-0.06564028737083841,0.03680765442856557,0.04692616543254137,0.9069978594779968,1.1754873991012573,0.8879538178443909
1730865952.884022,-1.7238008975982666,1.201750636100769,-9.902915954589844,-0.017790440597287266,-0.007964073986103236,0.022800016980606214,0.9062982797622681,1.1816073656082153,0.888176441192627
1730865952.9340377,-1.7645459175109863,1.1820310354232788,-9.86949348449707,0.027114193866904633,-0.059158280690394575,-0.007342441858242163,0.9080105423927307,1.18478524684906,0.8881546854972839
1730865952.9839852,-1.83077871799469,1.1543887853622437,-9.82955265045166,0.05479180261939899,-0.0997738337740268,-0.03249385220793236,0.9090161323547363,1.1931146383285522,0.888274073600769
1730865953.0339887,-1.8594506978988647,1.0799541473388672,-9.79504680633545,0.05799334581904092,-0.1168708452497624,-0.043380873151651164,0.9094892144203186,1.1986045837402344,0.8882689476013184
1730865953.0839276,-1.8404059410095215,1.018115758895874,-9.759230613708496,0.039099943234208664,-0.10506020995622214,-0.036889922818103354,0.9100822806358337,1.2038073539733887,0.8881638646125793
1730865953.1339393,-1.7897979021072388,0.9865586757659912,-9.764646530151367,0.008834521278351794,-0.0667008506202436,-0.016337455480705008,0.9107363820075989,1.2088065147399902,0.8879921436309814
1730865953.1840162,-1.698754072189331,1.0258070230484009,-9.786855697631836,-0.01837032664125337,-0.01013117279570221,0.011340024850134101,0.9098940491676331,1.207729458808899,0.8884198069572449
1730865953.2339149,-1.6195176839828491,1.096706748008728,-9.849236488342285,-0.02980899200360121,0.05142095637501061,0.037822447450410406,0.9100627303123474,1.211832880973816,0.8885058760643005
1730865953.2839737,-1.5690386295318604,1.1863417625427246,-9.894932746887207,-0.01941231838843427,0.10010048098455193,0.05416445861906875,0.9101706147193909,1.216151475906372,0.888708233833313
1730865953.3338645,-1.5596836805343628,1.2637195587158203,-9.941064834594727,0.010163071439973009,0.11700829054661104,0.05234574937455437,0.909127414226532,1.2210651636123657,0.8887573480606079
1730865953.384044,-1.5596836805343628,1.2637195587158203,-9.941064834594727,0.049609550329681014,0.0917657997966935,0.029361106364685592,0.9090762734413147,1.226413607597351,0.889043390750885
1730865953.384044,-1.59630286693573,1.3051685094833374,-9.960204124450684,0.08587964562969067,0.032095171249707545,-0.00846033542158989,0.9090763330459595,1.2264480590820312,0.8890454173088074
1730865953.4338489,-1.6284863948822021,1.3273265361785889,-9.94701862335205,0.10532402597744099,-0.038119532426762,-0.04682548578111911,0.9092177152633667,1.2317873239517212,0.8893064260482788
1730865953.4840422,-1.6553434133529663,1.316172480583191,-9.920696258544922,0.0990810049473637,-0.0935633760257622,-0.07153344860396989,0.9086520671844482,1.2353355884552002,0.8888612389564514
1730865953.5338588,-1.6599690914154053,1.2806527614593506,-9.860176086425781,0.06776711400517064,-0.12031871383671117,-0.07542694425841323,0.9112582206726074,1.2488799095153809,0.889037013053894
1730865953.583919,-1.6599690914154053,1.2806527614593506,-9.860176086425781,0.021929671743773672,-0.11706979805561964,-0.059447237411698745,0.9123772382736206,1.2555731534957886,0.8888559341430664
1730865953.583919,-1.6765570640563965,1.1801283359527588,-9.819402694702148,-0.022479759205915117,-0.09032348195095846,-0.03068078270873623,0.9123855829238892,1.2556207180023193,0.8888540863990784
1730865953.6338382,-1.6765570640563965,1.1801283359527588,-9.819402694702148,-0.05205609500836465,-0.04963142811618548,0.0009650870208255877,0.9141939878463745,1.259922981262207,0.8894040584564209
1730865953.6338382,-1.6720153093338013,1.0732054710388184,-9.787087440490723,-0.061700058766485266,-0.003982194884469988,0.027133198122704837,0.9141996502876282,1.2599507570266724,0.8894044756889343
1730865953.6838663,-1.6663193702697754,0.9791675806045532,-9.763050079345703,-0.05422291283745728,0.03996859223759487,0.04370301102276718,0.9152258038520813,1.2653515338897705,0.8895338773727417
1730865953.7339408,-1.6707918643951416,0.9239218235015869,-9.750232696533203,-0.03644148337312364,0.07913493025942224,0.050875821136698814,0.9161500930786133,1.2709616422653198,0.8897831439971924
1730865953.7837968,-1.6994575262069702,0.9047927856445312,-9.781537055969238,-0.015891317336521816,0.11476215870347937,0.05182723333817329,0.9167034029960632,1.2727725505828857,0.8897597193717957
1730865953.8338177,-1.7137017250061035,0.9450106620788574,-9.824131965637207,0.0009204962392353943,0.1486420337562695,0.049857862977691576,0.9175980687141418,1.278232455253601,0.8900682330131531
1730865953.8838098,-1.7199853658676147,1.0237822532653809,-9.900525093078613,0.009803998283753272,0.1751558559664855,0.04498587355042397,0.9193978905677795,1.2867010831832886,0.8900530934333801
1730865953.933771,-1.7121604681015015,1.109671950340271,-9.941783905029297,0.009984245533130846,0.17996013708618733,0.03368764887860672,0.9221242070198059,1.295644998550415,0.8902390003204346
1730865953.9838536,-1.7125602960586548,1.1412822008132935,-9.991416931152344,0.004089499398932581,0.15167079330404687,0.013479373235337851,0.9238373637199402,1.3032138347625732,0.8905367255210876
1730865954.033785,-1.7383090257644653,1.1559922695159912,-9.991555213928223,-0.003618068342600619,0.09402876105920581,-0.012804405503489508,0.9255418181419373,1.3110474348068237,0.8908337354660034
1730865954.0837812,-1.7700742483139038,1.0934906005859375,-9.966474533081055,-0.010086745342102604,0.02485274958695236,-0.038318029170686094,0.924159824848175,1.3090269565582275,0.8901261687278748
1730865954.1337168,-1.7931220531463623,1.0574482679367065,-9.924484252929688,-0.015041933103555023,-0.034330459461260454,-0.056133374199229064,0.924985945224762,1.3140232563018799,0.890021026134491
1730865954.1838078,-1.7931220531463623,1.0574482679367065,-9.924484252929688,-0.01962243989504894,-0.06781512959087935,-0.06127312743234009,0.9261791706085205,1.3233070373535156,0.8899163603782654
1730865954.1838078,-1.8051255941390991,0.9757516384124756,-9.861323356628418,-0.024062505101572103,-0.07043454158155092,-0.051695024678354615,0.9261837601661682,1.3233369588851929,0.8899154663085938
1730865954.233678,-1.8243852853775024,0.909440279006958,-9.807530403137207,-0.027358240086059443,-0.046728739805657754,-0.02903893726261687,0.9271585941314697,1.329888105392456,0.8896803259849548
1730865954.2837088,-1.831785798072815,0.8526820540428162,-9.77783489227295,-0.028715139746077173,-0.005750864242848472,0.002514669711164026,0.9284752607345581,1.3310822248458862,0.8899226188659668
1730865954.3335953,-1.7967559099197388,0.8678164482116699,-9.767488479614258,-0.02826018266983709,0.042838400764554294,0.03780131053670004,0.9294902682304382,1.3360235691070557,0.8899184465408325
1730865954.3836603,-1.7605763673782349,0.9291214346885681,-9.799591064453125,-0.025622186103701854,0.08724503365693838,0.06971323787749793,0.9312585592269897,1.3434134721755981,0.8900695443153381
1730865954.433618,-1.710945725440979,1.0032237768173218,-9.818702697753906,-0.01874622514138215,0.11268628492856228,0.08898968859395857,0.9323841333389282,1.349352240562439,0.8903666734695435
1730865954.4836576,-1.7012803554534912,1.053971767425537,-9.838756561279297,-0.005759895760754207,0.10783628224044259,0.08866277469461208,0.9345820546150208,2.0113816261291504,0.890240490436554
1730865954.5335536,-1.6881037950515747,1.0379717350006104,-9.849413871765137,0.01219053350990549,0.0727268391871716,0.06887710486306536,0.9360830783843994,2.230422258377075,0.8906567096710205
1730865954.5836434,-1.7113316059112549,0.9963055849075317,-9.854170799255371,0.030467484878777526,0.020467964418091407,0.03694460527887959,0.9361428618431091,2.7146689891815186,0.8902615904808044
1730865954.6335702,-1.745736837387085,0.9328804016113281,-9.85682487487793,0.04282740042867882,-0.028058707881002832,0.0035278807389169595,0.9374012351036072,3.0337600708007812,0.8904927372932434
1730865954.683587,-1.7479357719421387,0.8603179454803467,-9.831171989440918,0.0443237672320725,-0.05409629524765515,-0.021882365147212333,0.9387719631195068,3.353644371032715,0.8907015323638916
1730865954.733575,-1.7491909265518188,0.843873918056488,-9.839099884033203,0.033757079892575814,-0.04890952283897572,-0.03386515379791139,0.9371612668037415,3.181166172027588,0.8900999426841736
1730865954.7836032,-1.719849944114685,0.8954249024391174,-9.856204986572266,0.014521749687982984,-0.016010096943923635,-0.03206185773684672,0.9378857612609863,3.363901376724243,0.8900133371353149
1730865954.8335345,-1.69038987159729,1.013269066810608,-9.893735885620117,-0.006100594306618025,0.028974537866024993,-0.02107345173744346,0.9388167858123779,3.7469117641448975,0.8899685740470886
1730865954.8834958,-1.6407148838043213,1.1782209873199463,-9.94733715057373,-0.01944505429185369,0.062296795602197245,-0.008765414677185782,0.940981388092041,4.455397129058838,0.8899567723274231
1730865954.9335127,-1.5968351364135742,1.3148117065429688,-9.980710983276367,-0.01971249782498744,0.06384083132172415,-0.0025091815182767528,0.9424670934677124,4.943394660949707,0.8899002075195312
1730865954.9834745,-1.5788203477859497,1.3853707313537598,-9.986942291259766,-0.007009037067731925,0.02874853059214924,-0.0054036698995570225,0.9439179301261902,5.431013584136963,0.8898338675498962
1730865955.0333755,-1.59587824344635,1.345052719116211,-9.986001014709473,0.013564715672334979,-0.032090307714752915,-0.015508486461734933,0.9421256184577942,4.891749858856201,0.8899463415145874
1730865955.0834413,-1.6471034288406372,1.241713523864746,-9.92891788482666,0.03471023321871379,-0.09905326015141686,-0.027767172251119864,0.9428462386131287,5.114988803863525,0.8898570537567139
1730865955.1334794,-1.7504501342773438,1.1041513681411743,-9.85863208770752,0.048129000720193604,-0.14842293191100542,-0.035465535016378086,0.9436712861061096,5.338050365447998,0.8896883130073547
1730865955.1834555,-1.8304283618927002,0.9711137413978577,-9.74976921081543,0.044909482650732684,-0.15648813361209848,-0.03081415791295826,0.9445514678955078,5.327189922332764,0.889903724193573
1730865955.2333221,-1.9156988859176636,0.9128645658493042,-9.670672416687012,0.018925558949191203,-0.11014718384461489,-0.007784715743932522,0.9455628395080566,5.519521713256836,0.8897730708122253
1730865955.2834413,-1.9563443660736084,0.903839647769928,-9.61693286895752,-0.02709187865552856,-0.019439462123957887,0.03239480782357398,0.946572482585907,5.713352680206299,0.8896723985671997
1730865955.3332965,-1.9563443660736084,0.903839647769928,-9.61693286895752,-0.08041945799141949,0.08327312332616285,0.07958745408065998,0.9474396109580994,5.905479907989502,0.8897114992141724
1730865955.3332965,-1.9662718772888184,0.9583784937858582,-9.625625610351562,-0.12582666575445545,0.16168872027992529,0.12085938483624124,0.9474448561668396,5.90679407119751,0.8897124528884888
1730865955.3834836,-1.923431158065796,1.0500279664993286,-9.705564498901367,-0.15373345103362837,0.19395927319425807,0.14723679241385776,0.9480312466621399,5.801478862762451,0.8901339769363403
1730865955.4342368,-1.8367159366607666,1.1513241529464722,-9.823517799377441,-0.16119693336066823,0.17689091120617081,0.1541619867462496,0.9483937621116638,5.9547858238220215,0.89072585105896
1730865955.4842105,-1.7143102884292603,1.2665013074874878,-9.948857307434082,-0.14709558273626244,0.12053659032625683,0.13800388526388693,0.951602041721344,6.378145694732666,0.8904080986976624
1730865955.5342638,-1.5934988260269165,1.3747628927230835,-10.055098533630371,-0.1094187580776112,0.04146130320495421,0.09574213767741549,0.952521800994873,6.633088111877441,0.8910763263702393
1730865955.5842412,-1.4835880994796753,1.4298890829086304,-10.111140251159668,-0.04937167854324459,-0.04193935474764817,0.030584624114754905,0.9548522233963013,6.950163841247559,0.8903850317001343
1730865955.6342456,-1.443881630897522,1.4316983222961426,-10.103753089904785,0.023870014341614912,-0.11229826318616834,-0.04384962454025753,0.9561893939971924,7.231531143188477,0.8906165957450867
1730865955.6842623,-1.4952565431594849,1.3775787353515625,-10.049909591674805,0.09369696945208897,-0.15554878607170824,-0.10704130501693036,0.9575091600418091,6.8362627029418945,0.8876920938491821
1730865955.7341847,-1.6399167776107788,1.2702287435531616,-9.953142166137695,0.1404749342529003,-0.16291924721825793,-0.13963372884964517,0.9590304493904114,6.909165382385254,0.8867108821868896
1730865955.7842758,-1.8158236742019653,1.1555479764938354,-9.814238548278809,0.14767307020886913,-0.13284595321168907,-0.13101286478240953,0.9613067507743835,6.727619171142578,0.884200930595398
1730865955.8341494,-1.987913966178894,1.0372942686080933,-9.684324264526367,0.10796480862130169,-0.07183330538940562,-0.08280924933811994,0.96473628282547,6.682665824890137,0.8820619583129883
1730865955.8841746,-2.1046435832977295,0.9711049795150757,-9.589987754821777,0.02869636275803046,0.005867561219913876,-0.008318240860427976,0.9673946499824524,6.686334133148193,0.8802648186683655
1730865955.9341092,-2.1483964920043945,0.9394667744636536,-9.553539276123047,-0.06730148288217028,0.08051910922674992,0.07112580131277277,0.9699934720993042,6.690094470977783,0.8785536885261536
1730865955.9841945,-2.121264934539795,0.9565346837043762,-9.586009979248047,-0.15166544742077018,0.13389259642139578,0.1343676392629631,0.9723308682441711,6.694143295288086,0.8770915865898132
1730865956.0340698,-2.039263963699341,0.9619608521461487,-9.645097732543945,-0.20415291666616792,0.1571897436143126,0.16886474084924408,0.966844916343689,6.65413236618042,0.8802500367164612
1730865956.0840585,-1.9312196969985962,0.9948458671569824,-9.719782829284668,-0.2171382565134889,0.15229837737640153,0.17199602140453726,0.9670156836509705,6.653964519500732,0.8801766633987427
1730865956.1340225,-1.8107657432556152,1.0069457292556763,-9.799466133117676,-0.1910964241189392,0.12662139029913516,0.14665880058038622,0.9666768312454224,6.654145240783691,0.8805010914802551
1730865956.184022,-1.7375962734222412,1.0039891004562378,-9.883305549621582,-0.12988610793452887,0.08812881725856145,0.09737252577881195,0.9659369587898254,6.654594421386719,0.8811303973197937
1730865956.2339506,-1.6901278495788574,0.9899908900260925,-9.963652610778809,-0.04036893796394245,0.044472087823239755,0.029261221003435093,0.9705396890640259,6.6420512199401855,0.8789669275283813
1730865956.2840056,-1.6511867046356201,1.0167818069458008,-10.022025108337402,0.06463271859812629,0.003540290322853905,-0.05019988693828506,0.9713813066482544,6.640810966491699,0.8786548376083374
1730865956.3338845,-1.626352071762085,1.0566904544830322,-10.058816909790039,0.1634714893284738,-0.027977161419113317,-0.12759278980593042,0.9753941893577576,6.639791965484619,0.8767626881599426
1730865956.3839247,-1.6089198589324951,1.1275053024291992,-10.08283519744873,0.23018548406124692,-0.04724271700959891,-0.1844940512632218,0.9775971174240112,6.638918399810791,0.8755523562431335
1730865956.433835,-1.548673152923584,1.161179542541504,-10.08017635345459,0.24787958715695943,-0.056256282830500645,-0.20632427438611914,0.9808910489082336,6.6379289627075195,0.8739854097366333
1730865956.4838657,-1.5168516635894775,1.1840696334838867,-10.051786422729492,0.21857992257039371,-0.05974379662669587,-0.1902207099922812,0.9843107461929321,6.638289451599121,0.874163031578064
1730865956.533793,-1.4813148975372314,1.1318827867507935,-9.987784385681152,0.1601530226274205,-0.06087305046160589,-0.1446539352576597,0.9877828359603882,6.637753486633301,0.8728839755058289
1730865956.5838237,-1.4938756227493286,1.0512200593948364,-9.905617713928223,0.09529206343133215,-0.05784486767381226,-0.08338957268258942,0.9915894269943237,6.637066841125488,0.8713142275810242
1730865956.6337664,-1.5253958702087402,0.9455553293228149,-9.82075309753418,0.041704303793023215,-0.04439395815823426,-0.018590742497611293,0.9955490827560425,6.636255741119385,0.8696246147155762
1730865956.683823,-1.6069215536117554,0.8572342395782471,-9.72569751739502,0.007169558280422567,-0.013424068922669381,0.043628001060348115,0.9872214198112488,6.6379289627075195,0.8745145201683044
1730865956.7337284,-1.7038275003433228,0.803158164024353,-9.66273307800293,-0.01086118571293339,0.03760539008310365,0.10196632812274248,0.9886626601219177,6.63767147064209,0.8744484186172485
1730865956.7837372,-1.8090814352035522,0.8006678223609924,-9.635173797607422,-0.0217042114167691,0.1002084015138327,0.15292859386351593,0.9918039441108704,6.63770866394043,0.8752728700637817
1730865956.8336544,-1.8927173614501953,0.8072279691696167,-9.634767532348633,-0.035437820541413506,0.15467025384617566,0.18689250363467325,0.9960616827011108,6.639184951782227,0.877941370010376
1730865956.883653,-1.9440635442733765,0.8602471947669983,-9.668485641479492,-0.056563383712167736,0.18066388814673717,0.19358828031639852,0.9984353184700012,6.640186309814453,0.8795715570449829
1730865956.9336395,-1.9826576709747314,0.9154075980186462,-9.733817100524902,-0.08109482698777974,0.16843765994717044,0.16935883062017884,1.0006388425827026,6.641625881195068,0.8816581964492798
1730865956.9837236,-1.9989776611328125,0.9727869033813477,-9.810914993286133,-0.10090011202944049,0.12113475739588336,0.11849764873695862,1.002223014831543,6.6403913497924805,0.8810828924179077
1730865957.033659,-1.9968469142913818,1.0430967807769775,-9.891023635864258,-0.11048477870607143,0.05110530306442293,0.05073692717494025,1.0039490461349487,6.641290187835693,0.8825894594192505
1730865957.083661,-1.9078164100646973,1.1033395528793335,-9.982389450073242,-0.1078207498710307,-0.024539350786025156,-0.021183928573828906,1.0054107904434204,6.642226696014404,0.88414067029953
1730865957.1336153,-1.811535358428955,1.1505705118179321,-10.037453651428223,-0.09080183362062097,-0.0893374698156048,-0.08495702581601433,1.0064985752105713,6.640685558319092,0.8829643726348877
1730865957.1835968,-1.684177279472351,1.158101201057434,-10.068291664123535,-0.056879218093080434,-0.13310327875233885,-0.1328605262141999,1.0077422857284546,6.6406426429748535,0.883483350276947
1730865957.2335598,-1.607757568359375,1.1402833461761475,-10.083259582519531,-0.0070379505168504785,-0.15222132122376994,-0.16114314386437745,1.0089055299758911,6.640243053436279,0.8836346864700317
1730865957.2836456,-1.5794684886932373,1.0847864151000977,-10.054425239562988,0.05217457933755035,-0.14607661435240382,-0.16708216197963763,1.0101253986358643,6.63947057723999,0.883375883102417
1730865957.3335211,-1.6266781091690063,1.0333889722824097,-10.00820255279541,0.11157056068925522,-0.11640193229528584,-0.15042446843305365,1.0121541023254395,6.631289482116699,0.8843993544578552
1730865957.3835816,-1.7076492309570312,0.985153317451477,-9.948284149169922,0.16131268239213759,-0.06883765977773201,-0.11553374034875126,1.0162150859832764,6.623176574707031,0.8861646056175232
1730865957.4335127,-1.7534598112106323,0.9991579055786133,-9.872818946838379,0.18943373400244806,-0.013723513854128304,-0.06988052770464342,1.0189876556396484,6.619446754455566,0.8865128755569458
1730865957.4836228,-1.761965274810791,1.019677996635437,-9.80775260925293,0.18468015459766324,0.03491625578459703,-0.02122754815036357,1.022240400314331,6.615728855133057,0.8867483735084534
1730865957.5335631,-1.7332777976989746,1.0601274967193604,-9.740081787109375,0.14531088439933942,0.06376404186724331,0.02493893615233732,1.025890588760376,6.612151145935059,0.8869873285293579
1730865957.5835302,-1.7360866069793701,1.0578792095184326,-9.706241607666016,0.08305216244828492,0.06588440641514615,0.06716014919507447,1.0298397541046143,6.608722686767578,0.8873425722122192
1730865957.633568,-1.7078824043273926,1.0534155368804932,-9.675688743591309,0.01726434894151664,0.04332443121913861,0.10722313177036526,1.0210410356521606,6.607945442199707,0.88849276304245
1730865957.683474,-1.7233083248138428,1.0290294885635376,-9.678693771362305,-0.034283225901132315,0.005991062422266534,0.14588642581532585,1.0224556922912598,6.6049580574035645,0.8893942832946777
1730865957.733404,-1.7296462059020996,1.0342074632644653,-9.693284034729004,-0.06190192319103953,-0.03169619029650614,0.17714805280847312,1.0250869989395142,6.592525005340576,0.8911505341529846
1730865957.7834828,-1.7782323360443115,1.0552161931991577,-9.738544464111328,-0.06594317638516489,-0.05631333616352776,0.18845840248827087,1.0269043445587158,6.586142063140869,0.8929193019866943
1730865957.833414,-1.8271551132202148,1.1032934188842773,-9.756502151489258,-0.05474198049818249,-0.06193155236560616,0.16997544169350742,1.0285662412643433,6.579628944396973,0.8951305747032166
1730865957.8834038,-1.8970963954925537,1.1459044218063354,-9.80887222290039,-0.040572216341060494,-0.05298253895012289,0.12272252662507852,1.0301131010055542,6.572956085205078,0.8977134227752686
1730865957.933347,-1.9201931953430176,1.1988476514816284,-9.833016395568848,-0.035428614025351274,-0.040948683938203,0.057345191778970676,1.0285824537277222,6.577442169189453,0.8912317752838135
1730865957.983341,-1.93211030960083,1.2210768461227417,-9.855461120605469,-0.04614063125698503,-0.03714464154263504,-0.011733215279592212,1.02944016456604,6.573339939117432,0.8918518424034119
1730865958.0332818,-1.8952357769012451,1.1917591094970703,-9.863088607788086,-0.06920892778145354,-0.045183283757705854,-0.0700752628182921,1.0339750051498413,6.560542583465576,0.8906318545341492
1730865958.0833924,-1.8420480489730835,1.143674373626709,-9.883455276489258,-0.09107713935916095,-0.058360095257817435,-0.10599177881538424,1.0359097719192505,6.553061008453369,0.8905219435691833
1730865958.1332362,-1.7618697881698608,1.129366159439087,-9.8805570602417,-0.09644116859072797,-0.06502278089974155,-0.11457049165427438,1.037488341331482,6.544149875640869,0.8898773789405823
1730865958.1833367,-1.694387674331665,1.115341305732727,-9.905627250671387,-0.07725074623552458,-0.057027749643670994,-0.09965608663464899,1.0389747619628906,6.536132335662842,0.8893272876739502
1730865958.2332082,-1.6100733280181885,1.094612956047058,-9.931663513183594,-0.03592872329153364,-0.03454354467888057,-0.07145088712101569,1.0403271913528442,6.527968406677246,0.8885630369186401
1730865958.2832747,-1.5418109893798828,1.0807050466537476,-9.972339630126953,0.017751041204282048,-0.004784253988354668,-0.0422636701136815,1.041547179222107,6.5258660316467285,0.8894296288490295
1730865958.3331993,-1.499990701675415,1.0729589462280273,-10.015694618225098,0.07258523262921608,0.023189768760040468,-0.022471172534466483,1.044503927230835,6.511075019836426,0.8893473744392395
1730865958.383289,-1.4388550519943237,1.0682786703109741,-10.016959190368652,0.11822499939991077,0.04259202862267725,-0.016738013981910594,1.0466132164001465,6.502435207366943,0.8890736699104309
1730865958.4332135,-1.4234479665756226,1.0768064260482788,-10.036955833435059,0.1453664350207545,0.050091141880220624,-0.02224815679650493,1.0493435859680176,6.487605571746826,0.8891177773475647
1730865958.4831707,-1.4432932138442993,1.1116139888763428,-10.005428314208984,0.14912296298707792,0.045765612383278,-0.03134016817044844,1.052404522895813,6.475806713104248,0.8888309001922607
1730865958.5341525,-1.5085569620132446,1.1484904289245605,-9.962830543518066,0.1308629542568603,0.03210573862100853,-0.036104312987422726,1.0558668375015259,6.4639434814453125,0.8884535431861877
1730865958.5831633,-1.5824558734893799,1.1850098371505737,-9.87814998626709,0.09496075599414483,0.012057858029738562,-0.030664085479250015,1.051932454109192,6.4802937507629395,0.8889591693878174
1730865958.6341417,-1.7026240825653076,1.1562330722808838,-9.797066688537598,0.04610609748429642,-0.011554138539914844,-0.011891358875809149,1.053740382194519,6.475152969360352,0.8887293934822083
1730865958.6841717,-1.8434793949127197,1.0966352224349976,-9.701960563659668,-0.0103340165225931,-0.03369578429267442,0.019168163427827175,1.0555624961853027,6.47004508972168,0.8885124921798706
1730865958.7341104,-1.9647480249404907,1.0394996404647827,-9.635427474975586,-0.06938357480594742,-0.04559891453481793,0.05770069033486262,1.0572787523269653,6.464857578277588,0.8883920311927795
1730865958.7841659,-2.0362460613250732,0.9632866978645325,-9.589738845825195,-0.12986779689618858,-0.03805167652430167,0.09907816365338198,1.053490400314331,6.472315311431885,0.8890787363052368
1730865958.8331368,-2.0580220222473145,0.9396564364433289,-9.595098495483398,-0.1922535786838477,-0.007572503375584545,0.14004921206765356,1.0537669658660889,6.468879699707031,0.8894598484039307
1730865958.8841126,-2.0260348320007324,0.9472898840904236,-9.640368461608887,-0.2484177472013564,0.03851579614690808,0.17338049770082506,1.05518639087677,6.461541652679443,0.8893458843231201
1730865958.9341154,-1.9630955457687378,1.0134309530258179,-9.721592903137207,-0.2784534481594573,0.08285315722232077,0.1856500162152006,1.054976463317871,6.457324981689453,0.8901365995407104
1730865958.984118,-1.895137906074524,1.0919886827468872,-9.815616607666016,-0.2638597441311125,0.10635446382549701,0.1652490720141108,1.0567842721939087,6.44841194152832,0.8894653916358948
1730865959.0339692,-1.8222602605819702,1.1473636627197266,-9.905097961425781,-0.20206287579169863,0.09777596806544757,0.1114163809646928,1.0564509630203247,6.443130970001221,0.8902499079704285
1730865959.0840662,-1.7455374002456665,1.1361726522445679,-9.956357955932617,-0.10816820203892813,0.05907433414719591,0.035638669738544786,1.05977201461792,6.4366888999938965,0.8891018629074097
1730865959.1339521,-1.700907826423645,1.1482601165771484,-10.000899314880371,-0.006800752991731419,0.004743106939276275,-0.04316908673828127,1.0605688095092773,6.4304351806640625,0.8892812728881836
1730865959.1839936,-1.7207727432250977,1.1174755096435547,-10.020934104919434,0.07786756451089612,-0.04545486068802521,-0.1060316546035272,1.061463475227356,6.424067974090576,0.8892745971679688
1730865959.233999,-1.7523990869522095,1.134559988975525,-9.988039016723633,0.12900137260535582,-0.07580001396856231,-0.14047680536601592,1.0616041421890259,6.424612522125244,0.8898638486862183
1730865959.2839696,-1.8286563158035278,1.1376848220825195,-9.950651168823242,0.1403812654939635,-0.08038318741241487,-0.14355122580184876,1.0627177953720093,6.419727802276611,0.8895703554153442
1730865959.3339097,-1.8731988668441772,1.1633003950119019,-9.883402824401855,0.11596633966169813,-0.06374686680962852,-0.11997549968262852,1.0641106367111206,6.410329818725586,0.8912748098373413
1730865959.3839538,-1.87714421749115,1.2097761631011963,-9.829784393310547,0.06683519071314617,-0.03721756887967422,-0.07795829347641547,1.0653979778289795,6.400925636291504,0.8926624655723572
1730865959.43391,-1.8527741432189941,1.2444229125976562,-9.779115676879883,0.00894522958139998,-0.013200451762393477,-0.027300722839361177,1.0666354894638062,6.394516468048096,0.8929803371429443
1730865959.483997,-1.7791498899459839,1.2536530494689941,-9.761033058166504,-0.039329077887444566,-0.00012232167901313857,0.02113078780391342,1.0678600072860718,6.38795804977417,0.8932976722717285
1730865959.5338774,-1.7433054447174072,1.2289862632751465,-9.7857084274292,-0.06254764910523156,-2.9162726154020055e-05,0.05804977920675104,1.0667924880981445,6.377411365509033,0.8944473266601562
1730865959.583923,-1.7001326084136963,1.2023404836654663,-9.813427925109863,-0.05421094570281601,-0.009139326567732,0.07841131539680637,1.0672647953033447,6.369736194610596,0.8951796889305115
1730865959.6338441,-1.658395528793335,1.1724835634231567,-9.855494499206543,-0.019748711228659486,-0.02002691666951408,0.08084702524504553,1.0686324834823608,6.353819370269775,0.896213710308075
1730865959.6838272,-1.658395528793335,1.1724835634231567,-9.855494499206543,0.02599501001182646,-0.02503431769705002,0.0664219924645272,1.069989562034607,6.336935997009277,0.897671639919281
1730865959.6838272,-1.589672565460205,1.1396898031234741,-9.88569164276123,0.06610769825674538,-0.020395298978221232,0.039641069844423865,1.069997787475586,6.336838722229004,0.8976812362670898
1730865959.733828,-1.5081108808517456,1.1046420335769653,-9.922158241271973,0.08971865220867689,-0.0076279525640191035,0.00841944720997508,1.071113109588623,6.3250203132629395,0.8988541960716248
1730865959.7838185,-1.4295170307159424,1.1049782037734985,-9.95274543762207,0.09713678784852789,0.009326428321703401,-0.019841450934892355,1.0724709033966064,6.313111305236816,0.9000219702720642
1730865959.833836,-1.4276865720748901,1.1359474658966064,-9.951932907104492,0.09861562536431187,0.027006305799871247,-0.041989451495217746,1.0740705728530884,6.30127477645874,0.9011097550392151
1730865959.8838398,-1.4848183393478394,1.1582427024841309,-9.916403770446777,0.10627978289069483,0.04238240828312317,-0.05853189096415523,1.0715386867523193,6.316041469573975,0.8986865878105164
1730865959.9337692,-1.5948827266693115,1.1681678295135498,-9.850994110107422,0.12390977703791281,0.052113444191054945,-0.0698823350385125,1.0730870962142944,6.301992416381836,0.8995034098625183
1730865959.9839382,-1.7093874216079712,1.1369863748550415,-9.79179573059082,0.1413849662373882,0.05354795491016086,-0.07325736054817891,1.0744831562042236,6.293586730957031,0.8997673392295837
1730865960.0338023,-1.8193243741989136,1.1080282926559448,-9.737626075744629,0.13988304182173866,0.04698713605354639,-0.06379894289702033,1.075264811515808,6.282149314880371,0.9007421731948853
1730865960.083812,-1.884267807006836,1.1029753684997559,-9.714607238769531,0.10581475564598723,0.03641260171541887,-0.03940984336574283,1.0768356323242188,6.273247718811035,0.9010459184646606
1730865960.1337838,-1.9105286598205566,1.1115912199020386,-9.716594696044922,0.042006815240513154,0.026637589801770133,-0.004634453653800793,1.0785846710205078,6.264461517333984,0.9012933969497681
1730865960.1837988,-1.9257912635803223,1.116139531135559,-9.744019508361816,-0.0333182984111524,0.019731036169468485,0.030167521291512747,1.076786756515503,6.258553981781006,0.9020532965660095
1730865960.2337227,-1.9447674751281738,1.1083884239196777,-9.78177261352539,-0.09788558147759888,0.014877935963071236,0.053891215840958934,1.0774588584899902,6.249842166900635,0.9026201367378235
1730865960.28374,-1.942165493965149,1.0875669717788696,-9.824285507202148,-0.13596767787858732,0.010875096672634688,0.05960151061731765,1.0779597759246826,6.2394304275512695,0.9018609523773193
1730865960.3336928,-1.9253342151641846,1.0885087251663208,-9.844911575317383,-0.14196055068793367,0.00775709642574323,0.046444800520318505,1.0782383680343628,6.229628562927246,0.9021934270858765
1730865960.383695,-1.8715403079986572,1.0781447887420654,-9.8873929977417,-0.11943138440114873,0.00617453611441839,0.019533534646828457,1.0781911611557007,6.2198028564453125,0.9026097655296326
1730865960.4336674,-1.8378441333770752,1.0401469469070435,-9.917705535888672,-0.07761197035681458,0.006334683702524857,-0.01242282258306221,1.0778988599777222,6.2100443840026855,0.9030328392982483
1730865960.48365,-1.7672381401062012,1.032460331916809,-9.951805114746094,-0.026635897488923012,0.008439022379760413,-0.0418507214191169,1.0798739194869995,6.219799518585205,0.8997608423233032
1730865960.5337403,-1.7021394968032837,1.0370874404907227,-9.975760459899902,0.02527291059935831,0.01298753102922811,-0.06511884124106837,1.0801937580108643,6.214169502258301,0.8993273377418518
1730865960.5838394,-1.65043306350708,1.073177456855774,-10.0149564743042,0.07128102728599701,0.019040247457489695,-0.08078530455775745,1.0833369493484497,5.637614727020264,0.8972374200820923
1730865960.6337297,-1.6014059782028198,1.14634108543396,-10.020565032958984,0.10512485541833244,0.02279602012019374,-0.08739892127296295,1.0848314762115479,5.4515533447265625,0.8960892558097839
1730865960.6836996,-1.5850491523742676,1.22859787940979,-9.987622261047363,0.12253944408034159,0.01890904873426681,-0.08387506164677958,1.086768627166748,5.091009140014648,0.8950028419494629
1730865960.733647,-1.6096011400222778,1.2526041269302368,-9.945744514465332,0.12267363843146815,0.003662128385359017,-0.07026954760250714,1.0887691974639893,4.858843803405762,0.8936578035354614
1730865960.7837098,-1.665219783782959,1.2559261322021484,-9.857342720031738,0.10717852245600365,-0.021305643496907927,-0.0476428283219485,1.0910539627075195,4.627018928527832,0.8921674489974976
1730865960.8336103,-1.7471556663513184,1.2027697563171387,-9.769553184509277,0.07809383328419063,-0.04773672761640667,-0.01709203306886855,1.093562364578247,4.395796775817871,0.8906009793281555
1730865960.8836133,-1.8258168697357178,1.1118991374969482,-9.667461395263672,0.03668400392100433,-0.06443532714548998,0.021814569546140725,1.0891629457473755,4.633890151977539,0.8931726217269897
1730865960.9335773,-1.8815194368362427,1.0185134410858154,-9.608986854553223,-0.015006832815642695,-0.06256769566060222,0.06964919330966879,1.090284824371338,4.480660438537598,0.8925785422325134
1730865960.9835758,-1.8815194368362427,1.0185134410858154,-9.608986854553223,-0.06999335733909468,-0.03950923656244672,0.12097149691368991,1.0911977291107178,4.230291366577148,0.8918339610099792
1730865960.9835758,-1.8734042644500732,0.954424262046814,-9.58102798461914,-0.11514474106609449,-0.0006585359491988654,0.16187207706278806,1.091201663017273,4.229522228240967,0.8918322920799255
1730865961.033538,-1.8734042644500732,0.954424262046814,-9.58102798461914,-0.13722723849520183,0.04256356339117845,0.1780403360395375,1.0918883085250854,4.062880516052246,0.8916910886764526
1730865961.033538,-1.824157476425171,0.9195178747177124,-9.613903045654297,-0.13040113363330555,0.07825573365675062,0.16456802431504783,1.0918909311294556,4.062033176422119,0.8916915059089661
1730865961.0836797,-1.824157476425171,0.9195178747177124,-9.613903045654297,-0.0982623531452754,0.09957542156100554,0.12752844763689197,1.0922867059707642,3.8946850299835205,0.8919317126274109
1730865961.0836797,-1.7324042320251465,0.9404146075248718,-9.695297241210938,-0.050557796730383076,0.10657471217800372,0.07883414051917122,1.0922882556915283,3.893754243850708,0.8919339179992676
1730865961.133535,-1.6441199779510498,0.9858413338661194,-9.814929962158203,0.0025939121412272715,0.10342166914241949,0.029140870624777413,1.0938541889190674,3.7482357025146484,0.8920394778251648
1730865961.1836119,-1.5686087608337402,1.074684739112854,-9.920032501220703,0.054582502812313444,0.09365204506717811,-0.016806591105973545,1.0947896242141724,3.586732864379883,0.8920817375183105
1730865961.2334654,-1.542607307434082,1.151999592781067,-10.003628730773926,0.10039540311021172,0.07674983575076003,-0.05859672154811575,1.0964211225509644,3.2377097606658936,0.8917720913887024
1730865961.283573,-1.5542049407958984,1.2301385402679443,-10.041191101074219,0.1331834362173605,0.04910753584189751,-0.09524893065441739,1.0980061292648315,3.0070230960845947,0.8914289474487305
1730865961.3333614,-1.6225168704986572,1.2406723499298096,-10.066964149475098,0.14527785783497854,0.009853072313876202,-0.12280141310288116,1.0999233722686768,2.778317451477051,0.8908182382583618
1730865961.3834236,-1.7253564596176147,1.2138913869857788,-10.027120590209961,0.13127258711607165,-0.03479694429168894,-0.13579661222479253,1.1022086143493652,2.5470969676971436,0.8898760080337524
1730865961.4334004,-1.8377536535263062,1.1672279834747314,-9.96264362335205,0.08953514104918542,-0.07398505728619176,-0.13081083850404585,1.0986331701278687,2.825113534927368,0.8912863731384277
1730865961.4834306,-1.8791604042053223,1.118408203125,-9.90227222442627,0.023871948592053126,-0.0975368688317928,-0.10839416232209562,1.0997198820114136,2.6997368335723877,0.890592098236084
1730865961.5334456,-1.8703622817993164,1.049418330192566,-9.87574577331543,-0.05280359169642864,-0.09901220209424495,-0.07234442655696668,1.1006487607955933,2.336240768432617,0.8910192251205444
1730865961.5833516,-1.7904411554336548,0.9940613508224487,-9.860814094543457,-0.11854583481590196,-0.07705959995225886,-0.028940367661184765,1.1027014255523682,1.830640435218811,0.8909180760383606
1730865961.6333067,-1.6464136838912964,0.9628157019615173,-9.86606502532959,-0.15123884341026791,-0.036988378862825314,0.013162178551685187,1.1037187576293945,1.5064119100570679,0.890580415725708
1730865961.683353,-1.5627888441085815,0.9482263922691345,-9.848698616027832,-0.13884994809796897,0.009457630581807484,0.044524793819602546,1.1043760776519775,1.18125319480896,0.8903140425682068
1730865961.7333167,-1.562458872795105,0.9341247081756592,-9.841981887817383,-0.08312677045747574,0.04899610695116857,0.058958430171944125,1.104755163192749,0.8563153147697449,0.890177309513092
1730865961.783527,-1.5797141790390015,0.9555282592773438,-9.840194702148438,0.0022045244635902107,0.07318036837951525,0.056761724805739405,1.1030406951904297,1.3865917921066284,0.8927697539329529
1730865961.8334281,-1.656130313873291,1.0449622869491577,-9.828990936279297,0.09486179198332369,0.08001320107279053,0.04376649203434355,1.1033992767333984,1.2244818210601807,0.8932845592498779
1730865961.883437,-1.7408385276794434,1.130565881729126,-9.812065124511719,0.16736720762877969,0.07007897022011114,0.027568303516208967,1.1040832996368408,1.063162922859192,0.8938864469528198
1730865961.933372,-1.8037424087524414,1.1793253421783447,-9.80042552947998,0.19373530567550962,0.04288988777594975,0.014413070209892992,1.1052165031433105,0.9020246863365173,0.8945403695106506
1730865961.9834905,-1.8700915575027466,1.1633671522140503,-9.820185661315918,0.1605609519391173,-0.0017870998916428554,0.007876134087367894,1.1033903360366821,1.526511311531067,0.8945470452308655
1730865962.0333447,-1.9134926795959473,1.100498914718628,-9.80792236328125,0.07511568917445632,-0.058558944687511966,0.008378640576593488,1.104213833808899,1.4991533756256104,0.8950157165527344
1730865962.083408,-1.9817607402801514,0.9967160820960999,-9.799867630004883,-0.035465852455323,-0.11167981437478998,0.013480247442260881,1.1035476922988892,1.597153902053833,0.8960987329483032
1730865962.1332574,-2.009242534637451,0.8998187184333801,-9.762540817260742,-0.13504567971381382,-0.13863076789667514,0.019664635044451484,1.1036434173583984,1.5895856618881226,0.8968266248703003
1730865962.1833553,-2.009242534637451,0.8998187184333801,-9.762540817260742,-0.194922532592964,-0.12411511009940741,0.024585002158695156,1.1033596992492676,1.6217600107192993,0.8977148532867432
1730865962.1833553,-2.0146119594573975,0.8520634174346924,-9.732019424438477,-0.2045731093837141,-0.07169019300723668,0.027797176240113197,1.1033565998077393,1.621742606163025,0.8977211713790894
1730865962.2332752,-1.9653370380401611,0.8578269481658936,-9.763777732849121,-0.1712289418595314,-0.001349708054252944,0.029671859058236598,1.1033499240875244,1.6307989358901978,0.8992840647697449
1730865962.2832632,-1.8760980367660522,0.9307280778884888,-9.811843872070312,-0.11216321237554194,0.06194706457174174,0.029757818257178634,1.1027792692184448,1.6304272413253784,0.900337278842926
1730865962.3331802,-1.7786275148391724,1.0387083292007446,-9.875558853149414,-0.04512457628955286,0.09788012400436577,0.02582762976785466,1.1020114421844482,1.6302531957626343,0.9014626741409302
1730865962.3832405,-1.7020138502120972,1.1243410110473633,-9.926508903503418,0.0186425066003151,0.09474744627730963,0.014214818534521662,1.1012071371078491,1.6303197145462036,0.9026432633399963
1730865962.4332123,-1.6601722240447998,1.1989141702651978,-9.964488983154297,0.07627360525851376,0.05036960280232977,-0.008535719791095114,1.1035823822021484,1.6342734098434448,0.8989770412445068
1730865962.4832904,-1.6342209577560425,1.2611186504364014,-9.975395202636719,0.12868828070662372,-0.026708843776664624,-0.042480132849894554,1.1038450002670288,1.6344923973083496,0.899087131023407
1730865962.5331616,-1.622498869895935,1.2675787210464478,-9.962905883789062,0.17204739937046157,-0.11567593510733645,-0.08044553999785695,1.1046035289764404,1.63510000705719,0.898481547832489
1730865962.5832772,-1.639206886291504,1.2061913013458252,-9.937066078186035,0.19539208879459208,-0.18761963755445618,-0.10880286531835348,1.1055294275283813,1.6347384452819824,0.8981591463088989
1730865962.6331246,-1.6860491037368774,1.1449236869812012,-9.880510330200195,0.18873387270936318,-0.21755864930241714,-0.11509945682459269,1.1069276332855225,1.6338762044906616,0.8975605368614197
1730865962.6834114,-1.7109571695327759,1.0855287313461304,-9.83228588104248,0.15112668966702986,-0.19495612484249059,-0.09489824423880477,1.1055787801742554,1.635362148284912,0.8981228470802307
1730865962.7330935,-1.709753394126892,1.0741137266159058,-9.788422584533691,0.09152237837562638,-0.12675163177253088,-0.0525770491318852,1.1065813302993774,1.6345947980880737,0.897650420665741
1730865962.7832174,-1.6724727153778076,1.0828081369400024,-9.795247077941895,0.025938087924334878,-0.035342826059233404,0.0005281928763369928,1.1058510541915894,2.1700079441070557,0.8999976515769958
1730865962.8330767,-1.6206578016281128,1.0981696844100952,-9.837224006652832,-0.02728398688331437,0.04912269709650925,0.04909566248932357,1.1063343286514282,2.343017339706421,0.9005118012428284
1730865962.8830912,-1.5427521467208862,1.13316011428833,-9.84755802154541,-0.0541265946918107,0.10166792730114718,0.07892768779321825,1.1059633493423462,2.701982021331787,0.9020521640777588
1730865962.933006,-1.5629488229751587,1.1618047952651978,-9.863628387451172,-0.05025812890860223,0.11226298588001223,0.08244661992386929,1.1060484647750854,2.9264917373657227,0.9031091928482056
1730865962.9830446,-1.629149079322815,1.215698003768921,-9.845447540283203,-0.02334081791388725,0.08648896742646997,0.061955621020048576,1.1060417890548706,3.1517724990844727,0.9043493270874023
1730865963.0340078,-1.6967530250549316,1.2590280771255493,-9.838217735290527,0.008775807030244696,0.03910762867311135,0.028475546914690675,1.1060163974761963,3.3843679428100586,0.9057468175888062
1730865963.084012,-1.7413307428359985,1.2730633020401,-9.82457160949707,0.025746874218713113,-0.01440772196093901,-0.003937497006231064,1.1062637567520142,3.128819465637207,0.9018869400024414
1730865963.1339903,-1.7646113634109497,1.2583575248718262,-9.81188678741455,0.015334279752645648,-0.06245589984074009,-0.02459005604196423,1.1064538955688477,3.26379132270813,0.9020653963088989
1730865963.1839724,-1.7786732912063599,1.2127102613449097,-9.802888870239258,-0.019380159641097225,-0.09591337271994525,-0.02952699428473415,1.107008934020996,3.556823253631592,0.9013532996177673
1730865963.233917,-1.8130278587341309,1.14822256565094,-9.807696342468262,-0.062030186773255204,-0.10667460318533581,-0.021300926865950497,1.1071821451187134,3.744702100753784,0.9012555480003357
1730865963.2838762,-1.809478998184204,1.100132703781128,-9.810400009155273,-0.09408752739783238,-0.09085141130736095,-0.006489875764743636,1.107160210609436,3.9299211502075195,0.9011245965957642
1730865963.333905,-1.797210454940796,1.1131501197814941,-9.829365730285645,-0.10522865499518877,-0.05212833721513932,0.007446605508214953,1.107837200164795,3.9680299758911133,0.9010884165763855
1730865963.383851,-1.7991148233413696,1.125964879989624,-9.836786270141602,-0.09551458197296178,-0.001169764333141473,0.014977410888915438,1.1076551675796509,4.106769561767578,0.901073157787323
1730865963.4338167,-1.7826963663101196,1.1695894002914429,-9.845488548278809,-0.07169634487763378,0.04686925110748889,0.014249002576840279,1.1089081764221191,4.450074195861816,0.9009853601455688
1730865963.4838102,-1.7767739295959473,1.2048052549362183,-9.856528282165527,-0.042469538854822284,0.07664426061177226,0.007049035449228125,1.1090072393417358,4.66507625579834,0.9009895920753479
1730865963.5337822,-1.8129676580429077,1.1983704566955566,-9.851751327514648,-0.01548365163170775,0.07946964287071004,-0.0028493038372960477,1.109843134880066,4.9265546798706055,0.9008690118789673
1730865963.5838563,-1.865580439567566,1.1427628993988037,-9.82577133178711,0.0034714752758407182,0.05814354719499193,-0.011503381272122297,1.1101353168487549,5.1533122062683105,0.9008123278617859
1730865963.633715,-1.881205439567566,1.0834192037582397,-9.824111938476562,0.010661550391275046,0.025774462164570522,-0.015737167598225126,1.1104692220687866,5.3977437019348145,0.9007150530815125
1730865963.68373,-1.863053321838379,1.0553536415100098,-9.826824188232422,0.005220619976037372,-0.00022570371613663768,-0.013765110649147993,1.1108402013778687,5.285557746887207,0.9008505344390869
1730865963.7337158,-1.8265241384506226,1.0528087615966797,-9.850543975830078,-0.00966464844313494,-0.006711866020047713,-0.0061615231872139565,1.111145257949829,5.43690299987793,0.9007823467254639
1730865963.7837036,-1.7715882062911987,1.0776413679122925,-9.877630233764648,-0.02626131753704993,0.00747483358093011,0.0034879598172117433,1.1113779544830322,5.572957515716553,0.9007172584533691
1730865963.8336518,-1.7354477643966675,1.0973707437515259,-9.941924095153809,-0.03421209636950845,0.030930526010904267,0.009345767007040349,1.1117833852767944,5.720175266265869,0.9007566571235657
1730865963.8837056,-1.689695954322815,1.1317925453186035,-9.966397285461426,-0.025674814192129213,0.04807417229263361,0.006007471642311268,1.1119866371154785,5.882427215576172,0.9007434248924255
1730865963.9335935,-1.6389662027359009,1.1293141841888428,-9.971222877502441,-0.0005730638534035288,0.049028208898911206,-0.007598200877972343,1.1121556758880615,6.0435872077941895,0.9007283449172974
1730865963.9836588,-1.6623183488845825,1.1505361795425415,-9.938908576965332,0.033334546170988834,0.0333629945228444,-0.026427646359540327,1.112699270248413,6.1331000328063965,0.9024646878242493
1730865964.0335605,-1.685981035232544,1.114296793937683,-9.907242774963379,0.06523332336857074,0.00786704821532925,-0.042118511353525595,1.1131609678268433,6.286777019500732,0.90274977684021
1730865964.0836053,-1.7127622365951538,1.098321795463562,-9.828071594238281,0.08514138290850799,-0.01723045980079284,-0.047236716377402954,1.113464117050171,6.05037784576416,0.902375340461731
1730865964.1335196,-1.7381293773651123,1.0863145589828491,-9.812661170959473,0.08615454276688128,-0.03209768623686031,-0.03786819169639103,1.1141711473464966,6.0850653648376465,0.9022697806358337
1730865964.1835907,-1.7394286394119263,1.1070185899734497,-9.751754760742188,0.06749911003963802,-0.03199524891771241,-0.01539342829172146,1.1141761541366577,5.984306812286377,0.904438853263855
1730865964.2335656,-1.7783422470092773,1.099996566772461,-9.74980354309082,0.03562749516206387,-0.019789932520892367,0.013444671089401781,1.1148320436477661,5.9887776374816895,0.9050688743591309
1730865964.2834716,-1.775434136390686,1.1180026531219482,-9.734968185424805,0.0007087228710305031,-0.0031651656614437845,0.039550263504877815,1.1155319213867188,5.993210792541504,0.9057636857032776
1730865964.3334875,-1.775434136390686,1.1180026531219482,-9.734968185424805,-0.02834878253802084,0.010392346523731211,0.05547331760296805,1.114596962928772,5.948486804962158,0.9082655906677246
1730865964.3334875,-1.7961090803146362,1.0978853702545166,-9.74190616607666,-0.046601997934158056,0.016733147259537617,0.05817214115976785,1.1145987510681152,5.948473930358887,0.9082745313644409
1730865964.3834748,-1.8024729490280151,1.096219539642334,-9.761283874511719,-0.05320786040922389,0.015968945079632015,0.04922648461128874,1.114740014076233,5.9469733238220215,0.9093964695930481
1730865964.4334664,-1.8615046739578247,1.0873790979385376,-9.789366722106934,-0.05067549885123064,0.011557306721009577,0.032561848537321164,1.1151056289672852,5.928383827209473,0.912209689617157
1730865964.4834557,-1.8906596899032593,1.113863468170166,-9.796687126159668,-0.043948346918365355,0.007562733254002907,0.012304090210218726,1.1151877641677856,5.924132823944092,0.9137622714042664
1730865964.533443,-1.8843986988067627,1.1354656219482422,-9.818350791931152,-0.0380438813259171,0.005543742405958873,-0.007572846250971618,1.1151670217514038,5.919912338256836,0.915315568447113
1730865964.5834439,-1.8520234823226929,1.1645499467849731,-9.829914093017578,-0.03495649642323343,0.00346191431187561,-0.023441190893977552,1.1150550842285156,5.915701866149902,0.9168305993080139
1730865964.6334517,-1.8085271120071411,1.176212191581726,-9.861815452575684,-0.032854021054780566,-0.0024875655248407583,-0.03352010432009506,1.1154887676239014,5.913210868835449,0.9157944917678833
1730865964.6834452,-1.7181299924850464,1.1627516746520996,-9.876137733459473,-0.027697219770907618,-0.014414268824370939,-0.038711517188231265,1.1154747009277344,5.909273147583008,0.9167988300323486
1730865964.7333987,-1.6924563646316528,1.1392431259155273,-9.905946731567383,-0.015433465474855306,-0.02964066661307565,-0.04097460649851499,1.116014003753662,5.899679183959961,0.9180055856704712
1730865964.7834475,-1.6710063219070435,1.1597439050674438,-9.915834426879883,0.005449431283810201,-0.04123414712227261,-0.04137953441975032,1.1161549091339111,5.893994331359863,0.9189861416816711
1730865964.8333828,-1.6623401641845703,1.1732234954833984,-9.910504341125488,0.03148924900044699,-0.04351104480919174,-0.03989741880424443,1.1163547039031982,5.88780403137207,0.9199292063713074
1730865964.8834436,-1.664509892463684,1.188157320022583,-9.918722152709961,0.05492986155878839,-0.03695147873471725,-0.03610295122864242,1.1166425943374634,5.8819684982299805,0.9207119941711426
1730865964.933397,-1.6572636365890503,1.1673773527145386,-9.908549308776855,0.06848522094995677,-0.027087633542050047,-0.02998273378447897,1.1166157722473145,5.885225296020508,0.9199463725090027
1730865964.9834638,-1.6591688394546509,1.130024790763855,-9.90406608581543,0.06952259056240323,-0.019375589481696584,-0.02236146200354503,1.1170333623886108,5.881201267242432,0.9204294085502625
1730865965.0333724,-1.6591688394546509,1.130024790763855,-9.90406608581543,0.059950178496459686,-0.015069825477623457,-0.014442362963625825,1.1171711683273315,5.872147560119629,0.9222840666770935
1730865965.0333724,-1.6374982595443726,1.1253414154052734,-9.897210121154785,0.04394110578660982,-0.01147198409437906,-0.0071964966387942095,1.1171751022338867,5.872094631195068,0.9222926497459412
1730865965.0834715,-1.6542800664901733,1.1127800941467285,-9.890379905700684,0.026404987153507965,-0.005830853037597493,-0.0011963834953143818,1.1176618337631226,5.859496593475342,0.9246501326560974
1730865965.1333466,-1.6624219417572021,1.1077226400375366,-9.87459659576416,0.011724404837820609,0.0018604701177207734,0.003422830029758843,1.1181117296218872,5.8517985343933105,0.9260179400444031
1730865965.183495,-1.6803877353668213,1.1172305345535278,-9.872438430786133,0.0020574610338933395,0.009471475586293573,0.006936388387633059,1.118582010269165,5.844061374664307,0.9274082183837891
1730865965.2333581,-1.6642932891845703,1.1443051099777222,-9.851571083068848,-0.0032290969575146404,0.014401489492470885,0.009889662998149876,1.1181062459945679,5.846046447753906,0.9250431060791016
1730865965.2835011,-1.676072597503662,1.1518168449401855,-9.866317749023438,-0.006134059306760022,0.014669765666055235,0.012784784531241322,1.1183104515075684,5.841148376464844,0.9255220890045166
1730865965.3333554,-1.688549518585205,1.173169493675232,-9.839729309082031,-0.008266882490458096,0.009817728047253154,0.01540163518711607,1.1186823844909668,5.831542015075684,0.9253451824188232
1730865965.3832452,-1.7406500577926636,1.1670211553573608,-9.839791297912598,-0.010565064508844603,0.0013569583055055927,0.016677902504347024,1.1189405918121338,5.824760913848877,0.925774335861206
1730865965.4331973,-1.7592371702194214,1.1434805393218994,-9.807424545288086,-0.014093065343516436,-0.007600305984014885,0.015909932383923443,1.1194181442260742,5.816715240478516,0.923620879650116
1730865965.4832108,-1.7919294834136963,1.1425443887710571,-9.786770820617676,-0.020070482070311788,-0.013381245451740988,0.01383289951788598,1.1197035312652588,5.809359073638916,0.9233162999153137
1730865965.5332005,-1.8289555311203003,1.1339582204818726,-9.734051704406738,-0.02867541624472325,-0.013625741549297568,0.012409058968184873,1.1199308633804321,5.801903247833252,0.9230416417121887
1730865965.5832748,-1.906752586364746,1.1017496585845947,-9.722082138061523,-0.039006497680048116,-0.00857761259757621,0.014097381977281553,1.1200402975082397,5.800958156585693,0.9219843745231628
1730865965.6332035,-1.9440362453460693,1.0649313926696777,-9.711519241333008,-0.05061521272885617,-6.370280984853514e-05,0.020673506724997598,1.1201235055923462,5.794713497161865,0.9216125011444092
1730865965.6832056,-1.954621434211731,1.0486096143722534,-9.747272491455078,-0.06287849672022909,0.01019740255994095,0.030928547514348165,1.1190561056137085,5.784193992614746,0.9206309914588928
1730865965.733109,-1.9300211668014526,1.0519165992736816,-9.785317420959473,-0.07270130208588019,0.020743447143305477,0.03962712336023711,1.118550419807434,5.775821685791016,0.9201648235321045
1730865965.7832572,-1.8917458057403564,1.0662336349487305,-9.863221168518066,-0.07487836623692007,0.029396454373981033,0.04008360801066421,1.1178959608078003,5.76801061630249,0.9198232889175415
1730865965.8331983,-1.8261340856552124,1.0515388250350952,-9.917787551879883,-0.06458514422870232,0.03317510317510912,0.027430876573125172,1.1170523166656494,5.760056018829346,0.9195546507835388
1730865965.8832433,-1.7325536012649536,1.0188775062561035,-9.973783493041992,-0.03904648850090204,0.03032171119069684,-0.0003524162452169556,1.11823570728302,5.7700700759887695,0.9195824861526489
1730865965.9331484,-1.6438817977905273,1.0134690999984741,-9.997303009033203,0.0013435499253094865,0.022356414717086426,-0.04130162053460086,1.1178739070892334,5.765926837921143,0.9192793965339661
1730865965.9832146,-1.6068297624588013,1.0392526388168335,-10.010113716125488,0.05098009262860806,0.013015216413744864,-0.08666529396844758,1.1178228855133057,5.752338409423828,0.9193551540374756
1730865966.0331244,-1.5930547714233398,1.1113393306732178,-9.983500480651855,0.09857447202231623,0.0048453804213614724,-0.12174190926896117,1.1177752017974854,5.744626045227051,0.9188133478164673
1730865966.0831685,-1.6152253150939941,1.2080261707305908,-9.939994812011719,0.13098664904249452,-0.0032862768672878703,-0.13316631150348573,1.1175745725631714,5.7384185791015625,0.9188775420188904
1730865966.1329873,-1.6628810167312622,1.2549554109573364,-9.904179573059082,0.13865030406720846,-0.015398473970070485,-0.1160120504780981,1.11790132522583,5.7311811447143555,0.9181030988693237
1730865966.183079,-1.7237470149993896,1.2498868703842163,-9.840123176574707,0.11902873440497239,-0.03369327801657186,-0.07536352475976377,1.118553638458252,5.723818302154541,0.9170822501182556
1730865966.232996,-1.7540323734283447,1.1959750652313232,-9.810408592224121,0.07664235167124357,-0.05429135391456403,-0.022687635472049442,1.117274522781372,5.719616413116455,0.9186770915985107
1730865966.282932,-1.7761001586914062,1.1373709440231323,-9.77637004852295,0.02097292143537231,-0.0687189249975326,0.02981561072930209,1.116486668586731,5.703608512878418,0.918756365776062
1730865966.3329697,-1.7739691734313965,1.080772876739502,-9.734260559082031,-0.03485621717528249,-0.06913201733448884,0.07211344066190728,1.1163195371627808,5.694223880767822,0.9187232851982117
1730865966.3838212,-1.7863746881484985,1.0190056562423706,-9.72805404663086,-0.07644424255383755,-0.052350009930645744,0.09708793857827884,1.1152467727661133,5.684955596923828,0.9186209440231323
1730865966.4338863,-1.7863746881484985,1.0190056562423706,-9.72805404663086,-0.09395262560064022,-0.02126425436551408,0.10231145654833868,1.1144766807556152,5.674549579620361,0.9188413023948669
1730865966.4338863,-1.763444423675537,0.9958710074424744,-9.702902793884277,-0.08667454244129667,0.015629497999129226,0.09073339152811581,1.1144367456436157,5.6740827560424805,0.9188571572303772
1730865966.4838243,-1.763444423675537,0.9958710074424744,-9.702902793884277,-0.06169779986398423,0.04709695000679865,0.06887135050167417,1.1135122776031494,5.664212226867676,0.9192772507667542
1730865966.4838243,-1.7485802173614502,0.980993390083313,-9.72205638885498,-0.029155352569346656,0.06468351707810843,0.04442301977441439,1.1135036945343018,5.664127349853516,0.919281542301178
1730865966.5338418,-1.7739217281341553,0.9647471904754639,-9.749009132385254,0.0017718068090176089,0.0668664076929873,0.023643743743296572,1.1149147748947144,5.6710333824157715,0.9184781908988953
1730865966.5839176,-1.776928424835205,1.0090956687927246,-9.792386054992676,0.024706886424952116,0.05799823652095896,0.009031115906539836,1.1146966218948364,5.6653361320495605,0.9185522794723511
1730865966.6337254,-1.7719019651412964,1.0469619035720825,-9.85647201538086,0.0364072532861282,0.04325722236894119,-0.0010906473717698225,1.1145645380020142,5.6526384353637695,0.9180766344070435
1730865966.6840096,-1.742720127105713,1.0767850875854492,-9.918389320373535,0.03694316001272818,0.024908937185042467,-0.010873421101490326,1.1144599914550781,5.644364356994629,0.9179658889770508
1730865966.733826,-1.742720127105713,1.0767850875854492,-9.918389320373535,0.02978127023011395,0.0038714532771535583,-0.02368884849989318,1.1143697500228882,5.6385722160339355,0.9177775979042053
1730865966.733826,-1.7308605909347534,1.0838773250579834,-9.983128547668457,0.020338486969863276,-0.01698478578799857,-0.03939502236230932,1.11436927318573,5.638510704040527,0.9177762269973755
1730865966.7839155,-1.7244657278060913,1.1198302507400513,-10.016728401184082,0.013153994835733405,-0.03321902190558944,-0.055024012827050287,1.1143237352371216,5.630836009979248,0.9175354838371277
1730865966.8337839,-1.7244657278060913,1.1198302507400513,-10.016728401184082,0.010079953859652014,-0.04195764508535976,-0.06790644637965218,1.1152862310409546,5.6208906173706055,0.9174922108650208
1730865966.8337839,-1.6922295093536377,1.1217204332351685,-10.01152515411377,0.010722104037467182,-0.04355595509288745,-0.07695716266075914,1.1152881383895874,5.620829105377197,0.9174898266792297
1730865966.8839517,-1.6949405670166016,1.091368556022644,-10.003122329711914,0.013845699703930037,-0.03997927861895823,-0.08075686107505647,1.1155403852462769,5.613182544708252,0.917091965675354
1730865966.9338105,-1.6541407108306885,1.079060673713684,-9.937772750854492,0.01844539982498432,-0.03231727274500282,-0.07616268151895891,1.1162046194076538,5.605544090270996,0.9174568057060242
1730865966.9837117,-1.6971153020858765,1.0559735298156738,-9.882655143737793,0.023801822518590948,-0.02066172761981214,-0.060228432746170235,1.116623878479004,5.59783935546875,0.917087972164154
1730865967.0336804,-1.6971153020858765,1.0559735298156738,-9.882655143737793,0.028034052535942627,-0.005902569747640594,-0.033321115733424916,1.117904543876648,5.5872673988342285,0.9174652695655823
1730865967.0336804,-1.7184339761734009,1.0200108289718628,-9.829143524169922,0.027532672673934735,0.00944352414802507,-0.00027438926089745283,1.1179120540618896,5.587177753448486,0.9174635410308838
1730865967.0837424,-1.7184339761734009,1.0200108289718628,-9.829143524169922,0.019767009568715892,0.02247738774504728,0.03153575088978381,1.118809461593628,5.576832294464111,0.917303204536438
1730865967.0837424,-1.7796587944030762,0.9819168448448181,-9.78043270111084,0.005771147570503749,0.03170374566601765,0.05590652233540065,1.1188173294067383,5.576744556427002,0.9173021912574768
1730865967.1336548,-1.7767276763916016,0.9837790727615356,-9.749464988708496,-0.01149383127348537,0.03779953648814304,0.07091484476536941,1.1197165250778198,5.566572666168213,0.9172698259353638
1730865967.1838517,-1.7815088033676147,1.03798508644104,-9.75819206237793,-0.02974763323628007,0.04263207088438205,0.0793980844351658,1.1188111305236816,5.571784496307373,0.9177349805831909
1730865967.2337184,-1.7815088033676147,1.03798508644104,-9.75819206237793,-0.04713687268961998,0.04681406999232268,0.08558011056678538,1.1191127300262451,5.5655717849731445,0.9180484414100647
1730865967.2337184,-1.7619465589523315,1.1153185367584229,-9.77953052520752,-0.06034230746391604,0.04809971110028132,0.08993578348492576,1.119114875793457,5.565517902374268,0.918052077293396
1730865967.283684,-1.7306779623031616,1.2181533575057983,-9.794438362121582,-0.06451772150768843,0.04185928237108484,0.08798077447397185,1.1192760467529297,5.559453010559082,0.9185791611671448
1730865967.3336196,-1.7306779623031616,1.2181533575057983,-9.794438362121582,-0.05599847865928826,0.02277105986934011,0.07485050299637036,1.1192890405654907,5.553421497344971,0.9193121790885925
1730865967.3336196,-1.73723566532135,1.2622041702270508,-9.825244903564453,-0.035160981329313036,-0.012214445570193855,0.050105041368470965,1.1192885637283325,5.553372859954834,0.9193188548088074
1730865967.3837023,-1.7728885412216187,1.2536513805389404,-9.841352462768555,-0.007029698091205224,-0.060931925571808356,0.017912780199402803,1.1199369430541992,5.5591840744018555,0.917876660823822
1730865967.4336104,-1.7957485914230347,1.2329119443893433,-9.852080345153809,0.020298505808323545,-0.11484059258607023,-0.01551324712954456,1.120252251625061,5.554593563079834,0.9180068373680115
1730865967.4835632,-1.8130037784576416,1.187165379524231,-9.869086265563965,0.03848854407003091,-0.15898724544875756,-0.043606993774698836,1.1212809085845947,5.538878440856934,0.9176204204559326
1730865967.5335834,-1.8130037784576416,1.187165379524231,-9.869086265563965,0.0423471761089855,-0.1763167754272077,-0.0607005151507721,1.121895670890808,5.531111240386963,0.9174352288246155
1730865967.5335834,-1.8403993844985962,1.1168467998504639,-9.861696243286133,0.03231259696796826,-0.15796773851156393,-0.06401770114796117,1.1219009160995483,5.531047821044922,0.9174331426620483
1730865967.5836523,-1.8365612030029297,1.1099493503570557,-9.855596542358398,0.01383654036178356,-0.10935867144219506,-0.0546936676296716,1.1236978769302368,5.514976501464844,0.9174739122390747
1730865967.6335382,-1.8015090227127075,1.1125519275665283,-9.858222961425781,-0.005806992036833162,-0.045921823879494374,-0.03698105505556836,1.1254884004592896,5.498737335205078,0.9174628853797913
1730865967.683565,-1.7416749000549316,1.0947171449661255,-9.853496551513672,-0.019878833926040274,0.014305260485999683,-0.0167045995921406,1.126636028289795,5.487179279327393,0.9172815084457397
1730865967.7336876,-1.707353949546814,1.0896289348602295,-9.870576858520508,-0.023090902718822855,0.056630902282143236,0.0005556037146070055,1.1277400255203247,5.475603103637695,0.9170780777931213
1730865967.7836096,-1.6856294870376587,1.0882185697555542,-9.87708854675293,-0.012761204168683277,0.07454315230304358,0.011038387574254054,1.1287846565246582,5.464343070983887,0.9168916940689087
1730865967.833548,-1.6856732368469238,1.1131680011749268,-9.89499282836914,0.010161000723782503,0.07074152540476164,0.013361163584504652,1.127204179763794,5.478639602661133,0.9173935651779175
1730865967.8835711,-1.6620116233825684,1.1451038122177124,-9.884458541870117,0.040786951636336326,0.053243906467583965,0.008412404205695188,1.1278777122497559,5.472070693969727,0.9173825979232788
1730865967.9334772,-1.6606212854385376,1.1801331043243408,-9.870457649230957,0.07062159843348982,0.03009665843487174,-0.0006129280589963096,1.1290972232818604,5.458773612976074,0.9173434972763062
1730865967.9834714,-1.653437852859497,1.1797866821289062,-9.851520538330078,0.09006327821991718,0.006639931116010636,-0.008826183507847083,1.1303017139434814,5.449166774749756,0.9172905087471008
1730865968.0334425,-1.6758476495742798,1.1824043989181519,-9.821070671081543,0.09290693043312132,-0.013572818471359292,-0.011786997943300176,1.131734013557434,5.4395551681518555,0.9172118306159973
1730865968.0835173,-1.7237505912780762,1.1566532850265503,-9.81063461303711,0.07878545063493553,-0.027127452940928675,-0.0074144185038579865,1.1333839893341064,5.429874420166016,0.917108952999115
1730865968.1334534,-1.7996176481246948,1.1426687240600586,-9.782665252685547,0.05138111540485629,-0.03125638160245809,0.004003924536399525,1.130839228630066,5.441925525665283,0.917150616645813
1730865968.1835039,-1.8628112077713013,1.1092867851257324,-9.77823543548584,0.015475665102553365,-0.02532726039747034,0.020358309510292497,1.1316272020339966,5.436540603637695,0.9171291589736938
1730865968.2334023,-1.8774480819702148,1.0935637950897217,-9.79169750213623,-0.02345211472993821,-0.011345816054733766,0.03733899555396259,1.1328758001327515,5.4214277267456055,0.9167275428771973
1730865968.2834685,-1.8534674644470215,1.108945369720459,-9.822172164916992,-0.0581557524195408,0.006516936995129398,0.04876813032345612,1.1343549489974976,5.4013166427612305,0.9163327217102051
1730865968.3333826,-1.7973651885986328,1.1064001321792603,-9.855999946594238,-0.08024850947119203,0.022802847543954834,0.0493719661194539,1.1352360248565674,5.388686656951904,0.9162978529930115
1730865968.3833833,-1.749116063117981,1.0848197937011719,-9.900351524353027,-0.08273869846136742,0.03256020921826637,0.03763904398655399,1.135909914970398,5.376189231872559,0.9163714647293091
1730865968.4334073,-1.6887575387954712,1.0780417919158936,-9.944061279296875,-0.06277716864651728,0.03401387484798887,0.015670016779266615,1.1364060640335083,5.3636908531188965,0.9165122509002686
1730865968.4834383,-1.660573959350586,1.0784896612167358,-9.943114280700684,-0.0227051267618742,0.029497143541824578,-0.013031644013758835,1.1357792615890503,5.381031513214111,0.9160445332527161
1730865968.5333052,-1.6808581352233887,1.0688133239746094,-9.9386625289917,0.029917377906307944,0.02326026656753995,-0.0442060347787074,1.136932611465454,5.365358829498291,0.9156942367553711
1730865968.5834394,-1.6925055980682373,1.0484857559204102,-9.91047477722168,0.081541423887732,0.01851071319043565,-0.07112606856453034,1.137719988822937,5.3564252853393555,0.9153671264648438
1730865968.6333168,-1.7340891361236572,1.0040960311889648,-9.874168395996094,0.11525007911819903,0.016494886190225065,-0.08486010422491463,1.1392539739608765,5.349484443664551,0.9152941107749939
1730865968.6832635,-1.7513102293014526,0.9668171405792236,-9.831408500671387,0.11929965607180837,0.01760668984197089,-0.07890371393680548,1.1406418085098267,5.3416361808776855,0.9147922396659851
1730865968.7332773,-1.7555934190750122,0.9132131338119507,-9.825553894042969,0.09408823787642434,0.022184513220937285,-0.05383701395919141,1.142303466796875,5.333800792694092,0.914121687412262
1730865968.783267,-1.7511773109436035,0.8991687297821045,-9.808719635009766,0.05107705427017786,0.030438898604981286,-0.01728450982635788,1.1404681205749512,5.329692840576172,0.9150491952896118
1730865968.833155,-1.7669599056243896,0.9138646125793457,-9.811017036437988,0.005916882648625459,0.04188525114575007,0.02010178101509501,1.1413161754608154,5.322231292724609,0.9148142337799072
1730865968.8833268,-1.7647291421890259,0.9623916149139404,-9.817171096801758,-0.028656914123296875,0.05329277322573544,0.04858628657522656,1.1421384811401367,5.314864158630371,0.9146645665168762
1730865968.9331322,-1.774051547050476,0.9942019581794739,-9.836055755615234,-0.046617745524896795,0.05766123915229539,0.06160517907238258,1.1415765285491943,5.311812400817871,0.9151015281677246
1730865968.9830694,-1.7563841342926025,1.0308074951171875,-9.850176811218262,-0.04861550115217246,0.04816356697625999,0.057416721409909936,1.1419471502304077,5.3055644035339355,0.9152559638023376
1730865969.0331802,-1.7418923377990723,1.052126407623291,-9.863423347473145,-0.03915799040121633,0.024026756968107105,0.03960163429573348,1.1422123908996582,5.299323081970215,0.915534496307373
1730865969.0830772,-1.7634446620941162,1.1164103746414185,-9.859697341918945,-0.023409696493223588,-0.008596733194054296,0.01522452213352176,1.1423964500427246,5.2931742668151855,0.915878176689148
1730865969.1331055,-1.7613576650619507,1.1499154567718506,-9.857751846313477,-0.0059689334145302895,-0.04192685926002104,-0.008308589106092026,1.1428415775299072,5.290507793426514,0.9150396585464478
1730865969.1830616,-1.7668864727020264,1.152148723602295,-9.854114532470703,0.00906840637287874,-0.07098564785551267,-0.02559062834667927,1.14436936378479,5.270314693450928,0.9147655963897705
1730865969.2330203,-1.7597706317901611,1.146106243133545,-9.849930763244629,0.018602664685802142,-0.09191093432473592,-0.03390099809670872,1.145113468170166,5.260170936584473,0.9145861864089966
1730865969.2830868,-1.7832831144332886,1.1196283102035522,-9.831854820251465,0.02138064476753744,-0.09951773172036199,-0.032967305702435196,1.1463556289672852,5.250067234039307,0.9145581126213074
1730865969.3329446,-1.7911642789840698,1.0579688549041748,-9.824539184570312,0.018104045695798536,-0.08983197669188658,-0.024551162098009678,1.1472735404968262,5.240304470062256,0.9143452644348145
1730865969.3830001,-1.793712854385376,1.0126854181289673,-9.833224296569824,0.010777184565644363,-0.06345622463234886,-0.011970205344735071,1.1489187479019165,5.230132102966309,0.9128316640853882
1730865969.432937,-1.7517714500427246,1.0202561616897583,-9.849518775939941,0.0021986571681807013,-0.02575718012261991,0.0005868816466379407,1.1500139236450195,5.220551013946533,0.9122288227081299
1730865969.4829564,-1.7517714500427246,1.0202561616897583,-9.849518775939941,-0.004162507135552805,0.01396961041470417,0.009189545137611613,1.1513437032699585,5.208834648132324,0.9110469222068787
1730865969.4829564,-1.7155946493148804,1.0792349576950073,-9.881749153137207,-0.0050181465404200605,0.04432198593912634,0.011459806018493647,1.1513526439666748,5.20875358581543,0.9110412001609802
1730865969.532836,-1.6973638534545898,1.1483683586120605,-9.885079383850098,0.0009745329369857034,0.05581569135392073,0.0071653665452044175,1.1525124311447144,5.198368549346924,0.910314679145813
1730865969.5827827,-1.6990910768508911,1.1914793252944946,-9.90003490447998,0.012482012329197203,0.044066985529474786,-0.002213430093711216,1.1536998748779297,5.188009738922119,0.9095875024795532
1730865969.6338701,-1.7048535346984863,1.1952179670333862,-9.894710540771484,0.026527019059513903,0.010356442818980167,-0.014383758375902429,1.1549699306488037,5.177445411682129,0.9088191390037537
1730865969.6838133,-1.7279154062271118,1.140415906906128,-9.889106750488281,0.039710813259417464,-0.03853791447808198,-0.02691794736512273,1.1562834978103638,5.167174816131592,0.9080230593681335
1730865969.7338028,-1.727390170097351,1.0967813730239868,-9.850716590881348,0.04890895809630044,-0.09093818992088996,-0.03739987838574915,1.1532412767410278,5.194035053253174,0.9082280397415161
1730865969.7837937,-1.7448590993881226,1.0502889156341553,-9.854978561401367,0.051874604528215885,-0.13257053749875347,-0.04339236221241136,1.1539820432662964,5.18916654586792,0.9074910283088684
1730865969.8337355,-1.7205950021743774,1.0371060371398926,-9.837763786315918,0.04774191628099611,-0.15047575532640867,-0.04300648053197313,1.1559975147247314,5.174898624420166,0.9049834609031677
1730865969.8838043,-1.7044275999069214,1.004769206047058,-9.838481903076172,0.037518505571659276,-0.13787879254068852,-0.0359864554390627,1.1573426723480225,5.165946006774902,0.90353924036026
1730865969.9337204,-1.6762114763259888,1.0011883974075317,-9.852025985717773,0.024475483225518995,-0.09823138652777112,-0.024306083989135745,1.1587603092193604,5.156732082366943,0.9020251035690308
1730865969.9836867,-1.6579885482788086,0.9812003374099731,-9.872231483459473,0.013482454970399679,-0.04429647203025801,-0.011780849392676554,1.1602237224578857,5.147350788116455,0.9004677534103394
1730865970.0337353,-1.6788157224655151,1.0039273500442505,-9.869159698486328,0.008973678210767597,0.008315784577885238,-0.0027468204178120108,1.158389687538147,5.153829097747803,0.9022489190101624
1730865970.0836577,-1.7302862405776978,0.9892690777778625,-9.866273880004883,0.01215286122724144,0.047618643695163686,-7.867811565043519e-06,1.1591633558273315,5.148071765899658,0.901432454586029
1730865970.1336935,-1.7561147212982178,1.0005706548690796,-9.84821891784668,0.018930094870524605,0.06779052160683198,-0.003018940384712255,1.1610766649246216,5.13646125793457,0.8992372155189514
1730865970.1836424,-1.7367112636566162,1.0267400741577148,-9.844929695129395,0.021891756320072578,0.06878494782281513,-0.00809333854472079,1.1613200902938843,5.117812156677246,0.8960059285163879
1730865970.2335315,-1.7292639017105103,1.0034098625183105,-9.847564697265625,0.01658567489878948,0.05493152217437074,-0.01112393961589241,1.1621469259262085,5.1056342124938965,0.8938656449317932
1730865970.283596,-1.7082710266113281,1.0320013761520386,-9.856908798217773,0.005433015678761542,0.03336976448352068,-0.010408331349024908,1.1629992723464966,5.093594551086426,0.8917034864425659
1730865970.3336132,-1.7297741174697876,1.0265306234359741,-9.872505187988281,-0.00516471205157445,0.011887728136215095,-0.007168058711878353,1.1638585329055786,5.081518650054932,0.8895024657249451
1730865970.3835676,-1.73284912109375,1.026072382926941,-9.879054069519043,-0.010206459076992833,-0.003824703839421027,-0.00419404922198694,1.1614809036254883,5.104618072509766,0.8934075832366943
1730865970.4335475,-1.7507237195968628,1.0402652025222778,-9.899032592773438,-0.008837205782853024,-0.011708355146511775,-0.004040931526723045,1.1617096662521362,5.099161624908447,0.8923779726028442
1730865970.4835615,-1.7441734075546265,1.067531943321228,-9.886956214904785,-0.0038040219135761846,-0.013083926091568294,-0.007481001980311063,1.1619224548339844,5.0936784744262695,0.8913347721099854
1730865970.5335526,-1.7646288871765137,1.0706843137741089,-9.89332103729248,0.0008576259018988756,-0.011583049140730686,-0.013046997563984386,1.1640229225158691,5.094136714935303,0.8913465142250061
1730865970.583584,-1.8092890977859497,1.0768513679504395,-9.85693645477295,0.001943988081478963,-0.011163257252412292,-0.017958710380676503,1.1646488904953003,5.089908599853516,0.8904988169670105
1730865970.6335008,-1.8451093435287476,1.0780317783355713,-9.835271835327148,-0.0022090418602954435,-0.013568026251835608,-0.01917523318074765,1.1652836799621582,5.085587024688721,0.8895924091339111
1730865970.6835158,-1.8778879642486572,1.068177342414856,-9.794242858886719,-0.012175512753192647,-0.017451660972117807,-0.013900210380504832,1.1671087741851807,5.075430393218994,0.8885565400123596
1730865970.7335863,-1.8792659044265747,1.0619271993637085,-9.761591911315918,-0.027385766849737578,-0.02002713806227434,-0.0006780908615152334,1.167985200881958,5.069121837615967,0.8875178694725037
1730865970.7835293,-1.8781741857528687,1.0342954397201538,-9.767451286315918,-0.04448589196627491,-0.01910448780397449,0.018622800642677836,1.169679880142212,5.057313442230225,0.8873286843299866
1730865970.8334446,-1.8452465534210205,1.0448501110076904,-9.792409896850586,-0.05692713851513782,-0.013992299470107362,0.03816274944258226,1.1714776754379272,5.044449806213379,0.8864849209785461
1730865970.8834481,-1.7909832000732422,1.0523160696029663,-9.833215713500977,-0.058235210490850856,-0.005925460824839418,0.050428719906885654,1.1725881099700928,5.03485107421875,0.8858261108398438
1730865970.9334626,-1.7380390167236328,1.0403714179992676,-9.891928672790527,-0.04554124955335849,0.002197396723558968,0.04963574669563235,1.173572301864624,5.025216579437256,0.8852905035018921
1730865970.9834626,-1.6841381788253784,1.027842402458191,-9.939653396606445,-0.019807508323154487,0.00765295129363764,0.0335161188091221,1.1744731664657593,5.015608310699463,0.8848597407341003
1730865971.0333781,-1.598343849182129,1.0370818376541138,-9.97574520111084,0.01630543373257207,0.009721837188224195,0.0030804306840583554,1.173497200012207,5.030489444732666,0.8869407773017883
1730865971.083417,-1.598343849182129,1.0370818376541138,-9.97574520111084,0.059110221135069294,0.00944762928052044,-0.03727431433165543,1.1742362976074219,5.025606632232666,0.8868570923805237
1730865971.083417,-1.5712602138519287,1.0332560539245605,-9.993497848510742,0.10087875122415937,0.008142746404518753,-0.07811648868517077,1.1742427349090576,5.025568008422852,0.8868560791015625
1730865971.133399,-1.550557255744934,1.039259433746338,-9.944525718688965,0.1294564417951861,0.006547198459994342,-0.10631732314007054,1.1761518716812134,5.0161919593811035,0.8871955871582031
1730865971.1834455,-1.5575945377349854,1.0153611898422241,-9.915091514587402,0.1354659760054554,0.005035355555653858,-0.11170265660720971,1.1778185367584229,5.008905410766602,0.8868077397346497
1730865971.233443,-1.6128383874893188,0.9890211224555969,-9.859123229980469,0.11821458157417225,0.0043131150147940455,-0.09252504460987694,1.1798021793365479,5.001631259918213,0.886164665222168
1730865971.283348,-1.700724482536316,0.9786924719810486,-9.800239562988281,0.08319770557573364,0.0058774060321875946,-0.05453947515094798,1.1820310354232788,4.994389533996582,0.8853402733802795
1730865971.3333108,-1.7688379287719727,1.0146944522857666,-9.755945205688477,0.036545720094080636,0.01122205868434705,-0.006132553254521753,1.1780154705047607,5.003586769104004,0.887130856513977
1730865971.3833656,-1.8208271265029907,1.02140212059021,-9.763900756835938,-0.016675303350035888,0.01987555061581387,0.04458766072320817,1.1799992322921753,4.990298748016357,0.8873241543769836
1730865971.433279,-1.8217395544052124,1.0340009927749634,-9.765320777893066,-0.06900828838289726,0.02845015735158031,0.08815274313690633,1.1810996532440186,4.983270645141602,0.8874855637550354
1730865971.48329,-1.782911777496338,1.0537012815475464,-9.80487060546875,-0.10825189045618433,0.03232856325027573,0.11333538592509738,1.1846187114715576,4.972931861877441,0.8875904083251953
1730865971.5332751,-1.7525897026062012,1.0612386465072632,-9.85537052154541,-0.12245944304837994,0.02859361862876806,0.11242033530116147,1.1862149238586426,4.964789867401123,0.8880887627601624
1730865971.5832372,-1.7406247854232788,1.1116029024124146,-9.87990665435791,-0.10771344525890614,0.01759094927453768,0.08615329808896419,1.1875221729278564,4.956715106964111,0.8888340592384338
1730865971.633259,-1.770524501800537,1.115897536277771,-9.90289306640625,-0.0706167053431963,0.0019618695572205516,0.04283477412874853,1.1886117458343506,4.9486284255981445,0.8897444009780884
1730865971.683197,-1.7900440692901611,1.1545110940933228,-9.899785995483398,-0.024752363213029586,-0.015621449651949304,-0.006224714511248244,1.1886652708053589,4.9607672691345215,0.8878129124641418
1730865971.7331789,-1.8505797386169434,1.163799524307251,-9.896068572998047,0.014991130700986226,-0.03330448739629806,-0.050413750576100015,1.1898704767227173,4.949222564697266,0.8876931071281433
1730865971.783353,-1.8505797386169434,1.163799524307251,-9.896068572998047,0.037573073074057085,-0.04857148062181983,-0.08094839308401096,1.190943956375122,4.942621231079102,0.8875619173049927
1730865971.783353,-1.8653908967971802,1.1624170541763306,-9.862640380859375,0.03956564654824496,-0.057375188423325924,-0.09177842277336055,1.190953016281128,4.942567348480225,0.8875600099563599
1730865971.8332534,-1.84821355342865,1.119704008102417,-9.858514785766602,0.025779381343390445,-0.056181536743122706,-0.08171969691675124,1.192090392112732,4.935928821563721,0.8872283697128296
1730865971.8832345,-1.8270213603973389,1.114829421043396,-9.805334091186523,0.005786666926661056,-0.04426106044984119,-0.05504067231884267,1.193278431892395,4.929097652435303,0.8867235779762268
1730865971.9334147,-1.793975830078125,1.0453251600265503,-9.822367668151855,-0.010743145091598438,-0.023464435434633304,-0.019110009649594664,1.1920112371444702,4.93477725982666,0.8876094818115234
1730865971.9832606,-1.7209333181381226,1.0137131214141846,-9.828447341918945,-0.01697065313904669,0.0030323466372544792,0.017997786337786807,1.1926212310791016,4.930665016174316,0.8875198364257812
1730865972.0332992,-1.6012029647827148,0.9719731211662292,-9.870986938476562,-0.009636178669521326,0.030879272187319864,0.047843014648373185,1.1942723989486694,4.919405460357666,0.8877090811729431
1730865972.0832047,-1.5673483610153198,0.9927900433540344,-9.874567985534668,0.011225707474010183,0.05445111914891431,0.0626052887557655,1.1952985525131226,4.9126362800598145,0.8878886103630066
1730865972.133241,-1.5617990493774414,1.0194441080093384,-9.915316581726074,0.041118173189422444,0.06783733668320613,0.05874626514858728,1.196600079536438,4.904417037963867,0.8878446221351624
1730865972.1831715,-1.576568603515625,1.0584110021591187,-9.886327743530273,0.07021238544110381,0.06660267943737096,0.0396312775022724,1.1979281902313232,4.897182464599609,0.8881092071533203
1730865972.2332606,-1.631142258644104,1.0728533267974854,-9.91388988494873,0.08697151825868968,0.05005111576302669,0.014010945001555994,1.1994657516479492,4.890028476715088,0.8884434103965759
1730865972.283102,-1.7173388004302979,1.079965353012085,-9.86382007598877,0.08327962368861577,0.022354546090808725,-0.008038135115054157,1.1985712051391602,4.892241477966309,0.8878358602523804
1730865972.3331964,-1.82231605052948,1.1077828407287598,-9.826631546020508,0.056816854249369775,-0.00914516172703568,-0.01911773628098383,1.199669599533081,4.8876142501831055,0.8878659009933472
1730865972.383157,-1.8533849716186523,1.1184059381484985,-9.800682067871094,0.011895904428082449,-0.036783290215592415,-0.01666855797728909,1.2015197277069092,4.877039432525635,0.8877233862876892
1730865972.4330823,-1.8954871892929077,1.0949914455413818,-9.761144638061523,-0.04095375425414273,-0.054658287488702106,-0.002874820010572051,1.2028896808624268,4.869958400726318,0.8876797556877136
1730865972.4830406,-1.8989217281341553,1.0262970924377441,-9.779446601867676,-0.08799587156864921,-0.05927656525368223,0.016761383302218134,1.2040927410125732,4.862771511077881,0.8876534700393677
1730865972.5331557,-1.8536771535873413,1.0082930326461792,-9.78778076171875,-0.11707158659961064,-0.048947961202592455,0.035385426033245425,1.2050533294677734,4.855343818664551,0.8876930475234985
1730865972.5831227,-1.783974289894104,1.004658818244934,-9.84261703491211,-0.12166045901386,-0.023965095378551474,0.046880856895203424,1.2038460969924927,4.863153457641602,0.8878607153892517
1730865972.6330674,-1.783974289894104,1.004658818244934,-9.84261703491211,-0.10225692198617085,0.011477083104094146,0.04758440587805468,1.2072629928588867,4.842623233795166,0.8880773186683655
1730865972.6330674,-1.7528783082962036,1.0574264526367188,-9.855023384094238,-0.06582708455605671,0.04774075843664761,0.037526858104127786,1.2072795629501343,4.842508792877197,0.8880795240402222
1730865972.6830595,-1.7219197750091553,1.080628514289856,-9.910914421081543,-0.0234935859130877,0.07180266030177057,0.020307834903140608,1.2098731994628906,4.82802677154541,0.8903221487998962
1730865972.7331333,-1.7219197750091553,1.080628514289856,-9.910914421081543,0.014037046793718672,0.0738161499838341,0.000804695865791169,1.212021827697754,4.815090179443359,0.8915082812309265
1730865972.7331333,-1.704637885093689,1.1132997274398804,-9.919187545776367,0.0398398301180193,0.053582842544801175,-0.01667968274639983,1.2120389938354492,4.814988613128662,0.891517698764801
1730865972.7830756,-1.6880874633789062,1.1303209066390991,-9.951221466064453,0.051320425991171655,0.02034688275746995,-0.028730492069864437,1.2142384052276611,4.802350997924805,0.8926526308059692
1730865972.8330402,-1.6892642974853516,1.1353075504302979,-9.929433822631836,0.050232146350426915,-0.013915809661686658,-0.03387339739144448,1.2165908813476562,4.789568901062012,0.89372318983078
1730865972.8830557,-1.6928538084030151,1.1137971878051758,-9.93874454498291,0.04174148524644734,-0.04065985172835399,-0.03334171540873151,1.2190492153167725,4.776767253875732,0.8947058916091919
1730865972.9329422,-1.7044410705566406,1.0738990306854248,-9.894899368286133,0.0316578143310597,-0.05603109309033862,-0.02961018720033727,1.2112689018249512,4.81851863861084,0.8916140794754028
1730865972.9829872,-1.7288248538970947,1.0470776557922363,-9.854463577270508,0.023640387417623844,-0.05916483014107363,-0.024204254610916773,1.212037444114685,4.81436014175415,0.8918711543083191
1730865973.0330038,-1.782965898513794,1.0143132209777832,-9.822835922241211,0.01774622026201802,-0.05071555819879067,-0.016686696003176123,1.2128568887710571,4.810068607330322,0.8920767307281494
1730865973.082945,-1.8363450765609741,1.0109021663665771,-9.767317771911621,0.010533250113772628,-0.03253969094626072,-0.005160888995194751,1.2140612602233887,4.805630207061768,0.8930160403251648
1730865973.132889,-1.8869452476501465,0.9894759058952332,-9.760782241821289,-0.002553918875664018,-0.008054165147028065,0.0118420183224771,1.215165376663208,4.800167560577393,0.8935258388519287
1730865973.1829495,-1.8473352193832397,1.0347927808761597,-9.739604949951172,-0.022619292505753598,0.017211320034886502,0.03247706438287802,1.2162407636642456,4.794703006744385,0.8940922021865845
1730865973.232936,-1.816389560699463,1.0465000867843628,-9.774761199951172,-0.044407908172209444,0.036094840267633786,0.05073396821243252,1.216255784034729,4.792337894439697,0.8944799900054932
1730865973.2828844,-1.783855676651001,1.0769073963165283,-9.79489803314209,-0.05894045846063822,0.0424954279898275,0.05982266608479918,1.218210220336914,4.779704570770264,0.895828366279602
1730865973.3328242,-1.7646828889846802,1.053520679473877,-9.82564926147461,-0.059436276548162054,0.03496976270236027,0.056200169584257983,1.2190876007080078,4.773083209991455,0.8967788219451904
1730865973.3828576,-1.7351040840148926,1.0145779848098755,-9.854711532592773,-0.04516560986132785,0.018439936486006024,0.04068509871295961,1.2198330163955688,4.766536712646484,0.8978492617607117
1730865973.432912,-1.7351040840148926,1.0145779848098755,-9.854711532592773,-0.020871936424318754,0.002250996495810697,0.017186291649065384,1.2204973697662354,4.760000705718994,0.8989947438240051
1730865973.432912,-1.683071255683899,0.9749651551246643,-9.900102615356445,0.00678032350705724,-0.004614010561422121,-0.009442588140740137,1.2205027341842651,4.759945869445801,0.8990045189857483
1730865973.4828544,-1.6453770399093628,0.9578630328178406,-9.910890579223633,0.03292340031758564,0.002414947619183291,-0.03538853133482325,1.2211740016937256,4.7534918785095215,0.9001144170761108
1730865973.532847,-1.649688720703125,0.9565423130989075,-9.945751190185547,0.05618586044958419,0.022650043657223593,-0.05895549299076586,1.221962571144104,4.747007846832275,0.9011173248291016
1730865973.5828483,-1.6442580223083496,0.9954084157943726,-9.940225601196289,0.07746172259754147,0.05122307465381527,-0.08027472560949768,1.2205760478973389,4.763089179992676,0.8972471952438354
1730865973.632834,-1.6689367294311523,1.0497392416000366,-9.937795639038086,0.09660271380418588,0.07995708427153059,-0.0992486075642211,1.2213561534881592,4.76002311706543,0.8972519040107727
1730865973.682793,-1.6859419345855713,1.0834542512893677,-9.915569305419922,0.10936458022263325,0.09814836538522666,-0.1124747912198317,1.223471999168396,4.751962661743164,0.8982574343681335
1730865973.7328548,-1.71327543258667,1.1262437105178833,-9.893120765686035,0.10846188389975797,0.09599836388619555,-0.11334404717812091,1.2249103784561157,4.747936248779297,0.8982158899307251
1730865973.782775,-1.7269731760025024,1.1472166776657104,-9.872698783874512,0.08956750944862946,0.07074782928049114,-0.09723756153341159,1.2265915870666504,4.744132041931152,0.897911012172699
1730865973.8327966,-1.735066294670105,1.1401067972183228,-9.833118438720703,0.055750074201455856,0.029326658755847355,-0.06579259120155631,1.2252978086471558,4.734628200531006,0.8998347520828247
1730865973.8827624,-1.717958927154541,1.1496965885162354,-9.815305709838867,0.015958969768204857,-0.015600263716693822,-0.025884285161184493,1.2262790203094482,4.729424953460693,0.8999929428100586
1730865973.9327734,-1.6673269271850586,1.18075430393219,-9.812365531921387,-0.01873851122045587,-0.051657314707544366,0.013361474848389367,1.2271766662597656,4.720590114593506,0.9018107652664185
1730865973.9827108,-1.718985915184021,1.200554609298706,-9.816550254821777,-0.03890821489379559,-0.07118908692651935,0.04308108309666078,1.22812020778656,4.713896751403809,0.9025838971138
1730865974.032757,-1.777178168296814,1.1863377094268799,-9.796299934387207,-0.04192079128820118,-0.073141297027314,0.057530787846699294,1.2287321090698242,4.707472801208496,0.9036109447479248
1730865974.0837018,-1.8267006874084473,1.1075407266616821,-9.833602905273438,-0.03451629948093206,-0.06126794232669089,0.05606823402491727,1.229494333267212,4.700430393218994,0.9046472907066345
1730865974.1328225,-1.8129234313964844,1.0744457244873047,-9.833734512329102,-0.027284478162965836,-0.04000764703132229,0.04224524900108692,1.230154037475586,4.693506240844727,0.9057692289352417
1730865974.1827915,-1.7848941087722778,1.034195899963379,-9.854951858520508,-0.02623197256750428,-0.011854752638592848,0.021167358488420565,1.2307579517364502,4.686409950256348,0.9069869518280029
1730865974.2327878,-1.7069191932678223,1.0519814491271973,-9.866008758544922,-0.029899327401266683,0.021891829697245235,-0.0024396028445202896,1.2304713726043701,4.692071437835693,0.903395414352417
1730865974.2827125,-1.7330290079116821,1.0380792617797852,-9.891645431518555,-0.032376911572064127,0.058193473055361856,-0.024782098341259468,1.2309072017669678,4.687324047088623,0.9035742282867432
1730865974.333654,-1.723747968673706,1.0607243776321411,-9.90710735321045,-0.028956881148789974,0.08981749000573437,-0.04269091956886886,1.2324161529541016,4.680084228515625,0.9029560685157776
1730865974.383695,-1.6333900690078735,1.1029419898986816,-9.92292594909668,-0.01963838138638472,0.10683131437420074,-0.05359013854933165,1.2330883741378784,4.674921989440918,0.902818500995636
1730865974.4336932,-1.7185343503952026,1.0912126302719116,-9.885492324829102,-0.006955002184756256,0.10227572891253116,-0.056097568510410395,1.2337270975112915,4.670023441314697,0.9025439023971558
1730865974.4835937,-1.7632367610931396,1.0811116695404053,-9.884361267089844,0.006564860278886064,0.07695000366248601,-0.0501457503998223,1.2338504791259766,4.664107322692871,0.9026942253112793
1730865974.533778,-1.7660847902297974,1.066494345664978,-9.817702293395996,0.0174009467190749,0.03944823374453313,-0.03664948228159812,1.2343872785568237,4.659326076507568,0.9024487733840942
1730865974.583637,-1.76335608959198,1.0730304718017578,-9.786660194396973,0.02172333524156543,0.0021992768908329473,-0.017170316277555997,1.2354823350906372,4.650116920471191,0.9027890563011169
1730865974.6336203,-1.755035638809204,1.0663394927978516,-9.755593299865723,0.01865361318906037,-0.024008575552546194,0.006253719497933999,1.2362817525863647,4.643865585327148,0.9027159810066223
1730865974.683558,-1.7797462940216064,1.05051851272583,-9.727736473083496,0.010887059165472168,-0.0341365352342117,0.03040144367286426,1.2367489337921143,4.636089324951172,0.9030067324638367
1730865974.7336075,-1.7905184030532837,1.0506978034973145,-9.733460426330566,0.00213959853631065,-0.02954998826026672,0.05053968735156637,1.2374776601791382,4.62910270690918,0.9031687378883362
1730865974.7834837,-1.7196898460388184,1.0897799730300903,-9.776664733886719,-0.004752494382714321,-0.016133781263277955,0.061648763452411895,1.2377595901489258,4.619847297668457,0.9032484292984009
1730865974.8335426,-1.7713710069656372,1.1019127368927002,-9.835098266601562,-0.007903556639281314,-0.0017094463466192215,0.05991600220302462,1.2382816076278687,4.612961769104004,0.9035676717758179
1730865974.8835092,-1.8028919696807861,1.1387075185775757,-9.852670669555664,-0.007461068482989493,0.007012471085217117,0.04418631314498539,1.2370336055755615,4.601032257080078,0.9033102989196777
1730865974.9336016,-1.8285831212997437,1.182466745376587,-9.922863006591797,-0.00692209665507311,0.006828114939040951,0.017135257321709507,1.2369897365570068,4.592675685882568,0.9035477638244629
1730865974.9834633,-1.8077365159988403,1.2220063209533691,-9.935257911682129,-0.010217354730884438,-0.001913324947920088,-0.015321470576610336,1.2369248867034912,4.58437442779541,0.9037861824035645
1730865975.0335941,-1.8268399238586426,1.19771409034729,-9.958266258239746,-0.01738805776810353,-0.01677918036582568,-0.04646402111856165,1.2368247509002686,4.575986385345459,0.9039487242698669
1730865975.0834959,-1.7553056478500366,1.1827597618103027,-9.942646980285645,-0.02473079097863358,-0.03428653958379256,-0.07143461868210027,1.2366728782653809,4.567589282989502,0.9039633870124817
1730865975.1334362,-1.7702215909957886,1.131227731704712,-9.93575382232666,-0.027677723025197557,-0.050053511823449144,-0.088243925550089,1.2363345623016357,4.585765361785889,0.9029080867767334
1730865975.1834197,-1.7350672483444214,1.0756663084030151,-9.8892240524292,-0.0230880398927015,-0.059004980299388596,-0.09634873315102215,1.2361358404159546,4.5813140869140625,0.902519166469574
1730865975.2334309,-1.6980245113372803,1.014807939529419,-9.849322319030762,-0.010710898090822117,-0.056290986339754975,-0.09407315966495891,1.2375754117965698,4.568212509155273,0.9023991823196411
1730865975.2833824,-1.74787175655365,0.9247363805770874,-9.83838939666748,0.0065194893002267565,-0.03898926276854372,-0.07861002072529275,1.2379118204116821,4.560065746307373,0.9018517732620239
1730865975.3333728,-1.7218077182769775,0.9190731048583984,-9.835184097290039,0.022918150863795478,-0.008302213781059432,-0.05038572230790522,1.2388354539871216,4.55056619644165,0.9022373557090759
1730865975.3833628,-1.710154414176941,0.9689270853996277,-9.809120178222656,0.03196584075890502,0.02896544457658698,-0.016041464132347825,1.2394310235977173,4.541730880737305,0.9018778204917908
1730865975.4333987,-1.6837084293365479,0.9878154993057251,-9.841340065002441,0.030700657031251233,0.06104962603757351,0.0148120956743519,1.239521861076355,4.536409854888916,0.9022877812385559
1730865975.483403,-1.650559425354004,1.0081390142440796,-9.836055755615234,0.02225940525122597,0.07559620580167059,0.034793764826781794,1.2399919033050537,4.529760837554932,0.9022390246391296
1730865975.5333564,-1.6746716499328613,1.0141290426254272,-9.857386589050293,0.01301810988211171,0.0669534318747775,0.041109675484515495,1.242364525794983,4.518932342529297,0.9023573994636536
1730865975.5833364,-1.6851810216903687,1.004333734512329,-9.852632522583008,0.007602406823907354,0.040061809222621245,0.03539837508734528,1.2446484565734863,4.506587505340576,0.9023218154907227
1730865975.6333683,-1.6851810216903687,1.004333734512329,-9.852632522583008,0.0064960662034181165,0.006990290458834798,0.0223694266810518,1.2461127042770386,4.497529029846191,0.902411937713623
1730865975.6333683,-1.5812643766403198,1.044628381729126,-9.859695434570312,0.00789085909176786,-0.02020737802228435,0.007749907369727816,1.2461258172988892,4.497448921203613,0.902413010597229
1730865975.683324,-1.7228114604949951,1.0327458381652832,-9.875347137451172,0.010908909382164714,-0.03520356444053879,-0.004000308052086884,1.24759042263031,4.488486289978027,0.9025247693061829
1730865975.7333395,-1.7228114604949951,1.0327458381652832,-9.875347137451172,0.015065653177185055,-0.03859447323321282,-0.011182070646204816,1.2491134405136108,4.479273319244385,0.9026194214820862
1730865975.7333395,-1.8088876008987427,1.0366780757904053,-9.752493858337402,0.017153251476508112,-0.03491564418916478,-0.014006431335282274,1.2491259574890137,4.479197978973389,0.9026200771331787
1730865975.7832942,-1.8492463827133179,1.0879586935043335,-9.823813438415527,0.011316958063537032,-0.029360131477864468,-0.012042858102950041,1.2470840215682983,4.490066051483154,0.902086615562439
1730865975.8332365,-1.8476037979125977,1.0733569860458374,-9.768607139587402,-0.006678263547686375,-0.02604753541366997,-0.003995585404376428,1.247924566268921,4.48438835144043,0.902010440826416
1730865975.8832293,-1.7965223789215088,1.0459142923355103,-9.815152168273926,-0.0337753394516667,-0.026070711569047222,0.00948678521830493,1.2496479749679565,4.472268104553223,0.9018322229385376
1730865975.933179,-1.7969716787338257,1.0425485372543335,-9.871280670166016,-0.058556265040318106,-0.026443370595185506,0.02418172884424034,1.2516931295394897,4.464207649230957,0.9016807675361633
1730865975.9832678,-1.7303887605667114,1.079399585723877,-9.879664421081543,-0.06867909619783805,-0.023318007056763266,0.033720689496925325,1.2527053356170654,4.457469463348389,0.9016887545585632
