Timestamp,IMU_Linear_Acc_X,IMU_Linear_Acc_Y,IMU_Linear_Acc_Z,Filtered_X,Filtered_Y,Filtered_Z,Pose_X,Pose_Y,Pose_Z
1730867818.564988,-0.17023104429244995,0.7348569631576538,-9.778532028198242,-0.0008212530078093778,-0.0035452023090811456,-0.04717499603845358,0.7269998788833618,2.546999216079712,0.878991961479187
1730867818.6149895,-0.13949798047542572,0.6931840181350708,-9.859502792358398,-0.005082714863141274,-0.02238016762526798,-0.3008723816489364,0.726992666721344,2.5469675064086914,0.8785676956176758
1730867818.6649628,-0.09710836410522461,0.6529256105422974,-9.946575164794922,-0.014124870755880523,-0.0648983117166562,-0.889181824629449,-0.15641403198242188,-0.5480090975761414,-0.19039283692836761
1730867818.7149658,-0.046440232545137405,0.625598669052124,-9.98769474029541,-0.02296099468181794,-0.1165953296221143,-1.6557621628636743,-0.43929585814476013,-1.5391552448272705,-0.5368490815162659
1730867818.7649868,-0.19412510097026825,0.5980353951454163,-10.062535285949707,-0.02276627354649126,-0.14664046079363866,-2.233281732946681,-0.7215261459350586,-2.5281474590301514,-0.8873064517974854
1730867818.814899,-0.2537338435649872,0.5821859240531921,-10.06357479095459,-0.01047946154309751,-0.13359712106782573,-2.3583311683081134,-1.002339482307434,-3.5123777389526367,-1.2416510581970215
1730867818.8649287,-0.36920663714408875,0.5913867950439453,-10.05744743347168,0.005758873484414083,-0.07794182884384185,-2.019882881449646,-0.14455562829971313,-0.5066384673118591,-0.18066774308681488
1730867818.9149406,-0.40091803669929504,0.5553888082504272,-10.038715362548828,0.010953116842941226,0.0028700005857898656,-1.3954748746062458,-0.1929919421672821,-0.6767140626907349,-0.24910412728786469
1730867818.9649167,-0.3555077314376831,0.4966592490673065,-10.024834632873535,-0.006990515181092819,0.08610567780654282,-0.7225426930706955,-0.05332246050238609,-0.18685102462768555,-0.07020886987447739
1730867819.0148277,-0.4113404154777527,0.4929519593715668,-9.978531837463379,-0.04953076116405195,0.1546818395923578,-0.19136594129197942,-0.022685810923576355,-0.07901503145694733,-0.03091173619031906
1730867819.0648484,-0.4741733968257904,0.46117648482322693,-9.958609580993652,-0.1076087426539958,0.20194343919103827,0.10701273200618054,-0.027477268129587173,-0.09420885890722275,-0.0384884849190712
1730867819.1148968,-0.39370197057724,0.4417394697666168,-9.886611938476562,-0.16840257451570514,0.23001053837335264,0.18003537048186044,-0.03264390304684639,-0.10899046808481216,-0.04577164724469185
1730867819.1649275,-0.2800374925136566,0.41251927614212036,-9.905156135559082,-0.2201419035776525,0.24567204649531754,0.09957578337535405,-0.0384221151471138,-0.12350138276815414,-0.05286518484354019
1730867819.214873,-0.31832143664360046,0.3916458785533905,-9.851201057434082,-0.252488168211605,0.2566889259762102,-0.0422954403518321,-0.006482838187366724,-0.020054278895258904,-0.008682952262461185
1730867819.2648811,-0.2610422372817993,0.4060252904891968,-9.856855392456055,-0.2585659305786583,0.26900618001510135,-0.16921158302210312,-0.00846429169178009,-0.02150118537247181,-0.010186576284468174
1730867819.3148706,-0.16575999557971954,0.38579505681991577,-9.89881420135498,-0.23825605841092368,0.2850395533705341,-0.23895381740488875,-0.0026518518570810556,-0.005316044203937054,-0.0030634612776339054
1730867819.3648703,-0.18300102651119232,0.37123626470565796,-9.926700592041016,-0.19726417313633163,0.3038015028274879,-0.24523283168232524,-0.004082868341356516,-0.004512424115091562,-0.004400979727506638
1730867819.4148767,-0.2938327193260193,0.34415295720100403,-9.985002517700195,-0.1446678637959978,0.3229037971015113,-0.20788138336619355,-0.0059757656417787075,-0.002897049766033888,-0.006339835934340954
1730867819.4648464,-0.33644914627075195,0.33049479126930237,-9.980561256408691,-0.0930643899289573,0.34068480879011154,-0.15736813625888307,-0.008144360966980457,-0.000467385514639318,-0.008714201860129833
1730867819.5149264,-0.32945162057876587,0.3181890845298767,-10.082508087158203,-0.05693926790292724,0.3568833460795375,-0.12049544421506578,-0.0012455154210329056,7.771115633659065e-05,-0.0013945942046120763
1730867819.564872,-0.19974462687969208,0.3471117615699768,-10.073122024536133,-0.04565442269895288,0.37183801851544046,-0.11249542549449389,-0.0006087179644964635,0.0007732295780442655,-0.0007866061059758067
1730867819.6148965,-0.22081482410430908,0.34376391768455505,-10.127371788024902,-0.056692190094161064,0.38517216853699887,-0.13581369649356476,-0.0009858470875769854,0.002684993203729391,-0.0015049834037199616
1730867819.6648688,-0.2551991045475006,0.38567525148391724,-10.113851547241211,-0.07741737782942776,0.39524348353571825,-0.1828112294671998,-0.0015238316264003515,0.005538074765354395,-0.0026082058902829885
1730867819.7148757,-0.2406700700521469,0.3998005986213684,-10.063949584960938,-0.09451865473491443,0.39971064670026,-0.24006549728571525,-0.0023301858454942703,0.009652364999055862,-0.004357966128736734
1730867819.7648504,-0.19339966773986816,0.43365535140037537,-10.038389205932617,-0.10110592547626145,0.3965276041434003,-0.2925944457926245,-0.003279981901869178,0.014262828044593334,-0.006544020492583513
1730867819.8148062,-0.2073809951543808,0.4376719295978546,-9.968716621398926,-0.09643215380994835,0.3848975150352442,-0.3275010430313827,-0.0004446135717444122,0.0018229667330160737,-0.0009970365790650249
1730867819.864708,-0.13006451725959778,0.48003140091896057,-9.91592025756836,-0.08268139198927177,0.3657929912610109,-0.33687174167219824,-0.0009564558858983219,0.00403962004929781,-0.002632439136505127
1730867819.9147854,-0.13429777324199677,0.46090057492256165,-9.887351989746094,-0.06260760889028903,0.34167951519198253,-0.3190670680648859,0.9271889328956604,2.0731475353240967,1.0934916734695435
1730867819.9647768,-0.24074949324131012,0.48987817764282227,-9.810522079467773,-0.039270389169948246,0.3145212918638767,-0.2777239192048781,0.8884685039520264,1.784924864768982,1.043918251991272
1730867820.0147803,-0.2708406150341034,0.5063333511352539,-9.818232536315918,-0.017873609639733577,0.2819297328648912,-0.21894617232437008,0.9936013221740723,1.956390619277954,1.1655919551849365
1730867820.064681,-0.293600857257843,0.5353542566299438,-9.808968544006348,-0.005047622702857468,0.23719328668812734,-0.15021213564366698,1.1001293659210205,2.1308093070983887,1.2884637117385864
1730867820.1147056,-0.3638942837715149,0.49399271607398987,-9.844966888427734,-0.00465270981726165,0.1767301711217349,-0.08181163899840024,0.8264405727386475,1.4100087881088257,0.9663458466529846
1730867820.1646836,-0.31038808822631836,0.4718581736087799,-9.894376754760742,-0.01557904492730262,0.10656230999143287,-0.025776021331001,0.8503894805908203,1.3975915908813477,0.9927741289138794
1730867820.2146811,-0.3803420066833496,0.4710530638694763,-9.965723991394043,-0.03189927747865921,0.04034266822370469,0.008296731990431582,0.8739687204360962,1.3855191469192505,1.0188374519348145
1730867820.264614,-0.3803420066833496,0.4710530638694763,-9.965723991394043,-0.044976552439391124,-0.008150174041724774,0.016167108219287026,0.8980560898780823,1.3731764554977417,1.04560387134552
1730867820.264614,-0.38693079352378845,0.47350627183914185,-10.025333404541016,-0.04878301922377878,-0.03177962829730013,-0.0005611646099195292,0.8996997475624084,1.3723310232162476,1.0474365949630737
1730867820.3146846,-0.30175408720970154,0.48173633217811584,-10.113279342651367,-0.04292076906986066,-0.0321944735119989,-0.035999152810547164,0.7748087644577026,1.0990581512451172,0.9032097458839417
1730867820.364589,-0.36957257986068726,0.4611865282058716,-10.12717056274414,-0.03046752342506303,-0.01742062638993782,-0.08188419040534262,0.7788879871368408,1.0489453077316284,0.9070389866828918
1730867820.4145875,-0.48252570629119873,0.4727891683578491,-10.101425170898438,-0.016803112756713236,0.0025300375689446073,-0.12638589479610962,0.7643900513648987,0.8776896595954895,0.8875231742858887
1730867820.4646525,-0.46714773774147034,0.49517932534217834,-10.080232620239258,-0.009729111430667955,0.01930136218703049,-0.15397484129396027,0.7661508321762085,0.8052119016647339,0.8878390789031982
1730867820.514597,-0.40928083658218384,0.5498872995376587,-9.996733665466309,-0.0138530653669505,0.02745065554741165,-0.152310148417069,0.7624450325965881,0.6524994373321533,0.8804278373718262
1730867820.5646389,-0.40928083658218384,0.5498872995376587,-9.996733665466309,-0.024281672034114292,0.02445006593398435,-0.11976084165061367,0.7632023096084595,0.682663083076477,0.8772386312484741
1730867820.5646389,-0.4745452105998993,0.6263284087181091,-9.949920654296875,-0.031362360778347975,0.011307279852070619,-0.06631836907481045,0.7632283568382263,0.6819576621055603,0.8772092461585999
1730867820.6145985,-0.49579834938049316,0.6643651127815247,-9.864461898803711,-0.031102525859718053,-0.008073047432269805,-0.00813755116498556,0.7644414901733398,0.6480113863945007,0.8757858276367188
1730867820.6645436,-0.5251914858818054,0.6856638789176941,-9.864839553833008,-0.027903500844931928,-0.030099927415852767,0.041459006157944,0.7655463218688965,0.6150434017181396,0.8744449019432068
1730867820.7145708,-0.4061228632926941,0.6870533227920532,-9.805144309997559,-0.02865904134253187,-0.053367936993860096,0.07776650698158766,0.7665982842445374,0.5814862847328186,0.8732302784919739
1730867820.7645698,-0.3545118570327759,0.6316974759101868,-9.8367919921875,-0.035280098550993955,-0.07698797441994153,0.10324233801333461,0.7641516923904419,0.7168669104576111,0.8764558434486389
1730867820.814586,-0.38415002822875977,0.5641370415687561,-9.855019569396973,-0.042529681964567995,-0.09755946189860049,0.12166106584940224,0.7645407915115356,0.7119372487068176,0.8765808343887329
1730867820.8645406,-0.3726496398448944,0.48832228779792786,-9.860417366027832,-0.04370639870030905,-0.10733896992677494,0.13212241491360985,0.7651085257530212,0.7309484481811523,0.8764963150024414
1730867820.9144163,-0.25100046396255493,0.4176897704601288,-9.966166496276855,-0.03653718158416514,-0.09696344627529555,0.12837481024944022,0.7655356526374817,0.7297667860984802,0.8768925666809082
1730867820.9654677,-0.09221707284450531,0.3243735730648041,-10.002379417419434,-0.0208153633953823,-0.06262846393533222,0.10443271934837833,0.7659071683883667,0.7283214330673218,0.8776132464408875
1730867821.0154576,-0.0364677719771862,0.3093952238559723,-10.110715866088867,0.007159640867112227,-0.009788506912180719,0.05939312978000111,0.7662416100502014,0.7268587946891785,0.8785022497177124
1730867821.0653799,-0.14031971991062164,0.28416648507118225,-10.092422485351562,0.05277224424158995,0.05081479740263531,-0.0025011442188566,0.7663053274154663,0.7386646270751953,0.8773096203804016
1730867821.115392,-0.11818156391382217,0.3541349768638611,-10.101541519165039,0.11369005720324823,0.1074595893744102,-0.0722906414508629,0.7669488191604614,0.7392792701721191,0.8774991631507874
1730867821.1653788,-0.02276989445090294,0.4095923900604248,-10.085699081420898,0.17428678017617075,0.1466517001245498,-0.13480881591690896,0.7674418687820435,0.7430962920188904,0.8775742053985596
1730867821.2153919,-0.26624396443367004,0.4500528573989868,-10.043210983276367,0.21205263467238936,0.1544216189943688,-0.1715323150234882,0.7683091759681702,0.7460181713104248,0.8778135180473328
1730867821.2653356,-0.25257623195648193,0.4607042372226715,-9.968915939331055,0.20949859960996312,0.12553791738133557,-0.1701980851848761,0.7697547078132629,0.7480599880218506,0.8772975206375122
1730867821.315248,-0.4108545184135437,0.46642476320266724,-9.8795804977417,0.16312705967436894,0.07045300134360669,-0.13145647525408904,0.771628201007843,0.7502977848052979,0.8764199614524841
1730867821.3653674,-0.5445758700370789,0.4607972800731659,-9.856210708618164,0.08487211214103396,0.009767671612946609,-0.06623753623862445,0.7693993449211121,0.7526431083679199,0.8781798481941223
1730867821.4153306,-0.5568928718566895,0.4077259600162506,-9.771404266357422,-0.005679195084731831,-0.03724369580008452,0.010270546364736979,0.7702925801277161,0.7547599077224731,0.8779496550559998
1730867821.4653132,-0.618038535118103,0.3820628523826599,-9.796863555908203,-0.08843465848248695,-0.059344938960140176,0.08170995584355877,0.7710721492767334,0.7567660808563232,0.8778336048126221
1730867821.515344,-0.7358740568161011,0.34131187200546265,-9.740052223205566,-0.14622624594419986,-0.05399125738795883,0.1331791561916578,0.769128680229187,1.1000221967697144,0.8785268664360046
1730867821.565309,-0.5172654390335083,0.3270144462585449,-9.86729621887207,-0.17008497917261212,-0.02609330033585033,0.15562164389901456,0.7687995433807373,1.1822123527526855,0.879048764705658
1730867821.615351,-0.3174099028110504,0.235072061419487,-9.970026016235352,-0.15763454162073362,0.01351885402728501,0.1461764215559924,0.7680580019950867,1.2647827863693237,0.8799514770507812
1730867821.6652813,-0.267519474029541,0.0931330993771553,-10.056248664855957,-0.10497468819517591,0.05293690779012392,0.10429025197153302,0.7669886350631714,1.3472896814346313,0.8811665773391724
1730867821.7152367,-0.4087749123573303,0.028657767921686172,-10.181737899780273,-0.009932705504515162,0.08697448773460072,0.03125575827172823,0.7684072852134705,1.439010739326477,0.8788548707962036
1730867821.7652075,-0.5030724406242371,0.03400279954075813,-10.149216651916504,0.11353742932793659,0.11804954510160301,-0.0648294785700939,0.7684083580970764,1.7489063739776611,0.8786067962646484
1730867821.815204,-0.46772125363349915,0.08054599165916443,-10.1718111038208,0.2297128005128372,0.1457836998463909,-0.16281662023013455,0.768786609172821,1.8818113803863525,0.8783711194992065
1730867821.865102,-0.46772125363349915,0.08054599165916443,-10.1718111038208,0.2974724426230316,0.1600340691364158,-0.23201139320265055,0.7698093056678772,2.0227584838867188,0.8776549100875854
1730867821.865102,-0.3595898747444153,0.09859777241945267,-10.031118392944336,0.29707326311701254,0.1489147259468097,-0.24925189365273215,0.7698829174041748,2.0301690101623535,0.8776017427444458
1730867821.9151871,-0.4189961552619934,0.16457030177116394,-10.095474243164062,0.24099172183095025,0.1100237538912203,-0.21169815250124296,0.7715367078781128,2.167346715927124,0.8763617277145386
1730867821.9651859,-0.5413584113121033,0.27407556772232056,-9.841023445129395,0.16074309001185022,0.0509110111929599,-0.13364404677878042,0.7687167525291443,2.0668721199035645,0.8796771764755249
1730867822.0151937,-0.5332012176513672,0.28295496106147766,-9.870943069458008,0.08547704320075405,-0.016817360865038572,-0.0366788167705131,0.7694830298423767,2.1524157524108887,0.8793622851371765
1730867822.0651846,-0.49869489669799805,0.41883379220962524,-9.860136032104492,0.030651181058244978,-0.08017187539496416,0.055632054985703505,0.7692473530769348,2.3946235179901123,0.8815440535545349
1730867822.1151848,-0.5428286790847778,0.441693514585495,-9.834816932678223,-0.00027795562705898186,-0.12639867266374408,0.12050723576671037,0.7697492837905884,2.536346912384033,0.8822939991950989
1730867822.165132,-0.5672373175621033,0.5180690288543701,-9.89523983001709,-0.011530065326710916,-0.14770247645746845,0.143845271305342,0.7702348828315735,2.6772725582122803,0.8833709955215454
1730867822.2151864,-0.5380048751831055,0.4569191336631775,-9.848512649536133,-0.012294544085084989,-0.1444978558184516,0.1271353428778527,0.7706948518753052,2.8190999031066895,0.8847993612289429
1730867822.2650938,-0.5380048751831055,0.4569191336631775,-9.848512649536133,-0.012066297316099246,-0.12382412058920861,0.08472370958236916,0.7711193561553955,2.9590253829956055,0.8864762187004089
1730867822.2650938,-0.49962756037712097,0.417614221572876,-9.942255020141602,-0.015686646745883718,-0.09498541981172898,0.035301586792676226,0.7711292505264282,2.962404251098633,0.8865193128585815
1730867822.3151314,-0.3929970860481262,0.34117114543914795,-9.9453763961792,-0.02178976978613825,-0.06517998867444444,-0.006875029691065021,0.7694830894470215,2.6700289249420166,0.8814428448677063
1730867822.3651204,-0.29776978492736816,0.23518681526184082,-9.987765312194824,-0.024230706813885585,-0.03704014367618915,-0.03639138462955985,0.7695379257202148,2.7398993968963623,0.8815595507621765
1730867822.4151235,-0.17413152754306793,0.21315836906433105,-9.974608421325684,-0.015531475336617601,-0.009166476888407434,-0.05392024186831425,0.7695427536964417,2.8102805614471436,0.8815624713897705
1730867822.4650624,-0.15975482761859894,0.13612498342990875,-9.997485160827637,0.009366398491042673,0.02107753861317211,-0.06150469075451485,0.7707159519195557,2.978052854537964,0.8806831240653992
1730867822.5149884,-0.14406313002109528,0.15801694989204407,-10.034453392028809,0.04992064484701355,0.05427965224206197,-0.061317129842128615,0.7711641192436218,3.0846641063690186,0.8803500533103943
1730867822.56498,-0.23009467124938965,0.1841123104095459,-10.018964767456055,0.09617155654488153,0.08537908800200195,-0.056113367669076264,0.7718119025230408,3.1941308975219727,0.8798578381538391
1730867822.6150308,-0.3769800662994385,0.2526607811450958,-9.993188858032227,0.12875837178802502,0.10310423943597835,-0.04844799400818032,0.7741910815238953,3.275446653366089,0.8799267411231995
1730867822.6649828,-0.3611060380935669,0.3089810311794281,-9.995058059692383,0.1287259684160148,0.09669515750026463,-0.03960944782633517,0.7755847573280334,3.3749616146087646,0.8795176148414612
1730867822.714979,-0.4393410086631775,0.33528488874435425,-9.956043243408203,0.09158317410994588,0.06452355881167167,-0.02976361389485756,0.7781450748443604,3.6200265884399414,0.8793145418167114
1730867822.7648704,-0.6611244082450867,0.33282381296157837,-9.961247444152832,0.030568454545310892,0.01618697537425335,-0.018834513525203544,0.781798779964447,3.888746500015259,0.8791139721870422
1730867822.8151286,-0.7219642996788025,0.27159255743026733,-9.918438911437988,-0.03497400109276558,-0.031987892452922995,-0.007286549895189494,0.7839514017105103,4.053165912628174,0.878801167011261
1730867822.8650336,-0.6951267719268799,0.2028864473104477,-9.936731338500977,-0.09002206672440836,-0.06330655806875199,0.0038501360038199176,0.7859800457954407,4.22012996673584,0.87847900390625
1730867822.9150095,-0.6281660199165344,0.10442674160003662,-9.939970016479492,-0.12413925842153749,-0.06597404438815593,0.013590580609519365,0.7877035737037659,4.3836259841918945,0.8781847357749939
1730867822.9648967,-0.6776039004325867,0.036849621683359146,-9.895060539245605,-0.13112507488337213,-0.035815350212217205,0.021378753785137664,0.7859858274459839,3.8688344955444336,0.8790139555931091
1730867823.0148978,-0.8107277154922485,-0.06316007673740387,-9.918837547302246,-0.11279141296370004,0.02263292592377121,0.027092786544070754,0.7867348790168762,3.898015022277832,0.8790062069892883
1730867823.0648725,-0.7231465578079224,-0.16109654307365417,-9.862717628479004,-0.0806896067107592,0.09527362377692938,0.030480522440693325,0.7872477173805237,3.9279210567474365,0.8790731430053711
1730867823.1149158,-0.6170532703399658,-0.19176051020622253,-9.940847396850586,-0.04982813382550037,0.1625997464541914,0.030627310190417693,0.7898123860359192,3.807731866836548,0.8783820271492004
1730867823.1648586,-0.4902276396751404,-0.19331404566764832,-9.937638282775879,-0.027927052186023264,0.20890801580114818,0.026536708933863364,0.7909653186798096,3.814528226852417,0.8783034682273865
1730867823.2148764,-0.41383877396583557,-0.11240832507610321,-9.98377799987793,-0.011178136547485455,0.2255640219624873,0.018116847168082376,0.7920451164245605,3.8217153549194336,0.878281831741333
1730867823.2648199,-0.3562030494213104,-0.05346217378973961,-10.017647743225098,0.01050349791236004,0.20791517675190962,0.006279007002292188,0.7941742539405823,3.7872211933135986,0.8776487112045288
1730867823.3148465,-0.29032009840011597,-0.00333996769040823,-10.019462585449219,0.04461067170301744,0.15649071992732289,-0.007688002878896009,0.795669436454773,3.7895424365997314,0.8774566650390625
1730867823.3647046,-0.30402234196662903,-0.00897380243986845,-10.023431777954102,0.08845140547638444,0.08173413897646294,-0.021710554668637506,0.7988311052322388,3.781615734100342,0.875378429889679
1730867823.414838,-0.37118300795555115,-0.008660740219056606,-10.000631332397461,0.12813450471652313,0.003204788648357399,-0.032169275211162814,0.8019714951515198,3.7799532413482666,0.873453676700592
1730867823.4647121,-0.3569198548793793,0.023485984653234482,-9.980673789978027,0.1468350508867849,-0.058535070672323386,-0.03530905908870047,0.804495632648468,3.780301570892334,0.8723506927490234
1730867823.5148964,-0.3569198548793793,0.023485984653234482,-9.980673789978027,0.1360781236615077,-0.09112124949816952,-0.029661720363572286,0.8073528409004211,3.7804622650146484,0.8711748123168945
1730867823.5148964,-0.3739593029022217,0.09213262796401978,-9.95660400390625,0.1008597502690679,-0.09465663095360177,-0.016851479681650745,0.8074174523353577,3.780463218688965,0.871148943901062
1730867823.564729,-0.4869861602783203,0.09645755589008331,-9.897329330444336,0.05470920664370501,-0.0797765810780966,-8.351002287079572e-05,0.8058291077613831,3.84735369682312,0.8731182813644409
1730867823.6147935,-0.598146915435791,0.03851708397269249,-9.867778778076172,0.009741609989881437,-0.06057344429104339,0.01802110108892205,0.8076320290565491,3.8656654357910156,0.8728241920471191
1730867823.6647382,-0.5695338845252991,-0.04627304896712303,-9.88987922668457,-0.028518718066368957,-0.045020514666484476,0.03522206980650281,0.8085588216781616,3.914734125137329,0.8732522130012512
1730867823.7146847,-0.4997951090335846,-0.130850687623024,-9.858667373657227,-0.05803885407835266,-0.030586598680992103,0.04818365644183416,0.8091282844543457,3.973160743713379,0.8734558820724487
1730867823.7647238,-0.4966428279876709,-0.12467695772647858,-9.939098358154297,-0.0752413140593351,-0.010889812087294549,0.05318876278869097,0.8099634051322937,4.006986618041992,0.873618483543396
1730867823.8146431,-0.3637737035751343,-0.08643887937068939,-9.940042495727539,-0.07528064413023723,0.013990770811174145,0.04755085761502109,0.8106308579444885,4.041747093200684,0.873913049697876
1730867823.864671,-0.31372901797294617,-0.0006059064762666821,-10.021327018737793,-0.05557739980482651,0.03518413186700154,0.029766973198910945,0.8111256957054138,4.076195240020752,0.8743022084236145
1730867823.9146612,-0.23768243193626404,0.025315234437584877,-10.045991897583008,-0.016782286691000535,0.04097753750569233,-0.0002308253885071141,0.8099020719528198,4.046070575714111,0.8737236261367798
1730867823.9646485,-0.2630771994590759,0.026216454803943634,-10.059981346130371,0.036503917722048175,0.024802415425642228,-0.039592683567975795,0.8099632859230042,4.098126411437988,0.8735159635543823
1730867824.014685,-0.2630771994590759,0.026216454803943634,-10.059981346130371,0.09216489059555566,-0.00883141724539184,-0.08002086211180874,0.8104185461997986,4.128891468048096,0.8733261227607727
1730867824.014685,-0.42000579833984375,0.07755036652088165,-10.040255546569824,0.13109420914975872,-0.045609530377510726,-0.10852399908557502,0.8104575872421265,4.1309590339660645,0.8733060359954834
1730867824.0646842,-0.5827488899230957,0.07810226082801819,-9.991840362548828,0.13520897372351712,-0.07116839275939635,-0.1141597471408791,0.8104889392852783,4.176087379455566,0.8731807470321655
1730867824.1146386,-0.6147438287734985,0.09606187045574188,-9.971739768981934,0.09640382063478244,-0.07963432711929065,-0.09444069879775166,0.811235785484314,4.21150541305542,0.8726813793182373
1730867824.1646411,-0.6503036022186279,0.03347707539796829,-9.952352523803711,0.023323953937913044,-0.07308349039942459,-0.056144910271446524,0.8121238946914673,4.24635124206543,0.8719999194145203
1730867824.214662,-0.5437839031219482,-0.004497043788433075,-9.959142684936523,-0.058742727920937134,-0.05592105781075173,-0.011654881082220733,0.8108134269714355,4.177654266357422,0.8735835552215576
1730867824.2646375,-0.5223942995071411,-0.058538272976875305,-9.992899894714355,-0.12008458567017734,-0.03149389827825154,0.026417901555792156,0.8108260035514832,4.1878132820129395,0.8735475540161133
1730867824.314654,-0.46008482575416565,-0.048649732023477554,-9.996838569641113,-0.14159067146651516,-0.002960019503416631,0.049021146078784376,0.8108335733413696,3.782313346862793,0.8743023872375488
1730867824.364643,-0.4593431353569031,-0.10078905522823334,-9.994590759277344,-0.12128704133172796,0.02505613964833718,0.0523816866342557,0.8104544281959534,3.656712770462036,0.8746626973152161
1730867824.414629,-0.4889429211616516,-0.19007070362567902,-9.946416854858398,-0.07249533093562448,0.047891036930264336,0.03943245679350047,0.8098415732383728,3.5336217880249023,0.8751301765441895
1730867824.464508,-0.4726772904396057,-0.13423514366149902,-9.895625114440918,-0.016829019096446483,0.06404221763406781,0.0196119096597312,0.8091185688972473,3.4105985164642334,0.8756704926490784
1730867824.5145974,-0.5196481347084045,-0.05088105425238609,-9.827597618103027,0.02554313995843665,0.07488513170728463,0.005374681424885391,0.8110406994819641,3.4717202186584473,0.8747237324714661
1730867824.5645578,-0.547447144985199,0.03750458359718323,-9.804165840148926,0.043534007300141425,0.08013696492408925,0.006418970420508421,0.8110987544059753,3.3983936309814453,0.8748956918716431
1730867824.614607,-0.45904067158699036,0.09279090166091919,-9.80870246887207,0.03753261802667698,0.0751712582818141,0.023706645005763936,0.8117504715919495,3.492556571960449,0.8750367760658264
1730867824.6645432,-0.5045556426048279,0.16562597453594208,-9.846802711486816,0.017224864597141516,0.05443548875648502,0.04792667145658555,0.8120532631874084,3.469395160675049,0.8753167390823364
1730867824.7145371,-0.5902310609817505,0.1722186654806137,-9.905990600585938,-0.005488633026236908,0.01788362909485421,0.06507973288043059,0.8133835792541504,3.4328196048736572,0.8754464983940125
1730867824.7644453,-0.6023976802825928,0.15336349606513977,-9.91825008392334,-0.02430890292321692,-0.026072062598665104,0.06454357444383707,0.8138976693153381,3.4017107486724854,0.8758723139762878
1730867824.8145719,-0.6023976802825928,0.15336349606513977,-9.91825008392334,-0.03844285536211015,-0.06377787757727629,0.044691648754325734,0.81437748670578,3.3679916858673096,0.8764618635177612
1730867824.8145719,-0.6225128173828125,0.11896470934152603,-9.99692440032959,-0.04735049139487672,-0.0828484841450685,0.013109877568811198,0.814387857913971,3.3671748638153076,0.8764774799346924
1730867824.8645155,-0.5613222718238831,0.06463705003261566,-10.01647663116455,-0.04955393918645276,-0.07750449538274462,-0.019823261150700495,0.8141806721687317,3.3706116676330566,0.8755600452423096
1730867824.914472,-0.5613222718238831,0.06463705003261566,-10.01647663116455,-0.044509620426244206,-0.05024407486560282,-0.04732697150476167,0.8158383369445801,3.3115031719207764,0.87557452917099
1730867824.914472,-0.4891810119152069,-0.008659758605062962,-10.047863960266113,-0.03303122518069914,-0.010549950206684698,-0.06598232802922961,0.815852701663971,3.310682535171509,0.8755744099617004
1730867824.9645197,-0.4577224552631378,-0.10575094819068909,-10.063413619995117,-0.01636942271459302,0.02961816378670998,-0.0735982699539167,0.8164204359054565,3.277092933654785,0.8754799365997314
1730867825.0144773,-0.46731552481651306,-0.161344513297081,-10.033702850341797,0.0046693437634131255,0.06314407024946242,-0.07033979020664563,0.8186892867088318,3.1956963539123535,0.8773127794265747
1730867825.0644498,-0.5008350610733032,-0.2195551097393036,-10.027052879333496,0.028489341767229344,0.09036082530260209,-0.059351351651809665,0.8200724720954895,3.1362667083740234,0.8778327703475952
1730867825.1144166,-0.5261354446411133,-0.21857768297195435,-9.926782608032227,0.049763925878164625,0.11279295074860984,-0.04403782233930243,0.821561872959137,3.076766014099121,0.8782255053520203
1730867825.1644113,-0.5381745100021362,-0.25837087631225586,-9.913412094116211,0.05985086017089694,0.12765685762031712,-0.02512675638312797,0.8202185034751892,3.137669324874878,0.8782641887664795
1730867825.2144167,-0.4455847144126892,-0.21004299819469452,-9.897982597351074,0.053019397209488096,0.13046093871606912,-0.0015148742100240566,0.8211561441421509,3.1086535453796387,0.8785349726676941
1730867825.2653828,-0.44425517320632935,-0.1828022003173828,-9.916604042053223,0.03317389781150831,0.1186560976096186,0.025089222149382567,0.822208821773529,3.0798075199127197,0.8788374066352844
1730867825.3153262,-0.48951461911201477,-0.17444758117198944,-9.93104362487793,0.012793702586679556,0.09165866464913267,0.047843185645769545,0.8233101963996887,3.0514895915985107,0.8792292475700378
1730867825.3653033,-0.48951461911201477,-0.17444758117198944,-9.93104362487793,0.0035909764387377875,0.051613622623586375,0.05877981030782473,0.8228510022163391,3.0719382762908936,0.8793997764587402
1730867825.3653033,-0.5495502948760986,-0.18855208158493042,-9.932469367980957,0.008273969462485138,0.00522670875043804,0.054470895934340555,0.8228710889816284,3.0713884830474854,0.879411518573761
1730867825.415324,-0.5076318979263306,-0.25654715299606323,-9.948877334594727,0.020127452300741387,-0.036358127809350424,0.037831489800678804,0.8237001299858093,3.049302816390991,0.879927933216095
1730867825.4653606,-0.4387698173522949,-0.2886087894439697,-9.975468635559082,0.029267549955582742,-0.060466497332227254,0.015600348006596473,0.8267714977264404,3.0610837936401367,0.880586564540863
1730867825.515201,-0.3803447186946869,-0.3123088777065277,-10.002730369567871,0.03064144434228946,-0.058741657912771125,-0.005759558304140239,0.8283780217170715,3.0477774143218994,0.8811389207839966
1730867825.5651891,-0.3644183874130249,-0.2879054546356201,-10.048730850219727,0.026873646113770053,-0.033184561281277905,-0.02257001115051517,0.8310343027114868,3.4407958984375,0.8828274011611938
1730867825.6152387,-0.3644183874130249,-0.2879054546356201,-10.048730850219727,0.02388730861013463,0.003608650498761634,-0.03393429186440486,0.8342307209968567,3.734187364578247,0.8844291567802429
1730867825.6152387,-0.33844807744026184,-0.27192479372024536,-10.065044403076172,0.024898047327577288,0.03562746908176107,-0.04011834985256831,0.8342792391777039,3.7376036643981934,0.8844498991966248
1730867825.665251,-0.447870671749115,-0.26622533798217773,-10.001274108886719,0.028137624561756502,0.05176553694515326,-0.04089312982283742,0.836455762386322,3.8885068893432617,0.8853136897087097
1730867825.7152057,-0.5357992649078369,-0.2631600797176361,-9.929214477539062,0.02788944708564836,0.0492378677225941,-0.034956849408374194,0.8387483358383179,4.042721271514893,0.8861007690429688
1730867825.7651834,-0.5096760392189026,-0.1975814253091812,-9.869047164916992,0.016834958164732107,0.03193457368505542,-0.01992524123508843,0.8410716652870178,4.195352077484131,0.8868107795715332
1730867825.815258,-0.47204068303108215,-0.13597050309181213,-9.849055290222168,-0.009403028781836745,0.0059652467156843005,0.006792755952778702,0.8379297256469727,3.717679023742676,0.8863658905029297
1730867825.8651528,-0.4871215224266052,-0.05939597636461258,-9.852531433105469,-0.047158898699177484,-0.024029833290686538,0.04456993328628088,0.8390437960624695,3.74052095413208,0.8869742751121521
1730867825.915227,-0.4983668029308319,0.010382134467363358,-9.880714416503906,-0.08461894628382632,-0.05473244844093075,0.08503042917682273,0.8399941325187683,3.763258934020996,0.8877432346343994
1730867825.9651318,-0.46031203866004944,0.06337461620569229,-9.904531478881836,-0.10811769698768658,-0.08314719880438076,0.11298493982129353,0.8403209447860718,3.6754159927368164,0.8885026574134827
1730867826.0150995,-0.48458242416381836,0.09087398648262024,-9.921902656555176,-0.10981697384486505,-0.10725582574918499,0.11551886695741358,0.8409482836723328,3.6797375679016113,0.8897007703781128
1730867826.0650744,-0.5575814247131348,0.10282232612371445,-9.9512357711792,-0.09161661221804868,-0.12464901550693608,0.09081071587867832,0.8413349986076355,3.6839754581451416,0.891244649887085
1730867826.1150901,-0.5575814247131348,0.10282232612371445,-9.9512357711792,-0.06409319955071488,-0.13090589867987582,0.048243507349896644,0.8437322378158569,3.6598551273345947,0.8903515338897705
1730867826.1150901,-0.5486559867858887,0.11717738211154938,-9.97714614868164,-0.040492336354391714,-0.1227505025919573,0.001860335501313367,0.8438941240310669,3.659937620162964,0.8905212879180908
1730867826.1650162,-0.5322375893592834,0.12463708966970444,-9.991592407226562,-0.028198812143201784,-0.101727658118587,-0.036129450487776604,0.8464288711547852,3.6555283069610596,0.8918270468711853
1730867826.2150114,-0.473666250705719,0.1090933158993721,-10.002378463745117,-0.024864771607924035,-0.07342006969120808,-0.05875670902639334,0.8477010130882263,3.65533709526062,0.8926501870155334
1730867826.265029,-0.333417147397995,0.1201702356338501,-9.993040084838867,-0.02183575845844835,-0.04428208759121709,-0.06480808091145164,0.8504038453102112,3.6542751789093018,0.8924180865287781
1730867826.3151815,-0.2557920217514038,0.12424071133136749,-10.008484840393066,-0.009917457587351628,-0.019295236025600467,-0.0573727556725509,0.851962149143219,3.654064178466797,0.8926547765731812
1730867826.3649533,-0.3135853409767151,0.16117368638515472,-9.978473663330078,0.014689257316473898,-0.0015763600414352413,-0.041851603905233584,0.8535089492797852,3.653830051422119,0.8927671313285828
1730867826.4150481,-0.434196412563324,0.19223816692829132,-9.978782653808594,0.04564772757377599,0.00687279997133337,-0.02392622696431686,0.8540802597999573,3.6539788246154785,0.8928809762001038
1730867826.4650145,-0.5053747892379761,0.18290893733501434,-9.951776504516602,0.06854711462598816,0.0052908023806578185,-0.007692703677055031,0.8556506037712097,3.653952121734619,0.8930367827415466
1730867826.515006,-0.5962795615196228,0.13692818582057953,-9.943115234375,0.06983007554367296,-0.0038640703002825938,0.005060588540758944,0.8574082851409912,3.6539268493652344,0.8931905031204224
1730867826.5650103,-0.7020338773727417,0.11700146645307541,-9.936173439025879,0.04390730456756284,-0.013743125364194359,0.014420900983430854,0.8573035001754761,3.6539688110351562,0.8936280608177185
1730867826.6149547,-0.7155856490135193,0.0950564369559288,-9.931991577148438,-0.005591590102897994,-0.016339799648466984,0.02129520744460014,0.858628511428833,3.6539082527160645,0.8939216136932373
1730867826.66497,-0.7553377151489258,0.04918726161122322,-9.918928146362305,-0.06578997509384657,-0.007941832805358666,0.026083995313156937,0.8598665595054626,3.6538171768188477,0.8942747116088867
1730867826.7149396,-0.7915712594985962,0.028953345492482185,-9.919910430908203,-0.11753189380026899,0.009308817179092214,0.028317091161745994,0.8593059778213501,3.6599602699279785,0.8943798542022705
1730867826.7649055,-0.7915712594985962,0.028953345492482185,-9.919910430908203,-0.14520512193861504,0.03022533154177668,0.027596067426089835,0.8596761226654053,3.661332368850708,0.894743025302887
1730867826.7649055,-0.7707048654556274,0.02396971359848976,-9.889686584472656,-0.1440217362961248,0.04875178352329744,0.024352945991949607,0.8596801161766052,3.6613645553588867,0.8947520852088928
1730867826.8149004,-0.7505436539649963,0.040974896401166916,-9.864495277404785,-0.11827193239372483,0.05894717361537863,0.020072705759178973,0.8628244400024414,3.6667678356170654,0.8941597938537598
1730867826.8648667,-0.6451799869537354,0.10181128978729248,-9.85960865020752,-0.07662992889153987,0.05704191335261518,0.017054939279112828,0.8639141321182251,3.669536590576172,0.8942679166793823
1730867826.9148955,-0.529198408126831,0.15248271822929382,-9.852351188659668,-0.027890671235931343,0.04254795096008597,0.016817341990344268,0.8666055202484131,3.6730103492736816,0.8938553929328918
1730867826.9648027,-0.4828389883041382,0.1954866200685501,-9.896489143371582,0.02192015397721494,0.017529867758429376,0.018368762496159402,0.868169367313385,3.676025629043579,0.8938760161399841
1730867827.0148804,-0.46063172817230225,0.23660539090633392,-9.9302339553833,0.06768523000225518,-0.013498964499451064,0.018321612692918026,0.8698186874389648,3.6790003776550293,0.8939411640167236
1730867827.0648177,-0.45588186383247375,0.27953797578811646,-9.988388061523438,0.10240007755478717,-0.04429091773759063,0.012270201410533286,0.870184063911438,3.694180965423584,0.8934857249259949
1730867827.114808,-0.4315287172794342,0.31566479802131653,-10.019434928894043,0.11983954597911714,-0.06962488184034207,-0.002922417988475383,0.874532163143158,3.7139763832092285,0.893130898475647
1730867827.1647756,-0.41563573479652405,0.2840820848941803,-10.043498039245605,0.11850231377834829,-0.08606336950143863,-0.025805382333535423,0.8773976564407349,3.724095106124878,0.8929453492164612
1730867827.2147958,-0.4480864405632019,0.23662371933460236,-10.046934127807617,0.10147779447344113,-0.08991238702475729,-0.049372477700708836,0.8805376291275024,3.733997344970703,0.892666220664978
1730867827.2647395,-0.4823356866836548,0.13035114109516144,-10.027517318725586,0.07416198596892049,-0.07700728914515513,-0.06517832797602523,0.8839314579963684,3.7437896728515625,0.8922393918037415
1730867827.3147242,-0.5017386078834534,0.06030421704053879,-10.006057739257812,0.04205990945097321,-0.044604217906369585,-0.06836355914789707,0.8874335885047913,3.7533228397369385,0.891650378704071
1730867827.3646772,-0.5023231506347656,-0.02834065817296505,-9.960428237915039,0.009461830009607344,0.007431866988558597,-0.058740382799817595,0.8779252767562866,3.7364728450775146,0.8919206857681274
1730867827.4146936,-0.46149811148643494,-0.07735514640808105,-9.931436538696289,-0.019966804014783457,0.07467829789262476,-0.03910643264967316,0.8790157437324524,3.741692543029785,0.8914534449577332
1730867827.4646614,-0.4248727560043335,-0.12463036179542542,-9.912393569946289,-0.04123120400399464,0.1443307985696686,-0.013907871413368307,0.8800191879272461,3.747130870819092,0.8909249305725098
1730867827.5146546,-0.4603302776813507,-0.12373973429203033,-9.927400588989258,-0.04822298269340638,0.19699253860383215,0.011524114627044345,0.8807501792907715,3.758867025375366,0.8907909989356995
1730867827.5646737,-0.34864503145217896,-0.12487815320491791,-9.941730499267578,-0.03765038344450475,0.21740372729324586,0.032054495311802884,0.8817925453186035,3.76731276512146,0.8904486894607544
1730867827.6146433,-0.32861819863319397,-0.08741110563278198,-9.969271659851074,-0.011671677324145455,0.2022327614806374,0.043490767592538455,0.8827614784240723,3.776186227798462,0.8902043104171753
1730867827.664645,-0.3349571228027344,-0.06883873790502548,-9.950948715209961,0.023896517938917006,0.1582125670724136,0.04317102586199466,0.8834722638130188,3.7832894325256348,0.889927327632904
1730867827.7147295,-0.42308011651039124,-0.0464131161570549,-9.932425498962402,0.06112327997965501,0.09756129869311587,0.031610309452925686,0.8845762014389038,3.791863441467285,0.8897784948348999
1730867827.764701,-0.5233412981033325,-0.019232193008065224,-9.910051345825195,0.08838152850299531,0.03466481930418909,0.013861631519617437,0.8869673013687134,3.8106462955474854,0.8908597826957703
1730867827.8146956,-0.5972900390625,0.01304678525775671,-9.888920783996582,0.09188439293062631,-0.01764676665747795,-0.0021479544862361044,0.8882834315299988,3.8327229022979736,0.8915402293205261
1730867827.864691,-0.7003145813941956,0.025451509281992912,-9.865890502929688,0.06472160161463636,-0.05159577223968679,-0.009969792682496353,0.8898376822471619,3.8461244106292725,0.8918412923812866
1730867827.9147007,-0.7246884107589722,0.030048273503780365,-9.875812530517578,0.013695251004402503,-0.06546485451882354,-0.007959068822544706,0.891575038433075,3.8600783348083496,0.8921347856521606
1730867827.964796,-0.6600882411003113,0.044449713081121445,-9.868491172790527,-0.04504697134339306,-0.06253558462812411,0.0009713264110045145,0.8931562900543213,3.8729074001312256,0.89239901304245
1730867828.0147336,-0.6502536535263062,0.03844274953007698,-9.93863296508789,-0.09488754648691199,-0.049419342616782796,0.011686657304282092,0.8896262049674988,3.8588130474090576,0.8924694657325745
1730867828.0645974,-0.5982885360717773,0.03483934327960014,-9.956374168395996,-0.12382730055402012,-0.03353829566015862,0.01882854199473143,0.8898736238479614,3.8665218353271484,0.8927482962608337
1730867828.114631,-0.5587711334228516,0.00850615743547678,-10.051299095153809,-0.12583281600898322,-0.02001015555411615,0.01822008224327455,0.8898091912269592,3.8745360374450684,0.893088698387146
1730867828.164585,-0.5189235806465149,0.009915977716445923,-10.077878952026367,-0.1006831691011124,-0.010032030160354687,0.00752697651202978,0.8898056745529175,3.8826332092285156,0.8933219909667969
1730867828.21459,-0.4898005723953247,-0.008104630745947361,-10.108898162841797,-0.05414063130116862,-0.002128273511676686,-0.013337975464509402,0.8897167444229126,3.8919167518615723,0.8936446309089661
1730867828.2645862,-0.4916245937347412,-0.005507889203727245,-10.108419418334961,0.0016951908541478662,0.005194379541372498,-0.040370134748504,0.8895655870437622,3.900865316390991,0.8938904404640198
1730867828.3145766,-0.5296778082847595,-0.038506802171468735,-10.078292846679688,0.05098258569428186,0.012149797785667873,-0.06498912011509636,0.890616238117218,3.9168639183044434,0.894130527973175
1730867828.3645248,-0.6371452808380127,-0.095362089574337,-10.003148078918457,0.0799067468894915,0.01854510550763014,-0.07785389252630301,0.8922334313392639,3.9338202476501465,0.8948614597320557
1730867828.4145346,-0.7681609392166138,-0.16191551089286804,-9.919435501098633,0.08094976778796104,0.024909965314023515,-0.07306648533222829,0.89317786693573,3.9448158740997314,0.894927442073822
1730867828.4644763,-0.7681609392166138,-0.16191551089286804,-9.919435501098633,0.054013255407184255,0.03221194058772918,-0.04991711216297103,0.893137514591217,3.9569082260131836,0.8958619832992554
1730867828.4644763,-0.7756298184394836,-0.2051631510257721,-9.820653915405273,0.00690767736357052,0.04071767221003076,-0.013173186484747764,0.8931555151939392,3.9572088718414307,0.8958680629730225
1730867828.5144281,-0.747243344783783,-0.18481437861919403,-9.771254539489746,-0.04509850313744459,0.04916979567129555,0.02884331828993477,0.8937368392944336,3.9678728580474854,0.8961147665977478
1730867828.564519,-0.5809182524681091,-0.10970480740070343,-9.755520820617676,-0.0831177292273767,0.05464068860016007,0.06840144120213301,0.8941783905029297,3.979027509689331,0.8964909911155701
1730867828.6144392,-0.4935230612754822,-0.08124390244483948,-9.794273376464844,-0.0906592876487356,0.053022905488647326,0.10116142560706927,0.8944004774093628,3.990234375,0.8970754146575928
1730867828.6644082,-0.34354913234710693,-0.0348745696246624,-9.889130592346191,-0.058207263929905995,0.040398165645811765,0.1249538516995495,0.8933920860290527,3.977109909057617,0.8977194428443909
1730867828.7144673,-0.29635393619537354,0.007901664823293686,-9.94166088104248,0.01273628194801115,0.015553716232499754,0.13656172748501144,0.8934207558631897,3.9841437339782715,0.8986759781837463
1730867828.7644444,-0.27730071544647217,0.03150564059615135,-10.009871482849121,0.10455336364808243,-0.01757495183708335,0.1308045496164515,0.8949311971664429,3.5883629322052,0.8996748924255371
1730867828.8144226,-0.26282164454460144,0.08641783893108368,-10.076407432556152,0.18610067735732783,-0.05058887997098421,0.1037868655932011,0.8959633708000183,3.4666202068328857,0.9010298848152161
1730867828.8644304,-0.34682440757751465,0.07454299181699753,-10.065836906433105,0.2281929160214661,-0.0749956873086628,0.05794082219855919,0.8974618315696716,3.348893404006958,0.9025356769561768
1730867828.9144046,-0.43729567527770996,0.04908277094364166,-10.051543235778809,0.21776529205897488,-0.08608344426730813,0.003705709207597269,0.8964617848396301,3.263157367706299,0.9010787606239319
1730867828.9643903,-0.43729567527770996,0.04908277094364166,-10.051543235778809,0.16014381202188815,-0.08346270173350305,-0.04463393697797672,0.8977959752082825,3.173412561416626,0.9016774892807007
1730867828.9643903,-0.49366211891174316,-0.002724915277212858,-10.025867462158203,0.07517727921288556,-0.06954017675323731,-0.07515835409690995,0.8978281021118164,3.1715216636657715,0.9016889333724976
1730867829.0143902,-0.5387122631072998,-0.05821246653795242,-9.95612907409668,-0.010526418752919733,-0.047410643435067436,-0.08187328924818328,0.8975092172622681,3.261998176574707,0.9003280997276306
1730867829.0643363,-0.5116029381752014,-0.09354415535926819,-9.935406684875488,-0.07503819682158465,-0.01966412631354461,-0.0653691180841093,0.8982227444648743,3.226858139038086,0.9001004695892334
1730867829.1143315,-0.5680299997329712,-0.11692480742931366,-9.88536548614502,-0.10780839789755069,0.010481440446184126,-0.03234394979012858,0.8988759517669678,3.2511508464813232,0.8999268412590027
1730867829.164303,-0.6105480790138245,-0.12986217439174652,-9.870174407958984,-0.10921958696146564,0.03790508324737423,0.00636196191863856,0.8992680311203003,3.2296812534332275,0.8997389674186707
1730867829.2142503,-0.6242557168006897,-0.14141657948493958,-9.851107597351074,-0.08840410559844705,0.056974107303580795,0.039684049690121015,0.8994112014770508,3.2081987857818604,0.8996086120605469
1730867829.264306,-0.658439576625824,-0.16524143517017365,-9.848719596862793,-0.05956986474552594,0.06441168633653113,0.06019027776697228,0.9012294411659241,3.2221839427948,0.8997567296028137
1730867829.3152843,-0.621204674243927,-0.1479378044605255,-9.885872840881348,-0.03572900283298372,0.06089082873747636,0.06571764496443538,0.9017895460128784,3.2058145999908447,0.8999147415161133
1730867829.3652403,-0.7044731378555298,-0.13732117414474487,-9.906243324279785,-0.02299827863974891,0.04968470515768289,0.05790115643907139,0.9036267995834351,3.185739278793335,0.8996706604957581
1730867829.4152668,-0.7800452709197998,-0.14578086137771606,-9.935524940490723,-0.020270409462584175,0.03413657441881314,0.039717980660536084,0.9045421481132507,3.166512966156006,0.899848997592926
1730867829.4652286,-0.7197676301002502,-0.17498132586479187,-9.971240997314453,-0.02391547162935278,0.017503181583939882,0.015077487299223976,0.9054073095321655,3.147230863571167,0.9000977277755737
1730867829.5152397,-0.6109632253646851,-0.18205735087394714,-10.002535820007324,-0.030063362888751097,0.00403859881416271,-0.011284153827728554,0.9061943292617798,3.1282193660736084,0.9003483057022095
1730867829.565236,-0.5012906789779663,-0.20785975456237793,-10.015559196472168,-0.03230292199900616,-0.001917618821154334,-0.03569695790435172,0.9065716862678528,3.1441650390625,0.8994477391242981
1730867829.6152174,-0.36065009236335754,-0.1907140165567398,-10.034941673278809,-0.02175408161303866,0.0015153954273936588,-0.05639948988251564,0.90715092420578,3.132388114929199,0.8992927670478821
1730867829.665189,-0.2762988209724426,-0.16455620527267456,-10.035901069641113,0.0073879614158425064,0.011554741392136353,-0.07157139067342587,0.9093772172927856,3.0925774574279785,0.8991448283195496
1730867829.715162,-0.3064454197883606,-0.1555827558040619,-10.013076782226562,0.05204836377306194,0.021295100411260846,-0.07803303868911074,0.9105913639068604,3.07096004486084,0.8987725973129272
1730867829.7651343,-0.4283139705657959,-0.12821826338768005,-10.00635814666748,0.09823496592000282,0.024086534042162527,-0.0729858956562749,0.9132781028747559,3.0410242080688477,0.8989060521125793
1730867829.8152184,-0.55463707447052,-0.08774664998054504,-9.944674491882324,0.1248025208262681,0.01762458857918918,-0.0562469389426386,0.9153211116790771,3.0167958736419678,0.8984875082969666
1730867829.865122,-0.6834223866462708,-0.052973125129938126,-9.921121597290039,0.11435089307761906,0.0037418956422289704,-0.030478065298975496,0.9176414012908936,2.992793560028076,0.8979656100273132
1730867829.915135,-0.7100874781608582,0.011009360663592815,-9.881169319152832,0.06299878413320774,-0.014543381275140384,0.0002971920212081914,0.9168738126754761,2.9885261058807373,0.8990745544433594
1730867829.9650898,-0.7121188640594482,0.036448363214731216,-9.870993614196777,-0.018115269728375943,-0.03498851969809212,0.031849476402933126,0.9186916947364807,3.2955868244171143,0.8992399573326111
1730867830.0150983,-0.671785295009613,0.03436270356178284,-9.892129898071289,-0.10501952451745845,-0.05476679298905904,0.05883595514431647,0.9215040802955627,3.6859781742095947,0.8993658423423767
1730867830.065056,-0.5827255249023438,0.004961840342730284,-9.899364471435547,-0.16743001209162897,-0.06845116187331886,0.0744164398242074,0.9230117201805115,3.879789352416992,0.8996202945709229
1730867830.1150553,-0.47295430302619934,-0.03176535665988922,-9.920963287353516,-0.1821770829437404,-0.0698580761326471,0.07362965251279936,0.9241108298301697,4.076511859893799,0.9000619053840637
1730867830.1650212,-0.3279724419116974,-0.041377272456884384,-9.944137573242188,-0.14276384038579581,-0.05592888147372979,0.05697643991353431,0.9248020648956299,4.271996021270752,0.9006625413894653
1730867830.21506,-0.2323184311389923,-0.06221342831850052,-9.947178840637207,-0.05720585336907165,-0.028385264651094297,0.029742669404870963,0.9235342144966125,3.6771280765533447,0.8985080718994141
1730867830.2649963,-0.2744947671890259,-0.10658000409603119,-9.975677490234375,0.05653662394663983,0.0069969946132910285,-0.0009531625097571111,0.9241084456443787,3.7116897106170654,0.8985001444816589
1730867830.3150313,-0.2888602614402771,-0.10885912925004959,-9.979814529418945,0.1691341919701727,0.042023656503016864,-0.028231888719233357,0.924963653087616,3.746333360671997,0.8984559178352356
1730867830.364911,-0.3317447006702423,-0.11643999069929123,-10.030116081237793,0.24370616980764126,0.06860265094583097,-0.04716589972970099,0.9263494610786438,3.78147292137146,0.898315966129303
1730867830.414971,-0.3825979232788086,-0.1169944629073143,-10.053695678710938,0.2534627213921984,0.08199392091894812,-0.056884926709368636,0.9262397885322571,3.603092670440674,0.8973143100738525
1730867830.464975,-0.47028547525405884,-0.11271871626377106,-10.057650566101074,0.1969405239886666,0.08227005293659709,-0.060487373122952895,0.9279820919036865,3.6092326641082764,0.8968615531921387
1730867830.5149345,-0.6012907028198242,-0.10311949998140335,-10.035122871398926,0.09619088913860996,0.07239316071575118,-0.060976598642306416,0.9282037019729614,3.581434965133667,0.8960534930229187
1730867830.5649467,-0.6694772243499756,-0.07381097227334976,-10.021329879760742,-0.016606728826828912,0.05557183545055651,-0.05781954776866603,0.9295708537101746,3.5833351612091064,0.8953425288200378
1730867830.6149259,-0.6708794236183167,-0.0600549653172493,-9.949745178222656,-0.11212079571074662,0.034571461870475065,-0.04841442225770622,0.929779052734375,3.5744736194610596,0.8948482871055603
1730867830.664845,-0.7640655040740967,-0.07463647425174713,-9.908074378967285,-0.17110672140795888,0.012362356033778405,-0.03131347659640725,0.9301120042800903,3.5724308490753174,0.8938918113708496
1730867830.7148652,-0.7938169836997986,-0.10080542415380478,-9.812731742858887,-0.18785908914961788,-0.0071319311081634515,-0.007630570076124936,0.9301314353942871,3.572672128677368,0.8931041955947876
1730867830.7648976,-0.7662782669067383,-0.0890180841088295,-9.761730194091797,-0.1692877535427793,-0.019433225366251323,0.019617658086810215,0.929702877998352,3.572880983352661,0.8923276662826538
1730867830.8148618,-0.7395749092102051,-0.08710040152072906,-9.78817081451416,-0.1287966842061804,-0.021815135772020364,0.047566312430996946,0.928907036781311,3.5730371475219727,0.8916407227516174
1730867830.864844,-0.7117124199867249,-0.06919494271278381,-9.798815727233887,-0.0798846744344057,-0.015355344237339617,0.07425167692421648,0.9305939674377441,3.571326971054077,0.8929077982902527
1730867830.9148397,-0.6725899577140808,-0.06942211836576462,-9.856317520141602,-0.03287304504437283,-0.004403243761360171,0.09657805246804438,0.9304108023643494,3.5713047981262207,0.8928521871566772
1730867830.9647791,-0.6871402263641357,-0.06744057685136795,-9.908863067626953,0.005693599422041937,0.005880576392962833,0.10805793500360006,0.9301947951316833,3.571284532546997,0.8930501341819763
1730867831.0147421,-0.6186792254447937,-0.07095407694578171,-9.953392028808594,0.0326250300559333,0.011952446860007912,0.1001149683610149,0.9300239086151123,3.571286678314209,0.8935149908065796
1730867831.0647945,-0.6186792254447937,-0.07095407694578171,-9.953392028808594,0.04839211491032401,0.012917003833504057,0.06762658441394322,0.9308027625083923,3.931708574295044,0.8937812447547913
1730867831.0647945,-0.5978752374649048,-0.08444726467132568,-9.999350547790527,0.056587906303962765,0.010093506874680932,0.014365369708019916,0.930806040763855,3.933281421661377,0.893788754940033
1730867831.1147377,-0.5493442416191101,-0.10127929598093033,-10.019203186035156,0.06079135711517628,0.006013916771018951,-0.04630082174622513,0.9310209155082703,4.00222110748291,0.8940632343292236
1730867831.1648302,-0.5156559944152832,-0.12920717895030975,-10.01392936706543,0.06270769614111997,0.003576507712858769,-0.09700877050101626,0.9320476651191711,4.3115434646606445,0.8940345644950867
1730867831.214763,-0.4829149842262268,-0.1391855925321579,-10.010281562805176,0.06353311548639085,0.005102275236167821,-0.12493334993343298,0.9326791167259216,4.444403648376465,0.8937914967536926
1730867831.2647932,-0.4561067819595337,-0.10506194829940796,-10.022939682006836,0.06428835598037823,0.010677826835561333,-0.12629477270408196,0.9332201480865479,4.6835808753967285,0.8942646980285645
1730867831.3147829,-0.4524329900741577,-0.051270026713609695,-10.02632999420166,0.06449895050821305,0.016973594738128494,-0.10536910130332472,0.9340862035751343,4.983527183532715,0.894605278968811
1730867831.3647044,-0.5132957100868225,0.005408570636063814,-10.011983871459961,0.0619544559197773,0.018685015932312577,-0.07149292977979242,0.93496173620224,5.176191329956055,0.8943188190460205
1730867831.4147663,-0.42911940813064575,-0.04624214768409729,-10.133487701416016,0.053801388215985776,0.012210290835589239,-0.03586386382317516,0.9359763860702515,5.367376327514648,0.8938990235328674
1730867831.4647627,-0.2863498032093048,-0.07675214856863022,-10.159688949584961,0.03994726591361088,-0.0011730501457728791,-0.009415037113283797,0.9371027946472168,5.557614803314209,0.8934248685836792
1730867831.5147877,-0.30411431193351746,-0.04202047362923622,-10.145655632019043,0.02685379681625865,-0.015559773808010775,-0.0009680510011986143,0.9350700378417969,5.314370155334473,0.8960638642311096
1730867831.5647354,-0.31183895468711853,-0.000522137968800962,-10.068158149719238,0.024114995520031837,-0.024789628582233766,-0.01272325518550298,0.9355745911598206,5.418952941894531,0.8962516188621521
1730867831.6147764,-0.3016374409198761,0.02062959596514702,-9.967325210571289,0.03452471078323141,-0.027162655193259867,-0.035306046379888455,0.9346619248390198,5.635004997253418,0.8977171182632446
1730867831.664702,-0.27924105525016785,0.04606457054615021,-9.872421264648438,0.050437053357041406,-0.025778360804565543,-0.050277092105284894,0.9349089860916138,5.784773826599121,0.8981140851974487
1730867831.7148302,-0.2706417441368103,0.06441797316074371,-9.81070327758789,0.06124276980516834,-0.02481825593301957,-0.042003037634574386,0.9353041052818298,5.938562393188477,0.8984054327011108
1730867831.7646415,-0.24789361655712128,0.1252770721912384,-9.780105590820312,0.061814377116006354,-0.026654079084851318,-0.007550241826651706,0.9358464479446411,6.0897603034973145,0.8986297249794006
1730867831.8146205,-0.22563979029655457,0.18028979003429413,-9.790687561035156,0.05422500078740646,-0.03267610288424105,0.044584585085909165,0.934460461139679,5.9271392822265625,0.8991966247558594
1730867831.8646464,-0.22961215674877167,0.23854705691337585,-9.809189796447754,0.04429809975529912,-0.04445275571796063,0.10045556472701245,0.9347549080848694,6.025051593780518,0.8998015522956848
1730867831.9146519,-0.24973608553409576,0.2946334481239319,-9.859601020812988,0.03640032204018437,-0.06170801279047472,0.14356198511099627,0.9324954152107239,6.244196891784668,0.9010417461395264
1730867831.9646115,-0.2606361210346222,0.34851834177970886,-9.893406867980957,0.030445501411008942,-0.08056139232990923,0.1584389059347136,0.9306305646896362,6.572025775909424,0.9027841687202454
1730867832.0146534,-0.29723799228668213,0.3884788751602173,-9.954659461975098,0.023675676019421284,-0.09529647889344355,0.13836752555499177,0.9298681616783142,6.765806198120117,0.9044238924980164
1730867832.064501,-0.3168172240257263,0.4180038571357727,-9.97198486328125,0.013961860460021885,-0.10129358535132452,0.08986564802092045,0.9291452765464783,6.961526393890381,0.9063739776611328
1730867832.114559,-0.33957961201667786,0.46356749534606934,-9.993561744689941,0.0007356441343690269,-0.09754811191100002,0.02819905400818614,0.9284635782241821,7.150806903839111,0.9084084033966064
1730867832.164472,-0.34395840764045715,0.5079119801521301,-10.01113510131836,-0.01560991556725906,-0.08819122442379398,-0.031007118426889302,0.9286984205245972,6.901780128479004,0.9044046401977539
1730867832.2145474,-0.3475315570831299,0.5468258857727051,-10.012052536010742,-0.03357238504308409,-0.08034679064405323,-0.07686031450532257,0.9281145334243774,7.006471633911133,0.9049385786056519
1730867832.2645714,-0.33697187900543213,0.58421790599823,-9.996397972106934,-0.049510885037208074,-0.07849782084655375,-0.10313600383678517,0.9277809262275696,6.825840473175049,0.9037500619888306
1730867832.314469,-0.3273389935493469,0.6248932480812073,-9.991684913635254,-0.05814254500644731,-0.08123983785306449,-0.10698874289052233,0.9270123243331909,6.853744983673096,0.9034862518310547
1730867832.3645422,-0.3099673390388489,0.6701872944831848,-9.979191780090332,-0.05563708402283458,-0.08399789304209447,-0.09009264204109468,0.9262018203735352,6.8780741691589355,0.9030196666717529
1730867832.4144907,-0.31136396527290344,0.7091192007064819,-9.964323043823242,-0.042177184245771104,-0.08387883080879247,-0.05937374315852738,0.9252178072929382,6.903834819793701,0.9023402333259583
1730867832.4644997,-0.2922649085521698,0.739075243473053,-9.953125,-0.021528308070007586,-0.08215267426984288,-0.024237457059091416,0.926173746585846,6.775410175323486,0.9033734798431396
1730867832.5144536,-0.2766300439834595,0.7635098695755005,-9.94924259185791,0.001049114777335585,-0.0825110164265808,0.007126086774226917,0.9232164025306702,6.758556365966797,0.9035414457321167
1730867832.5644002,-0.2529183030128479,0.767306923866272,-9.956155776977539,0.020579218689532174,-0.08593257374336478,0.029228751937787536,0.9219529032707214,6.758506774902344,0.9035740494728088
1730867832.6144073,-0.22672872245311737,0.7642041444778442,-9.944282531738281,0.033670216159078586,-0.08799004132134197,0.03932393833821508,0.919782817363739,6.749153137207031,0.9037760496139526
1730867832.6643481,-0.20621725916862488,0.7547253966331482,-9.948503494262695,0.03956804387271531,-0.08257054335965378,0.03775975687709972,0.9183109402656555,6.7476654052734375,0.9039862155914307
1730867832.7143457,-0.21053795516490936,0.7213336825370789,-9.94926643371582,0.039803488076479605,-0.06703479465034923,0.027891768757111343,0.9169511198997498,6.7460036277771,0.9042767286300659
1730867832.7642815,-0.24099090695381165,0.7171309590339661,-9.936166763305664,0.03632429393959438,-0.043173546796767465,0.014594158960554741,0.9156885743141174,6.744208335876465,0.9046194553375244
1730867832.8142643,-0.300405353307724,0.7102959156036377,-9.934663772583008,0.02986256907776872,-0.015190351737115724,0.0024964578609026015,0.9160193800926208,6.7451252937316895,0.9025889039039612
1730867832.8642976,-0.3540678918361664,0.7038407325744629,-9.926929473876953,0.019588780056012813,0.0119891272111126,-0.005172936207251107,0.9134604334831238,6.743383407592773,0.9013808369636536
1730867832.914302,-0.42371731996536255,0.7091707587242126,-9.913565635681152,0.004464529218784636,0.033360486042033954,-0.007243787547825828,0.9121164679527283,6.742517471313477,0.9009143114089966
1730867832.9642937,-0.5013022422790527,0.7021667957305908,-9.888162612915039,-0.015159109555433429,0.044733959629699185,-0.0044022935774453015,0.9108000993728638,6.741772651672363,0.9004474878311157
1730867833.0143254,-0.5741021633148193,0.6619684100151062,-9.863860130310059,-0.038496421587269236,0.044757464789861284,0.002042099770504265,0.909386932849884,6.741122722625732,0.8999673128128052
1730867833.0642562,-0.6374331712722778,0.6119410395622253,-9.848397254943848,-0.06657964574593617,0.03670528656439968,0.011368455171017458,0.9089648127555847,6.741198539733887,0.9000763297080994
1730867833.1142538,-0.6849269270896912,0.5234331488609314,-9.830127716064453,-0.10074911876468486,0.027752730338264798,0.023168481112825916,0.9075866341590881,6.740793228149414,0.8998258113861084
1730867833.1642356,-0.6927446722984314,0.44479095935821533,-9.842977523803711,-0.1367642037290503,0.02563736551507409,0.03562617173083528,0.9048017263412476,6.738797187805176,0.8987096548080444
1730867833.2151623,-0.6608794331550598,0.3524344265460968,-9.881677627563477,-0.16275619667634583,0.03506224053243764,0.044678798088670924,0.9022620320320129,6.737839698791504,0.8982455134391785
1730867833.2641692,-0.5812908411026001,0.2870282530784607,-9.944207191467285,-0.16569509131152899,0.055680896600944024,0.04538634809635428,0.9009700417518616,6.736586093902588,0.8974732756614685
1730867833.3141832,-0.46703702211380005,0.24666327238082886,-10.026633262634277,-0.13903503020361113,0.08220658846401543,0.03411110485915591,0.898246169090271,6.735705375671387,0.8970170021057129
1730867833.365205,-0.3359569013118744,0.22742094099521637,-10.09228515625,-0.08509271723722296,0.10634138752157321,0.010292942351428757,0.8951396942138672,6.735045433044434,0.8966039419174194
1730867833.41516,-0.19448144733905792,0.2241257280111313,-10.149576187133789,-0.011946463485118512,0.12001907880153387,-0.023422285566959532,0.8980951905250549,6.734431743621826,0.8963996767997742
1730867833.4651756,-0.08491773903369904,0.24817728996276855,-10.174662590026855,0.07084560616180337,0.11894427341474673,-0.06229518292294317,0.8967540860176086,6.7342023849487305,0.8959198594093323
1730867833.515151,-0.03889583796262741,0.2672094404697418,-10.161029815673828,0.15116853009449946,0.10336179571321018,-0.09868560874389828,0.8956971168518066,6.734248161315918,0.895246684551239
1730867833.5651407,-0.04962082579731941,0.27943238615989685,-10.110323905944824,0.2131256640178836,0.07604222489142104,-0.1217531347479679,0.8950788378715515,6.734520435333252,0.8942821025848389
1730867833.6151266,-0.1335146427154541,0.27020397782325745,-10.03225326538086,0.24373227587081997,0.04126499667959799,-0.12193293721862322,0.8935862183570862,6.731975078582764,0.8949705958366394
1730867833.665085,-0.22237001359462738,0.25628557801246643,-9.942326545715332,0.2389856272173836,0.005171124235629629,-0.0961017852352985,0.893231987953186,6.731541156768799,0.8940637707710266
1730867833.7150881,-0.28177139163017273,0.2341204136610031,-9.854788780212402,0.2016171321192392,-0.02456869451764178,-0.048790440932339155,0.887504518032074,6.728033065795898,0.8936824202537537
1730867833.7650928,-0.295653373003006,0.19907937943935394,-9.808663368225098,0.13822047172820706,-0.0407975084982513,0.009687961302751534,0.8860704898834229,6.72661018371582,0.8928967118263245
1730867833.8149855,-0.28435641527175903,0.1745995730161667,-9.805496215820312,0.06136258508350465,-0.040042843691843764,0.06591492568573162,0.8821163177490234,6.723942279815674,0.8925865292549133
1730867833.8650353,-0.2633325159549713,0.15374873578548431,-9.81692886352539,-0.010223438728202023,-0.024330839256854177,0.10640800387785966,0.8800859451293945,6.72210693359375,0.8922296166419983
1730867833.914978,-0.24196043610572815,0.12859173119068146,-9.856369972229004,-0.05866716265332916,-0.00022011778622493903,0.12167568247962479,0.8758688569068909,6.719584941864014,0.8914330005645752
1730867833.965001,-0.2376398891210556,0.12671563029289246,-9.908007621765137,-0.07520769406640013,0.02401059955077846,0.1094000548120231,0.8726212382316589,6.717358112335205,0.8912094831466675
1730867834.0149534,-0.2481156587600708,0.13381920754909515,-9.959962844848633,-0.06305675998473094,0.04127733701675047,0.07459081935115872,0.8691664934158325,6.71519136428833,0.8912155032157898
1730867834.0649068,-0.25877514481544495,0.15533822774887085,-10.000773429870605,-0.03449792357690871,0.04738670445941473,0.02675459898285825,0.8718016147613525,6.7165608406066895,0.8918649554252625
1730867834.1149065,-0.27869540452957153,0.17846986651420593,-10.042232513427734,-0.004467439973887825,0.04161164172979438,-0.02385312521144449,0.8699425458908081,6.7154741287231445,0.8919230103492737
1730867834.164905,-0.28484922647476196,0.205162912607193,-10.07830810546875,0.015735880114276447,0.026428944090258737,-0.06786329708326992,0.8667774200439453,6.712526321411133,0.8918963670730591
1730867834.2148511,-0.2861074209213257,0.22272300720214844,-10.095518112182617,0.021615735147910105,0.006320333800425406,-0.09743244436258264,0.8643172383308411,6.710716724395752,0.8916119933128357
1730867834.2648027,-0.30350521206855774,0.2239251285791397,-10.075636863708496,0.015224117048946982,-0.013620116446537676,-0.10806313778381059,0.8619073629379272,6.7089009284973145,0.891072154045105
1730867834.3148973,-0.343025803565979,0.23422159254550934,-10.053449630737305,0.002212019151670367,-0.02890532413635415,-0.09972586496694395,0.8595193028450012,6.707032680511475,0.8902737498283386
1730867834.3649209,-0.39355984330177307,0.24898859858512878,-10.010313034057617,-0.012475435390694855,-0.03715566824971802,-0.07610842871392628,0.8633297681808472,6.709006309509277,0.8917003273963928
1730867834.4148412,-0.4498858153820038,0.272988498210907,-9.971128463745117,-0.02709291839096795,-0.03895263671662377,-0.04309978477023834,0.8620675206184387,6.707806587219238,0.8912929892539978
1730867834.4648561,-0.4684201776981354,0.31963440775871277,-9.932540893554688,-0.04165625415958192,-0.03697811558898794,-0.0073479438072384645,0.8594760894775391,6.704207420349121,0.8917784690856934
1730867834.5148163,-0.465415894985199,0.3707091510295868,-9.91384220123291,-0.05502325621214656,-0.03454500164303165,0.024896307268894566,0.8560125231742859,6.700528144836426,0.891918957233429
1730867834.5648203,-0.43561843037605286,0.4224971532821655,-9.896797180175781,-0.06379913923505288,-0.034362622346294155,0.048578942079941886,0.8538939356803894,6.698348045349121,0.8919827938079834
1730867834.6148107,-0.3937542736530304,0.47175708413124084,-9.90478229522705,-0.06341511421229631,-0.03763089827594221,0.060428785770951815,0.8513267040252686,6.695775508880615,0.8921855092048645
1730867834.664741,-0.3937542736530304,0.47175708413124084,-9.90478229522705,-0.05057012268014351,-0.044419606876073416,0.059857774575470035,0.8485592603683472,6.693044662475586,0.8925486207008362
1730867834.664741,-0.33405590057373047,0.5009461045265198,-9.909855842590332,-0.025380804259356255,-0.05469239935173643,0.04944718309937506,0.8484716415405273,6.692958354949951,0.8925623297691345
1730867834.7147558,-0.3119971454143524,0.5218351483345032,-9.911558151245117,0.008827458786709881,-0.06842410902665602,0.03389225630774349,0.8525360226631165,6.691346168518066,0.8920961022377014
1730867834.7647514,-0.3119971454143524,0.5218351483345032,-9.911558151245117,0.046687332903169815,-0.08449443310424137,0.018072748291316713,0.8512903451919556,6.688531875610352,0.8922634124755859
1730867834.7647514,-0.3018414080142975,0.5213607549667358,-9.925830841064453,0.08027763916442973,-0.09860985551586324,0.005449329976796588,0.8512693047523499,6.688479900360107,0.8922668099403381
1730867834.8147194,-0.3189065754413605,0.5097165107727051,-9.920686721801758,0.10000777058273817,-0.10353152625891851,-0.002684426771214622,0.8488509654998779,6.6810150146484375,0.8920669555664062
1730867834.8646808,-0.3334885239601135,0.511979341506958,-9.951149940490723,0.09962404754442959,-0.09392172636242774,-0.006985723512242748,0.8473050594329834,6.676109790802002,0.8920907378196716
1730867834.9146671,-0.3378918170928955,0.5119572877883911,-9.97525691986084,0.08018444780710032,-0.07084041490076376,-0.009371059924850121,0.8463340401649475,6.673373699188232,0.8939508199691772
1730867834.9646213,-0.33204835653305054,0.5335116982460022,-10.003393173217773,0.04905694943139574,-0.04121373288226916,-0.012207834233190247,0.8451621532440186,6.669021129608154,0.8945211172103882
1730867835.0146163,-0.31631091237068176,0.5389280319213867,-10.034788131713867,0.0163784302018351,-0.013985011131955202,-0.017148338801216613,0.8439266681671143,6.664788246154785,0.895641028881073
1730867835.0646083,-0.3080417215824127,0.5466575026512146,-10.039789199829102,-0.008619269765701439,0.0038806779090530905,-0.024146159348444697,0.84281986951828,6.660787582397461,0.8961958289146423
1730867835.1146169,-0.3124445378780365,0.5448037385940552,-10.003678321838379,-0.020785142535385645,0.009978857705401087,-0.031128655605641632,0.8397305011749268,6.654644966125488,0.8974452614784241
1730867835.1646056,-0.3172164857387543,0.5409566760063171,-9.976213455200195,-0.020488682271385356,0.006695276034716962,-0.03438054191502101,0.8379116654396057,6.649987697601318,0.8980903625488281
1730867835.214618,-0.3461202383041382,0.5303269624710083,-9.924551010131836,-0.012489993241983868,-0.000818370469820396,-0.03025812771318495,0.8359915614128113,6.645185947418213,0.8986740708351135
1730867835.264603,-0.37288665771484375,0.5287951231002808,-9.877959251403809,-0.0034559953466670934,-0.007317457301966427,-0.016942000958717097,0.834096372127533,6.640486717224121,0.8991847634315491
1730867835.3146114,-0.39576539397239685,0.52994304895401,-9.847213745117188,0.00038212401694481964,-0.00940811303533071,0.005596963630444617,0.8322080373764038,6.635793209075928,0.899678647518158
1730867835.3646045,-0.3907996416091919,0.538286566734314,-9.84162712097168,-0.004839344804362389,-0.006398276233982248,0.03609534700824142,0.8372775316238403,6.6446943283081055,0.9006063938140869
1730867835.4145908,-0.39625251293182373,0.5583151578903198,-9.85159969329834,-0.018934673181417446,-0.0001165943423240849,0.07079456517512966,0.8364534378051758,6.641971111297607,0.9014418721199036
1730867835.4644794,-0.387069970369339,0.5667004585266113,-9.894481658935547,-0.03687194258321438,0.0060070675595934545,0.10117111393095338,0.8332453370094299,5.910715103149414,0.9020839929580688
1730867835.5145237,-0.3800784945487976,0.5696362853050232,-9.946219444274902,-0.05069557805326268,0.008573701165510268,0.115252004493966,0.8302602767944336,5.321647644042969,0.903279185295105
1730867835.5645056,-0.36213985085487366,0.5435527563095093,-10.001419067382812,-0.054019353886558256,0.006382803232555098,0.10467809950572893,0.8282057642936707,5.022802352905273,0.9045555591583252
1730867835.6145594,-0.3367686867713928,0.5043430328369141,-10.044940948486328,-0.04522702213313259,0.0017304056192388453,0.0706733953715099,0.8261634111404419,4.7431440353393555,0.9059621691703796
1730867835.6645126,-0.2937334477901459,0.4594365954399109,-10.080224990844727,-0.026799197612338663,-0.0003998166589335311,0.022429772307642475,0.825429379940033,4.618202209472656,0.9047706127166748
1730867835.7144616,-0.2811872363090515,0.4127400517463684,-10.081335067749023,-0.0029589680707915716,0.004904683964587507,-0.02834899030684787,0.8216845393180847,4.037875652313232,0.9058008193969727
1730867835.764443,-0.2846861183643341,0.3393934369087219,-10.06832504272461,0.02107134866056981,0.019006517003891794,-0.07016223548277442,0.8193628191947937,3.6945762634277344,0.9064868688583374
1730867835.8144014,-0.29298099875450134,0.3080257177352905,-10.007137298583984,0.03910020337981461,0.03865470958280033,-0.09272327352685523,0.8155363202095032,3.2984158992767334,0.9071674346923828
1730867835.8644078,-0.3039267957210541,0.2842653691768646,-9.952106475830078,0.046067475907892085,0.058550891941441516,-0.0900499930975335,0.8126569390296936,2.9169650077819824,0.9076248407363892
1730867835.9144173,-0.313496857881546,0.28187820315361023,-9.900670051574707,0.040799162533192504,0.07367343017342645,-0.0635306905024539,0.8098684549331665,2.533280372619629,0.9078924655914307
1730867835.9643388,-0.33374035358428955,0.2879165709018707,-9.859716415405273,0.02620998856288679,0.0799543400585006,-0.020953962020603296,0.8125706315040588,2.8253543376922607,0.9078719615936279
1730867836.0143168,-0.33851099014282227,0.29840609431266785,-9.840025901794434,0.007283777050503097,0.07553989163610383,0.027201966447323294,0.8112180829048157,2.61700177192688,0.9081337451934814
1730867836.0644372,-0.34683957695961,0.31984543800354004,-9.853267669677734,-0.010777027472243263,0.061553751880219235,0.06981090489654453,0.8098481297492981,2.406813621520996,0.9085185527801514
1730867836.1143641,-0.3412836790084839,0.3613550364971161,-9.879509925842285,-0.023705827990509618,0.040814300494669914,0.09623512800928549,0.8084324598312378,2.1963489055633545,0.9091115593910217
1730867836.164427,-0.3195532262325287,0.38259631395339966,-9.947086334228516,-0.02920760930913113,0.016059295192894053,0.09957846287021527,0.8080703616142273,5.721233367919922,0.9072656035423279
1730867836.2143602,-0.2940673232078552,0.39314454793930054,-9.992778778076172,-0.027181205645888946,-0.010297584716655674,0.07953559493726797,0.8066250085830688,6.2264604568481445,0.9076197147369385
1730867836.2643948,-0.2831151485443115,0.3847613036632538,-10.042698860168457,-0.01893297282834316,-0.034575572646224254,0.042229067220850014,0.8051183819770813,6.733572006225586,0.9081222414970398
1730867836.3143604,-0.28882622718811035,0.34648603200912476,-10.055997848510742,-0.006500703568326256,-0.051163619973659064,-0.002467264658973685,0.8035489320755005,7.25109338760376,0.908684253692627
1730867836.3643355,-0.30608925223350525,0.2950824201107025,-10.072617530822754,0.007485906393469658,-0.05469903549702236,-0.04511747363188689,0.8032732009887695,8.501270294189453,0.9061495065689087
1730867836.414241,-0.33775874972343445,0.22219976782798767,-10.049574851989746,0.019728326661866632,-0.04276117368857857,-0.07909234435205503,0.8019242882728577,9.143815994262695,0.9058254361152649
1730867836.4642878,-0.36479777097702026,0.15892423689365387,-10.023740768432617,0.026379910641893482,-0.016949080651584694,-0.099040173221846,0.8006365299224854,9.784768104553223,0.905278205871582
1730867836.514219,-0.3811627924442291,0.11340607702732086,-9.999427795410156,0.02396589610629804,0.018162252794766184,-0.09976430262508437,0.7986634969711304,10.882490158081055,0.9037984013557434
1730867836.56428,-0.37462952733039856,0.10182347893714905,-9.983848571777344,0.011486006233579857,0.05673805585725283,-0.07943549301003057,0.797413170337677,11.529806137084961,0.9029085040092468
1730867836.6142547,-0.3608117699623108,0.11605261266231537,-9.971267700195312,-0.007349802204229814,0.090999943328087,-0.04339454914850588,0.7961595058441162,12.181668281555176,0.9018582105636597
1730867836.664241,-0.3511344790458679,0.13532882928848267,-9.964653968811035,-0.024666241729061872,0.11100654187573267,-0.0028606976310307387,0.7948722243309021,12.830463409423828,0.9007551074028015
1730867836.7142165,-0.3357808589935303,0.16384920477867126,-9.945497512817383,-0.032665065638037644,0.10925203077831425,0.030952017675887213,0.7923113107681274,13.469717979431152,0.8998810052871704
1730867836.7643876,-0.34669259190559387,0.20654140412807465,-9.935548782348633,-0.028110172932764,0.08554004846259973,0.05179253179020022,0.7906338572502136,14.127821922302246,0.8990617990493774
1730867836.8143184,-0.35771775245666504,0.24812407791614532,-9.922318458557129,-0.013983389412962097,0.046777192969521784,0.05888641198275656,0.786929190158844,16.906190872192383,0.8983771800994873
1730867836.8642652,-0.3519388437271118,0.2922584116458893,-9.922582626342773,0.002393346888568744,0.0031703173821763606,0.05480732964051481,0.7845904231071472,18.239538192749023,0.8977742195129395
1730867836.9142048,-0.34693077206611633,0.3448448181152344,-9.923287391662598,0.014039345614789391,-0.035810153061198016,0.04354155623558252,0.7822504639625549,19.585098266601562,0.897286593914032
1730867836.964165,-0.3273090124130249,0.397896409034729,-9.922053337097168,0.018293880798717476,-0.06458163480679807,0.02921958683311894,0.7799464464187622,20.932865142822266,0.8968881368637085
1730867837.0141268,-0.311948299407959,0.45184311270713806,-9.933830261230469,0.017130629588900867,-0.08351516218440383,0.01527908140166305,0.7776714563369751,22.28940200805664,0.8965427279472351
1730867837.0641482,-0.2910541594028473,0.4936157763004303,-9.953322410583496,0.014938860761797516,-0.09834116330100386,0.0038581808434545316,0.7822709679603577,19.680679321289062,0.8971677422523499
1730867837.114157,-0.2778570353984833,0.5237060189247131,-9.976223945617676,0.015734778207513157,-0.11530567638172703,-0.004597074310386077,0.7812021970748901,20.335546493530273,0.8968794941902161
1730867837.1641095,-0.271213561296463,0.5392717719078064,-9.994975090026855,0.020664563703452,-0.1341980016802266,-0.010942642985300486,0.7780784368515015,22.990549087524414,0.8953474164009094
1730867837.2141483,-0.2528272569179535,0.5369073152542114,-9.997950553894043,0.027461246807416392,-0.14669668883658868,-0.01621993775220565,0.7762143611907959,24.4105281829834,0.8945521712303162
1730867837.264088,-0.24128837883472443,0.5239627361297607,-9.997316360473633,0.03269767237883962,-0.14321595814586036,-0.020549431477829748,0.7738972306251526,26.221641540527344,0.8935572504997253
1730867837.3141103,-0.2488049566745758,0.5111032128334045,-9.967495918273926,0.03429834359028262,-0.12042600988235569,-0.02274054314254501,0.7719558477401733,27.776399612426758,0.8926279544830322
1730867837.3640625,-0.25369617342948914,0.4905095398426056,-9.954572677612305,0.031810479452069586,-0.08284284974873571,-0.02093351635756918,0.7700995206832886,29.329179763793945,0.8916448950767517
1730867837.4150338,-0.28017038106918335,0.464275598526001,-9.943222045898438,0.025370390526091385,-0.039577210176586455,-0.013724917072591186,0.7682984471321106,30.89644432067871,0.8906084895133972
1730867837.4640667,-0.3227460980415344,0.45517271757125854,-9.920238494873047,0.015049654505066679,0.0005192881323989856,-0.0009974267169276531,0.7714248895645142,28.94921112060547,0.8920591473579407
1730867837.5150423,-0.35973915457725525,0.44022276997566223,-9.908903121948242,0.0009245999619111557,0.031840438061879035,0.015655747652157034,0.7704477310180664,29.92412567138672,0.8915151953697205
1730867837.565024,-0.388412207365036,0.43722134828567505,-9.900253295898438,-0.016035957502213555,0.05170653511172218,0.03264819531089079,0.7662661075592041,32.061790466308594,0.8907127380371094
1730867837.6149921,-0.4118269085884094,0.4403909742832184,-9.905233383178711,-0.033228911791729154,0.0591838184167252,0.04509104179081372,0.7630661129951477,31.494604110717773,0.8895957469940186
1730867837.665004,-0.43324512243270874,0.4462156891822815,-9.920656204223633,-0.047036966892124735,0.055122925864796675,0.04899331529008971,0.7608259916305542,32.0311279296875,0.889054536819458
1730867837.7149663,-0.44965338706970215,0.4579389989376068,-9.939722061157227,-0.05436842583965128,0.04236039879033109,0.04308169416925903,0.7584555149078369,32.56831741333008,0.8886290788650513
1730867837.7649455,-0.4564197361469269,0.4588650166988373,-9.961284637451172,-0.054357963724796954,0.024979165330142515,0.028768961926148647,0.7559621930122375,33.1025505065918,0.8882960677146912
1730867837.8149652,-0.4238526523113251,0.4556536376476288,-9.98490047454834,-0.0489155838548755,0.007147622192880998,0.008914366217477519,0.7590088248252869,30.972564697265625,0.8886128067970276
1730867837.8649228,-0.38675621151924133,0.4480048418045044,-10.010472297668457,-0.04082631530078059,-0.007677084951629943,-0.0132150496974404,0.7575336694717407,31.05875015258789,0.8883374333381653
1730867837.9149067,-0.3634202480316162,0.4551265239715576,-10.02859115600586,-0.03107402638374946,-0.01705608359165066,-0.03393029287188846,0.7565268278121948,30.67592430114746,0.8887671232223511
1730867837.9649105,-0.3508223295211792,0.45821353793144226,-10.031644821166992,-0.018709132758944893,-0.019959132585297384,-0.049213665181812256,0.7550212740898132,30.684843063354492,0.8885473012924194
1730867838.0148602,-0.3384742736816406,0.4792110025882721,-10.01764965057373,-0.0035483392630300797,-0.017348454031540467,-0.055854565999918684,0.7534874677658081,30.693721771240234,0.8881978392601013
1730867838.0648804,-0.3353970944881439,0.49212631583213806,-10.003347396850586,0.012088591842997851,-0.012157670403590563,-0.05249909373298697,0.7519500255584717,30.702646255493164,0.8877097368240356
1730867838.1148183,-0.3311156630516052,0.4902760982513428,-9.981016159057617,0.024899014499019097,-0.008155634371233835,-0.039932912682815,0.7504479885101318,30.71161460876465,0.8871006369590759
1730867838.1647258,-0.3236657977104187,0.48392271995544434,-9.961915969848633,0.03295758549343067,-0.008116930836141163,-0.02065865404090459,0.7552263140678406,30.538158416748047,0.8887988328933716
1730867838.214785,-0.30196428298950195,0.4762057662010193,-9.955974578857422,0.03635976575925879,-0.012298753627082649,0.0017827218898792928,0.7548376321792603,30.533418655395508,0.8886517286300659
1730867838.2647393,-0.29540982842445374,0.4463825225830078,-9.957964897155762,0.03635086233128752,-0.018043246943441612,0.02285301634989609,0.7533524036407471,30.475563049316406,0.8889302015304565
1730867838.3147662,-0.2847835421562195,0.41846275329589844,-9.954345703125,0.03423913406065577,-0.020969749839920046,0.03750182236069241,0.7525728344917297,30.458839416503906,0.8889978528022766
1730867838.3647435,-0.28704333305358887,0.3808057904243469,-9.941967964172363,0.030860303294491968,-0.017434576324899975,0.04242832487736861,0.7517662644386292,30.447837829589844,0.8890604972839355
1730867838.4147997,-0.2823105454444885,0.34574100375175476,-9.946602821350098,0.02656168769871435,-0.0065083043208304,0.03801993413975521,0.7510373592376709,30.434696197509766,0.889244019985199
1730867838.4647417,-0.2952381372451782,0.3204328417778015,-9.93449878692627,0.02146265310717896,0.009772751775629404,0.027678308125753746,0.750368595123291,30.42156410217285,0.889509379863739
1730867838.5147374,-0.32214176654815674,0.30689215660095215,-9.921857833862305,0.015546427546821399,0.02769522455820818,0.015760189890925626,0.7497425675392151,30.408403396606445,0.8898308277130127
1730867838.564731,-0.3550657629966736,0.3064895272254944,-9.914382934570312,0.008293251611861542,0.043938407206930485,0.0061698916321108604,0.7500454187393188,30.386018753051758,0.8891167044639587
1730867838.6146953,-0.3745020627975464,0.3111398220062256,-9.91041374206543,-0.0012221720569913688,0.05643809106746215,0.0014732915395284157,0.7495418787002563,30.370824813842773,0.8891923427581787
1730867838.6646938,-0.39702409505844116,0.3133336901664734,-9.889291763305664,-0.012975136870743505,0.06318181242771675,0.0020695333645835935,0.7490139603614807,30.3555850982666,0.889273464679718
1730867838.71465,-0.4032265841960907,0.3141714632511139,-9.880562782287598,-0.025169755099505822,0.06175078950853085,0.006440224558300197,0.7478650212287903,30.32813262939453,0.889060914516449
1730867838.7646437,-0.43500152230262756,0.30159515142440796,-9.876519203186035,-0.03545914562711713,0.051390571171378394,0.012477151007649137,0.7471354603767395,30.312068939208984,0.8891104459762573
1730867838.8146336,-0.4395449161529541,0.29214778542518616,-9.880237579345703,-0.04231970707079403,0.034912415127559035,0.0181306691741197,0.7462782859802246,30.295616149902344,0.8892028331756592
1730867838.8646483,-0.4521394968032837,0.25864750146865845,-9.892532348632812,-0.045327818736565155,0.017971321686754832,0.021332631978922226,0.7453902363777161,30.280637741088867,0.8893342018127441
1730867838.9146535,-0.42873215675354004,0.22214935719966888,-9.929742813110352,-0.045122510686744555,0.006783923432543736,0.02032860534043947,0.7450989484786987,30.260087966918945,0.8890647888183594
1730867838.96466,-0.38100045919418335,0.20547667145729065,-9.990910530090332,-0.04255103710500755,0.005629633194507322,0.01402443076516606,0.7441877722740173,30.242652893066406,0.8891607522964478
1730867839.0146499,-0.29872462153434753,0.20747801661491394,-10.058686256408691,-0.036597197347956835,0.01428734196247266,0.0018369631039590415,0.743986964225769,30.187973022460938,0.8891749978065491
1730867839.0645592,-0.21846094727516174,0.21131473779678345,-10.1074800491333,-0.023801070817789646,0.027405317696753223,-0.016158106208948392,0.7431758046150208,30.158029556274414,0.8892287015914917
1730867839.1145608,-0.14349403977394104,0.23782174289226532,-10.156988143920898,-0.0012745114885868896,0.037512659813671564,-0.0381215123519658,0.7423322200775146,30.128137588500977,0.889214038848877
1730867839.1645625,-0.09898363798856735,0.2764418423175812,-10.16553783416748,0.030452381098569795,0.038818870963295136,-0.060238466921519664,0.7415323257446289,30.098609924316406,0.8890770673751831
1730867839.214562,-0.07880263775587082,0.3313849866390228,-10.151655197143555,0.06844676452899602,0.028594064248146506,-0.07882827855912546,0.7408514022827148,30.068984985351562,0.8887652158737183
1730867839.2645605,-0.09894903004169464,0.3648727536201477,-10.12165641784668,0.10920687043454103,0.006604999314607932,-0.09189440386491649,0.7432776689529419,30.069534301757812,0.889107346534729
1730867839.3145683,-0.1440989226102829,0.393020361661911,-10.064818382263184,0.14734453258297764,-0.024840811056815095,-0.09789373339030896,0.7434747219085693,30.04644203186035,0.8887109756469727
1730867839.3645976,-0.20680385828018188,0.41185542941093445,-9.993769645690918,0.17251228547327657,-0.059310783991925645,-0.09358638239449364,0.7420839667320251,26.445547103881836,0.8890512585639954
1730867839.4145398,-0.2663079798221588,0.42408156394958496,-9.933646202087402,0.17140857997979791,-0.08686366455513306,-0.07463673207969947,0.7422359585762024,25.243101119995117,0.8886318802833557
1730867839.4645581,-0.3379831612110138,0.4291609823703766,-9.85859489440918,0.13708889530313526,-0.09899838623203062,-0.04001370290678569,0.7407651543617249,23.16598892211914,0.8891545534133911
1730867839.5145004,-0.39263010025024414,0.4211188554763794,-9.823332786560059,0.07571325326066039,-0.09316631208606624,0.004797557898076661,0.7407539486885071,21.74993324279785,0.8889633417129517
1730867839.5644925,-0.4413106441497803,0.4178310036659241,-9.794730186462402,0.0036161024205354567,-0.07292981575725922,0.04945705234626903,0.7408431172370911,20.289871215820312,0.8888369798660278
1730867839.614528,-0.4732626974582672,0.4055957794189453,-9.776741981506348,-0.06121360828886794,-0.045183905534055144,0.08341854074931346,0.7390350103378296,20.28089141845703,0.8893848657608032
1730867839.6644602,-0.47351762652397156,0.38940560817718506,-9.797863960266113,-0.1065396483121859,-0.017081606435644443,0.10043471059427522,0.7375291585922241,17.907407760620117,0.889560878276825
1730867839.7144666,-0.47247108817100525,0.3821689784526825,-9.842826843261719,-0.1273460997208838,0.00590774417964921,0.09936083638356367,0.7363909482955933,16.493833541870117,0.8900113105773926
1730867839.764464,-0.47247108817100525,0.3821689784526825,-9.842826843261719,-0.12354534817418925,0.020689373686418024,0.08193512077853601,0.7355735898017883,14.577630996704102,0.8897161483764648
1730867839.764464,-0.44215038418769836,0.37178632616996765,-9.901904106140137,-0.09941920498566723,0.026629770126758576,0.05205371616999151,0.7355484962463379,14.54637336730957,0.8897234201431274
1730867839.8144622,-0.4139236807823181,0.3653448522090912,-9.960796356201172,-0.06311995429696973,0.025364801928052735,0.015737844090894564,0.734248161315918,13.0242280960083,0.8900999426841736
1730867839.8644145,-0.3827788531780243,0.3848540782928467,-10.021930694580078,-0.02348019492305372,0.01998142954553892,-0.021299911691775985,0.7328421473503113,11.502752304077148,0.8904695510864258
1730867839.9144492,-0.3827788531780243,0.3848540782928467,-10.021930694580078,0.013166490401421939,0.013518625252300857,-0.056433311729583796,0.7337746024131775,11.974032402038574,0.8894987106323242
1730867839.9144492,-0.35572201013565063,0.4037664830684662,-10.069921493530273,0.04332343878242721,0.007711240771149416,-0.08902097607683766,0.7337591648101807,11.952491760253906,0.8894969820976257
1730867839.9643798,-0.33284199237823486,0.4321571886539459,-10.083673477172852,0.06462453389321852,0.0026692826306835343,-0.11619723538536672,0.7330876588821411,10.903910636901855,0.8892707824707031
1730867840.0143602,-0.3296637535095215,0.4532192051410675,-10.086356163024902,0.07533130260227319,-0.0028601570830859013,-0.1320761693857247,0.7324686050415039,9.038007736206055,0.8891955018043518
1730867840.0643466,-0.3460405468940735,0.47806426882743835,-10.064126968383789,0.07552896266509257,-0.010540483511754092,-0.13210340958868924,0.7319837808609009,7.634201526641846,0.888632595539093
1730867840.1143844,-0.3683454096317291,0.49219805002212524,-10.015948295593262,0.06681944622408707,-0.0206376293579092,-0.1157857449582021,0.7311205863952637,6.236032009124756,0.888997495174408
1730867840.1643565,-0.41885003447532654,0.4869193434715271,-9.97346019744873,0.050698153694747006,-0.031020615596862647,-0.08552725625932095,0.7306823134422302,4.81516170501709,0.8884024024009705
1730867840.2143404,-0.4426957070827484,0.4720567762851715,-9.929824829101562,0.02853998989013551,-0.03806777716523948,-0.04591602158110573,0.7300472855567932,3.5870020389556885,0.8889071941375732
1730867840.2643697,-0.4509318172931671,0.4712025821208954,-9.901832580566406,0.002868645852742802,-0.038537929421351376,-0.0037584880115480983,0.7296185493469238,2.276087999343872,0.8885664343833923
1730867840.314335,-0.4334442913532257,0.45500698685646057,-9.875054359436035,-0.02172258902888294,-0.03148146523381654,0.033293515310966026,0.7287101745605469,0.7114329934120178,0.8889945149421692
1730867840.36434,-0.4334442913532257,0.45500698685646057,-9.875054359436035,-0.0392479168274248,-0.018987677928737713,0.05892065500690564,0.7276463508605957,1.2961047887802124,0.8890722393989563
1730867840.36434,-0.38925570249557495,0.44022679328918457,-9.879110336303711,-0.04509163105534391,-0.004976823139634344,0.06973371118782427,0.7276313304901123,1.2860488891601562,0.88907390832901
1730867840.414304,-0.35042768716812134,0.44171687960624695,-9.899374961853027,-0.038081551546563716,0.00684589695811984,0.06570737484452974,0.7267981171607971,0.7601763010025024,0.8892422914505005
1730867840.4642842,-0.29325661063194275,0.44629836082458496,-9.931668281555176,-0.019614238824482932,0.014419646873967656,0.04963891236355071,0.7258847951889038,0.22895076870918274,0.8895557522773743
1730867840.514344,-0.24839504063129425,0.4600581228733063,-9.949505805969238,0.008295468891371663,0.017448833187031786,0.025845220105337297,0.7249566912651062,-0.3025885820388794,0.8899639248847961
1730867840.5642936,-0.2309153527021408,0.4564855694770813,-9.970880508422852,0.04375039276428262,0.016606269133845504,-0.001417311922407816,0.7266021370887756,1.8618574142456055,0.8890633583068848
1730867840.6142838,-0.21444551646709442,0.4608059525489807,-9.974892616271973,0.08337068253851498,0.01293407828962476,-0.028357105564964152,0.7264271378517151,1.7837224006652832,0.8890680074691772
1730867840.6642904,-0.21197877824306488,0.4454762637615204,-9.983213424682617,0.11925313884689953,0.007792968212837798,-0.05057669496568394,0.7258221507072449,2.06662917137146,0.8870766162872314
1730867840.714282,-0.2554808557033539,0.42881476879119873,-9.987675666809082,0.13967400688514608,0.0028956085151812957,-0.06314580423198496,0.7258781790733337,2.0458967685699463,0.8862625360488892
1730867840.764285,-0.30214452743530273,0.39262521266937256,-9.976771354675293,0.13530780933228756,0.00016246002788173697,-0.06318434286789393,0.7262800931930542,2.0251011848449707,0.8852870464324951
1730867840.8142743,-0.3304899334907532,0.3555253744125366,-9.97313117980957,0.10443375227644923,0.0016076723038910708,-0.05183897110582872,0.7269781827926636,2.004450559616089,0.8841748237609863
1730867840.8642087,-0.36266300082206726,0.3447490632534027,-9.971939086914062,0.05294821283206657,0.009153349483085845,-0.03345612187546314,0.7251002788543701,2.144545793533325,0.8853064179420471
1730867840.9142113,-0.3616500198841095,0.33340680599212646,-9.967447280883789,-0.00794777755272163,0.023300089333014855,-0.013492185243785516,0.7238398194313049,2.160111904144287,0.8858119249343872
1730867840.964213,-0.3279177248477936,0.3383932113647461,-9.992240905761719,-0.06346653131754339,0.04079549753751843,0.0031329049311914874,0.7233561277389526,2.1585347652435303,0.8856250047683716
1730867841.0142136,-0.28504478931427,0.32574424147605896,-9.995448112487793,-0.09814951319234434,0.05474858186064586,0.012855452998560541,0.7226943373680115,2.16615891456604,0.88628751039505
1730867841.0641742,-0.25194546580314636,0.32716572284698486,-10.005556106567383,-0.10210241053992608,0.058887307614720996,0.014085194126344947,0.7219296097755432,2.1656746864318848,0.8863617777824402
1730867841.1141524,-0.23379142582416534,0.332062691450119,-10.013165473937988,-0.0765036128165211,0.05162868051812926,0.007912178712510435,0.7209048867225647,2.1652984619140625,0.8864668607711792
1730867841.1641357,-0.2388044148683548,0.3296576142311096,-9.993638038635254,-0.032823834677088985,0.03610933415408696,-0.002159514420146804,0.7218753695487976,2.1674039363861084,0.8866456151008606
1730867841.214157,-0.24959233403205872,0.33480924367904663,-9.9915771484375,0.013291452241086112,0.017667283805580566,-0.011777487717680215,0.7213595509529114,2.1670849323272705,0.8867111802101135
1730867841.2641435,-0.2772518992424011,0.34180763363838196,-9.965872764587402,0.047987978209081024,0.0013228946712588985,-0.017368943826507416,0.7214823365211487,2.1666226387023926,0.8868588805198669
1730867841.314053,-0.3165346086025238,0.3505711257457733,-9.931975364685059,0.06256478236843534,-0.009870025415208587,-0.016954674125952543,0.7210198640823364,2.165787935256958,0.8870607018470764
1730867841.3641365,-0.3578571081161499,0.34849533438682556,-9.894258499145508,0.05531757906395288,-0.01521047781643433,-0.010311158864915505,0.7208505868911743,2.165087938308716,0.8871247172355652
1730867841.414115,-0.3960180878639221,0.33990320563316345,-9.88803482055664,0.03131032545136242,-0.015539038226409523,0.0011556861187425249,0.7207890152931213,2.1643455028533936,0.887177586555481
1730867841.4640558,-0.395840048789978,0.3267103135585785,-9.881616592407227,-0.0008771446462651072,-0.012127208118859712,0.014942110807251349,0.7204312086105347,2.1645491123199463,0.8872724175453186
1730867841.5140755,-0.3933011591434479,0.3133028447628021,-9.89577579498291,-0.03271775695168572,-0.006139240639814664,0.02810017525220243,0.7202218174934387,2.1640474796295166,0.8874027729034424
1730867841.5639896,-0.3941592574119568,0.28470659255981445,-9.933196067810059,-0.05681056462951464,0.0013447770675151548,0.03712433308326644,0.719901442527771,2.163541555404663,0.8876140713691711
1730867841.6140761,-0.39880815148353577,0.2603616416454315,-9.972050666809082,-0.06751910403128142,0.009544809064067532,0.03782777538066923,0.719418466091156,2.1630423069000244,0.8879236578941345
1730867841.663972,-0.40292078256607056,0.2426186054944992,-10.019673347473145,-0.0632467213233002,0.018578022343239915,0.026630083447045413,0.7198122143745422,2.1633429527282715,0.8875458836555481
1730867841.7139878,-0.42095011472702026,0.2362007051706314,-10.032590866088867,-0.047675855668698114,0.02895243326250556,0.003047829668825574,0.719372034072876,2.1630330085754395,0.8877271413803101
1730867841.7649188,-0.4181402623653412,0.25708189606666565,-10.044785499572754,-0.027856778208685085,0.03939962687115574,-0.027821125304356285,0.719159722328186,2.161914110183716,0.8876906037330627
1730867841.8150191,-0.40290647745132446,0.28787216544151306,-10.052371978759766,-0.010631094034856348,0.04586839365423952,-0.05597300981817521,0.7187497019767761,2.161513090133667,0.8876615166664124
1730867841.8650026,-0.3699597418308258,0.32008883357048035,-10.026086807250977,0.0005425980941779077,0.04378220683920952,-0.07172489963300309,0.7186217308044434,2.16017746925354,0.8897202610969543
1730867841.914857,-0.33056938648223877,0.35670629143714905,-10.00866413116455,0.006619891484981663,0.031199986357804688,-0.07066689275191317,0.7181217074394226,2.15911865234375,0.8913924694061279
1730867841.964916,-0.31425386667251587,0.4022265672683716,-9.97603988647461,0.01089192148234101,0.010196404035488004,-0.054527916407072705,0.7177867293357849,2.1584854125976562,0.8920385837554932
1730867842.0149217,-0.3164631426334381,0.43713679909706116,-9.94859504699707,0.015580852010785705,-0.01414590086354062,-0.029091902469664456,0.7174838185310364,2.157844305038452,0.8925816416740417
1730867842.064834,-0.34606868028640747,0.46490973234176636,-9.912683486938477,0.020257629494926068,-0.036813926912142636,-0.0008538430403207493,0.7172198295593262,2.1571171283721924,0.8931010365486145
1730867842.114839,-0.39986327290534973,0.4905390739440918,-9.879849433898926,0.0224735127276049,-0.05570699172341278,0.025953951670373905,0.7177996039390564,2.1592912673950195,0.8920089602470398
1730867842.1648307,-0.44897061586380005,0.4832700490951538,-9.861968040466309,0.019095204609555435,-0.07109254960361006,0.04967607804986113,0.717748761177063,2.158961296081543,0.8923516273498535
1730867842.2148545,-0.46406447887420654,0.4824052155017853,-9.861063957214355,0.008194177809543932,-0.08189559574551082,0.06850801452344422,0.7177318334579468,2.1584432125091553,0.8928393721580505
1730867842.2648454,-0.4361884593963623,0.4621175229549408,-9.875760078430176,-0.009111287082755578,-0.08399954999297093,0.07876215367987649,0.7173317670822144,2.159475803375244,0.8926576375961304
1730867842.314821,-0.3746614158153534,0.44673505425453186,-9.916476249694824,-0.02816703476850958,-0.07372033887015511,0.07702235926905356,0.7171170115470886,2.1590757369995117,0.893256664276123
1730867842.3648214,-0.3746614158153534,0.44673505425453186,-9.916476249694824,-0.04163783483188412,-0.05197270836411415,0.06278052879536006,0.7168182730674744,2.15852427482605,0.8940227627754211
1730867842.3648214,-0.2967873811721802,0.43214231729507446,-9.959940910339355,-0.04199789411405107,-0.02433344716367228,0.03856029064095269,0.7168115973472595,2.158512592315674,0.8940389156341553
1730867842.4148037,-0.21437391638755798,0.41040560603141785,-10.006635665893555,-0.02461140293489395,0.0023024645852599323,0.008369682207784584,0.7167637944221497,2.1595795154571533,0.8932327628135681
1730867842.464787,-0.15501104295253754,0.40480872988700867,-10.024319648742676,0.010315616601940565,0.023026517799520307,-0.023645669704984117,0.7165128588676453,2.1595072746276855,0.8935407400131226
1730867842.5147662,-0.11054340749979019,0.4020110070705414,-10.0361909866333,0.05595586019445402,0.035606744584422756,-0.05258471842923325,0.7161857485771179,2.15976619720459,0.8936876654624939
1730867842.5647128,-0.10737809538841248,0.4019224941730499,-10.036227226257324,0.09932087476394223,0.03954241084428578,-0.07229663079804181,0.7157887816429138,2.1598551273345947,0.8939726948738098
1730867842.6147196,-0.11069399863481522,0.3986347019672394,-10.025640487670898,0.12661831495113768,0.03577454060655229,-0.07791173302209087,0.7159391045570374,2.1600279808044434,0.8939250111579895
1730867842.66467,-0.13222797214984894,0.4002894461154938,-10.008849143981934,0.12947595945304385,0.026768944435665173,-0.06866819370254652,0.7164034843444824,2.16027569770813,0.8936969041824341
1730867842.7146907,-0.15209706127643585,0.3835843801498413,-9.990864753723145,0.10783770311172117,0.015936886613512356,-0.04790845896880323,0.7154601216316223,2.160038709640503,0.8943986296653748
1730867842.764663,-0.1861935406923294,0.3850844204425812,-9.961563110351562,0.06905075609661848,0.006598150155108032,-0.021232868773076195,0.7157889604568481,2.160176992416382,0.8943423628807068
1730867842.8146744,-0.23371459543704987,0.37839916348457336,-9.943806648254395,0.024067913048531935,0.0008597555760217638,0.005410086080348397,0.7146214842796326,2.160108804702759,0.8950055241584778
1730867842.8646405,-0.2788582146167755,0.3904588222503662,-9.925826072692871,-0.017044455245431883,-0.001078492536037878,0.027141965915033373,0.7138415575027466,2.1606569290161133,0.8956179022789001
1730867842.9146428,-0.35889577865600586,0.3930562138557434,-9.91628646850586,-0.047954560882808,-0.0006080078798549322,0.04091729118025388,0.71341472864151,2.160919666290283,0.8960447311401367
1730867842.964681,-0.43943315744400024,0.42242711782455444,-9.901354789733887,-0.06710879463440003,0.00026472896529093675,0.045704366822592074,0.712835967540741,2.161184072494507,0.8965868353843689
1730867843.0147002,-0.5066210031509399,0.4441896677017212,-9.888644218444824,-0.07831405108025039,-0.00042335632686921383,0.04272865305886721,0.7120948433876038,2.161440849304199,0.8972222805023193
1730867843.0645943,-0.5066210031509399,0.4441896677017212,-9.888644218444824,-0.08956376895012796,-0.004384624788963766,0.03543099876259437,0.7129588723182678,2.160748243331909,0.896262526512146
1730867843.0645943,-0.5549488067626953,0.46420884132385254,-9.901975631713867,-0.10750234367421505,-0.012334829831458245,0.027864076430863118,0.7129400968551636,2.160750389099121,0.8962745070457458
1730867843.1146696,-0.5728811621665955,0.48200473189353943,-9.910515785217285,-0.13051397558336122,-0.022892809646141717,0.022086803033959802,0.7122712135314941,2.1607789993286133,0.8966255187988281
1730867843.164601,-0.575161337852478,0.47197800874710083,-9.943924903869629,-0.14878298470486248,-0.03298648904684741,0.017041433875966773,0.7121414542198181,2.160723924636841,0.8967460989952087
1730867843.2146285,-0.5643478035926819,0.4628719091415405,-9.9635648727417,-0.15235183579908185,-0.03960818978871362,0.010147026914757818,0.7111972570419312,2.160637140274048,0.89707350730896
1730867843.264601,-0.5368210673332214,0.43919041752815247,-9.97954273223877,-0.13732452433315379,-0.040651499004590835,4.549269515266314e-05,0.7098464369773865,2.160447120666504,0.8974306583404541
1730867843.314592,-0.517453134059906,0.4044760763645172,-9.989117622375488,-0.1056235183897023,-0.034668151424761776,-0.012184053778067097,0.7114746570587158,2.1588220596313477,0.8964821696281433
1730867843.3645499,-0.49375906586647034,0.36409300565719604,-9.982839584350586,-0.06309453740314683,-0.02118376730874811,-0.023985542423856393,0.7106932401657104,2.1583127975463867,0.8964754343032837
1730867843.4145944,-0.4552805423736572,0.31701943278312683,-9.990608215332031,-0.018155909685286693,-0.001593710223290054,-0.032469933779416975,0.7109460234642029,2.1565792560577393,0.8961735367774963
1730867843.464555,-0.4256296455860138,0.2849891781806946,-9.985739707946777,0.020640940310715145,0.020768560120618212,-0.035161773682051936,0.7104352712631226,2.1557085514068604,0.8959943056106567
1730867843.514518,-0.3917841911315918,0.26717033982276917,-9.981457710266113,0.04758339824893975,0.041548568292281235,-0.031196837293680883,0.7105391025543213,2.1553173065185547,0.895959734916687
1730867843.5644922,-0.3392385244369507,0.26381510496139526,-9.984079360961914,0.06131196068837863,0.056468036372818706,-0.02200151198455553,0.7103426456451416,2.15474009513855,0.8957502245903015
1730867843.614424,-0.28293073177337646,0.2875834107398987,-9.986286163330078,0.06459262228691827,0.06231057457501016,-0.010665711109163967,0.7103040218353271,2.154310464859009,0.8954989910125732
1730867843.664505,-0.22666408121585846,0.32868751883506775,-9.992279052734375,0.0632812979856229,0.057430474069861945,-0.0006961278629222503,0.7103943228721619,2.154200315475464,0.8965162038803101
1730867843.7145023,-0.15888364613056183,0.37662985920906067,-9.994811058044434,0.06421131080343205,0.04196179061496194,0.005305012644122068,0.710533857345581,2.1539926528930664,0.8965752124786377
1730867843.764474,-0.11525120586156845,0.4295220971107483,-9.994455337524414,0.0713314850580006,0.018101378784501142,0.006576584252327459,0.7099885940551758,2.1525864601135254,0.8973521590232849
1730867843.8144877,-0.07922691106796265,0.46438831090927124,-10.002998352050781,0.08307119230697341,-0.010100825047308727,0.004183297494412178,0.7101262211799622,2.151970863342285,0.8976343274116516
1730867843.8644965,-0.048959847539663315,0.48563823103904724,-10.007584571838379,0.09398640217088375,-0.037410316125174384,2.743198870917905e-05,0.7104937434196472,2.151285171508789,0.8979257345199585
1730867843.9145007,-0.06392934918403625,0.4904850721359253,-9.996695518493652,0.09872176940154914,-0.05860629220774464,-0.004238721753744775,0.7110870480537415,2.150503635406494,0.8982025980949402
1730867843.9645073,-0.11001957952976227,0.46240177750587463,-9.975289344787598,0.09485248431893006,-0.07046482763752991,-0.0074336842739448385,0.7094472050666809,2.150739908218384,0.8980104327201843
1730867844.0143793,-0.1744970679283142,0.4077940583229065,-9.944879531860352,0.08260003717752143,-0.072302506829899,-0.008403649027577594,0.7097592353820801,2.149942636489868,0.8981629014015198
1730867844.0644453,-0.2753417193889618,0.3448375165462494,-9.908707618713379,0.0621614306992368,-0.06384496860976459,-0.005830416723838384,0.7102570533752441,2.1489670276641846,0.8982983231544495
1730867844.1144297,-0.3612957000732422,0.284107506275177,-9.855259895324707,0.031775644660171964,-0.04352860442497189,0.0016881040125972823,0.7108604311943054,2.1478796005249023,0.8984256982803345
1730867844.1644158,-0.44795241951942444,0.24337098002433777,-9.821752548217773,-0.011689740551795605,-0.009660890011129235,0.01568492206569558,0.708797037601471,2.1489784717559814,0.898594856262207
1730867844.2144248,-0.5057073831558228,0.22504310309886932,-9.81654167175293,-0.06872015268354881,0.036054192682496704,0.036578841822421035,0.7086552381515503,2.1484103202819824,0.89883953332901
1730867844.2643588,-0.5257828831672668,0.2206108570098877,-9.847257614135742,-0.1308368397841063,0.0846525333037837,0.06031146157325701,0.7078465223312378,2.146892547607422,0.8992719650268555
1730867844.3143604,-0.508952260017395,0.22799484431743622,-9.908034324645996,-0.18011078962858612,0.12114463531757412,0.07739917113235185,0.7070566415786743,2.1464521884918213,0.8997716903686523
1730867844.3643203,-0.48666608333587646,0.2663571536540985,-9.973342895507812,-0.1987904861323364,0.13271015838969244,0.07779961544225296,0.706640362739563,2.14495849609375,0.9000831246376038
1730867844.4144971,-0.4508955478668213,0.3113280236721039,-10.029555320739746,-0.17974065571978298,0.11586960090519469,0.05707011190458998,0.7059249877929688,2.143062114715576,0.9007082581520081
1730867844.4643664,-0.40572381019592285,0.3593902885913849,-10.072063446044922,-0.12934963373238856,0.07691311224478312,0.019294686718018296,0.7046588063240051,2.142388105392456,0.9013668298721313
1730867844.5143495,-0.35905027389526367,0.40257173776626587,-10.099386215209961,-0.06329997178125958,0.027802696354571763,-0.024301655107610363,0.7031521201133728,2.14184308052063,0.9020200371742249
1730867844.564325,-0.330777645111084,0.4421750605106354,-10.081873893737793,0.0015448527829875214,-0.01963244623057074,-0.06114237832180222,0.7015537619590759,2.1413028240203857,0.9025717377662659
1730867844.6142876,-0.3041469156742096,0.4566937983036041,-10.062297821044922,0.05412382883850561,-0.058460317185394385,-0.08326862693666248,0.7053946256637573,2.1409692764282227,0.9011614322662354
1730867844.664323,-0.2952430844306946,0.4486176073551178,-10.028505325317383,0.09049157812062406,-0.08672898115404809,-0.08860474395382495,0.7052185535430908,2.1401584148406982,0.9010729193687439
1730867844.7142513,-0.30724626779556274,0.43188461661338806,-9.970844268798828,0.10983519400192106,-0.10304169358600891,-0.07839953062129554,0.7052872776985168,2.1391003131866455,0.9007768630981445
1730867844.76424,-0.3196741044521332,0.40661555528640747,-9.921951293945312,0.11118687979156067,-0.10392844007162291,-0.054566263222364256,0.7054941654205322,2.1390380859375,0.9012820720672607
1730867844.814201,-0.3196741044521332,0.40661555528640747,-9.921951293945312,0.09508847122526663,-0.08719923547342114,-0.019875705392202774,0.7058001160621643,2.1380128860473633,0.9011493921279907
1730867844.814201,-0.34483712911605835,0.39273056387901306,-9.877676010131836,0.06632363099122274,-0.05651952538038477,0.019291315758560044,0.7058059573173523,2.1379973888397217,0.9011472463607788
1730867844.8642423,-0.3401202857494354,0.39384254813194275,-9.851893424987793,0.032906372383434815,-0.021031928307059893,0.053186392303246385,0.7062724232673645,2.136838674545288,0.9010568857192993
1730867844.914125,-0.33351439237594604,0.40199318528175354,-9.873952865600586,0.002687736859591599,0.00937043632355673,0.07419051563398786,0.7047305703163147,2.1365249156951904,0.9019621014595032
1730867844.9641533,-0.2976263463497162,0.4194111227989197,-9.904865264892578,-0.01881608890176897,0.0282440110761011,0.08045228670300976,0.7038949131965637,2.134639024734497,0.9019143581390381
1730867845.0141354,-0.25950777530670166,0.43226027488708496,-9.964097023010254,-0.028566967444934407,0.03369958498831921,0.07350841220809087,0.7034378051757812,2.1335248947143555,0.9022892117500305
1730867845.0641124,-0.21164149045944214,0.43450793623924255,-10.011241912841797,-0.025657399776309837,0.027644770845455323,0.055006830424261466,0.7029072046279907,2.132221221923828,0.9018338918685913
1730867845.1141627,-0.18345314264297485,0.43984660506248474,-10.044461250305176,-0.011515786287935544,0.014553511377058891,0.02689770377727324,0.7023477554321289,2.13102388381958,0.9020805954933167
1730867845.1641407,-0.16889339685440063,0.4256606101989746,-10.073607444763184,0.009629117223420892,-6.482494012123845e-05,-0.006412291530326591,0.7017827033996582,2.12983775138855,0.9023545384407043
1730867845.214169,-0.19378511607646942,0.4145665466785431,-10.062480926513672,0.03132679823796067,-0.011229804650605782,-0.03794594966363977,0.702791154384613,2.1304867267608643,0.9015957117080688
1730867845.2640867,-0.24915732443332672,0.4035228192806244,-10.033246994018555,0.04688357633858698,-0.01577180626338412,-0.06082175100321967,0.7027487754821777,2.129761219024658,0.9014636874198914
1730867845.3141525,-0.33961567282676697,0.3777318000793457,-9.992650985717773,0.05062042780868191,-0.013068242784613101,-0.0700602406522088,0.7028248906135559,2.1283013820648193,0.9013873338699341
1730867845.3640916,-0.4180121421813965,0.3711410164833069,-9.949267387390137,0.03844834806421112,-0.004811352466048106,-0.06297318495115059,0.7029268741607666,2.1272122859954834,0.9010710716247559
1730867845.414054,-0.46162930130958557,0.36812320351600647,-9.920690536499023,0.010240169326581948,0.005858536604277713,-0.04061090299153881,0.7030857801437378,2.1261610984802246,0.9006377458572388
1730867845.4640503,-0.4970322251319885,0.3648327887058258,-9.914602279663086,-0.028566748478092974,0.015390501769328326,-0.008492671155251414,0.7032239437103271,2.125122308731079,0.9001386761665344
1730867845.513991,-0.49590715765953064,0.368804395198822,-9.901325225830078,-0.06985992895694931,0.02116076719663567,0.025765643365560163,0.7025206089019775,2.1264595985412598,0.9013480544090271
1730867845.5640128,-0.4900919497013092,0.3760308027267456,-9.896735191345215,-0.10611266854877932,0.022335620229133022,0.055314577465933636,0.7021646499633789,2.125920534133911,0.9013928174972534
1730867845.6140065,-0.4625914990901947,0.3887379467487335,-9.888126373291016,-0.12970488116009338,0.019410901128883513,0.07474900375709896,0.702041506767273,2.1244568824768066,0.9015750288963318
1730867845.6640196,-0.4399692714214325,0.3998757004737854,-9.89259147644043,-0.13297502204657852,0.013330612144699088,0.08039183685854762,0.7013477087020874,2.1236166954040527,0.9018914699554443
1730867845.7139375,-0.40781649947166443,0.41241148114204407,-9.891546249389648,-0.11275012020073744,0.005259452452532563,0.07184014633691399,0.7015371918678284,2.1222949028015137,0.9017263650894165
1730867845.7639616,-0.38504263758659363,0.41087689995765686,-9.894307136535645,-0.07387946294237727,-0.003289127961186661,0.05273903886989489,0.7008040547370911,2.1212565898895264,0.9020864367485046
1730867845.8139431,-0.37771105766296387,0.41639819741249084,-9.896135330200195,-0.027328486455853587,-0.010527784001626243,0.029311733068313243,0.7013267278671265,2.1206815242767334,0.901725709438324
1730867845.8639255,-0.3748301565647125,0.40530920028686523,-9.903972625732422,0.014624377033507946,-0.01477522323958447,0.007826723716729999,0.700964629650116,2.1198222637176514,0.9019251465797424
1730867845.9138389,-0.37785670161247253,0.39936041831970215,-9.920620918273926,0.0427294534027041,-0.015007167434115377,-0.0075927958317320386,0.7011163234710693,2.118769407272339,0.9017418622970581
1730867845.9648688,-0.364212304353714,0.38937604427337646,-9.953561782836914,0.05326567393673381,-0.011228552092796206,-0.016030481044858762,0.701045036315918,2.1177918910980225,0.9017966389656067
1730867846.0139241,-0.3504576086997986,0.3817507028579712,-9.967866897583008,0.04847497021533292,-0.004524455335903402,-0.019398377493158203,0.7011024951934814,2.116779088973999,0.9018069505691528
1730867846.0639098,-0.3091873526573181,0.37627995014190674,-9.996011734008789,0.035196942542751186,0.0033254763473331223,-0.02108404706276811,0.701256513595581,2.115818738937378,0.9017688035964966
1730867846.113846,-0.2673751413822174,0.3773256540298462,-10.030977249145508,0.022313767270178756,0.010655262510099054,-0.0246639881144905,0.7014873027801514,2.114835023880005,0.9016728401184082
1730867846.1639173,-0.2190469205379486,0.36759230494499207,-10.048928260803223,0.01805184344073108,0.016519434526109524,-0.03310990872232015,0.7011768221855164,2.117279052734375,0.9016976356506348
1730867846.214852,-0.16339057683944702,0.37703830003738403,-10.071649551391602,0.027166504823613557,0.02057755374861692,-0.04744670011143213,0.7012590765953064,2.116891622543335,0.9015529155731201
1730867846.2648191,-0.11535194516181946,0.3795691132545471,-10.095528602600098,0.048172490477767706,0.02236367161577566,-0.06474173271695975,0.700905442237854,2.1155872344970703,0.901695191860199
1730867846.3148253,-0.07832393795251846,0.3817635178565979,-10.085938453674316,0.07352819874547856,0.021004900819695187,-0.07843269457367569,0.70102858543396,2.1148838996887207,0.9014196991920471
1730867846.3648353,-0.08407602459192276,0.40107494592666626,-10.077425003051758,0.09373163025572452,0.016107337716956795,-0.0820058994224559,0.700697124004364,2.1138100624084473,0.9016936421394348
1730867846.414786,-0.11094078421592712,0.41760388016700745,-10.05717658996582,0.10148562957659558,0.008456869942801093,-0.07249627128332363,0.7009974718093872,2.1130099296569824,0.9013378620147705
1730867846.4647856,-0.15651604533195496,0.4369674623012543,-10.024248123168945,0.09335094690399184,-0.00048563916713382886,-0.05147757201286837,0.700319766998291,2.112565755844116,0.9017512202262878
1730867846.514742,-0.23396876454353333,0.4320591390132904,-9.969415664672852,0.06967053251180678,-0.009240855200104214,-0.02374091673804815,0.6996056437492371,2.1111745834350586,0.9018303751945496
1730867846.5647752,-0.310874342918396,0.4290514290332794,-9.91140079498291,0.03421218112717536,-0.016224015284081662,0.005126355065455495,0.6996182799339294,2.110255479812622,0.9016963839530945
1730867846.6147428,-0.3817698657512665,0.4109635353088379,-9.860066413879395,-0.0066794852713692975,-0.01962709678482825,0.03073398740199221,0.6996654272079468,2.1092989444732666,0.9016082286834717
1730867846.6647184,-0.4533841013908386,0.38856130838394165,-9.81790828704834,-0.046987601627965905,-0.01799392971073758,0.05140441920683573,0.6996468305587769,2.1083102226257324,0.9016212821006775
1730867846.7146723,-0.4968908429145813,0.3465469777584076,-9.787965774536133,-0.08449246663766065,-0.01065504797792255,0.06888886565083223,0.6994615197181702,2.1072592735290527,0.9017865657806396
1730867846.7647195,-0.5351571440696716,0.33175620436668396,-9.789071083068848,-0.12103365928057505,0.002545244550806935,0.08688446131982265,0.6990220546722412,2.1062123775482178,0.902144193649292
1730867846.8146844,-0.5495736598968506,0.30912816524505615,-9.812946319580078,-0.1594733127100911,0.02133183878849419,0.10785989870179502,0.6988016366958618,2.1097629070281982,0.9015141725540161
1730867846.8647637,-0.5485296249389648,0.3046405017375946,-9.850625991821289,-0.1990461382555055,0.04394786428331815,0.12983872822835102,0.6979888081550598,2.109499216079712,0.9019249677658081
1730867846.9146743,-0.5284936428070068,0.28974446654319763,-9.900196075439453,-0.2305351184143353,0.06554093141132443,0.144530357281624,0.6966438889503479,2.1093735694885254,0.9026762247085571
1730867846.9647033,-0.5107322931289673,0.28812092542648315,-9.971874237060547,-0.23809625220854908,0.0790877079657141,0.13984538577862707,0.6975375413894653,2.1087772846221924,0.9013327360153198
1730867847.0146742,-0.4779714345932007,0.28130409121513367,-10.010736465454102,-0.21074629106878218,0.07977055412968992,0.10789740060907696,0.696195662021637,2.108760356903076,0.9018973112106323
1730867847.0646877,-0.4305001199245453,0.2706712782382965,-10.05094051361084,-0.15169896230757363,0.06811766158771061,0.052568554966971756,0.6965581178665161,2.106741428375244,0.9007141590118408
1730867847.1146743,-0.3883264660835266,0.27846166491508484,-10.078146934509277,-0.07615125368630453,0.04894295776824988,-0.010973141751931492,0.6953690052032471,2.1062395572662354,0.9008060693740845
1730867847.1646137,-0.33643749356269836,0.28217145800590515,-10.084970474243164,-0.0026545935222283476,0.028191501441503262,-0.06454703450925,0.6960418224334717,2.105104446411133,0.8998929858207703
1730867847.2145236,-0.3006346523761749,0.3021657168865204,-10.089183807373047,0.05433587806341846,0.010266403053854279,-0.09550662907161336,0.6954882144927979,2.1044869422912598,0.8994402289390564
1730867847.2645457,-0.2832697331905365,0.32600367069244385,-10.068378448486328,0.08787450122312762,-0.003050174708443545,-0.10025912121246909,0.6951073408126831,2.1038715839385986,0.8987361788749695
1730867847.3145216,-0.2671187222003937,0.35672610998153687,-10.032246589660645,0.09837204531488314,-0.01246585724207366,-0.08291880197667217,0.6949619054794312,2.10323429107666,0.8977968692779541
1730867847.3645444,-0.2647269666194916,0.38702958822250366,-9.990321159362793,0.09192416525560851,-0.020589498973916688,-0.05140263347095683,0.6950547099113464,2.1025683879852295,0.8967092037200928
1730867847.414501,-0.2826923131942749,0.4192045331001282,-9.941387176513672,0.07752883800828306,-0.03086681382417511,-0.013424721606441212,0.6959460377693176,2.103386640548706,0.8991451859474182
1730867847.4645133,-0.28065934777259827,0.44336873292922974,-9.912253379821777,0.0629947058671071,-0.045517578129513084,0.025218491987756567,0.6961363554000854,2.102867841720581,0.8988933563232422
1730867847.5144382,-0.290643572807312,0.46728700399398804,-9.897378921508789,0.051657100027922814,-0.06285623345108743,0.059156427535483835,0.6964756846427917,2.102201223373413,0.8987436890602112
1730867847.564469,-0.2658449709415436,0.5013420581817627,-9.88473892211914,0.04254521316385954,-0.07748145861305414,0.08248308041964847,0.6952281594276428,2.101722240447998,0.896263062953949
1730867847.6144571,-0.251413494348526,0.5131375193595886,-9.907564163208008,0.0336516180306563,-0.08452787726343394,0.09118184477739893,0.6951902508735657,2.1008245944976807,0.8957617282867432
1730867847.6643925,-0.22662709653377533,0.5214949250221252,-9.937638282775879,0.024777580210793983,-0.08250878666645109,0.08479035124073986,0.6952260732650757,2.099715232849121,0.8954818844795227
1730867847.7144375,-0.2193022519350052,0.5219274163246155,-9.964435577392578,0.017718651938523754,-0.07249480461508648,0.06506492775970288,0.6943778395652771,2.099815845489502,0.8934854865074158
1730867847.7644298,-0.2185870110988617,0.5130840539932251,-9.997968673706055,0.014565212341075818,-0.057045004719454694,0.035280885870700995,0.6942365765571594,2.0988619327545166,0.8929245471954346
