Timestamp,IMU_Linear_Acc_X,IMU_Linear_Acc_Y,IMU_Linear_Acc_Z,Filtered_X,Filtered_Y,Filtered_Z,Pose_X,Pose_Y,Pose_Z
1731474017.7775767,-0.32322612404823303,0.39608657360076904,-9.977672576904297,-0.0016774611471624193,-0.015017648442733941,-0.4980059666653915,-0.02314821258187294,-0.03870784863829613,-0.01976044476032257
1731474017.8274715,-0.3276478946208954,0.3986841142177582,-9.980058670043945,0.018668745278224735,0.009492266341741839,0.08231575121542259,-0.026947269216179848,-0.04506056755781174,-0.023005438968539238
1731474017.8775427,-0.33399105072021484,0.40478041768074036,-9.981084823608398,0.029145710160016325,0.023409329861213458,0.4042463668848638,-0.02991674281656742,-0.05002608895301819,-0.025541681796312332
1731474017.9274185,-0.3286159634590149,0.4062667489051819,-9.988667488098145,0.03045981986357147,0.02652892142011367,0.4743578859721057,-0.0064963288605213165,-0.01086304523050785,-0.005545828491449356
1731474017.9772933,-0.3278368413448334,0.40367698669433594,-9.993444442749023,0.025531645338097257,0.021528606470860523,0.36874748834207594,-0.002549572382122278,-0.004263381473720074,-0.0021761117968708277
1731474018.027482,-0.3347279727458954,0.3981235921382904,-9.986050605773926,0.018044306690915345,0.012450356073996582,0.18674641517911555,-0.002705490216612816,-0.004524132702499628,-0.002308843657374382
1731474018.07823,-0.3305140435695648,0.40124836564064026,-9.977998733520508,0.011112501540078222,0.003301308948470771,0.013386716536711737,-0.007635731250047684,-0.012771856971085072,-0.006504396442323923
1731474018.1282473,-0.3287622034549713,0.40302249789237976,-9.980719566345215,0.006500565977035109,-0.0030940226706129433,-0.1005365511955826,-0.02092301845550537,-0.03502320870757103,-0.017935531213879585
1731474018.1780884,-0.32740649580955505,0.39333125948905945,-9.997262954711914,0.004672544245785138,-0.005672887520490532,-0.1412675046943656,-0.004188935738056898,-0.007029993925243616,-0.003781320760026574
1731474018.2281067,-0.3257952928543091,0.4106655716896057,-9.982820510864258,0.005237943102330585,-0.00491439740755964,-0.1230333910033474,-0.006555010098963976,-0.011045518331229687,-0.006356086581945419
1731474018.27807,-0.328833669424057,0.40269532799720764,-9.993841171264648,0.007352324954887133,-0.0022451164525628723,-0.07351033606986775,-0.001878952025435865,-0.0031882307957857847,-0.0019579774234443903
1731474018.328057,-0.3301309049129486,0.3993321359157562,-9.988805770874023,0.010006644772457069,0.0006498829470885598,-0.02007168023015689,-0.0024670609273016453,-0.00424785353243351,-0.0028822170570492744
1731474018.3779566,-0.3340107202529907,0.396461546421051,-9.980846405029297,0.012248207947822096,0.002637819947024473,0.018834623075913375,-0.0006871774094179273,-0.001211522496305406,-0.0008187841740436852
1731474018.4279242,-0.3253314793109894,0.39653530716896057,-9.986496925354004,0.013420168831670947,0.003544908490262001,0.0363098335067208,-0.0007935537141747773,-0.0014830193249508739,-0.0009804380824789405
1731474018.4778578,-0.3265407085418701,0.40258997678756714,-9.987852096557617,0.013423077700285278,0.0038031016402517138,0.03492795040700202,-0.0008677821606397629,-0.0017507296288385987,-0.0010542975505813956
1731474018.5278893,-0.3291628360748291,0.39978650212287903,-9.981841087341309,0.012718916714957045,0.0038362168041280124,0.022253124896730203,-0.00016500124183949083,-0.0003543492639437318,-0.00019358977442607284
1731474018.5777876,-0.32759371399879456,0.3962743878364563,-9.978927612304688,0.011930407023745909,0.0038096137710797273,0.006578062946887596,-0.00013020211190450937,-0.00039389863377436996,-0.00013609218876808882
1731474018.627799,-0.3257986903190613,0.4009494185447693,-9.983421325683594,0.01145648603797462,0.003781462131284093,-0.0058115942671180375,1.328437328338623,2.257944107055664,1.100314736366272
1731474018.6776373,-0.3299824297428131,0.40082159638404846,-9.990802764892578,0.011348334213465611,0.0037891120507901437,-0.01193627058101544,1.7687878608703613,3.006340503692627,1.4649958610534668
1731474018.7277057,-0.32814112305641174,0.4044627249240875,-9.979750633239746,0.01120664555839205,0.0037261894093671335,-0.012077510504212977,1.2845548391342163,2.1853280067443848,1.0595258474349976
1731474018.7775238,-0.32814112305641174,0.4044627249240875,-9.979750633239746,0.010316830618634655,0.003347590195338343,-0.008471278864326793,1.4027963876724243,2.386871814727783,1.1559185981750488
1731474018.7775238,-0.32832229137420654,0.3932178318500519,-9.990150451660156,0.008256422247569506,0.0025631972499792575,-0.0037099110075779484,1.403483271598816,2.388042449951172,1.1564784049987793
1731474018.8275583,-0.31798380613327026,0.39875534176826477,-9.983543395996094,0.005363609382605921,0.0017244758184521846,0.00012687591984378776,1.1513347625732422,1.9634455442428589,0.9444952607154846
1731474018.877479,-0.31798380613327026,0.39875534176826477,-9.983543395996094,0.002564250296908744,0.001406018693201375,0.0018575228099704723,1.1777911186218262,2.009772777557373,0.9647260308265686
1731474018.877479,-0.3306691348552704,0.39713674783706665,-9.983304977416992,0.0006686147506021786,0.0018072200434070787,0.0014731396800525328,1.1779460906982422,2.0100440979003906,0.9648445844650269
1731474018.9275696,-0.3295990228652954,0.4019361734390259,-9.986373901367188,-0.00034531887299084205,0.002547450739289335,-0.00011110687526919423,1.0987988710403442,1.8815664052963257,0.8971125483512878
1731474018.9773746,-0.3295990228652954,0.4019361734390259,-9.986373901367188,-0.0012083397494791928,0.0030270838881639632,-0.0018028238661678307,1.0886343717575073,1.8683441877365112,0.8852053880691528
1731474018.9773746,-0.3226505219936371,0.3923979103565216,-9.98610782623291,-0.002386922287278481,0.002905674464236946,-0.002885154289579796,1.0886614322662354,1.8684076070785522,0.88521409034729
1731474019.0273864,-0.32552370429039,0.39818546175956726,-9.979583740234375,-0.0034808327916803997,0.0023770536864186126,-0.003073492306548827,1.0932661294937134,1.8792240619659424,0.8866953253746033
1731474019.0772598,-0.32552370429039,0.39818546175956726,-9.979583740234375,-0.0036908569030813607,0.0019752065312305276,-0.002329186371755604,1.0978823900222778,1.8900935649871826,0.8881763815879822
1731474019.0772598,-0.2671128511428833,0.42709091305732727,-9.982341766357422,-0.0023497630365015773,0.0019207593060271283,-0.0007599043712782396,1.0979276895523071,1.8902002573013306,0.8881908655166626
1731474019.1282947,-0.4053407609462738,0.16318318247795105,-9.979307174682617,0.0008194965456707902,0.0028365606828658074,0.0013289859788783165,1.10260808467865,1.901235818862915,0.889692485332489
1731474019.1781075,-0.4053407609462738,0.16318318247795105,-9.979307174682617,0.00421876116560227,0.009035898566866075,0.0034778229585934583,1.0841007232666016,1.8437025547027588,0.8785219192504883
1731474019.1781075,-0.329410195350647,0.12939202785491943,-10.001941680908203,0.004251234385785953,0.027716514334911055,0.005142779700241796,1.0841726064682007,1.843691349029541,0.8785309195518494
1731474019.228176,-0.4127078056335449,0.0029307908844202757,-10.026446342468262,-0.0003070846613885832,0.060219490203072955,0.005378440904492453,1.0863275527954102,1.8279316425323486,0.8774350881576538
1731474019.2780597,-0.4127078056335449,0.0029307908844202757,-10.026446342468262,-0.006040418253645062,0.09738321166004162,0.0028684875585544035,1.0883891582489014,1.8238625526428223,0.877501904964447
1731474019.2780597,-0.40246787667274475,-1.0077694654464722,-10.045562744140625,-0.008973128416047022,0.13026063818113207,-0.002735903694827626,1.0884770154953003,1.8236937522888184,0.8775048851966858
1731474019.3280437,-0.3609012961387634,0.1293669492006302,-10.034940719604492,-0.007733265719570057,0.16377791885327797,-0.009840337146130217,1.0900688171386719,1.8146586418151855,0.8771008253097534
1731474019.3778763,-0.37998390197753906,-0.31379151344299316,-9.991687774658203,-0.0027049043522749793,0.20780207414681473,-0.015704484494830168,1.0921392440795898,1.8100240230560303,0.8770712018013
1731474019.4280038,-0.3645666539669037,0.042721912264823914,-9.881584167480469,0.004464854575205577,0.2573571142988199,-0.016904775053835287,1.0934818983078003,1.8327537775039673,0.8769949078559875
1731474019.477847,-0.3262839913368225,-0.01447487436234951,-9.947052001953125,0.01097474191023594,0.2944939001494043,-0.009942301687985856,1.0952584743499756,1.837347388267517,0.8769285678863525
1731474019.5278943,-0.28366008400917053,0.13464373350143433,-9.939204216003418,0.015174124767002386,0.3018689223369568,0.00453136158960793,1.0973726511001587,1.8480501174926758,0.8769803643226624
1731474019.5777152,-0.3263334035873413,0.21814841032028198,-9.944486618041992,0.018076384624889922,0.26960355002203024,0.018992918157681657,1.0993874073028564,1.8547343015670776,0.876994252204895
1731474019.6277027,-0.2826177179813385,0.24609871208667755,-9.956537246704102,0.0207020821095531,0.19938887347022788,0.02482331196976273,1.1003038883209229,1.862408995628357,0.8770320415496826
1731474019.6776948,-0.30444425344467163,0.272373229265213,-9.962250709533691,0.02159805587866098,0.10559104011600637,0.019569116468687683,1.1023952960968018,1.8709559440612793,0.8771324753761292
1731474019.7275941,-0.28466278314590454,0.22462528944015503,-9.976645469665527,0.018659663487385698,0.010908792025234065,0.007021607079367711,1.1043959856033325,1.8790779113769531,0.877258837223053
1731474019.7775607,-0.2211897373199463,0.27395984530448914,-9.998805046081543,0.01212262757824694,-0.0617517664230973,-0.007140813042857616,1.102088212966919,1.877632975578308,0.877041757106781
1731474019.8275506,-0.2836304306983948,0.2971835732460022,-10.037550926208496,0.0048548560183771265,-0.09863544203269375,-0.018959186338530633,1.1031333208084106,1.8828842639923096,0.877029538154602
1731474019.877461,-0.2836304306983948,0.2971835732460022,-10.037550926208496,-0.0007881482524262086,-0.10018460358230837,-0.027235388017916355,1.1046072244644165,1.8913220167160034,0.8769714832305908
1731474019.877461,-0.26254063844680786,0.3122503459453583,-9.989989280700684,-0.00554780691176105,-0.07794611809274007,-0.032062589352552566,1.104615330696106,1.8913613557815552,0.8769710063934326
1731474019.9274364,-0.21070240437984467,0.32621103525161743,-10.002452850341797,-0.010430314159486545,-0.04701029418004358,-0.03259391487895551,1.1059441566467285,1.8978208303451538,0.8768530488014221
1731474019.9774032,-0.28816428780555725,0.30571556091308594,-10.028529167175293,-0.013128401156193629,-0.01980170076714454,-0.027047973964686358,1.107263207435608,1.9052032232284546,0.8770591616630554
1731474020.0273519,-0.28816428780555725,0.30571556091308594,-10.028529167175293,-0.010546458633417494,-0.0029813095437917136,-0.015459596675619879,1.1086273193359375,1.9122493267059326,0.8769829869270325
1731474020.0273519,-0.2611939311027527,0.31238189339637756,-9.968502044677734,-0.003064008292621971,0.002870058302991871,-0.0009533295544605167,1.1086351871490479,1.912290096282959,0.8769824504852295
1731474020.07729,-0.2611939311027527,0.31238189339637756,-9.968502044677734,0.006167441637628919,0.0011584657274828494,0.012886648274915754,1.109694242477417,1.921802043914795,0.8772051930427551
1731474020.07729,-0.2950955033302307,0.3223183751106262,-10.007611274719238,0.014156637845190488,-0.003740838460402547,0.024255370285143733,1.109704613685608,1.9218645095825195,0.8772056102752686
1731474020.127255,-0.279522567987442,0.3574068248271942,-10.000300407409668,0.018576143206909715,-0.008689624683125315,0.03153303111196331,1.1109880208969116,1.9294776916503906,0.8772936463356018
1731474020.178188,-0.279522567987442,0.3574068248271942,-10.000300407409668,0.017563972816930562,-0.012784422223755447,0.031909886113038466,1.1124800443649292,1.9633708000183105,0.8774003386497498
1731474020.178188,-0.29722166061401367,0.33045053482055664,-9.984553337097168,0.010914226083784059,-0.016613589104451293,0.02388722097922298,1.112488865852356,1.963470458984375,0.8774012327194214
1731474020.2281296,-0.2947465181350708,0.3467961847782135,-10.007701873779297,0.0006947422977872908,-0.019895520022769182,0.010019243456495061,1.1148916482925415,1.9980716705322266,0.8774924278259277
1731474020.2780788,-0.2947465181350708,0.3467961847782135,-10.007701873779297,-0.009814085002255156,-0.020655113929762617,-0.0042424595961060504,1.116458535194397,2.018049716949463,0.8775981068611145
1731474020.2780788,-0.3289870321750641,0.3318164348602295,-10.008352279663086,-0.017678330332942884,-0.01734842389161592,-0.014090119322764738,1.1164677143096924,2.0181679725646973,0.8775987029075623
1731474020.3281581,-0.31477558612823486,0.35391366481781006,-9.991997718811035,-0.02162828398962293,-0.010592155998030667,-0.017482393004470596,1.1179872751235962,2.0380022525787354,0.877676784992218
1731474020.3779566,-0.31477558612823486,0.35391366481781006,-9.991997718811035,-0.02236951410839321,-0.002697312916613257,-0.014847883599189276,1.119454026222229,2.0578420162200928,0.8777149319648743
1731474020.3779566,-0.36252152919769287,0.3582253158092499,-10.005112648010254,-0.02171701416023801,0.003582930560902008,-0.00803604739168768,1.1194626092910767,2.057960271835327,0.8777150511741638
1731474020.4279876,-0.3494895398616791,0.3688246011734009,-9.989968299865723,-0.02189743523439347,0.006212980692068385,0.00040843878037457237,1.1162497997283936,2.037641763687134,0.877557635307312
1731474020.4778442,-0.3494895398616791,0.3688246011734009,-9.989968299865723,-0.02467434583628687,0.004643264218380913,0.007975384770245031,1.1167759895324707,2.0500502586364746,0.8775960206985474
1731474020.4778442,-0.36477798223495483,0.38225001096725464,-9.970276832580566,-0.029571225614397775,-4.7570369392982816e-05,0.012993546040920187,1.1167789697647095,2.050123929977417,0.8775963187217712
1731474020.5277936,-0.3335264027118683,0.4224526584148407,-9.984082221984863,-0.03359977924766257,-0.005973954059451553,0.01503307789805005,1.1186538934707642,2.047788143157959,0.8776693344116211
1731474020.577833,-0.3335264027118683,0.4224526584148407,-9.984082221984863,-0.03350628184883689,-0.011842145601885092,0.014658117069793508,1.119633674621582,2.0565648078918457,0.8777772188186646
1731474020.577833,-0.3491635024547577,0.4106280505657196,-9.950448989868164,-0.02811674861658906,-0.016911031018261566,0.012868281549862201,1.119640588760376,2.0566294193267822,0.877778172492981
1731474020.627827,-0.3221905827522278,0.4412604570388794,-9.970831871032715,-0.018998114273742088,-0.019922130047734958,0.010914532102323345,1.120537281036377,2.06520676612854,0.8779158592224121
1731474020.6777496,-0.3221905827522278,0.4412604570388794,-9.970831871032715,-0.009098636436568476,-0.01981404198894824,0.010049157081008562,1.1208093166351318,2.0644004344940186,0.8777740597724915
1731474020.6777496,-0.29254594445228577,0.43472591042518616,-9.991064071655273,-0.0005851532285758554,-0.017114200271749223,0.010571276812444158,1.1208144426345825,2.0644466876983643,0.8777745962142944
1731474020.7277062,-0.31224024295806885,0.42092201113700867,-9.990882873535156,0.005990966946450209,-0.013171345094105811,0.011209411649231525,1.121488094329834,2.0704758167266846,0.8778620958328247
1731474020.7776594,-0.31224024295806885,0.42092201113700867,-9.990882873535156,0.010885106015388543,-0.008545727173429944,0.009902687596156184,1.124531865119934,2.0877668857574463,0.8786765336990356
1731474020.7776594,-0.2873554825782776,0.44368287920951843,-9.975650787353516,0.014243971920793859,-0.0032011270604085907,0.005571903892169952,1.1245408058166504,2.087827205657959,0.8786786198616028
1731474020.8275287,-0.2873554825782776,0.44368287920951843,-9.975650787353516,0.016214696445107167,0.0019687797513350653,-0.0005681796390176418,1.1260677576065063,2.097949504852295,0.879025936126709
1731474020.8275287,-0.2947392165660858,0.4303797781467438,-10.003660202026367,0.017343085066096553,0.004874485589068313,-0.005706480615059984,1.1260771751403809,2.0980112552642822,0.8790280222892761
1731474020.8774836,-0.27741512656211853,0.43696171045303345,-9.989225387573242,0.018311287019996625,0.00395976566144674,-0.007786342616265113,1.1280843019485474,2.1016652584075928,0.8794841766357422
1731474020.9274867,-0.27741512656211853,0.43696171045303345,-9.989225387573242,0.01946806821926412,-0.00035287785367859887,-0.006858854134193317,1.1299231052398682,2.110258102416992,0.8798553347587585
1731474020.9274867,-0.2722777724266052,0.45217952132225037,-10.008148193359375,0.020501195858825354,-0.006056976507199984,-0.004362996451920252,1.129934310913086,2.1103098392486572,0.8798575401306152
1731474020.9774673,-0.2649485468864441,0.4605734348297119,-9.998489379882812,0.02050725315950306,-0.011035406557288852,-0.002049086818908129,1.1318250894546509,2.1188981533050537,0.880217969417572
1731474021.0273788,-0.2656269073486328,0.44886454939842224,-9.974957466125488,0.01886796894898638,-0.014277857187520254,-0.0011838916408521746,1.1337616443634033,2.127441167831421,0.8805738091468811
1731474021.0772889,-0.22249719500541687,0.48947086930274963,-9.981660842895508,0.016180757365158543,-0.01607787282469529,-0.0017014654599989292,1.1304447650909424,2.1159417629241943,0.880085289478302
1731474021.128301,-0.25564438104629517,0.4686764180660248,-9.991925239562988,0.013973477827816445,-0.01734821079751718,-0.002396301768537665,1.1314607858657837,2.12113618850708,0.8802968263626099
1731474021.1772351,-0.25564438104629517,0.4686764180660248,-9.991925239562988,0.01280272327695634,-0.018255292858693553,-0.0024035399333898902,1.1328811645507812,2.1310665607452393,0.8806009888648987
1731474021.1772351,-0.2631169259548187,0.47610121965408325,-9.98852252960205,0.01101302617963828,-0.017497330012789743,-0.001986809052978036,1.132887840270996,2.131103754043579,0.8806023001670837
1731474021.2281387,-0.2636750042438507,0.49224454164505005,-9.919716835021973,0.006658422925864745,-0.014008615387295448,-0.0013991574538692606,1.1340248584747314,2.137352228164673,0.8808260560035706
1731474021.278179,-0.2650933265686035,0.4844246804714203,-9.986637115478516,-3.897175861662856e-05,-0.00895160315624768,0.00046606318511215094,1.135154128074646,2.1434824466705322,0.881045401096344
1731474021.3280506,-0.29644566774368286,0.4480523467063904,-9.990205764770508,-0.007199515705761272,-0.004757893974185243,0.004913567687654491,1.1363317966461182,2.1518776416778564,0.8813412189483643
1731474021.378008,-0.30765479803085327,0.45445600152015686,-9.969808578491211,-0.01331633701127851,-0.002635122729916179,0.01115544516823943,1.1374493837356567,2.158574342727661,0.8816083073616028
1731474021.4280598,-0.3114857077598572,0.4504489004611969,-10.016022682189941,-0.017873375800028492,-0.0020060157141498936,0.016585987365399263,1.1388543844223022,2.1737923622131348,0.8821520805358887
1731474021.4778588,-0.3114857077598572,0.4504489004611969,-10.016022682189941,-0.020570760570978494,-0.0019058685724003155,0.018732893656943278,1.141517996788025,2.1912214756011963,0.8827928304672241
1731474021.4778588,-0.3159172236919403,0.4475010335445404,-9.991495132446289,-0.020949013840181396,-0.0018409496600077175,0.01662555159882715,1.141530156135559,2.1913082599639893,0.8827964663505554
1731474021.5278668,-0.30459263920783997,0.43134716153144836,-9.959558486938477,-0.018790253868336274,-0.0015020049732028667,0.01179505160412895,1.1429648399353027,2.201744794845581,0.8832512497901917
1731474021.5777721,-0.3274626135826111,0.432893842458725,-10.02677059173584,-0.014539034297575665,-0.00040617922967816077,0.007749440723699561,1.1443736553192139,2.2122912406921387,0.8837351202964783
1731474021.6278198,-0.3338949978351593,0.43922609090805054,-10.005595207214355,-0.009512074504365557,0.0019314252729310975,0.007043654428843756,1.1457524299621582,2.2228400707244873,0.8842375874519348
1731474021.677749,-0.28401505947113037,0.43927592039108276,-9.943367958068848,-0.005438584598332242,0.00543873258170902,0.009531024763925536,1.1446820497512817,2.2114222049713135,0.8835245966911316
1731474021.727643,-0.33450156450271606,0.4357999861240387,-10.032621383666992,-0.0033260463470541316,0.009259067884035207,0.01358615540151893,1.1455638408660889,2.217517375946045,0.8838035464286804
1731474021.77758,-0.3953969478607178,0.6618124842643738,-10.01145076751709,-0.0038299802771633515,0.011085594414972824,0.016316131201933783,1.1464500427246094,2.223731517791748,0.8841243982315063
1731474021.8275213,-0.6161395311355591,1.3355380296707153,-9.905613899230957,-0.010123319256933452,0.001968337094308581,0.013692419805819533,1.1473870277404785,2.2309939861297607,0.8842352032661438
1731474021.8775337,-0.5686444640159607,0.5239424109458923,-9.915070533752441,-0.027859386851110265,-0.03194249180921539,0.004572315453918216,1.1483633518218994,2.2383873462677,0.8845672011375427
1731474021.9274354,-0.7826575040817261,0.932373583316803,-10.046425819396973,-0.057897497759402505,-0.08290041711100256,-0.0077010381915977345,1.1497149467468262,2.2534046173095703,0.8848350644111633
1731474021.9773605,-0.5737826824188232,0.3953017592430115,-9.916487693786621,-0.09045898547840718,-0.10702590473680916,-0.019408449104294016,1.1504157781600952,2.261369228363037,0.8850645422935486
1731474022.0273578,-0.3939198851585388,-0.12414705753326416,-9.965738296508789,-0.10745468530519592,-0.05735723195542835,-0.02709144631333314,1.1522307395935059,2.2813310623168945,0.8848284482955933
1731474022.0776117,0.1988469958305359,0.13986308872699738,-10.118250846862793,-0.08771323822483834,0.07665710414794472,-0.026441825881000695,1.1529532670974731,2.2929623126983643,0.8848207592964172
1731474022.1273065,0.07541287690401077,0.06746877729892731,-10.115489959716797,-0.015561036591485816,0.25389336073699714,-0.01849318039198808,1.1548057794570923,2.308358907699585,0.884954035282135
1731474022.1772892,-0.16670842468738556,0.4605974853038788,-9.905569076538086,0.10327313584962014,0.39352450966883656,-0.011677216029848524,1.156038522720337,2.322472095489502,0.8849636316299438
1731474022.228185,-0.3663395643234253,1.0665266513824463,-9.947073936462402,0.22843789480986576,0.41859995670028294,-0.00971233724032984,1.1577012538909912,2.3376872539520264,0.8849459290504456
1731474022.2781363,-0.5049628615379333,0.2236507534980774,-9.808852195739746,0.2959212474069056,0.2982919076373235,-0.0033619199219139953,1.1570781469345093,2.337268829345703,0.8851444721221924
1731474022.3280807,-1.3406373262405396,0.3576214611530304,-9.984635353088379,0.25399464228240787,0.06454359867772047,0.018930523539986872,1.158868670463562,2.3607864379882812,0.8853650689125061
1731474022.3780146,-1.3406373262405396,0.3576214611530304,-9.984635353088379,0.0960408964807068,-0.19784456780938303,0.05432688946449544,1.1609159708023071,2.375134229660034,0.8855689167976379
1731474022.3780146,0.08337181061506271,0.23446302115917206,-10.005509376525879,-0.12152764750318126,-0.3931047736392139,0.08473831811928279,1.1609294414520264,2.3752222061157227,0.8855705857276917
1731474022.4279528,0.23294515907764435,-0.015050402842462063,-10.000271797180176,-0.2816241896408077,-0.460642948906244,0.09328100054860405,1.1600397825241089,2.3864054679870605,0.885638415813446
1731474022.477982,0.23294515907764435,-0.015050402842462063,-10.000271797180176,-0.2648471057900148,-0.39250331636803765,0.07694255542752934,1.1602075099945068,2.3990554809570312,0.8860799074172974
1731474022.477982,0.3826061487197876,0.11694544553756714,-10.16589069366455,-0.048299984795082226,-0.22911403420042348,0.04400162934010533,1.1602065563201904,2.399125337600708,0.8860830068588257
1731474022.5278444,0.11035765707492828,0.11284299939870834,-9.997035026550293,0.26369076846443135,-0.04218339534616418,0.005137432337887389,1.1603635549545288,2.4110167026519775,0.8866193294525146
1731474022.5778098,0.11035765707492828,0.11284299939870834,-9.997035026550293,0.5189964055657569,0.09746061806049576,-0.030767716491117238,1.1614055633544922,2.4091601371765137,0.8856760859489441
1731474022.5778098,0.048391569405794144,0.11455687880516052,-9.977919578552246,0.6149530199354012,0.15172905821927743,-0.05575056132612973,1.1614181995391846,2.409226417541504,0.885676383972168
1731474022.6277149,0.01163447741419077,0.22252725064754486,-10.059433937072754,0.536479384662607,0.1250741016028266,-0.06430727685426746,1.163808822631836,2.4184772968292236,0.8856403231620789
1731474022.6776915,0.03792056068778038,0.30599433183670044,-9.956316947937012,0.339152774296138,0.04977500848225718,-0.05715937533542259,1.1673277616500854,2.428096055984497,0.8854523301124573
1731474022.7276962,0.016807354986667633,0.39020630717277527,-9.968287467956543,0.10704622427609402,-0.03860663560129814,-0.040163808351922584,1.1713898181915283,2.4376883506774902,0.885143518447876
1731474022.7776234,0.016807354986667633,0.39020630717277527,-9.968287467956543,-0.08712891257039256,-0.11758363949331878,-0.019518529544458887,1.1622371673583984,2.4338598251342773,0.885583221912384
1731474022.7776234,-0.021858537569642067,0.43087637424468994,-10.001700401306152,-0.20356319636733605,-0.17805463041639832,0.00016543034247667836,1.1622403860092163,2.4339001178741455,0.8855828046798706
1731474022.827467,-0.030394265428185463,0.43571314215660095,-9.989425659179688,-0.23721918863771338,-0.2151766348081811,0.014745315258848195,1.1625280380249023,2.4409523010253906,0.8855240941047668
1731474022.8774962,-0.030394265428185463,0.43571314215660095,-9.989425659179688,-0.20751559540296122,-0.223590208543595,0.02071314676760546,1.161950707435608,2.4587204456329346,0.8857259750366211
1731474022.8774962,0.15226563811302185,0.7484645247459412,-9.967074394226074,-0.14374676111933757,-0.2034661111304118,0.01737338532021892,1.1619489192962646,2.4587719440460205,0.8857263922691345
1731474022.9274228,0.7257395386695862,1.5628366470336914,-9.921340942382812,-0.0677554404224344,-0.1721705346755833,0.008335666867815368,1.1615626811981201,2.4673657417297363,0.8858104944229126
1731474022.9774406,0.7257395386695862,1.5628366470336914,-9.921340942382812,0.0200593798581095,-0.16997404421659817,0.0004115402251130187,1.1621441841125488,2.4884724617004395,0.8858583569526672
1731474022.9774406,0.5957948565483093,1.1951299905776978,-9.964408874511719,0.1307444291413214,-0.23590472060703632,-0.00046538825444548677,1.162144660949707,2.4885447025299072,0.8858587145805359
1731474023.0272584,0.45224183797836304,1.34569251537323,-10.017881393432617,0.2523919961033014,-0.3568600425657237,0.005576508959183334,1.162528395652771,2.500218152999878,0.8859274983406067
1731474023.0773153,0.19723764061927795,0.7665370106697083,-9.956480979919434,0.33600733443246306,-0.45522079987458275,0.011525786315409887,1.1641486883163452,2.5049755573272705,0.885994553565979
1731474023.1272185,0.2979126572608948,1.052760362625122,-10.047354698181152,0.32978507409084673,-0.4479032394812353,0.00942496431080157,1.1661036014556885,2.5144753456115723,0.8861076235771179
1731474023.1771615,0.2979126572608948,1.052760362625122,-10.047354698181152,0.22682894732952752,-0.3179913367415068,-0.003649352537427647,1.1687920093536377,2.5231990814208984,0.886229932308197
1731474023.1771615,-0.008249297738075256,0.6238679885864258,-9.97978401184082,0.07378495167977231,-0.12698512130715617,-0.02498585857087799,1.1688088178634644,2.5232460498809814,0.8862305879592896
1731474023.2280998,0.05724124610424042,0.6899513602256775,-10.015308380126953,-0.06752664317818312,0.04100220144603032,-0.04826634825031246,1.1648106575012207,2.5132412910461426,0.8861221671104431
1731474023.2781894,0.05724124610424042,0.6899513602256775,-10.015308380126953,-0.15953024440250357,0.13825417792728478,-0.06616741900306783,1.1651264429092407,2.518381357192993,0.8859850168228149
1731474023.2781894,-0.15162238478660583,0.4396438002586365,-9.992477416992188,-0.19497741742896768,0.16317141466419133,-0.0732454665544447,1.1651270389556885,2.5184125900268555,0.8859837055206299
1731474023.328019,-0.15162238478660583,0.4396438002586365,-9.992477416992188,-0.18662524233555294,0.14196026879427553,-0.0673653691155599,1.1650077104568481,2.5237367153167725,0.8856866359710693
1731474023.328019,-0.072252556681633,0.4605879485607147,-9.950992584228516,-0.15800978796873633,0.11048056676817486,-0.04974639936387494,1.1650054454803467,2.5237722396850586,0.8856841921806335
1731474023.3779585,-0.072252556681633,0.4605879485607147,-9.950992584228516,-0.1315007516685792,0.09708430669848667,-0.024190247548030598,1.163697600364685,2.524232864379883,0.8861211538314819
1731474023.3779585,-0.6207684278488159,0.20984867215156555,-9.981998443603516,-0.12018394418766573,0.11185016260334685,0.003974213498131323,1.163694977760315,2.5242607593536377,0.8861205577850342
1731474023.4279282,-1.4649817943572998,-0.061135563999414444,-9.978551864624023,-0.13672269233720863,0.14992647385432814,0.028031657491620385,1.163124680519104,2.5287370681762695,0.8860630989074707
1731474023.4778714,-1.4649817943572998,-0.061135563999414444,-9.978551864624023,-0.20753944966306312,0.20349783696086263,0.04102306364631677,1.1621145009994507,2.5337166786193848,0.8860915303230286
1731474023.4778714,-0.45382100343704224,0.45055413246154785,-9.963099479675293,-0.3577464994434619,0.26619881463270606,0.03938796173179426,1.162107229232788,2.5337464809417725,0.8860920071601868
1731474023.5278072,-0.79315185546875,0.10780511051416397,-10.090360641479492,-0.5697951929230958,0.32530871321626254,0.024837599097736137,1.1626813411712646,2.5330803394317627,0.8863369822502136
1731474023.577792,-0.79315185546875,0.10780511051416397,-10.090360641479492,-0.7741329016992614,0.36105432499663315,0.0020181138088458464,1.1605191230773926,2.542145013809204,0.886457622051239
1731474023.577792,-0.44328778982162476,0.5458028316497803,-10.004857063293457,-0.8874943280972664,0.35619090688973737,-0.022825974090897136,1.1605019569396973,2.5421812534332275,0.8864580988883972
1731474023.6277008,-0.536281406879425,0.21359308063983917,-9.965353012084961,-0.8532653008352833,0.29962873486563013,-0.04043624528515408,1.156436562538147,2.54891300201416,0.8864939212799072
1731474023.677717,-0.536281406879425,0.21359308063983917,-9.965353012084961,-0.6650094160444698,0.1920597271043496,-0.0407027604736588,1.1582672595977783,2.55330228805542,0.8865105509757996
1731474023.677717,-0.47276780009269714,0.4877432882785797,-10.095806121826172,-0.3728051948753746,0.05488027644446543,-0.02027719447862538,1.158246397972107,2.5533435344696045,0.8865102529525757
1731474023.7275708,-0.4312848448753357,0.381578266620636,-9.975656509399414,-0.06234147028663898,-0.07843668802746608,0.011645236398710115,1.1547966003417969,2.5599071979522705,0.8864728212356567
1731474023.7776296,-0.4312848448753357,0.381578266620636,-9.975656509399414,0.18403729251174136,-0.18097405352774884,0.03815461896600325,1.1514208316802979,2.566300392150879,0.8864975571632385
1731474023.7776296,-0.431338906288147,0.4268094003200531,-9.9556245803833,0.3197971333767659,-0.2403600588952788,0.047337665424128005,1.151397466659546,2.5663461685180664,0.8864980936050415
1731474023.8275743,-0.39930251240730286,0.46652859449386597,-10.000931739807129,0.34406771456245844,-0.2585338621454276,0.03884888858827748,1.1487526893615723,2.572047710418701,0.8866177797317505
1731474023.8775268,-0.39930251240730286,0.46652859449386597,-10.000931739807129,0.2899198776343056,-0.24890370673581197,0.01974725741178812,1.1587707996368408,2.5549778938293457,0.8866426348686218
1731474023.8775268,-0.4311058819293976,0.4201192557811737,-9.929350852966309,0.20258093075857508,-0.22802833793313396,-0.001561573469313981,1.1587718725204468,2.5549867153167725,0.8866432905197144
1731474023.9275649,-0.34837812185287476,0.5435208678245544,-9.932846069335938,0.1188463699005199,-0.20469095909855026,-0.01725233731754716,1.1590733528137207,2.556037425994873,0.8867166638374329
1731474023.9773645,-0.34837812185287476,0.5435208678245544,-9.932846069335938,0.05774729187918892,-0.17804420007463423,-0.020862802609041588,1.159595012664795,2.5566227436065674,0.8867434859275818
1731474023.9773645,-0.456539511680603,0.42720720171928406,-9.972299575805664,0.023381644492853224,-0.14592903055250422,-0.010227645044036136,1.1595993041992188,2.5566253662109375,0.8867434859275818
1731474024.027408,-0.34726399183273315,0.5313014984130859,-9.944891929626465,0.01061005438279994,-0.10998532321087048,0.01059180721328017,1.157453179359436,2.5580685138702393,0.8868600726127625
1731474024.0772815,-0.4379744529724121,0.3762783408164978,-9.955741882324219,0.009808692423561085,-0.07357678683602817,0.03349374397598081,1.1570652723312378,2.5589687824249268,0.8869749903678894
1731474024.127303,-0.36603763699531555,0.5035755634307861,-10.001754760742188,0.011335853693873235,-0.03874311691902695,0.04999648530029438,1.1537219285964966,2.564180850982666,0.8871527910232544
1731474024.1771777,-0.43150389194488525,0.3745167553424835,-9.971585273742676,0.008396320412109711,-0.005615370694655232,0.054004184135387344,1.1525260210037231,2.5662853717803955,0.8874541521072388
1731474024.2271702,-0.3856412470340729,0.6448270678520203,-9.964640617370605,-0.0013798080428091089,0.02464619193989777,0.04478860262602538,1.1497489213943481,2.337354898452759,0.8874554634094238
1731474024.278143,-0.3856412470340729,0.6448270678520203,-9.964640617370605,-0.0156540651211592,0.04661201460074832,0.028055488880487728,1.1480025053024292,2.2614996433258057,0.8877927660942078
1731474024.278143,-0.42019718885421753,0.6985800862312317,-9.958203315734863,-0.0292565032129554,0.053030358531833716,0.011838797010147178,1.1479932069778442,2.2610995769500732,0.8877947330474854
1731474024.278143,-0.42019718885421753,0.6985800862312317,-9.958203315734863,-0.037656552162652006,0.041442379783061346,0.0012668526483333897,1.1464858055114746,2.173815965652466,0.8875116109848022
1731474024.6586518,-0.41508355736732483,0.6621162295341492,-10.031527519226074,-0.0395167358036394,0.016929749288749102,-0.003060459579517261,1.1239997148513794,1.4029120206832886,0.8876649141311646
1731474024.7086966,-0.41508355736732483,0.6621162295341492,-10.031527519226074,-0.03598958274415965,-0.010476350077425606,-0.0040587417457933015,1.1212161779403687,1.3227641582489014,0.8876549601554871
1731474024.7086966,-0.3950240910053253,0.5528208017349243,-9.997374534606934,-0.02865826516434458,-0.029941900282328213,-0.005220017774129771,1.1212002038955688,1.3223130702972412,0.8876549005508423
1731474024.7586195,-0.40579333901405334,0.527076780796051,-10.0071439743042,-0.018883638992890445,-0.03341087566111979,-0.007049372979353717,1.1295665502548218,1.5382235050201416,0.8875259757041931
1731474024.8085694,-0.3874541223049164,0.5170536637306213,-9.9849271774292,-0.008109412721319601,-0.018109778115562154,-0.007119094421687165,1.1279840469360352,1.4814231395721436,0.8874961137771606
1731474024.858636,-0.38476070761680603,0.5011290907859802,-10.006854057312012,0.0021113693928802887,0.011121966227382325,-0.0035064716841767957,1.1281317472457886,1.3938699960708618,0.8874917030334473
1731474024.9084992,-0.34167227149009705,0.5422957539558411,-10.009866714477539,0.010642701308940319,0.042358098960351316,0.0029777195930518956,1.126535177230835,1.3102130889892578,0.8874763250350952
1731474024.9584315,-0.36541932821273804,0.5386816263198853,-9.9833984375,0.017250357326470518,0.062413126983437345,0.009592099449496582,1.1276530027389526,1.2115166187286377,0.8875046968460083
1731474025.0083818,-0.3710622191429138,0.5110750198364258,-9.994405746459961,0.022081788695467373,0.06376190297182682,0.01389911404300722,1.126772165298462,1.116927146911621,0.887542724609375
1731474025.058352,-0.3353385627269745,0.5488988161087036,-9.971470832824707,0.024763866085631837,0.047978216858146364,0.01500300402407502,1.1270160675048828,1.0532324314117432,0.887534499168396
1731474025.1084194,-0.41777345538139343,0.5516451597213745,-9.984000205993652,0.024380988038935007,0.023694051811001433,0.013235121167162677,1.1264995336532593,0.9755141139030457,0.8876039981842041
1731474025.1582825,-0.3648083806037903,0.5465712547302246,-9.986319541931152,0.01964649120726651,0.0006889122469950319,0.009438150002466818,1.1252591609954834,0.8651202321052551,0.887424647808075
1731474025.208127,-0.39675748348236084,0.5176180601119995,-9.949968338012695,0.009559478764578626,-0.014500963338729874,0.004659864563997635,1.124504566192627,0.7761713862419128,0.8874385356903076
1731474025.2590797,-0.4260292053222656,0.5068278908729553,-9.979451179504395,-0.004947475908379595,-0.01923965183163577,0.00046977443239103927,1.12373948097229,0.6852800846099854,0.8874592185020447
1731474025.309084,-0.46792280673980713,0.5122461915016174,-9.973671913146973,-0.021261699639708965,-0.013944465736996363,-0.0012968410577652457,1.1229561567306519,0.5960751175880432,0.8874785304069519
1731474025.3589628,-0.4285493791103363,0.5161547064781189,-9.974849700927734,-0.03735892393017596,-0.001414527118462407,0.00011420783116789911,1.1221002340316772,0.5069125294685364,0.887496292591095
1731474025.4090335,-0.4285493791103363,0.5161547064781189,-9.974849700927734,-0.05219014476827172,0.013975277088964573,0.0038444672339507744,1.1248424053192139,0.698018491268158,0.8871963620185852
1731474025.4090335,-0.4912794232368469,0.5113869905471802,-9.929401397705078,-0.06437693704727199,0.02763068980308576,0.008439284109832357,1.124840259552002,0.6977488994598389,0.8871962428092957
1731474025.4588633,-0.5053068995475769,0.508102297782898,-9.988011360168457,-0.07234513128534059,0.03601755030250378,0.01289229083054547,1.1243798732757568,0.6518809199333191,0.8871883749961853
1731474025.508888,-0.5053068995475769,0.508102297782898,-9.988011360168457,-0.07570294023081434,0.03747719637538633,0.016328011307740087,1.119837999343872,0.7473385334014893,0.8869495987892151
1731474025.508888,-0.5219786763191223,0.4980936646461487,-9.996456146240234,-0.07539158179593826,0.032656467711873305,0.017293733389648215,1.1198254823684692,0.7472926378250122,0.8869493007659912
1731474025.5588136,-0.5392715334892273,0.5227642059326172,-9.994682312011719,-0.07219385270118045,0.024001049668613925,0.014599751015839322,1.1176843643188477,0.7398214936256409,0.8869197368621826
1731474025.6087337,0.0016254137735813856,0.24651041626930237,-9.92096996307373,-0.06343822251150648,0.01554408482719965,0.009014412757462748,1.1153637170791626,0.7323591113090515,0.8869192600250244
1731474025.6586947,0.35777750611305237,0.18670429289340973,-10.154389381408691,-0.03631856015334298,0.015119103052034132,0.0028271832976598434,1.1129146814346313,0.7249214053153992,0.8869335055351257
1731474025.7087095,0.38631725311279297,0.12386712431907654,-10.072394371032715,0.03361908637023041,0.03444322641303747,-0.0038494772472794504,1.1161718368530273,0.771557629108429,0.8867571949958801
1731474025.7586043,0.15858067572116852,0.2672003209590912,-9.972562789916992,0.16103196165005523,0.0795284969240644,-0.013593157392553377,1.1152675151824951,0.7718129754066467,0.8866909742355347
1731474025.8085709,0.19045986235141754,0.15016917884349823,-10.009052276611328,0.31692652717157827,0.13746892971604596,-0.02510661364706511,1.11496102809906,0.7723366618156433,0.8865769505500793
1731474025.858509,0.14934729039669037,0.19654865562915802,-9.986785888671875,0.43045266099464685,0.17915759745290366,-0.030531668994732992,1.1125595569610596,0.782042920589447,0.8864983916282654
1731474025.9085085,-0.6127364635467529,0.5073305368423462,-9.948929786682129,0.43612221087079195,0.17926125318010785,-0.02267614503050193,1.1130887269973755,0.7842068672180176,0.8863134980201721
1731474025.9583855,-0.8918110728263855,0.7279265522956848,-9.824525833129883,0.3099454584010875,0.12841126486197302,-0.0013181825038003974,1.1145408153533936,0.7867342233657837,0.8861003518104553
1731474026.0083447,-0.8918110728263855,0.7279265522956848,-9.824525833129883,0.06714442010142779,0.02931305036367151,0.02882003471982724,1.1164727210998535,0.7894749045372009,0.8859202265739441
1731474026.0083447,-0.7679728269577026,0.687369704246521,-9.81197738647461,-0.24930957642148388,-0.10654564058337262,0.06295981561116855,1.11648428440094,0.7894907593727112,0.8859193921089172
1731474026.0582736,-0.6049957871437073,0.6777440905570984,-10.057273864746094,-0.5761919870634086,-0.2573781258303983,0.09639757842756139,1.1076347827911377,0.7901158332824707,0.8866283297538757
1731474026.1081839,-0.5478224158287048,0.6122556924819946,-9.914725303649902,-0.8416058086650552,-0.3924565686758935,0.1216710049623409,1.1044169664382935,0.790899932384491,0.8869972825050354
1731474026.1581843,-0.47649532556533813,0.5560362935066223,-9.91557502746582,-0.9792508091105131,-0.4763365129186477,0.13178961583767917,1.0991604328155518,0.793717086315155,0.8868999481201172
1731474026.208155,-0.45070144534111023,0.48741787672042847,-10.04488754272461,-0.9485788962573198,-0.47910733412048867,0.12632161604158526,1.0925440788269043,0.7933372259140015,0.8875293731689453
1731474026.2590234,-0.45070144534111023,0.48741787672042847,-10.04488754272461,-0.7595351150296118,-0.39457641420261347,0.10801347644368067,1.0837641954421997,0.7918465733528137,0.8884559869766235
1731474026.2590234,-0.3468780815601349,0.4898008406162262,-10.009482383728027,-0.47518479241629563,-0.24884794455394585,0.0765584764165744,1.0837024450302124,0.7918339371681213,0.8884627223014832
1731474026.3090954,-0.38308072090148926,0.4277353882789612,-10.019449234008789,-0.18052666485801652,-0.08685074125354605,0.03212857367010063,1.0898226499557495,0.7995287775993347,0.8868537545204163
1731474026.3589656,-0.41212961077690125,0.34820494055747986,-10.031240463256836,0.05453726141959483,0.05009809667389688,-0.01867722969977997,1.0855382680892944,0.8006810545921326,0.8870644569396973
1731474026.4089463,-0.37000131607055664,0.3852771520614624,-10.066349029541016,0.19295593153807092,0.1382264871469623,-0.06399358253474359,1.0803253650665283,0.8067821860313416,0.8864544630050659
1731474026.4589205,-0.3891231119632721,0.35813412070274353,-10.005343437194824,0.2314049271701493,0.1726813591091327,-0.09228490756984957,1.0761038064956665,0.8099948763847351,0.8861874938011169
1731474026.5088382,-0.40357527136802673,0.33883827924728394,-10.032025337219238,0.19290247392089788,0.16255753526145789,-0.09705173605857711,1.0711500644683838,0.8129570484161377,0.886070728302002
1731474026.5587454,-0.4105946123600006,0.34657996892929077,-9.985017776489258,0.1137783848773314,0.12484236624618587,-0.07871815043574018,1.0670881271362305,0.8164592385292053,0.8855910897254944
1731474026.6087918,-0.36761119961738586,0.3581196665763855,-10.027835845947266,0.029884373633778376,0.07771003451375601,-0.044413846368661886,1.0626606941223145,0.8192784190177917,0.8858968019485474
1731474026.6587584,-0.36761119961738586,0.3581196665763855,-10.027835845947266,-0.03263273361804944,0.0347689359675224,-0.005752909134475764,1.0588417053222656,0.8224326968193054,0.8855947852134705
1731474026.6587584,-0.3720877170562744,0.3147921562194824,-10.003175735473633,-0.06190162750728405,0.0034978522824790897,0.025618677707291187,1.0588253736495972,0.8224462270736694,0.8855934739112854
1731474026.7086017,-0.38689517974853516,0.3362944722175598,-10.00037956237793,-0.06048593413281935,-0.013069551973971229,0.042840335593225566,1.0524104833602905,0.8240212798118591,0.8860965967178345
1731474026.7585082,-0.3714185953140259,0.3649238049983978,-9.952352523803711,-0.04035243312224743,-0.015509944030112133,0.045979816419221206,1.0449448823928833,0.8285143375396729,0.8861113786697388
1731474026.8085735,-0.3714185953140259,0.3649238049983978,-9.952352523803711,-0.01516858722387713,-0.008418754435158975,0.0401122654506586,1.039499044418335,0.8316414952278137,0.8862453103065491
1731474026.8085735,-0.3732181787490845,0.3802971839904785,-10.008101463317871,0.005285149190277978,0.0012293753982799034,0.030801621862692467,1.039466381072998,0.8316601514816284,0.8862464427947998
1731474026.858488,-0.3732181787490845,0.3802971839904785,-10.008101463317871,0.016560889072383105,0.007667074833951302,0.020345941633998946,1.03410005569458,0.8347415328025818,0.8864537477493286
1731474026.858488,-0.4210452437400818,0.3744436204433441,-9.972156524658203,0.018323332587641947,0.008424040315063929,0.008071358636158625,1.0340670347213745,0.8347606658935547,0.8864551782608032
1731474026.9084418,-0.4093518555164337,0.3812732398509979,-9.894091606140137,0.01228453052265531,0.004089185087854887,-0.005776509651012115,1.028721809387207,0.8378650546073914,0.886681079864502
1731474026.9583666,-0.42764344811439514,0.4166625142097473,-9.993509292602539,0.0007010784872548211,-0.0031594154760286406,-0.017670256233893945,1.0376144647598267,0.8331162929534912,0.8860179781913757
1731474027.0083332,-0.450169175863266,0.3906916677951813,-9.97293472290039,-0.013801260730495028,-0.011104966204700287,-0.023462607008512555,1.034777283668518,0.8348254561424255,0.8859454989433289
1731474027.0582495,-0.450169175863266,0.3906916677951813,-9.97293472290039,-0.027944177177951505,-0.017500879800922863,-0.021977167240767193,1.031903624534607,0.8364895582199097,0.885816752910614
1731474027.0582495,-0.4384160041809082,0.36099758744239807,-9.942166328430176,-0.03824728374167363,-0.019425981772850612,-0.014609654255752771,1.031887173652649,0.8364988565444946,0.8858158588409424
1731474027.1083534,-0.4226076602935791,0.3997052013874054,-9.943093299865723,-0.042193568169400994,-0.014493985123966198,-0.003168969798113778,1.0317769050598145,0.8370348811149597,0.8858544826507568
1731474027.1580696,-0.4038965106010437,0.369513601064682,-10.002700805664062,-0.039027856663528024,-0.0030582911197689303,0.01018330854976678,1.0294992923736572,0.8383468389511108,0.8858102560043335
1731474027.208173,-0.40379881858825684,0.3378780782222748,-9.96371841430664,-0.029662478708352064,0.011654868502544666,0.0214718315360952,1.0241305828094482,0.8441187143325806,0.8856645822525024
1731474027.258018,-0.3981698155403137,0.3320896327495575,-9.9566068649292,-0.016332022533829763,0.025737671361437207,0.025840560787462025,1.0208613872528076,0.846807062625885,0.8856717944145203
1731474027.3090577,-0.3606358468532562,0.3616393804550171,-9.980854034423828,-0.0020687584117459346,0.035958065333334684,0.021428264751676963,1.0159564018249512,0.8515837788581848,0.8853562474250793
1731474027.3588898,-0.33043432235717773,0.34428900480270386,-9.986085891723633,0.01051399300719881,0.03964295970156243,0.010881609491070874,1.012253761291504,0.854938268661499,0.8853197693824768
1731474027.4090827,-0.34772831201553345,0.33605432510375977,-10.001517295837402,0.02012729094996009,0.035869139090279806,-0.001229801383062517,1.00901198387146,0.8581917881965637,0.8850942850112915
1731474027.4588811,-0.3392235040664673,0.32927462458610535,-9.989953994750977,0.02626547286467377,0.02695810965700667,-0.01112705718466947,1.0049961805343628,0.8620740175247192,0.8849657773971558
1731474027.5088305,-0.3307797908782959,0.33073529601097107,-9.995987892150879,0.028549000436660147,0.017066335130398524,-0.016590653005015846,1.0010453462600708,0.8660137057304382,0.8848027586936951
1731474027.5587234,-0.3009929955005646,0.33263176679611206,-10.004572868347168,0.027320172656869535,0.009352641170838012,-0.016897219220789406,1.0047796964645386,0.8659682869911194,0.8847789764404297
1731474027.6086686,-0.344838947057724,0.3135645389556885,-10.02869987487793,0.02401061693096985,0.004946807406484026,-0.013044336975269742,1.0027660131454468,0.8687734603881836,0.8846162557601929
1731474027.6586723,-0.31083089113235474,0.32126516103744507,-9.995264053344727,0.019690260532272574,0.0036847018420057046,-0.007567999496764047,1.0008126497268677,0.8715814352035522,0.8844283223152161
1731474027.7086852,-0.34835779666900635,0.35404834151268005,-9.975929260253906,0.013856299999108685,0.004709772856732952,-0.002873041325256737,0.997581422328949,0.8753072619438171,0.8844445943832397
1731474027.7585793,-0.32957327365875244,0.36169445514678955,-9.993959426879883,0.005744769225521382,0.006361550507069614,0.0003682229954350051,0.9949462413787842,0.8786869645118713,0.8843032717704773
1731474027.808641,-0.4077112674713135,0.3636019825935364,-10.023233413696289,-0.003879720279074514,0.006632381225499107,0.0022994394791939336,0.9922893643379211,0.8821138143539429,0.884164035320282
1731474027.8585289,-0.4077112674713135,0.3636019825935364,-10.023233413696289,-0.013411615179753212,0.0044615340316739435,0.001919174260102563,0.9920651912689209,0.88294917345047,0.8841745257377625
1731474027.8585289,-0.3755679130554199,0.3543018400669098,-9.98427963256836,-0.02191330268832467,0.0003842978165825579,-0.0021506034893650156,0.9920519590377808,0.8829666972160339,0.8841738700866699
1731474027.90851,-0.4073203504085541,0.36683425307273865,-9.959864616394043,-0.028208416315618816,-0.0039443336380960165,-0.008492368112610253,0.9898627996444702,0.8858131170272827,0.8840600252151489
1731474027.9583318,-0.4006913900375366,0.3422386348247528,-9.9674072265625,-0.030010741551387374,-0.006693315127328493,-0.012074409108889152,0.9837554693222046,0.8917366862297058,0.8838332295417786
1731474028.0084052,-0.4240284562110901,0.3727797567844391,-9.997129440307617,-0.02606689907176324,-0.006858716860092001,-0.00829532919812304,0.9789606928825378,0.898709774017334,0.8836717009544373
1731474028.0582073,-0.4218009412288666,0.31961533427238464,-9.950777053833008,-0.01803947119665365,-0.004727529428068431,0.002407309583977112,0.9755465388298035,0.9029433727264404,0.8835172057151794
1731474028.1082666,-0.6960943937301636,-0.4832519292831421,-9.994155883789062,-0.010599590697408349,0.003017270456724513,0.015187776470942205,0.9720558524131775,0.9072255492210388,0.8833828568458557
1731474028.1581552,-0.46749013662338257,-0.18884895741939545,-10.081905364990234,-0.011053031911440546,0.03239070264122066,0.02461672399016215,0.9715529084205627,0.9063015580177307,0.8835088610649109
1731474028.2082005,-0.9222584962844849,-0.37559300661087036,-10.029966354370117,-0.02678166952239049,0.10346369744903697,0.02673037044496593,0.9687027931213379,0.9094990491867065,0.8835193514823914
1731474028.2581232,-0.7586671113967896,-0.3893609941005707,-9.972976684570312,-0.062359749847100764,0.21187851271542793,0.021296956813286038,0.9660229086875916,0.9136998653411865,0.8833555579185486
1731474028.3080544,-0.4767451882362366,0.815679669380188,-10.047038078308105,-0.11503472058271509,0.3146601535677671,0.013352740349831273,0.9627158641815186,0.9183694124221802,0.8833534121513367
1731474028.358965,-0.05078944191336632,0.791975736618042,-9.858983039855957,-0.1630096544671912,0.3415210312702863,0.008804616922222699,0.9602808356285095,0.9179443120956421,0.8831499814987183
1731474028.409023,-0.26969078183174133,0.7924529314041138,-9.787941932678223,-0.1678630771967646,0.23228263383737136,0.01016833631788944,0.9565519690513611,0.9221159219741821,0.8831083178520203
1731474028.4588494,-0.31473085284233093,0.5557489991188049,-10.087264060974121,-0.11116117534232628,-0.003070891543321963,0.016477870605736702,0.9524720311164856,0.9265766739845276,0.8830998539924622
1731474028.5090516,-0.3241845369338989,0.7322437167167664,-9.872133255004883,-0.023058522112889952,-0.26732359933707317,0.021729186703160784,0.9571495056152344,0.9224355816841125,0.883091926574707
1731474028.5587566,-0.3241845369338989,0.7322437167167664,-9.872133255004883,0.042368442496832304,-0.44305219565101434,0.017491627230022788,0.9544406533241272,0.9264013767242432,0.8830191493034363
1731474028.5587566,-0.524859607219696,0.536916196346283,-9.96749496459961,0.05293471319285058,-0.4707704066974561,0.001735652378403581,0.9544292688369751,0.9264103174209595,0.8830192685127258
1731474028.6087534,-0.3913405239582062,0.5565979480743408,-10.000187873840332,0.013154068846018465,-0.3647314910603243,-0.020346445999899623,0.9524796009063721,0.9274899363517761,0.883013129234314
1731474028.658583,-0.47771400213241577,0.3491961658000946,-10.020347595214844,-0.05148066853045683,-0.18088002383509955,-0.043861179385365455,0.9496251344680786,0.928248405456543,0.882817804813385
1731474028.7086399,-0.44206494092941284,0.39522072672843933,-9.960127830505371,-0.11314017820645669,0.017923843360551354,-0.06641176832542284,0.9471544027328491,0.9288675785064697,0.8825774192810059
1731474028.7585235,-0.43148672580718994,0.33151277899742126,-9.987762451171875,-0.1508043749135277,0.17918479736099577,-0.08355531775195896,0.9467886090278625,0.9322117567062378,0.8825695514678955
1731474028.808726,-0.43148672580718994,0.33151277899742126,-9.987762451171875,-0.1536502833152165,0.2679286403891339,-0.08786170587888885,0.94450843334198,0.9344294667243958,0.8821286559104919
1731474028.808726,-0.44654157757759094,0.40954190492630005,-10.028660774230957,-0.12358265677513369,0.27412094269570153,-0.07547397633454589,0.9444941878318787,0.9344441890716553,0.8821254968643188
1731474028.8584428,-0.503395140171051,0.36866071820259094,-10.027716636657715,-0.07470712699752839,0.213605048912185,-0.051266953235336366,0.9439219236373901,0.9363893270492554,0.8824173212051392
1731474028.9084005,-0.48379865288734436,0.31530770659446716,-10.008275032043457,-0.026348530080145587,0.118193978692964,-0.025543815625891565,0.9419142603874207,0.9390475153923035,0.8820991516113281
1731474028.9583359,-0.48401474952697754,0.27804550528526306,-9.981236457824707,0.00699047483223896,0.023569792326136624,-0.006377915810176727,0.9426339268684387,0.940138041973114,0.8823724389076233
1731474029.0083652,0.20720556378364563,0.05045314133167267,-10.016440391540527,0.024715690022243254,-0.04043567349293227,0.004389881247987991,0.9413922429084778,0.9424400925636292,0.8822230696678162
1731474029.058224,0.2570123076438904,0.0482601635158062,-10.14459228515625,0.04610391285311355,-0.056749375587694086,0.00788691019909858,0.9402319192886353,0.9446338415145874,0.8820881247520447
1731474029.1082294,0.45499545335769653,-0.005913160275667906,-10.077590942382812,0.10366840605087119,-0.023791487994780175,0.0029443596350066563,0.9419552087783813,0.946045458316803,0.882391631603241
1731474029.1581898,0.1008196473121643,0.21971243619918823,-10.0068941116333,0.21501044077125286,0.04375219077566374,-0.01215051125897302,0.9418928623199463,0.9479610919952393,0.8823353052139282
1731474029.2081127,0.2091466635465622,0.06575368344783783,-10.041074752807617,0.35037001807363183,0.11550182047093836,-0.032679358120190315,0.9426450133323669,0.9531329870223999,0.8822881579399109
1731474029.2581635,0.08060998469591141,0.17002758383750916,-9.939889907836914,0.4394502643268711,0.15615382601100547,-0.047098814204130125,0.9440141320228577,0.956595778465271,0.8820890784263611
1731474029.3080144,0.1440637707710266,0.1574561893939972,-9.960692405700684,0.4256543837108532,0.14582744959831398,-0.045051223674370415,0.9464486837387085,0.9604079723358154,0.8817769885063171
1731474029.3590174,0.1123611256480217,0.2302001416683197,-9.918712615966797,0.3090489808846539,0.08976664597416237,-0.023836261876531754,0.9498760104179382,0.9646053910255432,0.8813700079917908
1731474029.4089813,0.07905326783657074,0.2281332015991211,-9.95340347290039,0.1371114083991099,0.009338428801943167,0.011457373450120186,0.9432256817817688,0.961135745048523,0.8821673393249512
1731474029.4588542,0.09864916652441025,0.20438870787620544,-9.94124698638916,-0.030763027163841057,-0.07110400288251342,0.05094830690755364,0.9441114664077759,0.9635264873504639,0.8821619153022766
1731474029.5088918,0.059863489121198654,0.16832426190376282,-9.948801040649414,-0.1496450458604056,-0.1303114642825458,0.08305643110949566,0.9424373507499695,0.9692348837852478,0.8822458386421204
1731474029.5587692,0.0383884459733963,0.14270931482315063,-9.946179389953613,-0.19958745489277926,-0.15317418555591028,0.09819511137265334,0.9418231844902039,0.9740767478942871,0.8822780847549438
1731474029.6088126,0.03709879890084267,0.16402064263820648,-9.959942817687988,-0.1860103026276333,-0.1363522155173446,0.09284447264037779,0.9409868717193604,0.9768887162208557,0.8826714754104614
1731474029.6586788,-0.014517192728817463,0.11892864108085632,-9.961352348327637,-0.13214938051847883,-0.09104298654770675,0.07070846305118739,0.9397581219673157,0.9794068336486816,0.8832667469978333
1731474029.7086854,-1.3117824792861938,-0.2806740403175354,-9.992217063903809,-0.07324051039324672,-0.03467250010061377,0.039863001865775086,0.9382690787315369,0.9817768931388855,0.8840019702911377
1731474029.7585378,-1.3117824792861938,-0.2806740403175354,-9.992217063903809,-0.060760582133115595,0.024024625364442564,0.008554785063593572,0.9413030743598938,0.9825653433799744,0.8821468949317932
1731474029.7585378,-0.723803699016571,0.16478592157363892,-9.894372940063477,-0.14234159252642375,0.08532065273454066,-0.01690340983031302,0.9413001537322998,0.9825802445411682,0.8821476101875305
1731474029.8086092,-0.43465396761894226,0.021189779043197632,-10.044163703918457,-0.29897722174331975,0.13755508485514387,-0.03171239871214884,0.9404749870300293,0.985055685043335,0.8822222352027893
1731474029.858419,-0.5862728953361511,0.20285926759243011,-10.133319854736328,-0.4245343218929276,0.14950293054553632,-0.034437187780030964,0.9420297741889954,0.9914280772209167,0.881800651550293
1731474029.908519,-0.29544568061828613,0.1503899246454239,-9.921941757202148,-0.4072215845286877,0.0970620630716095,-0.029188444277310523,0.940510094165802,0.9955227971076965,0.8816476464271545
1731474029.9583473,-0.532461404800415,0.14854475855827332,-10.041434288024902,-0.22456303804524258,-0.007567041973842642,-0.019846202657767723,0.9382152557373047,0.9996997714042664,0.8814347386360168
1731474030.0083673,-0.3341788947582245,0.26477789878845215,-10.042221069335938,0.047386435222901764,-0.11914915299656674,-0.004503887538843178,0.9427939653396606,1.001726746559143,0.8816155195236206
1731474030.0582626,-0.44484472274780273,0.1241418793797493,-9.957188606262207,0.29698635243389765,-0.19072561310440328,0.01914687523967644,0.9429383277893066,1.004569172859192,0.8815543055534363
1731474030.108314,-0.4697299897670746,0.21306845545768738,-9.999373435974121,0.4404765631054177,-0.19991287197261778,0.04760640242759682,0.9438134431838989,1.0130600929260254,0.8815933465957642
1731474030.1581655,-0.8512118458747864,-0.021995559334754944,-10.02028751373291,0.4460121467812225,-0.15133396318253775,0.07285557898513602,0.9455589056015015,1.0172830820083618,0.8817518949508667
1731474030.2081914,-0.6349761486053467,0.2551831603050232,-9.904024124145508,0.3289140610807609,-0.06657240692275615,0.08688613772530027,0.9445676207542419,1.0240951776504517,0.881646454334259
1731474030.2580855,-0.9913605451583862,-0.14297182857990265,-10.004283905029297,0.1371052425490821,0.026926374878865317,0.08589995785871685,0.9461912512779236,1.0291272401809692,0.8820022344589233
1731474030.3080595,-0.749442994594574,0.2992548644542694,-9.978445053100586,-0.06860164235471491,0.10674030648995614,0.07067467594938692,0.9452269673347473,1.0322991609573364,0.8816400766372681
1731474030.358029,-0.6747521162033081,0.08949305862188339,-9.889756202697754,-0.2336853901138089,0.16076833116815414,0.04450592490553863,0.9455417990684509,1.036962628364563,0.8819606304168701
1731474030.4079275,-0.6553887724876404,0.23647263646125793,-10.003045082092285,-0.3211015229302067,0.185374641613812,0.014195857740686164,0.9451053142547607,1.041658878326416,0.8814721703529358
1731474030.4588633,-0.6513037085533142,0.21773526072502136,-9.979371070861816,-0.31808295590802677,0.18320550071313033,-0.010619807396173513,0.944173276424408,1.0472742319107056,0.881555438041687
1731474030.5087717,0.16141000390052795,0.6135632395744324,-9.920578002929688,-0.23665089503753015,0.15890379730819137,-0.022821896078613197,0.9425604939460754,1.0532104969024658,0.8815951347351074
1731474030.5587428,-0.1361684650182724,0.39707279205322266,-10.078617095947266,-0.09901336895088594,0.11268696165768428,-0.02100505432631277,0.9405291080474854,1.0594866275787354,0.8815802335739136
1731474030.6087775,-0.2564978003501892,0.4570021629333496,-9.964369773864746,0.07381037688615412,0.04338287948638254,-0.009368996540409368,0.9384605288505554,1.0659761428833008,0.881527304649353
1731474030.6586397,-0.2564978003501892,0.4570021629333496,-9.964369773864746,0.2544582433296227,-0.04185339753433021,0.004776975371330472,0.9461733102798462,1.0477533340454102,0.8812412619590759
1731474030.6586397,-0.19167368113994598,0.37875986099243164,-9.926596641540527,0.4055800198499796,-0.12566793264330497,0.016109474238979845,0.9461772441864014,1.0477676391601562,0.8812411427497864
1731474030.708685,-0.3542953133583069,0.3894083797931671,-10.05170726776123,0.4911399249924977,-0.18586225277452653,0.022981323462818767,0.9473653435707092,1.0496209859848022,0.8812550902366638
1731474030.758548,-0.3542953133583069,0.3894083797931671,-10.05170726776123,0.4889320230942726,-0.2033035440363003,0.023890644499844977,0.9488654732704163,1.054713249206543,0.8811096549034119
1731474030.758548,-0.18061396479606628,0.45596909523010254,-9.984842300415039,0.40140478473238267,-0.17295664000185673,0.016550298800005733,0.9488788843154907,1.0547329187393188,0.8811098337173462
1731474030.8085346,-0.18061396479606628,0.45596909523010254,-9.984842300415039,0.26152587008022676,-0.10982299229770383,0.0027341632059552966,0.9513159394264221,1.057671070098877,0.881137490272522
1731474030.8085346,-0.3539194166660309,0.3078497052192688,-9.95509147644043,0.12049482441102627,-0.04078496009927439,-0.009342983775228481,0.9513318538665771,1.0576871633529663,0.8811376690864563
1731474030.8584795,-0.23672626912593842,0.45520177483558655,-9.99685001373291,0.0205597493029184,0.011543604748072832,-0.010553202014631353,0.9541338682174683,1.060518503189087,0.8811555504798889
1731474030.9085457,-0.23672626912593842,0.45520177483558655,-9.99685001373291,-0.02246343095011213,0.037478857342140764,0.0021288429880527648,0.9569234848022461,1.0634005069732666,0.8811628818511963
1731474030.9085457,0.2664763629436493,0.6383494138717651,-10.009069442749023,-0.013213373027015266,0.03653664251575314,0.024137472822627105,0.9569391012191772,1.0634170770645142,0.8811629414558411
1731474030.958365,0.7813677191734314,0.9319120645523071,-10.045437812805176,0.04290809611388845,0.0094635493325798,0.046854178351144055,0.9507266283035278,1.0643879175186157,0.881631076335907
1731474031.0084014,-0.806227445602417,-0.1965659260749817,-9.97940444946289,0.13976407595701743,-0.038574387433728416,0.06238742309353655,0.9533993005752563,1.0724995136260986,0.8822457790374756
1731474031.0583348,-0.5277594923973083,0.5162739753723145,-9.903509140014648,0.23828389249124335,-0.08427687820201103,0.06737518047031471,0.9554804563522339,1.0766810178756714,0.8827699422836304
1731474031.108304,-0.29852068424224854,0.10338722914457321,-9.987703323364258,0.27571248591700204,-0.101507709131893,0.0638378386044434,0.9563058018684387,1.081738829612732,0.8829473257064819
1731474031.158216,-0.4162099361419678,0.4686034619808197,-10.141438484191895,0.23341498906915945,-0.09698917047541322,0.05497711563610572,0.9587695598602295,1.0856140851974487,0.8835309743881226
1731474031.2081134,-0.26841577887535095,0.3124745488166809,-9.902509689331055,0.1504900604354956,-0.10163595450973928,0.04090436662983988,0.9617160558700562,1.0892493724822998,0.884235143661499
1731474031.258125,-0.4220113158226013,0.292667955160141,-9.954297065734863,0.07032285746381607,-0.13240766483425015,0.021971000965763432,0.9649524092674255,1.0926069021224976,0.8850213289260864
1731474031.3080864,-0.27651968598365784,0.43006932735443115,-10.048104286193848,0.01168328990187538,-0.18160361532329747,0.0032414589477748885,0.958402156829834,1.0805796384811401,0.8834257125854492
1731474031.3579779,-0.38482797145843506,0.28270983695983887,-9.971624374389648,-0.023722441431038143,-0.22980935947731523,-0.00924841900509917,0.9594860672950745,1.0805299282073975,0.8836787939071655
1731474031.408002,-0.27313122153282166,0.49066027998924255,-9.973909378051758,-0.04095198165760848,-0.25647504457466624,-0.012766442784806835,0.9616530537605286,1.0793453454971313,0.8837255239486694
1731474031.4579298,-0.40966612100601196,0.2670224905014038,-10.004718780517578,-0.04689749886775092,-0.24570745416290238,-0.007055271033766438,0.9628744721412659,1.078474998474121,0.8838897347450256
1731474031.50886,-0.2553648352622986,0.4629926085472107,-9.967860221862793,-0.04800516587840217,-0.19310705957553811,0.005229233067491507,0.963992178440094,1.0770293474197388,0.8840541839599609
1731474031.5588171,-0.38273006677627563,0.2652362287044525,-9.961934089660645,-0.04856930841577402,-0.1088027471811639,0.01806861681650429,0.9656363725662231,1.0840023756027222,0.884209930896759
1731474031.6088195,-0.2898217439651489,0.4730130732059479,-10.001837730407715,-0.04956071764401839,-0.013871128560722125,0.025641740268419085,0.9667585492134094,1.0846718549728394,0.8844619393348694
1731474031.6586933,-0.35227417945861816,0.29924461245536804,-9.965128898620605,-0.04843619151028786,0.06524202109183347,0.025314258230963126,0.9677578806877136,1.0854055881500244,0.8847776651382446
1731474031.7087297,-0.2723558843135834,0.44786733388900757,-9.97970199584961,-0.04053617233552294,0.10505515942248692,0.017682120021271307,0.9686446785926819,1.0863510370254517,0.8851466774940491
1731474031.7585957,-0.3606308102607727,0.3084038197994232,-9.979437828063965,-0.02275701534854572,0.09607930091128411,0.00574682362876285,0.9694480299949646,1.087883472442627,0.884730875492096
1731474031.8086026,-0.2762003540992737,0.3993024230003357,-9.973701477050781,0.0031444929321014572,0.04775574166145026,-0.006484284592901915,0.9704467058181763,1.0891140699386597,0.8849208950996399
1731474031.8584654,-0.34111395478248596,0.3299328684806824,-9.991453170776367,0.03107422703091999,-0.017391380839378925,-0.015569553221746297,0.9742635488510132,1.0920283794403076,0.8851539492607117
1731474031.9086087,-0.31186506152153015,0.4013252258300781,-9.99600601196289,0.05386967586348421,-0.07517413164644618,-0.019651268969346256,0.9760652780532837,1.0933892726898193,0.8852829337120056
1731474031.9583392,-0.32554730772972107,0.3448513150215149,-9.977287292480469,0.06626044439448694,-0.10955478833435067,-0.018792820379024095,0.9790875315666199,1.0962105989456177,0.8856672644615173
1731474032.0084713,-0.3153442144393921,0.37617120146751404,-9.993955612182617,0.06651508220137689,-0.11628945298006943,-0.014405697515789883,0.981424868106842,1.097601294517517,0.8858237266540527
1731474032.0582972,-0.3201756775379181,0.35088756680488586,-9.987631797790527,0.05660624587883674,-0.1006125196855925,-0.008563555479841568,0.9845907688140869,1.1010863780975342,0.8863190412521362
1731474032.1082702,-0.31938090920448303,0.36541593074798584,-9.985779762268066,0.04084696630971165,-0.07249325085977966,-0.003516501009847528,0.9878183007240295,1.1032922267913818,0.8866217136383057
1731474032.1582084,-0.3246594965457916,0.3645850718021393,-9.989569664001465,0.02395771330098893,-0.04227316814135201,-0.0007145843033896122,0.9911177158355713,1.105349063873291,0.886918306350708
1731474032.2081711,-0.3177487254142761,0.3678322434425354,-9.986319541931152,0.009586862943301015,-0.01777475779098371,-0.00014591893656488522,0.9879902005195618,1.102348804473877,0.8862940669059753
1731474032.258069,-0.29324716329574585,0.35862401127815247,-9.977699279785156,-0.00017214150290807174,-0.002889832540533384,-0.0007996637256749474,0.9897195100784302,1.1032363176345825,0.8863782286643982
1731474032.3081133,-0.31090301275253296,0.24662014842033386,-9.983199119567871,-0.004484892831060849,0.003220354460671931,-0.0014609598699577024,0.9914489984512329,1.1041274070739746,0.8864598870277405
1731474032.3579915,-0.23405970633029938,0.13494011759757996,-10.000215530395508,-0.0033366550683820366,0.006828512912239465,-0.0013726743067429229,0.9905533194541931,1.1038587093353271,0.8862788677215576
1731474032.4079957,-0.29678216576576233,0.10047107934951782,-10.010711669921875,0.0024888734936266044,0.01727626308227085,-0.0007437507986301148,0.991698145866394,1.1045809984207153,0.8863136172294617
1731474032.4579363,-0.24949435889720917,-0.703218400478363,-10.051338195800781,0.010308528573220087,0.04290665672137505,-0.0007265702732744963,0.9928561449050903,1.1053766012191772,0.8863465189933777
1731474032.5078475,-0.6311981678009033,-0.4400811493396759,-10.059934616088867,0.013606946065335444,0.09331425242587789,-0.003006107683190837,0.9953324794769287,1.1080610752105713,0.8863499760627747
1731474032.5587878,-0.206159308552742,-0.05336764454841614,-9.998722076416016,0.004771567170179649,0.1740458438068239,-0.008575431164544463,0.9993498921394348,1.115862488746643,0.8864229321479797
1731474032.6088274,-0.5231760740280151,-0.22588759660720825,-9.90939998626709,-0.015197641320820139,0.26484562999597794,-0.015144062943707091,1.0015672445297241,1.1199208498001099,0.8864302039146423
1731474032.6587255,-0.3009529709815979,0.07189778983592987,-9.945453643798828,-0.03664309045187137,0.3218615760798178,-0.016721425169623244,1.005537748336792,1.1266194581985474,0.8865212798118591
1731474032.7087157,-0.3969351649284363,-0.0081228232011199,-9.923738479614258,-0.05435887415899685,0.31415449593699596,-0.008448015196622844,1.0083789825439453,1.1327697038650513,0.8865155577659607
1731474032.7585924,-0.36112239956855774,0.19212248921394348,-9.927395820617676,-0.06988833577409621,0.24512189312175087,0.008377508933582129,1.0110552310943604,1.139595627784729,0.8865097761154175
1731474032.808537,-0.36112239956855774,0.19212248921394348,-9.927395820617676,-0.08320235189483464,0.14153053717858208,0.027124419252861375,1.0135427713394165,1.1469082832336426,0.8865482211112976
1731474032.808537,-0.38853809237480164,0.21222186088562012,-9.986224174499512,-0.09152735809424646,0.03362968856874593,0.04046013959734793,1.0135562419891357,1.146950602531433,0.886548638343811
1731474032.8586006,-0.39105725288391113,0.21912264823913574,-9.961272239685059,-0.09335974662991733,-0.05699072255495857,0.04363654311557215,1.0095617771148682,1.1293483972549438,0.8866720199584961
1731474032.908544,-0.3923659324645996,0.19944307208061218,-9.960304260253906,-0.08981061270874363,-0.11923038976334673,0.03576532747205675,1.01378333568573,1.1313263177871704,0.8868097066879272
1731474032.958439,-0.36347076296806335,0.2535177767276764,-9.981667518615723,-0.08218882533406988,-0.1491245203901877,0.02011938579896775,1.0156927108764648,1.132905125617981,0.8870108723640442
1731474033.0084512,-0.36347076296806335,0.2535177767276764,-9.981667518615723,-0.06974191524604603,-0.14811516078970224,0.002363897308268454,1.0173994302749634,1.1341032981872559,0.8872385621070862
1731474033.0084512,-0.3428701162338257,0.24973078072071075,-10.012035369873047,-0.05112399114723143,-0.12413951604724906,-0.012748720355675989,1.0174087285995483,1.1341091394424438,0.8872398734092712
1731474033.0583036,-0.34406813979148865,0.2716686725616455,-10.00146484375,-0.027034188879888815,-0.09018124500544153,-0.023383572806836464,1.0190191268920898,1.1350229978561401,0.887444019317627
1731474033.1082873,-0.33721402287483215,0.25600260496139526,-10.0007963180542,-0.0005836216978495293,-0.05912392312077188,-0.03018649732101599,1.0179758071899414,1.1333757638931274,0.8868748545646667
1731474033.158256,-0.3445381224155426,0.26219531893730164,-9.980220794677734,0.023844923762586394,-0.039031726582875646,-0.0342814636169774,1.019145131111145,1.1339417695999146,0.886806070804596
1731474033.2082343,-0.37205806374549866,0.24558158218860626,-10.001893043518066,0.04137671492385952,-0.030866724300814607,-0.035476348177706576,1.0242347717285156,1.1363966464996338,0.88687664270401
1731474033.2580898,-0.3165038228034973,0.24560390412807465,-10.017911911010742,0.0479968164203416,-0.029696137592462334,-0.032672638510874055,1.026947021484375,1.1376196146011353,0.8867605328559875
1731474033.30819,-0.3345617949962616,0.24517333507537842,-9.991564750671387,0.04361070075685411,-0.029116122322334934,-0.025914861206954496,1.0304352045059204,1.139577031135559,0.8869447112083435
1731474033.3579516,-0.31853213906288147,0.24057048559188843,-9.97734546661377,0.03314384172371938,-0.02531417313855764,-0.01691120362703047,1.0336052179336548,1.1410136222839355,0.8868592381477356
1731474033.408029,-0.2957894504070282,0.2615477740764618,-10.006814956665039,0.02297324373502998,-0.01807210269571187,-0.0077304168686574744,1.0342779159545898,1.1410514116287231,0.8869442939758301
1731474033.4579291,-0.2913573980331421,0.2574862837791443,-10.019275665283203,0.01696718618077153,-0.00954408369490027,-0.00021510224733286773,1.0365126132965088,1.1419179439544678,0.8868962526321411
1731474033.507883,-0.325061172246933,0.3003455698490143,-9.9907808303833,0.015384902703471169,-0.00253039352184249,0.004118343468944373,1.0396146774291992,1.1428732872009277,0.8869736790657043
1731474033.5588129,-0.3476948142051697,0.27194666862487793,-9.98077392578125,0.015491231636885283,0.0009845308224978372,0.005043336666280191,1.0422933101654053,1.1438335180282593,0.8869774341583252
1731474033.6087584,-0.30303508043289185,0.3043394684791565,-9.990130424499512,0.013790946439575402,0.0009137795212305442,0.003988451808916628,1.0449596643447876,1.1447786092758179,0.8869925141334534
1731474033.658737,-0.3227396011352539,0.3415185511112213,-9.982093811035156,0.009115523766627921,-0.0011761029871566607,0.0027576684975523388,1.0476703643798828,1.1457288265228271,0.8870161771774292
1731474033.7086723,-0.29806309938430786,0.35717833042144775,-9.978025436401367,0.003377142789274208,-0.004212240560181453,0.0023709005507159655,1.0503751039505005,1.1466647386550903,0.8870460391044617
1731474033.7585685,-0.29806309938430786,0.35717833042144775,-9.978025436401367,-0.0004146441539682915,-0.008982984396071099,0.0031180958757012316,1.0433794260025024,1.1466439962387085,0.8871160745620728
1731474033.7585685,-0.28755879402160645,0.38701608777046204,-9.949930191040039,-0.0002632692092952957,-0.01664939462110577,0.0049848753693134224,1.0433870553970337,1.1466492414474487,0.8871162533760071
1731474033.8086877,-0.2689819037914276,0.3694819509983063,-9.984281539916992,0.0038460383741114445,-0.02646214946084739,0.007749521580123467,1.044593095779419,1.147441029548645,0.8871573805809021
1731474033.858494,-0.2689819037914276,0.3694819509983063,-9.984281539916992,0.01030910819352919,-0.03539203019610571,0.010641958748317241,1.0479447841644287,1.1509668827056885,0.8872563242912292
1731474033.858494,-0.26829302310943604,0.40095022320747375,-9.971267700195312,0.017067166203102665,-0.04010043585586462,0.0123217330630605,1.0479576587677002,1.1509767770767212,0.8872568011283875
1731474033.9084613,-0.23730646073818207,0.3621067404747009,-9.99085521697998,0.02231109016965368,-0.03921990594757538,0.011863370865632529,1.0508744716644287,1.1547534465789795,0.8873656988143921
1731474033.9584074,-0.21701769530773163,0.4013544023036957,-10.015676498413086,0.02495574612906741,-0.033763108014576965,0.009348858689354624,1.0529639720916748,1.1567034721374512,0.887471079826355
1731474034.008528,-0.21778883039951324,0.3616994321346283,-10.007153511047363,0.02512994537549927,-0.026117057826229306,0.005174815479974228,1.055126667022705,1.1585878133773804,0.8875952959060669
1731474034.0583136,-0.21696604788303375,0.39867183566093445,-9.991291999816895,0.023807747262678737,-0.018921245489732234,-0.00026748257540612215,1.0583102703094482,1.1591699123382568,0.8874762058258057
1731474034.1083777,-0.23539678752422333,0.37952160835266113,-10.000163078308105,0.021814577651049022,-0.013982573313633607,-0.006004997578073153,1.060874104499817,1.160727620124817,0.8875255584716797
1731474034.158211,-0.21765998005867004,0.40409529209136963,-9.996458053588867,0.019130844302218335,-0.011463105031461546,-0.010547068940656695,1.0644413232803345,1.1635148525238037,0.8875483870506287
1731474034.2082312,-0.24798870086669922,0.4058076739311218,-10.005233764648438,0.015045947248308524,-0.010130487091357217,-0.012833549546936237,1.0674924850463867,1.165564775466919,0.8875581622123718
1731474034.2580795,-0.21043314039707184,0.4615105986595154,-9.988037109375,0.00910099020531709,-0.008954188487396311,-0.012738164958950806,1.0705622434616089,1.1675833463668823,0.8875361680984497
1731474034.3081691,-0.29245316982269287,0.43800222873687744,-9.979625701904297,0.001636228971625801,-0.008578310374897398,-0.010637781446070872,1.0736674070358276,1.169594407081604,0.8874847292900085
1731474034.3579607,-0.25665295124053955,0.44197729229927063,-9.958046913146973,-0.006909659373444062,-0.010701079670316934,-0.006729580812309037,1.0706064701080322,1.1712844371795654,0.8876017332077026
1731474034.4080052,-0.2824714779853821,0.44310182332992554,-9.987802505493164,-0.01642838974567486,-0.015885810138776584,-0.001154805910782279,1.0723230838775635,1.173013687133789,0.8875898718833923
1731474034.457938,-0.2884211540222168,0.4699631333351135,-9.968262672424316,-0.026106707000235863,-0.022433429703799627,0.004857222980836682,1.0765752792358398,1.1808093786239624,0.8877291083335876
1731474034.507787,-0.2927907109260559,0.4696677625179291,-9.944085121154785,-0.03393381043191798,-0.027541162761287933,0.008957942025340683,1.0792217254638672,1.1845091581344604,0.8877901434898376
1731474034.5577686,-0.30029141902923584,0.45553645491600037,-9.968478202819824,-0.0377752102852527,-0.029036735464907516,0.00981037524806179,1.0842474699020386,1.1901272535324097,0.8878698348999023
1731474034.6088016,-0.3022463023662567,0.4342384338378906,-9.973832130432129,-0.03654448305935539,-0.025911860585457597,0.008185537665495773,1.08782160282135,1.1946022510528564,0.8879693746566772
1731474034.6587286,-0.3022463023662567,0.4342384338378906,-9.973832130432129,-0.03070651768119705,-0.018248941262817994,0.005514025113323816,1.0907604694366455,1.1986318826675415,0.8879758715629578
1731474034.6587286,-0.3263397514820099,0.45176732540130615,-9.982738494873047,-0.022138380490504837,-0.007522003551200199,0.002603666094745433,1.0907782316207886,1.1986550092697144,0.8879762887954712
1731474034.7088292,-0.3263397514820099,0.45176732540130615,-9.982738494873047,-0.01359930857450723,0.003191161150393026,-0.0002693977252130053,1.0938847064971924,1.2027229070663452,0.8880520462989807
1731474034.7088292,-0.29601070284843445,0.4545241892337799,-9.990422248840332,-0.0077126210170114316,0.010146376631038845,-0.0030204009050351617,1.093902349472046,1.2027461528778076,0.8880524635314941
1731474034.75868,-0.2649516463279724,0.4524497091770172,-9.984557151794434,-0.005272854505718224,0.010921717702488213,-0.005648104366614914,1.0977500677108765,1.20907723903656,0.8880696296691895
1731474034.8087265,-0.2649516463279724,0.4524497091770172,-9.984557151794434,-0.004522613870161647,0.00581418122662661,-0.008068102262027444,1.1035882234573364,1.2125076055526733,0.8880276083946228
1731474034.8087265,-0.32520151138305664,0.4225282371044159,-10.003639221191406,-0.003308108250929305,-0.0022516963201718474,-0.009948476561307209,1.1036121845245361,1.2125319242477417,0.8880276083946228
1731474034.8585753,-0.32718968391418457,0.4089232385158539,-9.99908447265625,-0.0022023898884206364,-0.00883373955588066,-0.011019768321656447,1.1073929071426392,1.2163629531860352,0.8880131244659424
1731474034.90855,-0.3168220520019531,0.4192231297492981,-10.032767295837402,-0.004360832205143015,-0.009857257426407112,-0.011658647625996738,1.1111966371536255,1.2202023267745972,0.8879702687263489
1731474034.9585176,-0.2998528778553009,0.4406094551086426,-9.99858283996582,-0.012011794423662493,-0.0038443404189338194,-0.01289295454500003,1.1149758100509644,1.2240204811096191,0.8878967761993408
1731474035.008525,-0.25840792059898376,0.42406463623046875,-10.013644218444824,-0.02370917419723182,0.0071171487777291036,-0.015508952161378771,1.110742211341858,1.21869695186615,0.8880923986434937
1731474035.058341,-0.28641706705093384,0.4004567265510559,-10.006908416748047,-0.034890902104618475,0.018874640094424834,-0.019080820682816947,1.1129008531570435,1.220956563949585,0.8880411982536316
1731474035.1084144,-0.28641706705093384,0.4004567265510559,-10.006908416748047,-0.04107294184243254,0.02782714201077295,-0.021920596949123988,1.119629144668579,1.226039171218872,0.8881819844245911
1731474035.1084144,-0.28843310475349426,0.41060763597488403,-9.956564903259277,-0.04074329084648222,0.03218247155665294,-0.021790357772899522,1.1196513175964355,1.2260596752166748,0.8881818056106567
1731474035.158225,-0.28843310475349426,0.41060763597488403,-9.956564903259277,-0.03522337895801354,0.03146893156681406,-0.01672734652398496,1.1234976053237915,1.229685664176941,0.8881304264068604
1731474035.158225,-0.2378065586090088,0.5165513753890991,-9.984333038330078,-0.02650149846390259,0.025427448022763463,-0.0060564360898620415,1.123519778251648,1.2297070026397705,0.8881300091743469
1731474035.2082765,-0.2378065586090088,0.5165513753890991,-9.984333038330078,-0.015623284282587484,0.012983205149940249,0.008487812426070728,1.127336025238037,1.2334197759628296,0.8880680203437805
1731474035.2082765,0.5731180310249329,1.4873020648956299,-10.035964965820312,0.0012333629644924009,-0.012005065286158481,0.022731124331893754,1.127359390258789,1.233442783355713,0.8880677223205566
1731474035.2581518,0.5731180310249329,1.4873020648956299,-10.035964965820312,0.040793367629499436,-0.06943467867641637,0.03159893754458613,1.1311707496643066,1.2370519638061523,0.888055682182312
1731474035.2581518,0.4408249258995056,1.1725722551345825,-9.896381378173828,0.12844288587135402,-0.1867769408111817,0.03203717880565983,1.131192922592163,1.237072229385376,0.8880558609962463
1731474035.3081956,0.4408249258995056,1.1725722551345825,-9.896381378173828,0.27342374058753255,-0.3686114455664012,0.026549450597000923,1.1229248046875,1.2275108098983765,0.8883329629898071
1731474035.3081956,0.7624513506889343,1.6022365093231201,-9.957083702087402,0.45082775596915653,-0.5777497158301844,0.02218102883197856,1.1229369640350342,1.227512240409851,0.8883334994316101
1731474035.358057,-0.3411572575569153,0.10071580111980438,-9.93886947631836,0.6050286295574635,-0.7456126026444944,0.022806279038956732,1.1291571855545044,1.2298698425292969,0.8884757161140442
1731474035.4081314,-0.3411572575569153,0.10071580111980438,-9.93886947631836,0.6664779418517675,-0.7939740081119672,0.024799907986116986,1.134279727935791,1.2285821437835693,0.8886252045631409
1731474035.4081314,-0.8019893765449524,-0.20412126183509827,-10.124805450439453,0.5882938441642346,-0.675774910353586,0.02164392322390996,1.1343207359313965,1.2285666465759277,0.8886264562606812
1731474035.4579444,-0.8189721703529358,-0.25452548265457153,-10.089462280273438,0.3806380103907765,-0.41591662668593754,0.008368236593750846,1.1410421133041382,1.2256627082824707,0.8888257145881653
1731474035.5079792,-0.4187389016151428,0.2905738949775696,-9.996194839477539,0.10345617047968941,-0.09951483345956415,-0.017142659967005758,1.1479421854019165,1.222307801246643,0.889003336429596
1731474035.5578449,-0.5569721460342407,0.03448638692498207,-9.958955764770508,-0.16534433276727775,0.1755037308115394,-0.050953931773963734,1.1550002098083496,1.2189351320266724,0.889103353023529
1731474035.608817,-0.42693081498146057,0.23157045245170593,-9.950997352600098,-0.3582383169043565,0.3375850109533999,-0.08220655486649896,1.1332887411117554,1.2325353622436523,0.8884881138801575
1731474035.6587298,-0.483261376619339,0.18955788016319275,-9.961055755615234,-0.4404338125353823,0.3644225248540345,-0.09922722018918045,1.1334738731384277,1.233970046043396,0.8881763815879822
1731474035.7087207,-0.4995792508125305,0.37296169996261597,-9.968993186950684,-0.41688210564200046,0.28278385985785337,-0.09671848249109748,1.1352837085723877,1.2372196912765503,0.8885211944580078
1731474035.7587025,-0.4995792508125305,0.37296169996261597,-9.968993186950684,-0.32121709632804774,0.1462259474012353,-0.07768711485341542,1.1351733207702637,1.23978853225708,0.8881490230560303
1731474035.7587025,-0.4817887842655182,0.40437236428260803,-9.957231521606445,-0.19736940858708035,0.009148220106662434,-0.05023965111603003,1.135170340538025,1.2398046255111694,0.8881462812423706
1731474035.8086236,-0.46501216292381287,0.39930781722068787,-9.990387916564941,-0.08268322157622494,-0.08999031768383707,-0.02296095831862593,1.1345568895339966,1.2424229383468628,0.8876516819000244
1731474035.8585877,-0.4989687204360962,0.35326364636421204,-9.933239936828613,0.0009646362160840166,-0.13517526714937267,-0.0019499114766850828,1.1338399648666382,1.2447720766067505,0.8871243000030518
1731474035.908565,-0.447135329246521,0.3734113276004791,-9.984049797058105,0.047253223288502254,-0.1308052418288092,0.010306982715723705,1.1370304822921753,1.2418313026428223,0.8887611031532288
1731474035.9584079,-0.44601529836654663,0.46914854645729065,-10.025422096252441,0.06130280345595286,-0.09433489508360193,0.014321002823357541,1.1376670598983765,1.242737889289856,0.8887722492218018
1731474036.008458,-0.4382447898387909,0.4617241621017456,-9.95529842376709,0.05418598217524105,-0.0485818100105382,0.011820700954127236,1.1420776844024658,1.245542287826538,0.8891445994377136
1731474036.0583293,-0.44549351930618286,0.48167484998703003,-9.99179744720459,0.037379989004144895,-0.013937383427420472,0.00516957161246398,1.1457507610321045,1.2486398220062256,0.8893650770187378
1731474036.1083028,-0.4043203294277191,0.44767603278160095,-10.007610321044922,0.019577015665104537,-0.0002155249476504782,-0.002750446816319204,1.148003339767456,1.2504980564117432,0.889491617679596
1731474036.1582484,-0.42234596610069275,0.4577597677707672,-9.975647926330566,0.006425675943464371,-0.0037929813418300794,-0.009624633410476813,1.1502918004989624,1.2523541450500488,0.8896028399467468
1731474036.2082064,-0.38906168937683105,0.4747488498687744,-9.991894721984863,0.0010085194394542844,-0.013416841473145556,-0.01391615572694295,1.1525909900665283,1.2541897296905518,0.8896847367286682
1731474036.2581127,-0.37220874428749084,0.4903675615787506,-9.987666130065918,0.004035849590828406,-0.019286389082935985,-0.014568406618110246,1.1500134468078613,1.257839322090149,0.8892311453819275
1731474036.3081512,-0.3378264605998993,0.48795658349990845,-9.977741241455078,0.014196778010322429,-0.01794298977728821,-0.011593450903692175,1.1513302326202393,1.2599916458129883,0.8891688585281372
1731474036.3579936,-0.3048015832901001,0.4602820873260498,-9.986993789672852,0.028470798030305236,-0.011138141782346393,-0.00624275076588833,1.1541295051574707,1.265971064567566,0.8889269828796387
1731474036.4079921,-0.3007619082927704,0.4749097526073456,-9.999796867370605,0.042680193288634184,-0.0022532908210485506,-0.00040461168307805205,1.1562186479568481,1.269439458847046,0.8888078927993774
1731474036.4579425,-0.28979748487472534,0.4531305730342865,-9.986724853515625,0.052585342011304,0.005752023040127516,0.0039746777828812505,1.1584914922714233,1.2730103731155396,0.888690173625946
1731474036.507959,-0.2954382598400116,0.4772309958934784,-9.976112365722656,0.055125457143915695,0.010683744583796834,0.005690621431497681,1.1576863527297974,1.276609182357788,0.888731062412262
1731474036.5578406,-0.2879089415073395,0.4548308253288269,-10.001168251037598,0.04967156675021966,0.011566620554716694,0.0048827438640254555,1.159224510192871,1.2797988653182983,0.8886836171150208
1731474036.6078324,-0.30707719922065735,0.4689209461212158,-10.019250869750977,0.038269508075135884,0.009223064293461949,0.0022362340619457386,1.1619915962219238,1.2923580408096313,0.8885174989700317
1731474036.6587367,-0.31905558705329895,0.4376547336578369,-9.952741622924805,0.024214792875116214,0.005946139217453746,-0.0017684837784483918,1.164191484451294,1.2988474369049072,0.8884256482124329
1731474036.7087233,-0.30100929737091064,0.4331947863101959,-9.990180015563965,0.010531260037965739,0.004311141564884167,-0.005537714970749889,1.1664247512817383,1.3073556423187256,0.8882894515991211
1731474036.7586832,-0.30018696188926697,0.4176238477230072,-10.018566131591797,-0.0004386415051605675,0.0059539106281963385,-0.006189994638438183,1.1687136888504028,1.3145216703414917,0.8881613612174988
1731474036.8085754,-0.3138491213321686,0.4569004476070404,-9.986180305480957,-0.007198731725081268,0.010538603117610228,-0.002748903586272843,1.1709942817687988,1.3217114210128784,0.8880220055580139
1731474036.858522,-0.31311967968940735,0.4469360113143921,-10.003745079040527,-0.009695966486949368,0.015393932201179232,0.0023728839865797763,1.1703189611434937,1.3207696676254272,0.8880910873413086
1731474036.908572,-0.3348475694656372,0.45077356696128845,-9.996648788452148,-0.00941794020918962,0.01706444585965384,0.005973502530614285,1.1756645441055298,1.3323311805725098,0.8878272771835327
1731474036.9584587,-0.3254144787788391,0.4686799943447113,-9.99074935913086,-0.008357776841760334,0.013871571774114626,0.0066371554552158325,1.1783370971679688,1.3392592668533325,0.8877133131027222
1731474037.0084612,-0.3095018267631531,0.4703958034515381,-9.975713729858398,-0.0075082307946563506,0.0067118420429371824,0.005099674278821564,1.1827960014343262,1.3464138507843018,0.8874744176864624
1731474037.0583663,-0.3263373374938965,0.4850243926048279,-10.001752853393555,-0.006363781259221596,-0.0021899844529083765,0.0031014928344794694,1.1859064102172852,1.3532689809799194,0.8873396515846252
1731474037.1083398,-0.33450809121131897,0.49633723497390747,-9.96507740020752,-0.004389682124169713,-0.010627472561134424,0.001731999308559705,1.1890050172805786,1.360111951828003,0.8872108459472656
1731474037.158257,-0.3781702518463135,0.4804915487766266,-9.954072952270508,-0.002794830341037201,-0.017072627514186596,0.001050337873792274,1.1868327856063843,1.3632018566131592,0.8871803283691406
1731474037.2082403,-0.33812013268470764,0.4841950535774231,-9.983389854431152,-0.00382782685960522,-0.020769875314854434,0.0009789921638506374,1.188660740852356,1.369162917137146,0.8870764374732971
1731474037.2581666,-0.33789151906967163,0.5079996585845947,-9.997570991516113,-0.007624359608730657,-0.021574280293417014,0.0010652467125036667,1.1925675868988037,1.38178288936615,0.8868573904037476
1731474037.3081176,-0.3482387363910675,0.4985920488834381,-9.966341018676758,-0.010892657397566513,-0.019986448482547735,-2.6465850365449373e-05,1.1952812671661377,1.390271782875061,0.8867093324661255
1731474037.3581276,-0.3279953896999359,0.5032243132591248,-9.939990043640137,-0.010225435386410658,-0.016853568295491433,-0.0025319691536161096,1.1969314813613892,1.3937311172485352,0.8869071006774902
1731474037.4080672,-0.3028818368911743,0.5013193488121033,-10.003840446472168,-0.005364607394725622,-0.01272318363411059,-0.004271979620434527,1.1992850303649902,1.4005464315414429,0.8868564963340759
1731474037.458005,-0.3457874655723572,0.496071994304657,-9.99695110321045,0.0015704605140310596,-0.00792689837136758,-0.003938478219603502,1.2027708292007446,1.4106336832046509,0.8869518041610718
1731474037.5080106,-0.3275659680366516,0.49562501907348633,-9.992283821105957,0.008004069239435812,-0.003038558441122603,-0.003775459840184252,1.2052388191223145,1.4177618026733398,0.8869226574897766
1731474037.5578458,-0.3236111104488373,0.4863470494747162,-9.979347229003906,0.012065860623417572,0.0012045307759335185,-0.0062916378951997755,1.2085117101669312,1.4262127876281738,0.8869681358337402
1731474037.6079676,-0.29254111647605896,0.49463337659835815,-9.995692253112793,0.013613512345907894,0.004217017721901303,-0.010536324007131967,1.213942527770996,1.440994143486023,0.8869701027870178
1731474037.6577196,-0.29254111647605896,0.49463337659835815,-9.995692253112793,0.013991755068482766,0.005650408984015668,-0.013641623076909241,1.2177777290344238,1.4514212608337402,0.8869186639785767
1731474037.6577196,-0.30607929825782776,0.4914833605289459,-9.979093551635742,0.014227676384527106,0.005435490399332896,-0.013902021832765444,1.217903971672058,1.4517632722854614,0.8869163990020752
1731474037.7087226,-0.2629202604293823,0.49743518233299255,-9.998878479003906,0.014020916272855344,0.003960604905477033,-0.011233385332764209,1.2217483520507812,1.462131381034851,0.8868338465690613
1731474037.7586339,-0.25955089926719666,0.5013989210128784,-10.018193244934082,0.012994568319473605,0.0019406489401697312,-0.006630017396541909,1.2257450819015503,1.4728254079818726,0.8867260813713074
1731474037.8086555,-0.2805562913417816,0.47178059816360474,-9.976123809814453,0.012020830151418804,6.6830173726326e-05,-0.001933532533527309,1.219278335571289,1.4540300369262695,0.8869674801826477
1731474037.858599,-0.25861093401908875,0.4843817949295044,-10.000273704528809,0.012334009712143747,-0.0010281711382385604,0.0011461330029012796,1.2213153839111328,1.4591301679611206,0.8869467973709106
1731474037.908606,-0.27737054228782654,0.4814121127128601,-10.018388748168945,0.014052520331680569,-0.0010585219116498912,0.0017493227285324616,1.224765419960022,1.4632399082183838,0.8871102333068848
1731474037.9584665,-0.2631339132785797,0.4647471308708191,-10.016704559326172,0.016155734617934188,-0.0004840207249726543,-0.0005414505619492624,1.2275882959365845,1.4687906503677368,0.8871486783027649
1731474038.0084314,-0.24694745242595673,0.490938663482666,-9.943567276000977,0.017514672912945943,6.95311781772928e-05,-0.004961358704443168,1.230303406715393,1.4740489721298218,0.8871785998344421
1731474038.0583377,-0.2943013310432434,0.47733283042907715,-9.982090950012207,0.017711477767267992,0.0004326177099238744,-0.008137293431477802,1.2313957214355469,1.4788864850997925,0.8872112035751343
1731474038.1084073,-0.2925102114677429,0.49284854531288147,-10.011262893676758,0.016697215530350903,0.0005552991647022334,-0.006145629075722836,1.2334986925125122,1.4834834337234497,0.8872086405754089
1731474038.158248,-0.31939268112182617,0.49101442098617554,-9.990724563598633,0.014104184390428447,0.00012796601339536322,0.0010344058686049848,1.239675760269165,1.4989323616027832,0.8873291611671448
1731474038.208177,-0.34035027027130127,0.4679732024669647,-9.961878776550293,0.009467271222287094,-0.0011077192318810127,0.009209047354545509,1.2431584596633911,1.5070171356201172,0.8873801231384277
1731474038.2581437,-0.3260820209980011,0.49217545986175537,-10.00217056274414,0.0028770010508121354,-0.0026530029496863745,0.014334224370824702,1.249801516532898,1.5133237838745117,0.8874828815460205
1731474038.3081968,-0.3281448483467102,0.5063132047653198,-9.973040580749512,-0.004564819217831919,-0.0034546956140297344,0.015345304814186621,1.254599690437317,1.5212584733963013,0.8876002430915833
1731474038.3581345,-0.33222851157188416,0.48024898767471313,-9.979021072387695,-0.01092034275421413,-0.003109440603816781,0.013567800511177314,1.2597061395645142,1.529727816581726,0.887762725353241
1731474038.408031,-0.3448112905025482,0.4807904362678528,-10.005252838134766,-0.014551525980740066,-0.0019996043100630433,0.01122578305745539,1.2552050352096558,1.5275027751922607,0.8875890970230103
1731474038.457962,-0.3448112905025482,0.4807904362678528,-10.005252838134766,-0.015175352596217342,-0.0004028056553511734,0.009819647654180612,1.2577126026153564,1.5329381227493286,0.8876864910125732
1731474038.457962,-0.38595497608184814,0.46701309084892273,-9.998408317565918,-0.013817279788345616,0.0015984901155070904,0.009256603295297903,1.2577869892120361,1.5331004858016968,0.8876897692680359
1731474038.507952,-0.371066153049469,0.4704159200191498,-9.943463325500488,-0.012237082888265813,0.003786617907589167,0.008990584842403181,1.260203242301941,1.5384150743484497,0.887808084487915
1731474038.5579233,-0.39961788058280945,0.4784654676914215,-9.992461204528809,-0.01235352329862718,0.005888554921014727,0.009573934573411413,1.262712001800537,1.544014573097229,0.8879562020301819
1731474038.6079934,-0.3610481321811676,0.49019894003868103,-10.016144752502441,-0.015374318470970838,0.007517811141476441,0.01191901483052855,1.2630764245986938,2.250595808029175,0.8876805305480957
1731474038.6577516,-0.3610481321811676,0.49019894003868103,-10.016144752502441,-0.02076559532502495,0.008034000895036909,0.015221325849410878,1.26541268825531,2.4008564949035645,0.8877749443054199
1731474038.6577516,-0.36214134097099304,0.48317950963974,-9.957430839538574,-0.026023761004631017,0.006997903403624271,0.017412230549456675,1.265549898147583,2.4097864627838135,0.8877817392349243
1731474038.707742,-0.3359675407409668,0.4680137634277344,-9.966583251953125,-0.02799009098090708,0.004888561567451041,0.018036800610700114,1.269350528717041,2.923663854598999,0.8877791166305542
1731474038.7586555,-0.3172632157802582,0.4707324504852295,-9.992982864379883,-0.024659876780316236,0.0030277367583718146,0.018742796861308298,1.2719194889068604,3.154961585998535,0.887903094291687
1731474038.8087595,-0.3172632157802582,0.4707324504852295,-9.992982864379883,-0.01606239761040852,0.002449277052108936,0.020117096702017685,1.2788900136947632,3.6691789627075195,0.887915313243866
1731474038.8087595,-0.34375831484794617,0.459561824798584,-9.972745895385742,-0.004387997504242316,0.0030266911501452944,0.020120887225112898,1.2789124250411987,3.6709558963775635,0.8879160284996033
1731474038.8586133,-0.32283562421798706,0.49384915828704834,-9.96993350982666,0.006492824113495903,0.0038613292695024175,0.01698084030817486,1.288668155670166,4.404666900634766,0.8880183100700378
1731474038.908663,-0.2836848795413971,0.47867006063461304,-10.026419639587402,0.012984502162095842,0.004046477312862239,0.01150287231795776,1.2948863506317139,4.877411842346191,0.8881722092628479
1731474038.95846,-0.3083118498325348,0.4462122917175293,-9.974711418151855,0.014367746940943865,0.0034423551494923324,0.005231273507369719,1.3012149333953857,5.355906963348389,0.8883493542671204
1731474039.0085435,-0.3083118498325348,0.4462122917175293,-9.974711418151855,0.012916797295111433,0.0034947314994715796,-0.0012909596267258465,1.3073761463165283,5.819221019744873,0.8885258436203003
1731474039.0085435,-0.27358293533325195,0.4505879282951355,-9.988913536071777,0.01150431435160473,0.006547654345274574,-0.007515136456498867,1.3074122667312622,5.821934700012207,0.8885268568992615
1731474039.058383,-0.27358293533325195,0.4505879282951355,-9.988913536071777,0.012168052230074246,0.013715220287439605,-0.012418949149066043,1.294251561164856,4.970277786254883,0.8880828022956848
1731474039.058383,-0.27833253145217896,0.46968570351600647,-10.028640747070312,0.01584572955409723,0.023531961280386468,-0.015601257377507881,1.2942662239074707,4.971556663513184,0.8880829215049744
1731474039.108471,-0.2726273536682129,0.4782467782497406,-10.020431518554688,0.02146193166843076,0.03208808519256224,-0.017771529217030443,1.296801209449768,5.189699172973633,0.8880801200866699
1731474039.1583295,-0.2726273536682129,0.4782467782497406,-10.020431518554688,0.025938670389902645,0.034642072534074725,-0.02006643930991739,1.3014473915100098,5.5866618156433105,0.8879905343055725
1731474039.1583295,-0.25844791531562805,0.47829386591911316,-9.957497596740723,0.026491719160116264,0.02858736363830576,-0.022626744131256107,1.301470160484314,5.588551044464111,0.8879902362823486
1731474039.2083695,-0.22888942062854767,0.47775405645370483,-10.017126083374023,0.022924502060662048,0.01558453819628233,-0.023482305290453045,1.305364966392517,5.9088664054870605,0.8879056572914124
1731474039.2582061,-0.26288971304893494,0.49908432364463806,-10.004817962646484,0.017677961169376852,0.0005405228994242515,-0.01991643067406903,1.3093109130859375,6.229269504547119,0.8877671360969543
1731474039.3080943,-0.2533850371837616,0.48698240518569946,-9.950621604919434,0.013745670847245626,-0.011687110942087282,-0.011161891465417862,1.3132915496826172,6.5493035316467285,0.887590229511261
1731474039.3581405,-0.2533850371837616,0.48698240518569946,-9.950621604919434,0.012536080656584563,-0.018668339596938973,0.0016152425722628172,1.317319393157959,6.870461940765381,0.88740074634552
1731474039.3581405,-0.30379971861839294,0.4853384494781494,-9.977739334106445,0.013422682538348465,-0.020396568362929093,0.016941836684277376,1.3173441886901855,6.872426509857178,0.8873996138572693
1731474039.4080215,-0.312027245759964,0.5095995664596558,-9.996179580688477,0.014165141361688779,-0.018368958360978647,0.03275016145446691,1.3045268058776855,6.077383041381836,0.887995183467865
1731474039.4580243,-0.312027245759964,0.5095995664596558,-9.996179580688477,0.011951794716172966,-0.014848010644591098,0.04558147397304098,1.30582857131958,6.21572732925415,0.8881120085716248
1731474039.4580243,-0.3275427520275116,0.470512330532074,-10.004547119140625,0.005625357535902495,-0.011588452312918027,0.0516099712120875,1.3058363199234009,6.216535568237305,0.8881130218505859
1731474039.5079594,-0.3357093632221222,0.4590334892272949,-9.98930549621582,-0.0032269673371439927,-0.00829308019158485,0.04872705685444891,1.3071435689926147,6.35426664352417,0.8883469104766846
1731474039.5578983,-0.3357093632221222,0.4590334892272949,-9.98930549621582,-0.011922910532211008,-0.0028528286097408016,0.03801162180808877,1.3083906173706055,6.7144317626953125,0.8880981206893921
1731474039.5578983,-0.38474899530410767,0.46747025847435,-10.01556396484375,-0.01876947699814816,0.006143610224874367,0.02324888310463069,1.3083996772766113,6.7157135009765625,0.888098955154419
1731474039.6078608,-0.37700319290161133,0.47724291682243347,-9.97238540649414,-0.023705400999798436,0.016961185633095805,0.00871633983634279,1.3099632263183594,6.9398193359375,0.8882541656494141
1731474039.657732,-0.37700319290161133,0.47724291682243347,-9.97238540649414,-0.027694753000131772,0.02505496731338767,-0.0023711970517628616,1.3114686012268066,7.164758205413818,0.8884177803993225
1731474039.657732,-0.37583404779434204,0.5084794759750366,-9.954291343688965,-0.03157678148925223,0.02609820954565047,-0.00787925032916832,1.3114769458770752,7.166034698486328,0.8884186744689941
1731474039.7077641,-0.37583404779434204,0.5084794759750366,-9.954291343688965,-0.03541712460642198,0.018488422789496545,-0.006812400631988791,1.3120578527450562,7.274311542510986,0.8880496025085449
1731474039.7077641,-0.40338605642318726,0.47937169671058655,-9.987256050109863,-0.03868457377852592,0.003979771762214261,-0.00010534927497961874,1.3120648860931396,7.275397777557373,0.8880496621131897
1731474039.7576995,-0.4137439727783203,0.4826555848121643,-10.008017539978027,-0.040671835103562974,-0.012308789177228824,0.008524036008958518,1.3163450956344604,7.889270305633545,0.8880245685577393
1731474039.8087075,-0.3984954059123993,0.4676612317562103,-9.960859298706055,-0.04071655760901852,-0.023545646519502375,0.013814334019375433,1.3184661865234375,8.216512680053711,0.8880658745765686
1731474039.8585734,-0.41163554787635803,0.4879065155982971,-9.986603736877441,-0.03804526708378198,-0.025241665302456664,0.013165083578079936,1.3201160430908203,7.797024250030518,0.8880389928817749
1731474039.9086113,-0.38363298773765564,0.4891951084136963,-9.994783401489258,-0.03182490968243421,-0.01808824189532387,0.008781380493322003,1.3219560384750366,7.869735240936279,0.8880983591079712
1731474039.9086113,-0.38363298773765564,0.4891951084136963,-9.994783401489258,-0.021846639917641176,-0.0067469094342764045,0.0043893893339315955,1.321966290473938,7.870146751403809,0.8880987763404846
1731474039.9086113,-0.38363298773765564,0.4891951084136963,-9.994783401489258,-0.009018719308001565,0.0035621786104145176,0.0015835988015851649,1.3225253820419312,7.89276647567749,0.8881208300590515
1731474040.2892282,-0.33558741211891174,0.49642568826675415,-9.982755661010742,0.00501554009513947,0.00955216196025911,-4.067573318399984e-05,1.3298529386520386,7.5910210609436035,0.8880537748336792
1731474040.339138,-0.31257447600364685,0.49901920557022095,-10.006662368774414,0.0187406247451643,0.010419473153847017,-0.0012520775213441665,1.3292150497436523,7.526923179626465,0.8880190253257751
1731474040.389065,-0.30627310276031494,0.49768996238708496,-9.962966918945312,0.030733386409210778,0.007285309170384736,-0.0023614612016449057,1.3303418159484863,7.5161871910095215,0.8880153894424438
1731474040.439012,-0.29169151186943054,0.4811123311519623,-9.970218658447266,0.038928313602322115,0.0024253036637311076,-0.0026760377531626434,1.333397626876831,7.450381755828857,0.88800048828125
1731474040.4889848,-0.29169151186943054,0.4811123311519623,-9.970218658447266,0.04134608241469274,-0.0016192693046439381,-0.00066410667284301,1.3354545831680298,7.406703948974609,0.8879972696304321
1731474040.4889848,-0.28973913192749023,0.4870856702327728,-10.006230354309082,0.03763876485415478,-0.0032151813866411944,0.00397181546268582,1.3354666233062744,7.406543731689453,0.8879972696304321
1731474040.5388625,-0.29989272356033325,0.5079931616783142,-10.00256633758545,0.029240223217615366,-0.002571661109455979,0.008631250792604198,1.3376226425170898,7.378462314605713,0.8880032300949097
1731474040.5889235,-0.31200680136680603,0.4978265166282654,-9.963401794433594,0.01840232911144254,-0.0015018115738756948,0.009604232224692654,1.339856743812561,7.35013484954834,0.888032078742981
1731474040.6387973,-0.2987441420555115,0.4807127118110657,-9.986340522766113,0.007266142709469981,-0.001909266637239429,0.005520616335273506,1.3421002626419067,7.32208776473999,0.8880793452262878
1731474040.6887317,-0.32217884063720703,0.4698527157306671,-10.009664535522461,-0.0025997065294335302,-0.0041279653273100505,-0.0018861117931158612,1.3378063440322876,7.342531204223633,0.8880034685134888
1731474040.7386737,-0.3399418294429779,0.4703071415424347,-10.006019592285156,-0.010354289937062174,-0.006690844949662055,-0.009966667138922872,1.3415926694869995,7.287209987640381,0.8879895806312561
1731474040.7897153,-0.3399418294429779,0.4703071415424347,-10.006019592285156,-0.015763175884214595,-0.0077899800627136894,-0.01657862732037147,1.343471884727478,7.257706165313721,0.8879433274269104
1731474040.7897153,-0.3435785472393036,0.4646439850330353,-9.963374137878418,-0.018648753008113778,-0.006738410123220606,-0.019771924101706518,1.3434821367263794,7.257544040679932,0.8879429697990417
1731474040.8396256,-0.35317474603652954,0.508093535900116,-9.98283576965332,-0.018769715764161157,-0.0042513929463995955,-0.017830330807472747,1.3452420234680176,7.229222297668457,0.8878556489944458
1731474040.8896182,-0.35317474603652954,0.508093535900116,-9.98283576965332,-0.016516946015314185,-0.0021929622232318502,-0.010303317201739725,1.346984624862671,7.200462818145752,0.8877320289611816
1731474040.8896182,-0.3776640295982361,0.49367034435272217,-9.996552467346191,-0.013309277647048357,-0.0028320374996305174,0.0010861503281111651,1.346994400024414,7.200300216674805,0.8877312541007996
1731474040.9395273,-0.34756699204444885,0.4776098132133484,-9.987943649291992,-0.011038532696218517,-0.007138921153063439,0.012909322711084699,1.348685383796692,7.171817302703857,0.887611985206604
1731474040.9894834,-0.34756699204444885,0.4776098132133484,-9.987943649291992,-0.010856266039352828,-0.01364258046194175,0.02181924726832031,1.3451042175292969,7.238569736480713,0.8879948258399963
1731474040.9894834,-0.39591869711875916,0.4622490108013153,-9.966745376586914,-0.012515833339216926,-0.019294170007729153,0.02617397320865252,1.3451091051101685,7.238494873046875,0.8879950642585754
1731474041.0394094,-0.366077721118927,0.496529757976532,-9.998345375061035,-0.015255440824119611,-0.021407392328296672,0.026218186061262114,1.3459341526031494,7.225708961486816,0.888069748878479
1731474041.089444,-0.366077721118927,0.496529757976532,-9.998345375061035,-0.018597839635233322,-0.019317178763064394,0.022949846843786648,1.3500410318374634,7.187139987945557,0.8880472183227539
1731474041.089444,-0.36949458718299866,0.48848220705986023,-9.980701446533203,-0.02181203700155277,-0.01464114875623073,0.01730726736015547,1.3500535488128662,7.18699312210083,0.8880476951599121
1731474041.1393065,-0.3783283829689026,0.4666503667831421,-9.964150428771973,-0.02364421942548426,-0.009494181173756533,0.01075696586960867,1.3536243438720703,7.138902187347412,0.8880412578582764
1731474041.1893196,-0.35100167989730835,0.4677532911300659,-9.98227596282959,-0.022958413459758683,-0.004631154833645043,0.005563857112055152,1.355842113494873,7.109297752380371,0.8880959153175354
1731474041.2391937,-0.39186060428619385,0.4808611273765564,-10.006651878356934,-0.019255154142190183,1.304348748139045e-05,0.002970475071713173,1.358001470565796,7.079766750335693,0.8881610631942749
1731474041.289187,-0.34609830379486084,0.4759198725223541,-9.97584056854248,-0.012916983992767965,0.0037421548959154917,0.0016096178520631148,1.3575944900512695,7.0860700607299805,0.8880343437194824
1731474041.339093,-0.3642027676105499,0.4739305078983307,-9.947789192199707,-0.005222619171787353,0.0052738379111506375,-0.0007125777237468009,1.359011173248291,7.066720485687256,0.8880518674850464
1731474041.3890212,-0.30335837602615356,0.4896506369113922,-10.009799003601074,0.0021693325186510183,0.004142945090723328,-0.004191297569285576,1.3607450723648071,7.0305562019348145,0.8880096077919006
1731474041.4390326,-0.3108704388141632,0.48390448093414307,-9.978639602661133,0.008031413188765976,0.0011303429920268768,-0.007265074061349229,1.362380862236023,7.004563808441162,0.8879944086074829
1731474041.4889646,-0.3023920953273773,0.495807409286499,-9.991114616394043,0.011825961314811735,-0.0023700311674584042,-0.00837582169223462,1.3652273416519165,6.986143589019775,0.8879861831665039
1731474041.5389667,-0.28777647018432617,0.4830121397972107,-9.965001106262207,0.013312842827280433,-0.00499633096721853,-0.006453712438848959,1.367386817932129,6.961680889129639,0.8879507184028625
1731474041.588876,-0.27882856130599976,0.5011436343193054,-9.999334335327148,0.01272870277455231,-0.005851215045325912,-0.0013448860329093445,1.3695716857910156,6.937283515930176,0.8879055976867676
1731474041.6388679,-0.2865646481513977,0.4724006652832031,-10.004093170166016,0.011259114916019546,-0.0047252395874244554,0.005320261866029338,1.3717942237854004,6.912786960601807,0.8878653049468994
1731474041.6888661,-0.2771095633506775,0.4875320494174957,-9.97382926940918,0.010445376740948534,-0.0019278731536380006,0.01067050238762676,1.368078351020813,6.940593719482422,0.8879934549331665
1731474041.7387722,-0.2961411476135254,0.48090195655822754,-10.002866744995117,0.011006402238489928,0.001959130236640214,0.012548917066409043,1.3692221641540527,6.925034046173096,0.888029932975769
1731474041.7887423,-0.2961411476135254,0.48090195655822754,-10.002866744995117,0.012090695585025764,0.006041524882823764,0.010416305702361897,1.3719451427459717,6.8944010734558105,0.8880240321159363
1731474041.7887423,-0.3104638457298279,0.4707261919975281,-9.978310585021973,0.011664020368608894,0.00927578370255281,0.004888973525792133,1.371954321861267,6.894290447235107,0.8880242705345154
1731474041.8396027,-0.30543190240859985,0.46191614866256714,-9.972695350646973,0.008193751164966068,0.011074283536588611,-0.001981299485492703,1.373591661453247,6.874694347381592,0.8880619406700134
1731474041.8896308,-0.30160772800445557,0.4839112162590027,-10.034078598022461,0.002034736274523614,0.011587625364319731,-0.006931413138367457,1.375227451324463,6.855300426483154,0.888088047504425
1731474041.9396584,-0.3041580617427826,0.48790937662124634,-9.99384593963623,-0.004884123910473215,0.011168094241067723,-0.007986602050409686,1.3762332201004028,6.847330570220947,0.8880043625831604
1731474041.9895613,-0.2955681085586548,0.4739473760128021,-9.934528350830078,-0.010345168862945692,0.00985137990332209,-0.005633367046291865,1.3776285648345947,6.831267833709717,0.8879803419113159
1731474042.0394485,-0.2955681085586548,0.4739473760128021,-9.934528350830078,-0.012775747108909987,0.007813579585160095,-0.0005712893994600087,1.380592942237854,6.794345855712891,0.8879921436309814
1731474042.0394485,-0.3129294216632843,0.48444944620132446,-10.008941650390625,-0.01171650857982412,0.005798885537128403,0.007083670200450874,1.3806045055389404,6.7942047119140625,0.8879920840263367
1731474042.0894434,-0.3129294216632843,0.48444944620132446,-10.008941650390625,-0.008238047930188678,0.0043436805125391725,0.01477224090643539,1.3825762271881104,6.770078182220459,0.8880009651184082
1731474042.0894434,-0.312234103679657,0.4954758584499359,-10.001455307006836,-0.0046547300537749855,0.002994889750871427,0.016582554875414397,1.3825877904891968,6.7699360847473145,0.8880011439323425
1731474042.1393135,-0.34310877323150635,0.4510074853897095,-9.980819702148438,-0.0032768701016811265,0.0009529115335376824,0.0078691104836466,1.3848237991333008,6.764413833618164,0.8880115747451782
1731474042.1893632,-0.3335641920566559,0.4670053720474243,-9.982172966003418,-0.0052591088435438955,-0.001688658942725147,-0.010105521630817947,1.387028455734253,6.745086669921875,0.8880232572555542
1731474042.2392013,-0.3436163365840912,0.4516054391860962,-10.00857925415039,-0.009844174001019852,-0.003975326844020089,-0.030583661534688358,1.3892017602920532,6.725863456726074,0.8879843950271606
1731474042.2891955,-0.35014185309410095,0.4634293019771576,-9.998743057250977,-0.014505441040601579,-0.005263952518157686,-0.04576978257776497,1.3870980739593506,6.7266082763671875,0.8880495429039001
1731474042.339122,-0.36112895607948303,0.4684687852859497,-9.969427108764648,-0.016772693167371157,-0.005713046270774147,-0.05107172364070639,1.3881338834762573,6.713133811950684,0.8878777623176575
1731474042.389144,-0.3702044188976288,0.4909718632698059,-9.99476432800293,-0.01605069192531036,-0.005911036402097093,-0.04594243914714081,1.3912304639816284,6.677732467651367,0.8880934715270996
1731474042.4390538,-0.3510974645614624,0.4999825954437256,-9.998821258544922,-0.013425474447152655,-0.006556604963344735,-0.032796892758760784,1.3930466175079346,6.656041145324707,0.8879167437553406
1731474042.4889712,-0.3546806275844574,0.4958871006965637,-9.945515632629395,-0.010025356565199112,-0.008048907297312786,-0.01593592815261435,1.3948347568511963,6.634316921234131,0.8876791596412659
1731474042.538935,-0.3533340096473694,0.48251646757125854,-10.011451721191406,-0.005980203524150709,-0.009934436431443427,0.00021777507454431248,1.3966118097305298,6.612461090087891,0.887420654296875
1731474042.588956,-0.33136022090911865,0.4826642572879791,-10.008383750915527,-0.0008891937858942732,-0.010967904865518715,0.012389231422826486,1.3943023681640625,6.638388633728027,0.8882174491882324
1731474042.638847,-0.33408215641975403,0.47810131311416626,-9.962517738342285,0.0052899654947757375,-0.009971996667401374,0.018597127445213246,1.3953179121017456,6.625791549682617,0.8882476687431335
1731474042.6887,-0.303935706615448,0.4644475281238556,-9.971885681152344,0.011768270858527372,-0.006662614097712257,0.019195857283266407,1.3987929821014404,6.59332799911499,0.8884400725364685
1731474042.7387671,-0.3155551552772522,0.4816233515739441,-10.006086349487305,0.01705227279478315,-0.0018161672714283928,0.01700061994011789,1.4018274545669556,6.552268028259277,0.8885754942893982
1731474042.7887106,-0.3080131411552429,0.4786396026611328,-9.998662948608398,0.01966056365938532,0.0029902008619674234,0.014408151879160655,1.4039925336837769,6.526556491851807,0.8887165188789368
1731474042.8385878,-0.3185558319091797,0.4863705635070801,-9.95786190032959,0.01885837379600625,0.006040681085878587,0.011873071132479852,1.4062016010284424,6.500903606414795,0.8888900279998779
1731474042.8896017,-0.2855582535266876,0.4906507730484009,-9.944405555725098,0.01518335726805847,0.006434813859347062,0.010085304590004576,1.4085052013397217,6.4746785163879395,0.8890957236289978
1731474042.939503,-0.29442769289016724,0.4940122663974762,-10.002395629882812,0.010562588826666889,0.004366612460562523,0.011015569965553737,1.4053078889846802,6.50042200088501,0.8887112736701965
1731474042.9895356,-0.29442769289016724,0.4940122663974762,-10.002395629882812,0.007353843561511368,0.0006896594599019345,0.015409638936823325,1.406537652015686,6.484408855438232,0.8888193368911743
1731474042.9895356,-0.30278342962265015,0.4845675826072693,-9.988054275512695,0.0065986399220310495,-0.003325611347718646,0.021034238456539404,1.4065449237823486,6.484314918518066,0.8888201117515564
1731474043.0394258,-0.3001402020454407,0.4783627986907959,-9.991141319274902,0.007277418584297269,-0.006101249297733438,0.02461097261458197,1.4073145389556885,6.450865745544434,0.888685941696167
1731474043.0894177,-0.2956717908382416,0.47239935398101807,-10.013652801513672,0.007522774738190796,-0.006308035760281392,0.02437246335009777,1.4085499048233032,6.427981376647949,0.8888039588928223
1731474043.1393828,-0.31547465920448303,0.48647093772888184,-9.9832763671875,0.00625249958698623,-0.0037541774803591535,0.02030404591769271,1.409804105758667,6.405056476593018,0.888978123664856
1731474043.1893084,-0.30099716782569885,0.46893033385276794,-9.978822708129883,0.0035253038272095574,0.00029874000654868437,0.013574009235417461,1.4110620021820068,6.3822832107543945,0.8891932368278503
1731474043.2392607,-0.2894681394100189,0.46878641843795776,-10.015969276428223,0.00010515882060766531,0.0040694735149292924,0.0062391466245951075,1.4095646142959595,6.403278827667236,0.8886856436729431
1731474043.2892327,-0.3130909204483032,0.4541274607181549,-9.997851371765137,-0.0029308407252759136,0.006574840378188656,0.00022875168028284603,1.410284161567688,6.389398097991943,0.8887415528297424
1731474043.339189,-0.3450698256492615,0.44501256942749023,-9.987614631652832,-0.005147276681098413,0.0079986582709445,-0.0033403977387587627,1.4127658605575562,6.341672420501709,0.8887727856636047
1731474043.3891623,-0.3129962384700775,0.4714818000793457,-9.962034225463867,-0.0073644803014609045,0.008960475228750236,-0.003632387843213264,1.4142661094665527,6.312708377838135,0.8888240456581116
1731474043.4390664,-0.33441540598869324,0.48835697770118713,-10.013702392578125,-0.009993739308120584,0.009192224304424835,-0.00038679724860186645,1.4157397747039795,6.283864498138428,0.888870120048523
1731474043.4890668,-0.3234832286834717,0.48355692625045776,-10.010302543640137,-0.011467231843303751,0.006991505407285795,0.004685066559295519,1.4171950817108154,6.254870891571045,0.888921856880188
1731474043.5389698,-0.3267327845096588,0.4705972969532013,-9.931940078735352,-0.009684799906969715,0.0007293035525400497,0.008497404083056662,1.4186129570007324,6.226109027862549,0.8889895677566528
1731474043.5889635,-0.32931336760520935,0.48139387369155884,-9.969728469848633,-0.004158261723429946,-0.009183527685981943,0.009690132433360367,1.4150726795196533,6.281023979187012,0.8888508081436157
1731474043.6388862,-0.3120155930519104,0.5108048319816589,-10.02547836303711,0.003722247567619067,-0.020334266103498026,0.009435740585708206,1.4182264804840088,6.233414173126221,0.8888404369354248
1731474043.688804,-0.32276132702827454,0.4684581756591797,-9.983055114746094,0.011572629909637257,-0.02956864897113617,0.008630778682494867,1.419725775718689,6.208159923553467,0.8888936042785645
1731474043.7387774,-0.3176027536392212,0.45612624287605286,-9.981467247009277,0.016896323490760243,-0.03342810460999791,0.00727514748729018,1.4212671518325806,6.169557094573975,0.8888401389122009
1731474043.7887416,-0.318355917930603,0.46652641892433167,-10.006818771362305,0.017949343931612315,-0.02902418194237673,0.0063682946577853896,1.4227606058120728,6.140674114227295,0.888883650302887
1731474043.839638,-0.30289435386657715,0.4749678671360016,-9.976719856262207,0.01471187062772987,-0.016829310697633028,0.006947003707294929,1.4243146181106567,6.111367702484131,0.8889447450637817
1731474043.888619,-0.30289435386657715,0.4749678671360016,-9.976719856262207,0.009150221342920303,-0.0019266454122874059,0.008215122760482753,1.4237034320831299,6.106112957000732,0.8888381123542786
1731474043.888619,-0.31862878799438477,0.48088088631629944,-9.962454795837402,0.00399518480902528,0.00915614038032065,0.008764717652383356,1.423709511756897,6.105975151062012,0.8888382911682129
1731474043.9395835,-0.2989254593849182,0.47858020663261414,-10.007102012634277,0.0008673624897571361,0.012752381996673116,0.008127320471001577,1.4248063564300537,6.081326484680176,0.8888840079307556
1731474043.9894562,-0.28214284777641296,0.505081295967102,-9.993549346923828,-0.00021982199702770582,0.009310596564879333,0.006198761672206237,1.4254777431488037,6.038367748260498,0.8888275027275085
1731474044.03945,-0.28928861021995544,0.5108422040939331,-9.947916030883789,0.00021926647299178297,0.0016519239377141243,0.002900143302739888,1.4274429082870483,5.970582962036133,0.8888198137283325
