Timestamp,IMU_Linear_Acc_X,IMU_Linear_Acc_Y,IMU_Linear_Acc_Z,Filtered_X,Filtered_Y,Filtered_Z,Pose_X,Pose_Y,Pose_Z
1730865573.500194,-1.6688295602798462,1.0713229179382324,-9.916032791137695,0.022579121242664087,-0.0245859951700886,-0.016586288928691642,0.9486001133918762,6.768200874328613,0.8958967328071594
1730865573.55012,-1.6533010005950928,1.0741046667099,-9.924524307250977,0.018935628936515368,-0.021288348609757275,-0.026130960349944037,0.9495717287063599,6.768981456756592,0.8958103060722351
1730865573.6002574,-1.64512300491333,1.0682841539382935,-9.93001651763916,0.014300392477908267,-0.01654262872978337,-0.03376751563499657,0.9520260691642761,6.770785331726074,0.8957036137580872
1730865573.6500552,-1.637736439704895,1.067934274673462,-9.930261611938477,0.010514658876018365,-0.01137061865891268,-0.03784771086620711,0.9535908699035645,6.7719550132751465,0.8955036401748657
1730865573.7001994,-1.6553126573562622,1.0483101606369019,-9.917407035827637,0.008679790100121817,-0.006417617573608351,-0.03682602778045403,0.9551919102668762,6.773111343383789,0.8952088952064514
1730865573.7500353,-1.6797423362731934,1.0107817649841309,-9.897208213806152,0.008152609666964874,-0.0016348822075064045,-0.030313913163276505,0.9568009376525879,6.7742486000061035,0.8948333859443665
1730865573.8000488,-1.7072707414627075,0.9858607649803162,-9.873218536376953,0.0066367029975172714,0.004190833293481133,-0.019003611411125394,0.9584420919418335,6.7753987312316895,0.8943931460380554
1730865573.8500113,-1.7298463582992554,0.9540410041809082,-9.847895622253418,0.0012736385905656512,0.013268818247544705,-0.003946463406224,0.9551767706871033,6.773751735687256,0.8956599235534668
1730865573.9000275,-1.7499264478683472,0.9223717451095581,-9.827112197875977,-0.009615454021535463,0.027170588907236726,0.013575355427719541,0.9559891223907471,6.774533748626709,0.8955984115600586
1730865573.9499557,-1.7562650442123413,0.8885351419448853,-9.824291229248047,-0.024592915820131026,0.04450545398373952,0.031083153933480427,0.9588048458099365,6.7739787101745605,0.8957840204238892
1730865573.9999707,-1.7624255418777466,0.860092282295227,-9.82517147064209,-0.03897903548540566,0.06071295246445247,0.04454899599772754,0.9602823257446289,6.774579048156738,0.8959059119224548
1730865574.049903,-1.7716224193572998,0.8331460952758789,-9.82386589050293,-0.047587264856739836,0.0709191080134957,0.050155876150243854,0.96164870262146,6.7753424644470215,0.8961455821990967
1730865574.1000247,-1.7739012241363525,0.8127110004425049,-9.826116561889648,-0.04786361180852705,0.07307667982302743,0.0465274157931278,0.962905764579773,6.7762932777404785,0.8965089917182922
1730865574.1499755,-1.7742140293121338,0.7856875061988831,-9.848946571350098,-0.0409164971549619,0.06917015935013475,0.03530217119510373,0.9622642397880554,6.7733659744262695,0.8971059918403625
1730865574.1999485,-1.7871460914611816,0.7564065456390381,-9.861072540283203,-0.030326431402725857,0.06374741147927351,0.019951993916341275,0.9630426168441772,6.77372407913208,0.8974990248680115
1730865574.249932,-1.7880196571350098,0.7515389323234558,-9.87188720703125,-0.019991922862250107,0.06021127952098158,0.004168847189449672,0.9684001207351685,6.772797584533691,0.8986220955848694
1730865574.2998736,-1.7939927577972412,0.7412265539169312,-9.890820503234863,-0.012481677288153503,0.05832572901736603,-0.009146473103539698,0.9710157513618469,6.772979259490967,0.8993002772331238
1730865574.3499272,-1.7912611961364746,0.744480550289154,-9.906314849853516,-0.008498413302462348,0.05542922907432616,-0.018440016106629344,0.9736007452011108,6.7733025550842285,0.8999428749084473
1730865574.4000204,-1.7833058834075928,0.7382740378379822,-9.919109344482422,-0.007198393461890123,0.04923195856776746,-0.023812297868489457,0.9761784672737122,6.773758888244629,0.9005354642868042
1730865574.449807,-1.7772741317749023,0.7513736486434937,-9.9266357421875,-0.006942268371736312,0.03944977559431455,-0.02682916109895972,0.9787142872810364,6.77432107925415,0.901059627532959
1730865574.4999125,-1.7625008821487427,0.7644470930099487,-9.928840637207031,-0.006041420844854517,0.027595660803694504,-0.029658714854702152,0.9719053506851196,6.7714924812316895,0.8996348977088928
1730865574.5498397,-1.7557519674301147,0.7626343965530396,-9.913840293884277,-0.0033389946929712824,0.01569336176362223,-0.03354186179780324,0.976064920425415,6.770164489746094,0.8994587659835815
1730865574.599906,-1.754698634147644,0.7633326649665833,-9.905923843383789,0.001199134751628866,0.00543599476644278,-0.03728704429403013,0.9780380725860596,6.769791603088379,0.899432361125946
1730865574.6498609,-1.7505052089691162,0.7561947703361511,-9.879854202270508,0.006282200238340092,-0.0018997206906312225,-0.037601692033980144,0.9800318479537964,6.769421100616455,0.8993126153945923
1730865574.6999266,-1.7429497241973877,0.7382125854492188,-9.864917755126953,0.01016833601703484,-0.005505275120043064,-0.031498200412829816,0.9820523858070374,6.769040584564209,0.899105966091156
1730865574.7497919,-1.7308889627456665,0.7304968237876892,-9.872451782226562,0.012019166928816511,-0.00504835624441843,-0.018313168668477264,0.9840885400772095,6.768649101257324,0.8988385796546936
1730865574.7999732,-1.710336446762085,0.7214811444282532,-9.868508338928223,0.012526882192006102,-0.000598644013455535,-4.966168436547e-05,0.9813492894172668,6.767453670501709,0.8992743492126465
1730865574.8498313,-1.6954624652862549,0.7412712574005127,-9.874921798706055,0.013357639327466964,0.0069443638295684776,0.01923442811949471,0.9826470017433167,6.766948699951172,0.899254322052002
1730865574.89988,-1.673927664756775,0.7623183131217957,-9.883584022521973,0.01575373253334371,0.014897569434481369,0.034429392496803046,0.9866039156913757,6.764806270599365,0.8993317484855652
1730865574.9497216,-1.6649703979492188,0.7827132344245911,-9.898655891418457,0.01955147328428573,0.019035300764432363,0.040976968007710515,0.9920980930328369,6.763202667236328,0.8993828892707825
1730865574.999776,-1.6567764282226562,0.7994608879089355,-9.896458625793457,0.023386476847634584,0.01622794382457598,0.03709974008171184,0.9955824017524719,6.7621235847473145,0.8995617628097534
1730865575.0498989,-1.6670420169830322,0.8130968809127808,-9.897676467895508,0.025466403990178493,0.006871934403939855,0.025084432772678432,0.999152421951294,6.76106595993042,0.8998196125030518
1730865575.0999432,-1.6766325235366821,0.8300816416740417,-9.87709903717041,0.024384719547802386,-0.005873967391063977,0.010178071907260167,0.9969547390937805,6.760861396789551,0.8994196653366089
1730865575.1497293,-1.6873459815979004,0.8559135794639587,-9.875192642211914,0.01971694533489043,-0.01861156543244504,-0.002055216271517233,0.9989475607872009,6.760053634643555,0.8995044827461243
1730865575.1998835,-1.7112131118774414,0.8726857900619507,-9.858993530273438,0.012058399947126406,-0.029043521634202426,-0.008140226892217573,1.0010011196136475,6.759177207946777,0.8995773196220398
1730865575.2497063,-1.6986355781555176,0.9021353125572205,-9.865792274475098,0.0025749709224370293,-0.03621294490587492,-0.007618640003099001,1.0030529499053955,6.758227825164795,0.8996297717094421
1730865575.2996645,-1.7051465511322021,0.9185666441917419,-9.869494438171387,-0.007402125006609018,-0.040906545471199755,-0.0023710561231704247,1.000859022140503,6.75786018371582,0.89934903383255
1730865575.3496704,-1.6940858364105225,0.9443668127059937,-9.870579719543457,-0.016327645121580546,-0.045140465656386394,0.004638471139942122,1.0022249221801758,6.756852149963379,0.8993562459945679
1730865575.3997107,-1.7002673149108887,0.9495371580123901,-9.877045631408691,-0.022283716790522254,-0.04985859184408132,0.010435998185316715,1.0035401582717896,6.755726337432861,0.8993824124336243
1730865575.449677,-1.717278242111206,0.9519393444061279,-9.875646591186523,-0.023609440070946328,-0.05360382644285668,0.012916254570447667,1.0060361623764038,6.754581928253174,0.8993314504623413
1730865575.4996607,-1.7403255701065063,0.9466738700866699,-9.860269546508789,-0.020339990947010205,-0.05402563479163568,0.01154540722760811,1.0093095302581787,6.752753734588623,0.8981546759605408
1730865575.549588,-1.7613542079925537,0.9312770962715149,-9.848868370056152,-0.014756151470950937,-0.049613782948805765,0.0076289662660329795,1.011229157447815,6.751349449157715,0.8978158235549927
1730865575.5996459,-1.790024757385254,0.9243282079696655,-9.853486061096191,-0.01014620102510666,-0.039973517459626115,0.0035705246003617536,1.0138740539550781,6.749974250793457,0.8965521454811096
1730865575.6495163,-1.8101892471313477,0.9224256277084351,-9.858776092529297,-0.009092272422473922,-0.02602008519461977,0.0012658234418556375,1.0161738395690918,6.748351097106934,0.8959015607833862
1730865575.6995485,-1.8277225494384766,0.9353213310241699,-9.856698989868164,-0.0123441415966702,-0.01040629970911616,0.0009928349056143725,1.0184587240219116,6.746674537658691,0.8952504396438599
1730865575.7494595,-1.828778862953186,0.9417869448661804,-9.870092391967773,-0.018704665241020744,0.0029544313829977355,0.0016502967389690946,1.0167453289031982,6.748293876647949,0.8956259489059448
1730865575.799497,-1.8395932912826538,0.9523220658302307,-9.868379592895508,-0.02596497728170018,0.010566931792541886,0.001804413310618867,1.017999291419983,6.747445106506348,0.8952510356903076
1730865575.8494456,-1.8393950462341309,0.9498066902160645,-9.872069358825684,-0.03176364009203809,0.011152116868540486,0.0007220376400946463,1.0198824405670166,6.746339321136475,0.8959752321243286
1730865575.8994663,-1.824089765548706,0.9454675912857056,-9.876293182373047,-0.033969607271905046,0.006210472635851463,-0.0012549474338584936,1.0213667154312134,6.74533748626709,0.8959164023399353
1730865575.949503,-1.8115074634552002,0.944389820098877,-9.869719505310059,-0.03114328259452261,-0.0009088970657639486,-0.0032250401907999255,1.0232336521148682,6.744444370269775,0.8961156606674194
1730865575.9994392,-1.7892614603042603,0.9424102306365967,-9.87391185760498,-0.02299237356895447,-0.006708783256848353,-0.004441472321039747,1.0247951745986938,6.743429660797119,0.8960860967636108
1730865576.0494525,-1.7600032091140747,0.9374101161956787,-9.879051208496094,-0.010561113122287,-0.009059365643184896,-0.0046692134834656045,1.0263198614120483,6.742392063140869,0.8960450291633606
1730865576.0993903,-1.7280418872833252,0.9397868514060974,-9.891486167907715,0.004351348734221061,-0.007724873261491658,-0.004333903968455138,1.0253562927246094,6.74195671081543,0.8961633443832397
1730865576.1493819,-1.7154600620269775,0.9368509650230408,-9.882902145385742,0.020061261699810075,-0.003876775900213154,-0.004263004808040958,1.0262858867645264,6.741114139556885,0.8961373567581177
1730865576.1994338,-1.7160826921463013,0.9396944046020508,-9.886286735534668,0.034454018829045086,0.0007262640380147033,-0.0048044877725573615,1.0272865295410156,6.740265369415283,0.8960999250411987
1730865576.2492568,-1.712261438369751,0.9284822344779968,-9.876667022705078,0.044316117836131055,0.0045058907166452946,-0.0052604133608523205,1.0286555290222168,6.739106178283691,0.8960555791854858
1730865576.2993631,-1.7267110347747803,0.9053157567977905,-9.863069534301758,0.04685042819748621,0.0067664311194533255,-0.004468335961365174,1.0299961566925049,6.738142490386963,0.8959981203079224
1730865576.3492968,-1.720337986946106,0.8805050849914551,-9.852280616760254,0.041474567101954705,0.008120643730762864,-0.0017328242431532154,1.0314548015594482,6.737191677093506,0.8959326148033142
1730865576.399355,-1.7180873155593872,0.859276533126831,-9.845589637756348,0.029905873389047002,0.01034952650533092,0.0029111842515054595,1.0311204195022583,6.736069679260254,0.895955502986908
1730865576.4492989,-1.6926794052124023,0.8585596680641174,-9.848339080810547,0.015571941567376778,0.015253557114637488,0.008807144872700973,1.0322319269180298,6.735076427459717,0.8959316611289978
1730865576.4993377,-1.6972986459732056,0.8465798497200012,-9.842537879943848,0.00285545067329155,0.02260740432825406,0.014539348529355678,1.0342804193496704,6.732842922210693,0.8958765268325806
1730865576.54919,-1.6970386505126953,0.8621212244033813,-9.851236343383789,-0.004511566341446538,0.029423362282441544,0.018121266593938423,1.036186695098877,6.730281352996826,0.8958072662353516
1730865576.5994122,-1.7145110368728638,0.8784071803092957,-9.853099822998047,-0.0054935797849912,0.03189062581616434,0.01804614739415483,1.037511944770813,6.728879451751709,0.8958381414413452
1730865576.6492226,-1.7142882347106934,0.8932307958602905,-9.855316162109375,-0.0023728340077023274,0.027799226767297763,0.014250247308035067,1.0388182401657104,6.727560997009277,0.8959087133407593
1730865576.699298,-1.7247639894485474,0.8794119954109192,-9.880355834960938,0.0009292970272241526,0.017477910681005536,0.007968780223582283,1.0401344299316406,6.726287364959717,0.8960076570510864
1730865576.7492287,-1.7053351402282715,0.8882369995117188,-9.899271011352539,0.0013339025612444397,0.0034582426013876973,0.0005546300993899476,1.0389639139175415,6.724873065948486,0.8957157731056213
1730865576.7993917,-1.698599100112915,0.8916301131248474,-9.926444053649902,-0.0018101521128944158,-0.010605835661417857,-0.007466346373771738,1.0397781133651733,6.723570346832275,0.89570552110672
1730865576.8492532,-1.6740918159484863,0.9148653745651245,-9.93920612335205,-0.006528774611612478,-0.021342297224521793,-0.015929875325253327,1.0405941009521484,6.722207546234131,0.8956655859947205
1730865576.8992355,-1.6993720531463623,0.9334640502929688,-9.952058792114258,-0.009515848781882434,-0.027074431496153215,-0.02425653160988763,1.0408070087432861,6.719409942626953,0.8955458402633667
1730865576.950145,-1.7227669954299927,0.9787310361862183,-9.942091941833496,-0.008602928855003574,-0.028654403756671037,-0.031475693987928356,1.041574239730835,6.717429161071777,0.8953996300697327
1730865577.0000708,-1.7516719102859497,0.9924651384353638,-9.912596702575684,-0.004807429791280455,-0.028766275680874753,-0.035901401858374135,1.0423072576522827,6.715421676635742,0.8951724171638489
1730865577.0501037,-1.7845485210418701,0.9896845817565918,-9.893282890319824,-0.0021284291313515133,-0.030132785328976223,-0.03470979561229519,1.043216347694397,6.7126383781433105,0.8952494859695435
1730865577.1001027,-1.775105357170105,0.9755973815917969,-9.85712718963623,-0.004743833021959124,-0.03379933416508269,-0.02543244550411882,1.0451014041900635,6.706161022186279,0.8950471878051758
1730865577.150022,-1.7670031785964966,0.9578341245651245,-9.846080780029297,-0.013139953468681803,-0.03795736436487891,-0.008648581808849342,1.046155571937561,6.702654838562012,0.8948229551315308
1730865577.2001743,-1.766268014907837,0.9334506988525391,-9.827607154846191,-0.02292574987340397,-0.03853466392422215,0.011204168692015688,1.048443078994751,6.698469638824463,0.8949683904647827
1730865577.250133,-1.7785426378250122,0.9047219753265381,-9.822580337524414,-0.02840434066227258,-0.03200949585766028,0.028137250432984404,1.0497406721115112,6.694881439208984,0.8949291706085205
1730865577.3002465,-1.7973792552947998,0.9088290929794312,-9.813091278076172,-0.02715313761254094,-0.018073269834638826,0.03779853987829774,1.0509732961654663,6.691216945648193,0.8949724435806274
1730865577.3500774,-1.8121806383132935,0.9307661056518555,-9.813515663146973,-0.02129677530318367,-6.530728305068675e-05,0.03900863422229178,1.0521392822265625,6.687548637390137,0.8951112627983093
1730865577.4000793,-1.8406985998153687,0.95229572057724,-9.815528869628906,-0.01563205352245272,0.01655919657694329,0.03353183119762768,1.0512751340866089,6.691516876220703,0.8950123190879822
1730865577.4501026,-1.8245269060134888,0.9766780734062195,-9.829276084899902,-0.014421815566904155,0.026535172275299643,0.02466007167173786,1.0520739555358887,6.689319610595703,0.8951376080513
1730865577.500076,-1.7945154905319214,1.0093086957931519,-9.835821151733398,-0.01802900199707038,0.02675486362792106,0.015226872547388342,1.052828311920166,6.68720006942749,0.8953119516372681
1730865577.5500119,-1.7709224224090576,1.0303027629852295,-9.859386444091797,-0.021805917015398607,0.016937550672862102,0.006372558604984589,1.0544918775558472,6.684534549713135,0.8950647711753845
1730865577.6000378,-1.7657477855682373,1.0556285381317139,-9.860723495483398,-0.019570293219166764,-0.0007330659414184326,-0.002057182525365118,1.0555284023284912,6.681975841522217,0.8951180577278137
1730865577.6500456,-1.780419111251831,1.0675415992736816,-9.881359100341797,-0.009182619677360724,-0.02182922324174242,-0.010041301769000734,1.0565316677093506,6.679382801055908,0.8951564431190491
1730865577.7000008,-1.7865254878997803,1.0783843994140625,-9.869217872619629,0.005367963714289762,-0.04064222298237617,-0.016619365199732655,1.0576883554458618,6.677219390869141,0.8948960900306702
1730865577.7499113,-1.788289189338684,1.0833667516708374,-9.875091552734375,0.01726578833859117,-0.052631452419783994,-0.02059953689706203,1.0587844848632812,6.67453145980835,0.8948078155517578
1730865577.7999437,-1.7706412076950073,1.05009126663208,-9.888638496398926,0.021905236721689925,-0.055742659474481,-0.021480676306162683,1.059944987297058,6.671669960021973,0.8946653008460999
1730865577.8499293,-1.7602767944335938,1.0527235269546509,-9.889904022216797,0.019369141319069978,-0.04964992505962698,-0.01981829610552286,1.0610617399215698,6.670230388641357,0.8947243094444275
1730865577.8999457,-1.7362756729125977,1.0210932493209839,-9.893879890441895,0.013383550125172427,-0.03541267919280516,-0.017006461660369607,1.0621477365493774,6.667817115783691,0.8945961594581604
1730865577.9499047,-1.7138214111328125,1.0474644899368286,-9.878767013549805,0.008505055987994177,-0.0160487719363604,-0.014257601226414647,1.0632604360580444,6.665340900421143,0.8944289684295654
1730865577.9998767,-1.700245976448059,1.055147647857666,-9.887774467468262,0.007970808136790153,0.0036347743478902083,-0.01169022650215716,1.0643939971923828,6.662848949432373,0.8942292928695679
1730865578.0497916,-1.7187238931655884,1.0661135911941528,-9.854914665222168,0.012985514203705473,0.018479196608372876,-0.008575057118518283,1.0656325817108154,6.661101341247559,0.8946003913879395
1730865578.0998743,-1.7229137420654297,1.0366662740707397,-9.838557243347168,0.022318733407474024,0.02515297934864861,-0.004106504534055188,1.066897988319397,6.658688068389893,0.8945133686065674
1730865578.149827,-1.7331598997116089,1.0733004808425903,-9.82792854309082,0.03208391149551519,0.0238049328588666,0.0020079447155947074,1.0682238340377808,6.6563496589660645,0.8944242596626282
1730865578.1998332,-1.7180172204971313,1.0541452169418335,-9.822245597839355,0.037274785441403835,0.017512029867069817,0.009244275031383307,1.0693907737731934,6.0221381187438965,0.8946581482887268
1730865578.2498376,-1.7337002754211426,1.0579681396484375,-9.811992645263672,0.034826589776977154,0.00998413896787256,0.016479359520106686,1.070692539215088,5.8891987800598145,0.8946851491928101
1730865578.2998044,-1.7316439151763916,1.0429866313934326,-9.83637809753418,0.02527763790380763,0.0038578732355749193,0.022219086882849452,1.0747462511062622,5.296010971069336,0.8947252631187439
1730865578.349782,-1.7460685968399048,1.0475934743881226,-9.833905220031738,0.011765407203701141,0.000325608777992174,0.024685347766556856,1.0770328044891357,5.027605056762695,0.8948262333869934
1730865578.3998563,-1.7638782262802124,1.0578659772872925,-9.863147735595703,-0.0019955462938275443,-0.0007607278015733774,0.022590521609766594,1.0793647766113281,4.619129657745361,0.8947694301605225
1730865578.4497278,-1.7726879119873047,1.0595471858978271,-9.862703323364258,-0.013240523381872456,-0.0005897714859685616,0.01608661831521805,1.0816426277160645,4.310739040374756,0.8948816061019897
1730865578.4997826,-1.765694260597229,1.0683341026306152,-9.889021873474121,-0.020539783964385713,-0.0005653442064624858,0.00680304187908318,1.083805799484253,4.012263774871826,0.8950185179710388
1730865578.5496757,-1.7572689056396484,1.083567500114441,-9.892711639404297,-0.023289889141551688,-0.0015222137150909228,-0.003038157511266103,1.0860024690628052,3.7013661861419678,0.895165741443634
1730865578.5997968,-1.7510370016098022,1.0915371179580688,-9.903162956237793,-0.021435857856255146,-0.0038438220453318062,-0.011841191612561116,1.0880379676818848,3.4055545330047607,0.8952879309654236
1730865578.6496255,-1.7506414651870728,1.0748035907745361,-9.90461254119873,-0.015656178665477118,-0.007756892643597609,-0.019192112270058598,1.0837136507034302,4.083974838256836,0.8947446942329407
1730865578.6997628,-1.7597600221633911,1.080074429512024,-9.885984420776367,-0.007507570460775373,-0.012858390935684805,-0.025118477402947263,1.0847203731536865,3.9489805698394775,0.8946830034255981
1730865578.749548,-1.7794348001480103,1.0311695337295532,-9.878813743591309,0.0005432865543909917,-0.017442721763913337,-0.02865856201333508,1.0857770442962646,3.806091070175171,0.8945481777191162
1730865578.7997155,-1.7996716499328613,1.001541018486023,-9.851093292236328,0.005425630477672545,-0.01848365746611305,-0.027503384206090154,1.0884982347488403,3.4900596141815186,0.8946444392204285
1730865578.8496032,-1.8126332759857178,0.9523242712020874,-9.837244987487793,0.004660370916792686,-0.012812006660972604,-0.01974363026191521,1.0903044939041138,3.263559341430664,0.8945127725601196
1730865578.8996134,-1.808573603630066,0.9640750288963318,-9.820672035217285,-0.0018442151672297274,0.0004936762693669664,-0.006107895320019289,1.0919865369796753,3.053077459335327,0.8943588733673096
1730865578.9494953,-1.783001184463501,0.9931159615516663,-9.826957702636719,-0.011085123125433778,0.018403493942381926,0.009838538993920107,1.0933022499084473,2.8908867835998535,0.8946464657783508
1730865578.9995105,-1.7741144895553589,1.031545877456665,-9.823264122009277,-0.018480142407927162,0.03478090815796506,0.0236663707353979,1.0948103666305542,2.6960721015930176,0.8946641683578491
1730865579.049462,-1.7739636898040771,1.0537083148956299,-9.833698272705078,-0.02049306071567278,0.042920104230968675,0.03196052070524542,1.098073959350586,2.258800983428955,0.8947345018386841
1730865579.0995793,-1.8045793771743774,1.079629898071289,-9.859762191772461,-0.016578582029637967,0.03847075804757723,0.03295163696931942,1.1002259254455566,1.9679648876190186,0.8948678970336914
1730865579.1493628,-1.8148375749588013,1.0561188459396362,-9.86815357208252,-0.009550181061969452,0.02210741224555813,0.026563032286512172,1.1024583578109741,1.6616315841674805,0.895088255405426
1730865579.19957,-1.826063632965088,1.0462628602981567,-9.869034767150879,-0.00412619178864829,-3.5648835912055823e-06,0.014262731210559917,1.1044650077819824,1.3840200901031494,0.8953372836112976
1730865579.249466,-1.808819055557251,1.0258152484893799,-9.889816284179688,-0.004226821035519843,-0.019217381256514284,-0.001392079665196281,1.1021162271499634,1.7265896797180176,0.8948887586593628
1730865579.2994945,-1.7612165212631226,1.0649091005325317,-9.887557983398438,-0.010320820069783932,-0.029026688162647484,-0.017347221205495887,1.1033188104629517,1.5635395050048828,0.8949312567710876
1730865579.3493953,-1.7256823778152466,1.1005512475967407,-9.892586708068848,-0.018128569621418764,-0.028632070933813984,-0.030260475633938078,1.1063977479934692,1.0838958024978638,0.8949211239814758
1730865579.3993487,-1.7298487424850464,1.0987929105758667,-9.886784553527832,-0.020720181311510127,-0.022935039906311235,-0.03691555033970826,1.1092478036880493,0.5240827798843384,0.8949750065803528
1730865579.4492998,-1.7392597198486328,1.091033697128296,-9.883735656738281,-0.01420930414128544,-0.01781488692591569,-0.035664824449214885,1.1113137006759644,0.157099649310112,0.8948764204978943
1730865579.4993894,-1.7323687076568604,1.0694738626480103,-9.879698753356934,-0.0013889303763976132,-0.015188174410791648,-0.027531870485234984,1.1133687496185303,-0.2115071415901184,0.8946976661682129
1730865579.5493515,-1.709896206855774,1.048033595085144,-9.867536544799805,0.011229038748285654,-0.012880226318219565,-0.015556045216653372,1.1124471426010132,0.5649760961532593,0.8939218521118164
1730865579.5994172,-1.6767551898956299,1.0304069519042969,-9.858135223388672,0.018988062702420355,-0.0077943483583083895,-0.003140337123031348,1.1136839389801025,0.48827338218688965,0.8936212658882141
1730865579.6493921,-1.6559619903564453,1.0191431045532227,-9.842279434204102,0.021589519924341743,0.0012076084845872984,0.00721325414531286,1.1154048442840576,0.6908014416694641,0.8928283452987671
1730865579.6993628,-1.6480616331100464,1.0377943515777588,-9.841670036315918,0.021732705928315624,0.012257818162875203,0.014279175814505274,1.116958737373352,0.6706228852272034,0.8924283385276794
1730865579.7492456,-1.6580710411071777,1.0527172088623047,-9.839740753173828,0.021899248573802668,0.021343129301358513,0.01777556613439125,1.1186249256134033,0.6497370600700378,0.8920537233352661
1730865579.7992857,-1.6701388359069824,1.0732815265655518,-9.843291282653809,0.022133334321576124,0.02413609028996405,0.017868091287035745,1.1203089952468872,0.6293658018112183,0.891731321811676
1730865579.8492007,-1.7069683074951172,1.0767863988876343,-9.839729309082031,0.020477872661231907,0.017989440790936707,0.01511422770738069,1.118019461631775,0.7514309883117676,0.8919935822486877
1730865579.8993716,-1.7071583271026611,1.07343327999115,-9.851859092712402,0.014932269321679886,0.003587423380588043,0.010551786146635902,1.1189537048339844,0.7485660314559937,0.8918138146400452
1730865579.9492195,-1.7446640729904175,1.067521333694458,-9.871601104736328,0.005290731452613599,-0.014436520856778073,0.0052212319831583115,1.1209139823913574,0.7709779143333435,0.8909828066825867
1730865579.9993496,-1.7618391513824463,1.0630854368209839,-9.86089038848877,-0.006435140262330458,-0.029134842781282626,-0.00032274457647389686,1.1224164962768555,0.7715144157409668,0.890536904335022
1730865580.0491142,-1.7648351192474365,1.0442968606948853,-9.851377487182617,-0.01734905405533755,-0.03496432140481662,-0.005390189119200113,1.1228502988815308,0.779210090637207,0.8899803161621094
1730865580.0991776,-1.7732322216033936,1.0357221364974976,-9.860342979431152,-0.025091274397386547,-0.03051572590573678,-0.008512348661320132,1.1240060329437256,0.7804760932922363,0.8894628882408142
1730865580.1490853,-1.7844423055648804,1.0297157764434814,-9.865670204162598,-0.02844068271121876,-0.01838440782764661,-0.008619666210184033,1.1251684427261353,0.7817630171775818,0.8888876438140869
1730865580.1991048,-1.7894097566604614,1.025313138961792,-9.856010437011719,-0.02763337658248613,-0.003274708728824076,-0.006467048943758437,1.124976634979248,0.7858820557594299,0.8892238140106201
1730865580.2490878,-1.7880202531814575,1.0108004808425903,-9.861024856567383,-0.024172704487675535,0.010285485581055548,-0.003948375265636028,1.1256825923919678,0.7872952222824097,0.8888936638832092
1730865580.2991624,-1.7740795612335205,1.00496244430542,-9.870421409606934,-0.019657483094792646,0.019528335129091426,-0.0025063331698380893,1.1270513534545898,0.7926589846611023,0.8882569074630737
1730865580.350025,-1.7508952617645264,0.9898775815963745,-9.877641677856445,-0.014578984967938724,0.023785542532125413,-0.0026241499461372468,1.128010630607605,0.7954127192497253,0.8877752423286438
1730865580.4001513,-1.7341334819793701,0.9811978936195374,-9.885842323303223,-0.008381977764016366,0.02399962944315847,-0.004120738908577463,1.128903865814209,0.7981196641921997,0.8873037695884705
1730865580.44991,-1.7155609130859375,0.9627254605293274,-9.876619338989258,-0.0003014027840075612,0.022058270175864772,-0.006434157796964397,1.1298104524612427,0.8009589314460754,0.8868060111999512
1730865580.5000188,-1.7401494979858398,0.951980471611023,-9.893470764160156,0.009959662028743571,0.020306906118816304,-0.008894475374137898,1.1294864416122437,0.7995802760124207,0.887397050857544
1730865580.5500045,-1.7451131343841553,0.9498355388641357,-9.881714820861816,0.021396014649803216,0.020716275640619192,-0.010941196496395177,1.131483554840088,0.8056439757347107,0.8866015672683716
1730865580.5999975,-1.7629855871200562,0.9401302933692932,-9.883874893188477,0.031026427583319346,0.02341613875905916,-0.012002085770133132,1.1325303316116333,0.808529794216156,0.8861665725708008
1730865580.6499984,-1.7696549892425537,0.9025750756263733,-9.878684043884277,0.03489808911311794,0.026534899886271838,-0.011457829585224802,1.1347755193710327,0.8136069178581238,0.8855224847793579
1730865580.7000482,-1.7670942544937134,0.9113509058952332,-9.879837989807129,0.030685410734565495,0.028181346727895223,-0.009143393730925117,1.136259913444519,0.8171082735061646,0.8850045800209045
1730865580.7499306,-1.7578725814819336,0.8759310841560364,-9.880855560302734,0.019696061597241736,0.027713830131703195,-0.005690118504284004,1.1379185914993286,0.8209388256072998,0.8844294548034668
1730865580.7999723,-1.7890220880508423,0.9366456866264343,-9.861991882324219,0.006304723265362909,0.025109297170201446,-0.0021070473255647842,1.1375665664672852,0.8212530612945557,0.8856898546218872
1730865580.849904,-1.784920334815979,0.9272169470787048,-9.878288269042969,-0.0048955540854546085,0.020335022797590814,0.0008509255303817177,1.1387519836425781,0.8244116306304932,0.8855689764022827
1730865580.8999538,-1.784793734550476,0.9648137092590332,-9.842377662658691,-0.011387523290681975,0.013561358908985023,0.0028199245345485297,1.1403049230575562,0.8290026187896729,0.8858817219734192
1730865580.9498336,-1.780599594116211,0.9445527195930481,-9.859162330627441,-0.012792225694575566,0.005665881280280457,0.0036942481031450813,1.1417101621627808,0.833010733127594,0.8858612775802612
1730865580.9998622,-1.764109492301941,0.9658011198043823,-9.835769653320312,-0.010016458107073606,-0.0016253217124608107,0.003562340348897011,1.1429964303970337,0.8367636799812317,0.8858509659767151
1730865581.0498452,-1.7501070499420166,0.9647876620292664,-9.856768608093262,-0.004436485905652548,-0.006400209047944219,0.0025793192515948726,1.1443133354187012,0.8406476378440857,0.8858477473258972
1730865581.0998383,-1.7367855310440063,0.9567092061042786,-9.842395782470703,0.0029089595900880947,-0.0077038029686937615,0.0009205225642358379,1.1425861120224,0.8355734944343567,0.8859748244285583
1730865581.1498132,-1.6956731081008911,0.945768415927887,-9.857194900512695,0.011539984529082867,-0.005931469036141218,-0.001164238521516542,1.1433154344558716,0.8375710844993591,0.8859757781028748
1730865581.1997745,-1.6879969835281372,0.9617151618003845,-9.851640701293945,0.02099824790414948,-0.00225639879623769,-0.00341248501919568,1.1454890966415405,0.8436480760574341,0.8859893679618835
1730865581.2496958,-1.69029700756073,0.9844477772712708,-9.862434387207031,0.03016572664721504,0.0017200600869164149,-0.0056329892031445035,1.1468487977981567,0.8471912145614624,0.8859736919403076
1730865581.2997246,-1.69029700756073,0.9844477772712708,-9.862434387207031,0.036895847922733704,0.004041779925702564,-0.007664997265519063,1.1484884023666382,0.8519312143325806,0.885981559753418
1730865581.2997246,-1.7177468538284302,0.998397946357727,-9.85738754272461,0.03850226152036249,0.003120721399520917,-0.009254689877163933,1.1485204696655273,0.8520141243934631,0.885981023311615
1730865581.349732,-1.7367479801177979,1.0274004936218262,-9.859752655029297,0.03310575842380928,-0.0013184213907389644,-0.009948878998743051,1.1500736474990845,0.8559233546257019,0.8859440684318542
1730865581.399897,-1.7635225057601929,1.0405250787734985,-9.85824203491211,0.020511381850597275,-0.008456471227517979,-0.009229554070869339,1.1501939296722412,0.857905924320221,0.8860959410667419
1730865581.4497435,-1.7630220651626587,1.059368371963501,-9.851255416870117,0.0023930984951362052,-0.01724817113434682,-0.006934744432130505,1.1513006687164307,0.8610453009605408,0.8860890865325928
1730865581.499956,-1.7337685823440552,1.0620344877243042,-9.875801086425781,-0.017086856618404776,-0.026263628823004634,-0.00358592269578587,1.1530016660690308,0.8649613857269287,0.8862197399139404
1730865581.549778,-1.7337685823440552,1.0620344877243042,-9.875801086425781,-0.031644323414293414,-0.03324152194045463,-0.00036261721482423455,1.1543231010437012,0.8684945702552795,0.8862491250038147
1730865581.549778,-1.7101315259933472,1.0947593450546265,-9.876002311706543,-0.036130657427294224,-0.03601361673938379,0.001499964054541499,1.1543349027633667,0.8685267567634583,0.8862493634223938
1730865581.5997796,-1.702839732170105,1.1131564378738403,-9.893972396850586,-0.029674867756580563,-0.0342657390990521,0.0015140711575653315,1.155582308769226,0.8719820976257324,0.8862802386283875
1730865581.6497102,-1.7362927198410034,1.1533353328704834,-9.876565933227539,-0.015469098058566097,-0.03047345084365927,-3.868361944334771e-05,1.156781792640686,0.8753795623779297,0.8863131403923035
1730865581.6999476,-1.7378431558609009,1.1751041412353516,-9.901299476623535,0.001119849001438242,-0.02908888724143257,-0.0026129407162332483,1.1579698324203491,0.8787204623222351,0.8863428831100464
1730865581.749591,-1.7378431558609009,1.1751041412353516,-9.901299476623535,0.014461427567924883,-0.03431659012021849,-0.0057749411893621,1.1545554399490356,0.870682954788208,0.88631671667099
1730865581.749591,-1.7677662372589111,1.1661951541900635,-9.867375373840332,0.02068053371643267,-0.04714124084186873,-0.009130880428101614,1.154585361480713,0.8707671761512756,0.8863170146942139
1730865581.7996657,-1.7848023176193237,1.1402807235717773,-9.879440307617188,0.018606142812858356,-0.06281794947930062,-0.011494840160244376,1.155127763748169,0.8721591830253601,0.886308491230011
1730865581.8496249,-1.794933795928955,1.1343191862106323,-9.848726272583008,0.00912905826991304,-0.0721063157119474,-0.010667081031973674,1.157476782798767,0.878477931022644,0.8864205479621887
1730865581.8996139,-1.7993755340576172,1.1164542436599731,-9.850360870361328,-0.005401212671748182,-0.06727719325192429,-0.0050537696607421394,1.1587684154510498,0.881650447845459,0.8864273428916931
1730865581.9495692,-1.7622610330581665,1.1195833683013916,-9.833697319030762,-0.020805817552955512,-0.047668240357514,0.004444493035449769,1.1600192785263062,0.8846596479415894,0.8864333629608154
1730865581.9996245,-1.757246494293213,1.1048943996429443,-9.830862045288086,-0.03130412177072684,-0.019650630871558945,0.014578212687151546,1.1592472791671753,0.8878276348114014,0.8865320682525635
1730865582.0495446,-1.7730159759521484,1.0890703201293945,-9.827780723571777,-0.03220237583443647,0.00790985983412866,0.021944230146594596,1.1598378419876099,0.8905423879623413,0.8866199851036072
1730865582.0995781,-1.7950177192687988,1.0579242706298828,-9.824752807617188,-0.02358423482496399,0.02830041423123455,0.02478591629050843,1.1622782945632935,0.8978766798973083,0.886695384979248
1730865582.1495535,-1.7887119054794312,1.0245400667190552,-9.833256721496582,-0.010754055173454057,0.039126499189256585,0.02307748253606368,1.1634730100631714,0.9022395610809326,0.8868563771247864
1730865582.1995134,-1.763691782951355,1.0146384239196777,-9.845885276794434,5.178267439462196e-05,0.04190827073133809,0.017796663660716965,1.164659023284912,0.9067201018333435,0.8870689868927002
1730865582.2494242,-1.7452305555343628,1.0336438417434692,-9.854910850524902,0.006390311344465038,0.04003077148806576,0.010130657454321646,1.1658543348312378,0.9113084673881531,0.8873168230056763
1730865582.2995236,-1.7301297187805176,1.0650289058685303,-9.872907638549805,0.010219403533815724,0.0363986841888616,0.0009574828362164446,1.1670721769332886,0.9159989953041077,0.8875789046287537
1730865582.3494833,-1.7226831912994385,1.0797553062438965,-9.87828254699707,0.015174812492201638,0.0319408755452186,-0.009237468476070636,1.165122628211975,0.909662127494812,0.8868029117584229
1730865582.3994498,-1.7226831912994385,1.0797553062438965,-9.87828254699707,0.02342527842541025,0.02587494736037704,-0.019864979050426317,1.1659274101257324,0.9127181172370911,0.8868131041526794
1730865582.3994498,-1.716277837753296,1.0926662683486938,-9.879261016845703,0.033589859279366065,0.01757352270789874,-0.029212334681502375,1.1668707132339478,0.9146207571029663,0.886817216873169
1730865582.4495142,-1.7074353694915771,1.0823768377304077,-9.882028579711914,0.04135040271543563,0.007977866970399056,-0.03447105909089393,1.1683173179626465,0.9190935492515564,0.8868109583854675
1730865582.4994102,-1.734884262084961,1.0905805826187134,-9.861540794372559,0.042731402969919084,-0.0007273424243221657,-0.03355709986159655,1.171248197555542,0.9286910891532898,0.8867549896240234
1730865582.549432,-1.7417913675308228,1.0613985061645508,-9.870416641235352,0.03659209187841325,-0.006268663684803021,-0.026635160681297853,1.1732186079025269,0.9346054792404175,0.886624813079834
1730865582.5995057,-1.7427806854248047,1.044501781463623,-9.858104705810547,0.024633826052916842,-0.007067473812887049,-0.016043160668760038,1.1752724647521973,0.9405218362808228,0.8864403963088989
1730865582.6494162,-1.774067997932434,1.0190476179122925,-9.863323211669922,0.010157864039235326,-0.002333953984144836,-0.0051839776693571905,1.1738063097000122,0.9403901100158691,0.8867233991622925
1730865582.6994226,-1.7948260307312012,1.0170985460281372,-9.84606647491455,-0.0036556824652253564,0.007645465088592023,0.0030994407719606054,1.1749186515808105,0.9445400834083557,0.886671245098114
1730865582.749319,-1.7946306467056274,1.0294928550720215,-9.834678649902344,-0.014863224343374,0.020325372580304722,0.007853640108583318,1.1760038137435913,0.9487091898918152,0.8866329789161682
1730865582.799335,-1.7875488996505737,1.0467138290405273,-9.840353965759277,-0.02251906567728717,0.03065655549531843,0.01012130151592193,1.17704176902771,0.9529392123222351,0.886617124080658
1730865582.8492272,-1.763319492340088,1.0445606708526611,-9.84911823272705,-0.02611789782626421,0.03353256713861059,0.011714901152901762,1.1763352155685425,0.9501984119415283,0.8866704702377319
1730865582.8992636,-1.7356995344161987,1.0717068910598755,-9.873208045959473,-0.02531507204397311,0.02690451565341881,0.013499014762227706,1.1770713329315186,0.9534358978271484,0.8866932392120361
1730865582.9492066,-1.708625078201294,1.068105936050415,-9.885272026062012,-0.019764258724748036,0.012720258301023028,0.014434248051280199,1.178355097770691,0.963715672492981,0.8866076469421387
1730865582.9992695,-1.6939542293548584,1.0656934976577759,-9.889436721801758,-0.009510810784874993,-0.004348996972187697,0.01239421133595437,1.1791434288024902,0.9685638546943665,0.8866398334503174
1730865583.0492134,-1.6907391548156738,1.0769892930984497,-9.883781433105469,0.003930735158793237,-0.018972368496059402,0.006493347005737294,1.1809409856796265,0.9788671135902405,0.8866227269172668
1730865583.0991976,-1.6988525390625,1.0780103206634521,-9.883774757385254,0.017140059012692707,-0.02720932854332014,-0.001505773280915762,1.1823028326034546,0.9897047877311707,0.8866134881973267
1730865583.1492338,-1.7086125612258911,1.078279733657837,-9.883796691894531,0.026051658599760802,-0.027886447003880335,-0.008438031464453571,1.1835237741470337,0.9973037838935852,0.8866098523139954
1730865583.1992488,-1.7259849309921265,1.0672895908355713,-9.868278503417969,0.0278574265009019,-0.02245263599579639,-0.011900594142411059,1.1848005056381226,1.0047705173492432,0.8865809440612793
1730865583.2491755,-1.7457414865493774,1.0525081157684326,-9.862626075744629,0.02196320076107104,-0.013555047145153104,-0.011070162078745132,1.1861544847488403,1.0122785568237305,0.8865228891372681
1730865583.2991915,-1.7698801755905151,1.0513062477111816,-9.845050811767578,0.009584059609726036,-0.0035549684059284674,-0.006267108869325657,1.1838358640670776,1.0019330978393555,0.8865852355957031
1730865583.3490987,-1.7904818058013916,1.0279263257980347,-9.846424102783203,-0.007012276789465217,0.006059889782540849,0.0014479473163010767,1.1844559907913208,1.0060309171676636,0.8865585923194885
1730865583.399222,-1.8050386905670166,1.0212345123291016,-9.842089653015137,-0.024508040196797653,0.014409338818447144,0.010079121275593898,1.1828091144561768,1.014439582824707,0.8866002559661865
1730865583.4491434,-1.8003679513931274,1.0001696348190308,-9.832600593566895,-0.03870239504730061,0.020908272857998525,0.016909162724191563,1.1826947927474976,1.0206084251403809,0.8866400122642517
1730865583.499201,-1.7958818674087524,0.9946278929710388,-9.835536003112793,-0.04580958025914742,0.025241980938775173,0.01990570033957444,1.1824748516082764,1.0268354415893555,0.8867257833480835
1730865583.5491784,-1.8041510581970215,1.0065226554870605,-9.821941375732422,-0.04398499977862124,0.027378489512823602,0.01894685280990065,1.1821421384811401,1.0331385135650635,0.8868603110313416
1730865583.5990908,-1.8100638389587402,1.0268279314041138,-9.824549674987793,-0.03426750802166074,0.027393898665081108,0.015638672172745484,1.181318998336792,1.026124358177185,0.8865364789962769
1730865583.649205,-1.7572319507598877,1.061692237854004,-9.831888198852539,-0.020095434155718305,0.02502553086750791,0.012097194340518511,1.1806663274765015,1.037622094154358,0.8864273428916931
1730865583.6991694,-1.7294477224349976,1.0847671031951904,-9.841402053833008,-0.005058054095745159,0.01952071454865867,0.009470050108201098,1.1802517175674438,1.0438470840454102,0.8864476680755615
1730865583.7491047,-1.7225959300994873,1.0909056663513184,-9.854049682617188,0.008756452299710336,0.01047466086564696,0.007322703573272365,1.1795623302459717,1.0528461933135986,0.8864251971244812
1730865583.799088,-1.7151085138320923,1.039835810661316,-9.88394832611084,0.020183898906006116,-0.0007754197708838371,0.004361497328807209,1.179113507270813,1.0599067211151123,0.886457622051239
1730865583.8491497,-1.7074151039123535,1.0555086135864258,-9.895711898803711,0.028005942517056456,-0.010479873783137202,-0.0005275002105757172,1.1787198781967163,1.0670413970947266,0.8864952325820923
1730865583.8989847,-1.7291451692581177,1.045723557472229,-9.898378372192383,0.03111855015119696,-0.013944152251486768,-0.007750696571105234,1.1784061193466187,1.07402503490448,0.8865219950675964
1730865583.949108,-1.7133244276046753,1.0828478336334229,-9.904666900634766,0.029246217603273984,-0.008791135194322269,-0.01690641011897484,1.1806905269622803,1.0632777214050293,0.8863979578018188
1730865583.999061,-1.7114222049713135,1.0865873098373413,-9.905963897705078,0.02337376838858346,0.002903182189540386,-0.02671291808941956,1.1814796924591064,1.0728563070297241,0.8863580226898193
1730865584.0489726,-1.7595391273498535,1.0850518941879272,-9.896913528442383,0.015300761776316927,0.015690162763051227,-0.03475387424882423,1.1818439960479736,1.078325629234314,0.8862342238426208
1730865584.0989974,-1.7475231885910034,1.0788191556930542,-9.88640308380127,0.0062824085829753015,0.02413358844560408,-0.03787382110393932,1.1822370290756226,1.0838696956634521,0.8860182762145996
1730865584.1490004,-1.7679997682571411,1.0387849807739258,-9.894234657287598,-0.0036291353830834702,0.02597883688699634,-0.033900918152437856,1.1826311349868774,1.0894441604614258,0.8857137560844421
1730865584.1998715,-1.7663099765777588,1.0621485710144043,-9.886310577392578,-0.014700215207443239,0.022993029618827425,-0.023281581543038797,1.1824584007263184,1.0828039646148682,0.886282205581665
1730865584.2488832,-1.7977192401885986,1.0906693935394287,-9.880623817443848,-0.02645298705259739,0.01875541196382212,-0.008984381981625607,1.1826324462890625,1.0859085321426392,0.8861533403396606
1730865584.2998762,-1.7934387922286987,1.1030203104019165,-9.845420837402344,-0.03726102894937846,0.015032214025028027,0.005123955245247107,1.1835373640060425,1.092619776725769,0.8862060904502869
1730865584.349925,-1.7966423034667969,1.1298377513885498,-9.832317352294922,-0.0446826536578357,0.010559831426974288,0.016181825537898094,1.1838324069976807,1.0973573923110962,0.8861614465713501
1730865584.3999164,-1.773266315460205,1.1308465003967285,-9.806924819946289,-0.046419757676160564,0.003442249586036737,0.023199978700605722,1.185032606124878,1.1022869348526,0.8861683011054993
1730865584.4499638,-1.767147183418274,1.1388400793075562,-9.787487030029297,-0.04128722402547674,-0.006217402746114467,0.02664808208186627,1.1854695081710815,1.107189655303955,0.8862149119377136
1730865584.4998612,-1.7241711616516113,1.1401572227478027,-9.786402702331543,-0.029812978555440503,-0.01609649932033009,0.027603323707611736,1.1863561868667603,1.1092222929000854,0.8861344456672668
1730865584.5498216,-1.7087153196334839,1.122994303703308,-9.781726837158203,-0.014115864473191918,-0.02309674509318824,0.026966470178701255,1.186773419380188,1.1128126382827759,0.8862296342849731
1730865584.5999172,-1.6934443712234497,1.125031590461731,-9.796494483947754,0.002776073392301926,-0.024837047952485154,0.024977637104691083,1.1900882720947266,1.1177500486373901,0.8860517144203186
1730865584.6497993,-1.6995075941085815,1.1727083921432495,-9.803621292114258,0.01752356013649684,-0.020877076500949443,0.021299721311983703,1.1914719343185425,1.1218708753585815,0.8861345648765564
1730865584.69979,-1.6871381998062134,1.1797513961791992,-9.847959518432617,0.02713527628006873,-0.013798962856172131,0.015451616915170044,1.1929152011871338,1.1259593963623047,0.8862635493278503
1730865584.749806,-1.6845464706420898,1.1953684091567993,-9.871511459350586,0.029977550350306588,-0.008655075980996386,0.006882057644865579,1.1944254636764526,1.130008339881897,0.8864200115203857
1730865584.799705,-1.6815924644470215,1.2075847387313843,-9.909614562988281,0.026645448891458003,-0.010128621037842782,-0.005333240730383372,1.1960138082504272,1.1340527534484863,0.8865790963172913
1730865584.8498456,-1.6815924644470215,1.2075847387313843,-9.909614562988281,0.019740003875796122,-0.019926761746116434,-0.022184648630790716,1.1933108568191528,1.1268815994262695,0.8860338926315308
1730865584.8498456,-1.6818174123764038,1.2088420391082764,-9.915112495422363,0.012421447624340994,-0.03593179194147454,-0.04304254476208286,1.1933178901672363,1.1269011497497559,0.8860335946083069
1730865584.8997302,-1.7077075242996216,1.1817458868026733,-9.942842483520508,0.006723870732800244,-0.05231265842390463,-0.06365479795335914,1.1941763162612915,1.1291781663894653,0.8859226703643799
1730865584.9498055,-1.7160718441009521,1.1382895708084106,-9.933825492858887,0.0026245863335046284,-0.061122736607405366,-0.0772747707475037,1.1960898637771606,1.1377967596054077,0.8870701193809509
1730865584.9996676,-1.7419366836547852,1.1362286806106567,-9.909761428833008,-0.001431601986712635,-0.056269822528029076,-0.07901040136077028,1.1983284950256348,1.1464972496032715,0.8878587484359741
1730865585.0496929,-1.7753398418426514,1.1253840923309326,-9.878927230834961,-0.006864903849224176,-0.037743776010723915,-0.06822789117131493,1.1997333765029907,1.1515580415725708,0.8879567384719849
1730865585.099718,-1.7837786674499512,1.1070998907089233,-9.847784042358398,-0.01383211162215502,-0.012017042987560105,-0.04744607712504714,1.2010902166366577,1.156476378440857,0.8879086375236511
1730865585.1496775,-1.767364740371704,1.0980452299118042,-9.821785926818848,-0.02145418290022687,0.012405733649165402,-0.020534852140627394,1.199264645576477,1.1589279174804688,0.8889251351356506
1730865585.199578,-1.7503349781036377,1.1113547086715698,-9.801799774169922,-0.028189615100294795,0.02967461045701926,0.008278635568588951,1.1996148824691772,1.1679270267486572,0.8891764283180237
1730865585.2496998,-1.7396959066390991,1.1378366947174072,-9.796671867370605,-0.03177751092960053,0.03734119303248477,0.03418023476753882,1.200011134147644,1.1737103462219238,0.889444887638092
1730865585.2996013,-1.7500395774841309,1.122610092163086,-9.800312042236328,-0.03009479222752349,0.0350761613333113,0.051748216903003116,1.2003272771835327,1.1795462369918823,0.8898191452026367
1730865585.3496575,-1.7488837242126465,1.0770031213760376,-9.814069747924805,-0.022961130440729643,0.024787884919698057,0.05703245823891453,1.2005794048309326,1.1855148077011108,0.8903349041938782
1730865585.399605,-1.7863229513168335,1.0852818489074707,-9.846338272094727,-0.012849781096661414,0.011279074411149559,0.049678633793306295,1.200782299041748,1.1914163827896118,0.8909731507301331
1730865585.4495404,-1.7827038764953613,1.0827490091323853,-9.863889694213867,-0.0038530129848331042,0.000654202146544626,0.03245336206913945,1.2009663581848145,1.1973859071731567,0.8917190432548523
1730865585.499566,-1.7692652940750122,1.125974178314209,-9.89301586151123,0.00029907653706259894,-0.0031343479470150966,0.009239441536365297,1.1999636888504028,1.1795591115951538,0.8895407319068909
1730865585.5496318,-1.748536229133606,1.1455931663513184,-9.894482612609863,-0.0015150068178310134,-0.0005696683556556375,-0.015979339701731342,1.2000846862792969,1.1822153329849243,0.8896964192390442
1730865585.59957,-1.7765898704528809,1.1813348531723022,-9.891815185546875,-0.006919272935561286,0.0040884547964804875,-0.03840043254428176,1.198248267173767,1.1898356676101685,0.8896934390068054
1730865585.6495266,-1.7646836042404175,1.1545439958572388,-9.898605346679688,-0.0118575421674126,0.005926507000945718,-0.05246271144288299,1.1978424787521362,1.1938289403915405,0.8896519541740417
1730865585.6994886,-1.7694742679595947,1.1230227947235107,-9.86806869506836,-0.01337858877050915,0.003315514279721064,-0.054487138178478764,1.1974091529846191,1.197793960571289,0.8894770741462708
1730865585.7494588,-1.7349649667739868,1.100830078125,-9.861501693725586,-0.010634737695972977,-0.0003128406615568293,-0.04479125042756035,1.19617760181427,1.2057600021362305,0.8882734179496765
1730865585.7995563,-1.748740792274475,1.0635234117507935,-9.8434419631958,-0.004313275505193179,0.0007423771798216104,-0.026951772664482572,1.1955912113189697,1.2105956077575684,0.8877788186073303
1730865585.8495572,-1.7099957466125488,1.0106556415557861,-9.845914840698242,0.0037544750447718,0.009609001429497421,-0.0061247601241256455,1.1941752433776855,1.2203508615493774,0.8868921995162964
1730865585.899523,-1.7087078094482422,1.0156549215316772,-9.836512565612793,0.011094807588087754,0.024730340714903532,0.012391816062340332,1.1933646202087402,1.2268190383911133,0.8863149285316467
1730865585.9494472,-1.7283358573913574,1.0538554191589355,-9.816043853759766,0.015639259365906197,0.04061893994919478,0.024774525975025902,1.1925760507583618,1.233461856842041,0.8857761025428772
1730865585.9994655,-1.7307981252670288,1.0693891048431396,-9.81949520111084,0.01615049456911876,0.04967496763396724,0.02998363908793525,1.1918319463729858,1.2401775121688843,0.8853089809417725
1730865586.0493345,-1.7215858697891235,1.0946919918060303,-9.816967010498047,0.012234634034481977,0.04554470483794594,0.029706297754773178,1.1920877695083618,1.2341703176498413,0.8864727020263672
1730865586.0994136,-1.7419214248657227,1.0699372291564941,-9.838231086730957,0.004761699521610477,0.027116784826534162,0.026657096497317737,1.1915807723999023,1.2383079528808594,0.8863922953605652
1730865586.1493034,-1.737633466720581,1.0650289058685303,-9.85118293762207,-0.004220241610013687,0.0004894420076552511,0.02232122981395241,1.189612865447998,1.2441202402114868,0.8859660625457764
1730865586.199332,-1.7618046998977661,1.0357667207717896,-9.882322311401367,-0.012480198869989115,-0.0233367202292546,0.016178176149238395,1.191572666168213,1.2545651197433472,0.884171724319458
1730865586.2493055,-1.7543684244155884,1.059193730354309,-9.888103485107422,-0.018420341525767582,-0.03498165952510433,0.0073413968134960475,1.1918390989303589,1.2615779638290405,0.8833423256874084
1730865586.29936,-1.752218246459961,1.0939314365386963,-9.923624038696289,-0.02102908612917012,-0.03264734505979943,-0.003469181339362734,1.1920567750930786,1.2685306072235107,0.8825148940086365
1730865586.349248,-1.7297000885009766,1.1305352449417114,-9.918254852294922,-0.019564616020702502,-0.022665250362772643,-0.014231840953431694,1.192221999168396,1.2753472328186035,0.8816735148429871
1730865586.3992503,-1.718904972076416,1.1337034702301025,-9.929292678833008,-0.013655436109278248,-0.014976963059151957,-0.0233609436342011,1.1933252811431885,1.2687737941741943,0.8826225996017456
1730865586.4492593,-1.7150993347167969,1.1396684646606445,-9.911575317382812,-0.00381511178887751,-0.016815482639279525,-0.030142138270084565,1.1936208009719849,1.2732536792755127,0.8820397257804871
1730865586.4993153,-1.7161842584609985,1.1075060367584229,-9.899821281433105,0.007858985312235318,-0.027907794874319637,-0.03349319842717571,1.195478916168213,1.2801645994186401,0.88116854429245
1730865586.549268,-1.7214730978012085,1.1151657104492188,-9.880840301513672,0.017834065545651007,-0.04081692491641892,-0.03149185104875223,1.1962934732437134,1.2857334613800049,0.880342423915863
1730865586.5991962,-1.7388830184936523,1.1124427318572998,-9.847484588623047,0.022755120024944828,-0.04706715722170959,-0.022942834855658394,1.1971561908721924,1.2911779880523682,0.8794509768486023
1730865586.6491199,-1.7689687013626099,1.1267178058624268,-9.831109046936035,0.02087930001001172,-0.043291761406158064,-0.008622594382267954,1.19807767868042,1.2965373992919922,0.8785156011581421
1730865586.6991682,-1.7954251766204834,1.106492280960083,-9.814196586608887,0.012008186919595747,-0.032016555511493745,0.009483129988190033,1.197479486465454,1.2931787967681885,0.8805340528488159
1730865586.7491767,-1.817057728767395,1.1010181903839111,-9.806600570678711,-0.002828551210222332,-0.018321209652071818,0.028906353628944365,1.1997416019439697,1.303992748260498,0.8799735307693481
1730865586.7991114,-1.7809942960739136,1.1109561920166016,-9.797849655151367,-0.02039755087008621,-0.0064728266626874875,0.04600094670201735,1.200813889503479,1.3098286390304565,0.879684329032898
1730865586.8491178,-1.7878869771957397,1.155341386795044,-9.797761917114258,-0.03460807044807241,0.0010343355933201213,0.056143308890383485,1.2048698663711548,1.3175640106201172,0.8792033195495605
1730865586.8990748,-1.7484670877456665,1.1602888107299805,-9.79706859588623,-0.03904058833800402,0.002856114657576095,0.05628310828969678,1.2067309617996216,1.3238121271133423,0.8790317177772522
1730865586.949096,-1.751281976699829,1.1635470390319824,-9.797138214111328,-0.031033846173777545,-0.0008923572615054398,0.04702548802039093,1.2084951400756836,1.3300291299819946,0.8789891004562378
1730865586.9991236,-1.752661943435669,1.148865818977356,-9.817092895507812,-0.013119215222787764,-0.007786270366410403,0.03193344233065998,1.2102067470550537,1.33624267578125,0.879044234752655
1730865587.0490801,-1.7767280340194702,1.1141231060028076,-9.83289623260498,0.008730479912522867,-0.013837587252496415,0.015221551646354964,1.2091940641403198,1.3272168636322021,0.8801127672195435
1730865587.0991235,-1.758952260017395,1.090920090675354,-9.874897003173828,0.02784705551962688,-0.015334748773725594,-0.0002008969792202382,1.2105296850204468,1.330679178237915,0.8803082704544067
1730865587.1490934,-1.7401587963104248,1.0886403322219849,-9.894071578979492,0.03945925626004586,-0.010511394337714058,-0.013323700912113441,1.2135210037231445,1.3373515605926514,0.8808848857879639
1730865587.1990685,-1.738036870956421,1.090285062789917,-9.915605545043945,0.0423432058503298,-0.0005753951406179095,-0.02430726446538233,1.2155909538269043,1.3421825170516968,0.8811009526252747
1730865587.2490273,-1.7086373567581177,1.054706335067749,-9.904644966125488,0.03840634192896175,0.010895894049365515,-0.03304692393252714,1.2177708148956299,1.3470473289489746,0.8812462091445923
1730865587.2989845,-1.7312521934509277,1.038970947265625,-9.911036491394043,0.030925101936793167,0.020387374456345683,-0.03836514648459608,1.2174694538116455,1.3470350503921509,0.8808714747428894
1730865587.348985,-1.7187705039978027,1.048850655555725,-9.918853759765625,0.02303154162820617,0.02644222650484222,-0.03895778633318549,1.2189619541168213,1.3504853248596191,0.8807713985443115
1730865587.3988943,-1.7175710201263428,1.0387431383132935,-9.883709907531738,0.01676799709721865,0.02897347300189604,-0.034651254675825,1.2222039699554443,1.358834981918335,0.8808633685112
1730865587.4489293,-1.7235124111175537,1.0543172359466553,-9.877368927001953,0.012776928487080744,0.027691687430514443,-0.02627555406113887,1.2244110107421875,1.364209532737732,0.8807441592216492
1730865587.4988732,-1.7187373638153076,1.0795608758926392,-9.855671882629395,0.010529555838630562,0.022197164338079264,-0.015160324157278911,1.2226232290267944,1.3704652786254883,0.8809524178504944
1730865587.5489464,-1.75434410572052,1.0468742847442627,-9.853621482849121,0.008711203200842274,0.012996754872254608,-0.003142730374111533,1.223620891571045,1.3763412237167358,0.8809105753898621
1730865587.5988326,-1.7550171613693237,1.0532236099243164,-9.850499153137207,0.0056648903445414844,0.0024853012433160796,0.0075454003828730725,1.2235018014907837,1.3806524276733398,0.880981981754303
1730865587.6488135,-1.7577600479125977,1.0825854539871216,-9.853537559509277,0.0001812489810632447,-0.005513733020791015,0.014801760654559721,1.2242231369018555,1.3855229616165161,0.881007194519043
1730865587.698839,-1.7320553064346313,1.1506472826004028,-9.838445663452148,-0.007149692249728637,-0.009108291085937588,0.0174632796101738,1.224286675453186,1.3925424814224243,0.8811476230621338
1730865587.7488043,-1.7505334615707397,1.177009105682373,-9.873709678649902,-0.013615754969298214,-0.01082884174445694,0.01575935850197123,1.2248257398605347,1.3981143236160278,0.8812612891197205
1730865587.7998233,-1.7672697305679321,1.1872491836547852,-9.852540969848633,-0.016678498522129107,-0.014808311304734678,0.010695949205054817,1.2253292798995972,1.4036874771118164,0.8814094662666321
1730865587.8489144,-1.813258409500122,1.1590745449066162,-9.871673583984375,-0.016764011827152012,-0.022135431019639155,0.0032864710359946274,1.2257797718048096,1.4090850353240967,0.8815717101097107
1730865587.8988588,-1.7915550470352173,1.1837164163589478,-9.849653244018555,-0.01726822837219793,-0.030258389643379457,-0.005340014003211547,1.226189136505127,1.4144264459609985,0.8817316293716431
1730865587.9498947,-1.7989591360092163,1.1885528564453125,-9.859769821166992,-0.021754641272951656,-0.03596367969956144,-0.013653518948271107,1.2228971719741821,1.4063600301742554,0.8812623620033264
1730865587.9988012,-1.7558491230010986,1.2139707803726196,-9.833396911621094,-0.030686906648606526,-0.03792007135286868,-0.019851430182168946,1.2227004766464233,1.4095737934112549,0.8812450766563416
1730865588.0487764,-1.7635228633880615,1.2023372650146484,-9.842806816101074,-0.03991768352053582,-0.03673033544628357,-0.022094949548167656,1.2209643125534058,1.4223984479904175,0.8813098669052124
1730865588.0998282,-1.7731770277023315,1.1964035034179688,-9.829137802124023,-0.04297747791063125,-0.033410388970260954,-0.019126468051759545,1.220176339149475,1.429397702217102,0.8812609910964966
1730865588.149787,-1.7943675518035889,1.1840864419937134,-9.823464393615723,-0.03655490287476053,-0.028296730700853236,-0.011317029234492078,1.2199972867965698,1.4375817775726318,0.8813916444778442
1730865588.1997802,-1.7889549732208252,1.1709051132202148,-9.823451042175293,-0.023474389637165555,-0.02117207332784234,-0.0009168906394200244,1.2193480730056763,1.4448224306106567,0.8813810348510742
1730865588.2498624,-1.768147587776184,1.1446794271469116,-9.808733940124512,-0.00955958656242293,-0.012022693256833557,0.008959827243143051,1.2192776203155518,1.4534496068954468,0.881520688533783
1730865588.2997842,-1.766672134399414,1.1301547288894653,-9.818909645080566,0.0011957783517243669,-0.0014862659092749063,0.015675086560388435,1.2197116613388062,1.4681081771850586,0.8816468119621277
1730865588.3498576,-1.7473629713058472,1.1224671602249146,-9.813077926635742,0.007882431625711154,0.009071887306517179,0.01791468197404285,1.2196252346038818,1.4767448902130127,0.8817650675773621
1730865588.3997056,-1.7342709302902222,1.143246054649353,-9.834413528442383,0.011330688786803926,0.01755211951576407,0.015826047297810154,1.2195634841918945,1.4853355884552002,0.8819243907928467
1730865588.4498763,-1.697831153869629,1.1391136646270752,-9.838817596435547,0.013332036882151219,0.021680103430463837,0.010547020677536755,1.2195322513580322,1.4940382242202759,0.8821179270744324
1730865588.4997168,-1.706190824508667,1.126355528831482,-9.87077522277832,0.016398469975558064,0.02028711175654019,0.003307099049002698,1.2195382118225098,1.5027351379394531,0.8823274374008179
1730865588.5498261,-1.6719881296157837,1.1568660736083984,-9.864439010620117,0.022814294373744423,0.014184377898661706,-0.005302954344500679,1.2195935249328613,1.511536717414856,0.8825359344482422
1730865588.5997086,-1.6900279521942139,1.175751805305481,-9.897367477416992,0.03348296783297775,0.005380770350020333,-0.015277283096677174,1.2201932668685913,1.4860429763793945,0.8817737102508545
1730865588.6496892,-1.6858640909194946,1.158502459526062,-9.890789985656738,0.047082154773595154,-0.004278754245544808,-0.02631426449412946,1.2203813791275024,1.4900659322738647,0.8817455172538757
1730865588.6998215,-1.7230970859527588,1.1133079528808594,-9.908997535705566,0.05932958559429631,-0.01261408833199568,-0.03654209967854135,1.2251185178756714,1.5014866590499878,0.8817738890647888
1730865588.7496657,-1.7230970859527588,1.1133079528808594,-9.908997535705566,0.06409126057626846,-0.016275673379460575,-0.0425825508966174,1.2266631126403809,1.5074161291122437,0.8816420435905457
1730865588.7496657,-1.693122148513794,1.1579358577728271,-9.901992797851562,0.05759649793610479,-0.013192371328670547,-0.041786438139372245,1.2267118692398071,1.507593035697937,0.8816364407539368
1730865588.7997365,-1.6971156597137451,1.1575738191604614,-9.905465126037598,0.04200556915501437,-0.005886203592586788,-0.034127397030035575,1.2283309698104858,1.5132797956466675,0.8814151883125305
1730865588.8496711,-1.7098139524459839,1.1357274055480957,-9.892383575439453,0.02400637643718182,-0.00017513528862737882,-0.021940110820509267,1.230190634727478,1.5216853618621826,0.8818281292915344
1730865588.8996623,-1.7237399816513062,1.128082513809204,-9.875865936279297,0.009938309987553996,-0.00019646741378861142,-0.008470875653216366,1.23175847530365,1.5279889106750488,0.8817439079284668
1730865588.9498067,-1.7402812242507935,1.1540554761886597,-9.876815795898438,0.00212265262355944,-0.00545563121083703,0.003510968280345868,1.2352344989776611,1.537665605545044,0.8819862008094788
1730865588.999783,-1.7360283136367798,1.1769208908081055,-9.855610847473145,-0.0011086202355589361,-0.012443216112926597,0.012394576713908206,1.237500786781311,1.5453890562057495,0.8820287585258484
1730865589.0497267,-1.7504266500473022,1.1783499717712402,-9.850250244140625,-0.0026088304250588123,-0.018084091313698782,0.017808843671497054,1.2397836446762085,1.5531469583511353,0.882109522819519
1730865589.0996275,-1.756821632385254,1.1743413209915161,-9.824213981628418,-0.004047464374169549,-0.021319434750314073,0.02056786328766514,1.2420413494110107,1.5607985258102417,0.8822373151779175
1730865589.1495838,-1.7830418348312378,1.1266891956329346,-9.845495223999023,-0.006004744065199781,-0.022263788796311672,0.02236005971393354,1.2443054914474487,1.5684595108032227,0.8824200630187988
1730865589.19962,-1.7720324993133545,1.0862011909484863,-9.83471965789795,-0.009038632741138341,-0.020473350257437135,0.024793588423020013,1.2389631271362305,1.5538400411605835,0.8820599913597107
1730865589.2497022,-1.79339599609375,1.0673619508743286,-9.857146263122559,-0.013623792696458876,-0.014406228917752069,0.02811700954021969,1.2399287223815918,1.5577609539031982,0.8821883201599121
1730865589.2995827,-1.750465989112854,1.113501787185669,-9.845070838928223,-0.019073300094395448,-0.003620488414074298,0.030573908238195616,1.2440780401229858,1.566183090209961,0.8822169303894043
1730865589.349703,-1.7516177892684937,1.1446795463562012,-9.844928741455078,-0.02310347839797408,0.008645809180940295,0.029457181431032514,1.2459063529968262,1.571413278579712,0.8824030160903931
1730865589.3996563,-1.7410632371902466,1.163754940032959,-9.843649864196777,-0.023201523111756793,0.016563228460990863,0.023540015492554772,1.247704029083252,1.5767487287521362,0.8826565146446228
1730865589.4495966,-1.7460582256317139,1.1924769878387451,-9.840938568115234,-0.018595774819861438,0.015432337508936751,0.014335014198430852,1.2494632005691528,1.58216392993927,0.8829589486122131
1730865589.4996681,-1.7516788244247437,1.187928557395935,-9.831406593322754,-0.010734171490098695,0.003965785495003158,0.004973825343111341,1.2504900693893433,1.5850895643234253,0.8823385834693909
1730865589.5496159,-1.7883790731430054,1.175181269645691,-9.833724975585938,-0.002442057226896132,-0.0152455840220169,-0.0016781256944529675,1.2522773742675781,1.59054696559906,0.8824300169944763
1730865589.5995479,-1.7957229614257812,1.1436272859573364,-9.82703685760498,0.0029620424413402792,-0.035590148623606155,-0.004319521730102072,1.2564756870269775,1.6047580242156982,0.8822600245475769
1730865589.6495807,-1.7504936456680298,1.1344728469848633,-9.824235916137695,0.003136795749189708,-0.048311540662501665,-0.0034780170324960175,1.2591725587844849,1.6132526397705078,0.8822681307792664
1730865589.699523,-1.7223447561264038,1.1541489362716675,-9.831586837768555,-0.0007478083589561692,-0.04764655662910691,-0.0007679682389826522,1.261862874031067,1.6215975284576416,0.882270872592926
1730865589.7495313,-1.7142788171768188,1.1669800281524658,-9.836283683776855,-0.0033577546386033253,-0.03492010050240174,0.0020089800283465756,1.26455557346344,1.6298623085021973,0.8822751641273499
1730865589.7995007,-1.7273114919662476,1.1520174741744995,-9.845620155334473,0.0012134519247213279,-0.017179001871419516,0.003353955712614486,1.2610688209533691,1.6205353736877441,0.8822164535522461
1730865589.8495722,-1.7273114919662476,1.1520174741744995,-9.845620155334473,0.01458049379934053,-0.002096497946743216,0.0024396867223413056,1.26503324508667,1.637724757194519,0.8822110295295715
1730865589.8495722,-1.7553598880767822,1.114090919494629,-9.866310119628906,0.03211015944421374,0.00632199896072097,-0.000555560873521822,1.2651026248931885,1.6379926204681396,0.8822113275527954
1730865589.8995466,-1.7979085445404053,1.0856173038482666,-9.869312286376953,0.045086538257900724,0.009034192320099648,-0.004717735763910587,1.2674249410629272,1.646761417388916,0.8822149634361267
1730865589.9495656,-1.774038553237915,1.1182382106781006,-9.897933959960938,0.04561115310021553,0.010287151485181459,-0.009346704979645633,1.270439863204956,1.6553901433944702,0.88219153881073
1730865589.9996097,-1.725737452507019,1.1343532800674438,-9.900333404541016,0.031626426825041236,0.013758969856091416,-0.014379581802730614,1.2733631134033203,1.6647893190383911,0.882149875164032
1730865590.0495684,-1.7084228992462158,1.1520946025848389,-9.90760612487793,0.009328396401769818,0.019108928665825684,-0.019480225823132292,1.276343822479248,1.674249529838562,0.8820656538009644
1730865590.09954,-1.6962672472000122,1.1645432710647583,-9.913172721862793,-0.00962597815051397,0.022226428177868615,-0.02331153910718065,1.279323935508728,1.6837607622146606,0.8819277286529541
1730865590.149497,-1.6736977100372314,1.156400203704834,-9.901287078857422,-0.014995145791133032,0.01882578192811668,-0.02446314338821106,1.2693982124328613,1.6698579788208008,0.8822534680366516
1730865590.1993494,-1.6798291206359863,1.1347070932388306,-9.903575897216797,-0.003687459439283147,0.008048410726152604,-0.022588860248933213,1.269359827041626,1.6812583208084106,0.8823480606079102
1730865590.2494009,-1.6769239902496338,1.1223312616348267,-9.886962890625,0.01867847588109271,-0.006314218761231,-0.018254657664387282,1.2698638439178467,1.6882050037384033,0.8822798132896423
1730865590.2993107,-1.6895958185195923,1.1234526634216309,-9.87252426147461,0.04092345286030408,-0.01793419993342099,-0.012150699089407321,1.2694177627563477,1.698050618171692,0.8824684619903564
1730865590.3493252,-1.7055193185806274,1.131351113319397,-9.852279663085938,0.052852182554953116,-0.022151654889450742,-0.0046725530542806246,1.2698535919189453,1.7058119773864746,0.8824491500854492
1730865590.3992574,-1.7438596487045288,1.1172027587890625,-9.842517852783203,0.050102739705314335,-0.018609618923799694,0.003768831568631611,1.269623041152954,1.7094522714614868,0.8818807601928711
1730865590.4493146,-1.7702043056488037,1.1160060167312622,-9.81884479522705,0.03427071808461998,-0.010393849041699047,0.012306770609739776,1.2727596759796143,1.7237247228622437,0.8810335993766785
1730865590.4992588,-1.8182389736175537,1.0986855030059814,-9.793929100036621,0.010675663663670237,-0.001378560632269152,0.01977490055326056,1.2745610475540161,1.734321117401123,0.8805926442146301
1730865590.549402,-1.8162102699279785,1.095829963684082,-9.773242950439453,-0.014103144865587827,0.0058572929728745405,0.025292316309114167,1.276373267173767,1.7450131177902222,0.8802047371864319
1730865590.5992618,-1.8021275997161865,1.0957525968551636,-9.786238670349121,-0.034567419993130025,0.010635593724655388,0.028805004405679586,1.2739185094833374,1.7283143997192383,0.8804894089698792
1730865590.649442,-1.7787299156188965,1.0905039310455322,-9.789871215820312,-0.047324701349743696,0.013481333872652034,0.03080426888247819,1.2744768857955933,1.7322314977645874,0.8803679943084717
1730865590.6992476,-1.7791813611984253,1.0913710594177246,-9.803850173950195,-0.05050375468411299,0.014950938718617846,0.031095143561855994,1.274573802947998,1.741580605506897,0.8804982304573059
1730865590.7492945,-1.7654389142990112,1.122497797012329,-9.82384967803955,-0.043626528015912644,0.014924737864308956,0.0283477295022672,1.2749110460281372,1.7473671436309814,0.88052898645401
1730865590.7992833,-1.7696853876113892,1.1632258892059326,-9.841489791870117,-0.028670309031885964,0.012371972338297425,0.021317138046965375,1.2748452425003052,1.7557145357131958,0.880366325378418
1730865590.8492968,-1.7760553359985352,1.1823575496673584,-9.870695114135742,-0.010274287377803963,0.005751961157612576,0.010134272652654326,1.27503502368927,1.7624064683914185,0.8803707957267761
1730865590.899226,-1.7862025499343872,1.204262137413025,-9.885950088500977,0.005897840345239773,-0.0052867526753612466,-0.0035820404049971837,1.2752819061279297,1.7692054510116577,0.8801417350769043
1730865590.949212,-1.7550220489501953,1.247465968132019,-9.91286563873291,0.015583573247698193,-0.018676182952984295,-0.017423642007432603,1.2755646705627441,1.776113510131836,0.8800349235534668
1730865590.9991722,-1.733978509902954,1.241294026374817,-9.911761283874512,0.018112668027026702,-0.03118788931682273,-0.02897891846135341,1.2758876085281372,1.7829136848449707,0.8798711895942688
1730865591.0492606,-1.7208898067474365,1.2290204763412476,-9.906049728393555,0.016879395359899834,-0.04030602424759061,-0.036397645874228085,1.2765737771987915,1.7937089204788208,0.879975438117981
1730865591.0991068,-1.6974554061889648,1.26955246925354,-9.890581130981445,0.016820881666806165,-0.04482066106935227,-0.03868699331087677,1.2770332098007202,1.801424503326416,0.8797678351402283
1730865591.149302,-1.6885203123092651,1.3054603338241577,-9.877800941467285,0.020638477700613674,-0.04511935831143469,-0.035518790969084585,1.2780048847198486,1.81833016872406,0.8796951770782471
1730865591.1991198,-1.689749002456665,1.3113384246826172,-9.839710235595703,0.027197351143246302,-0.043194927875414346,-0.026934013159542837,1.2787164449691772,1.8292676210403442,0.8794228434562683
1730865591.2491329,-1.7138476371765137,1.2739285230636597,-9.83432388305664,0.03282321306704521,-0.040739097258020315,-0.013648059160416996,1.2783373594284058,1.8408750295639038,0.880580723285675
1730865591.2991374,-1.7625397443771362,1.2013427019119263,-9.812712669372559,0.03343395283231622,-0.03664872806205415,0.002440031801278713,1.2788114547729492,1.8518881797790527,0.8807325959205627
1730865591.3491812,-1.7780815362930298,1.1453808546066284,-9.801875114440918,0.026236337897757096,-0.027220200809390447,0.018315664600858324,1.2792420387268066,1.8665353059768677,0.8814390301704407
1730865591.3990974,-1.7530218362808228,1.1219401359558105,-9.799823760986328,0.011300073814394657,-0.009291245443227571,0.030690133652933656,1.2797452211380005,1.877220869064331,0.88176429271698
1730865591.4490674,-1.7228293418884277,1.105010747909546,-9.807600975036621,-0.00699466746342089,0.01587391616616176,0.037047232864266595,1.280322551727295,1.8955222368240356,0.8831083178520203
1730865591.4990573,-1.72687566280365,1.104550838470459,-9.823267936706543,-0.02101884658736543,0.04156288459062009,0.03623071001055223,1.280819058418274,1.9089150428771973,0.8838655352592468
1730865591.5490296,-1.7494865655899048,1.1031687259674072,-9.826578140258789,-0.02505085927135708,0.05931190933573878,0.028694618384545168,1.281257152557373,1.9224075078964233,0.884702205657959
1730865591.598997,-1.7581517696380615,1.121166467666626,-9.850555419921875,-0.019830233434450187,0.06371000744229552,0.016349030622355737,1.2816401720046997,1.9360816478729248,0.8855968713760376
1730865591.6489923,-1.7378766536712646,1.184129238128662,-9.857796669006348,-0.011215163948549739,0.054138606333793776,0.0016592728877766966,1.2819842100143433,1.9498944282531738,0.8865134716033936
1730865591.6989248,-1.7118504047393799,1.2120060920715332,-9.870500564575195,-0.004963108080691371,0.033151258693451556,-0.013382717921626871,1.2799535989761353,1.8928824663162231,0.8840038180351257
1730865591.748997,-1.7170681953430176,1.1892800331115723,-9.892168045043945,-0.0030877354448634814,0.0048070004569962565,-0.027375844569598403,1.279967188835144,1.89536714553833,0.8842362761497498
1730865591.798932,-1.713347315788269,1.1349200010299683,-9.915205955505371,-0.004195216470305284,-0.024052582502327502,-0.03884382787297775,1.2799715995788574,1.8978170156478882,0.8843843936920166
1730865591.8489177,-1.6991162300109863,1.0568413734436035,-9.93133544921875,-0.005907778268465478,-0.042849696368254364,-0.04635810288327319,1.2798563241958618,1.8895174264907837,0.8845908045768738
1730865591.8989258,-1.6993534564971924,1.0022063255310059,-9.928766250610352,-0.006463879731360188,-0.041606045243186854,-0.049503847838149546,1.2798550128936768,1.8902668952941895,0.8846297264099121
1730865591.9488134,-1.7113265991210938,1.0512017011642456,-9.925236701965332,-0.0052406275518743755,-0.01853039910423148,-0.04851462498554073,1.279924988746643,1.879333734512329,0.8851045370101929
1730865591.9988074,-1.7222779989242554,1.0851080417633057,-9.89986801147461,-0.0029618377974796996,0.01657563894994782,-0.0430936376082441,1.2799403667449951,1.877000093460083,0.8851323127746582
1730865592.048807,-1.7213276624679565,1.106407880783081,-9.890052795410156,-0.0011577633050565618,0.04734950890864295,-0.032780179222733276,1.2819468975067139,1.8696892261505127,0.8858827948570251
1730865592.0988321,-1.7094149589538574,1.1303424835205078,-9.873638153076172,-0.0008948826169846063,0.06030234060839626,-0.018223018664255932,1.2826294898986816,1.866184949874878,0.8860694766044617
1730865592.1489067,-1.7301855087280273,1.1329739093780518,-9.850666046142578,-0.0019557279081287068,0.051459799543665107,-0.001641266102807899,1.2833080291748047,1.8628225326538086,0.8862312436103821
1730865592.1988008,-1.7490921020507812,1.1146090030670166,-9.832716941833496,-0.003435320043265482,0.026753758907417376,0.014094747735037485,1.2839775085449219,1.8595696687698364,0.8864078521728516
1730865592.248819,-1.75205397605896,1.1058918237686157,-9.811352729797363,-0.005100143914726593,-0.0026104955175555366,0.027231402262860072,1.2846434116363525,1.8563120365142822,0.8866386413574219
1730865592.2989445,-1.7450438737869263,1.0886543989181519,-9.814532279968262,-0.007655008109195004,-0.025889948895317948,0.03797565150684761,1.2835664749145508,1.863515853881836,0.8865947127342224
1730865592.3487945,-1.764780044555664,1.125638723373413,-9.812201499938965,-0.011614411681726923,-0.03683947685447628,0.04718652879077457,1.2838895320892334,1.8618559837341309,0.8869010806083679
1730865592.398907,-1.766294002532959,1.1726797819137573,-9.81135368347168,-0.016438883691085947,-0.035783663617921777,0.05405447371661397,1.284177303314209,1.8601067066192627,0.8873337507247925
1730865592.448769,-1.7659955024719238,1.215523600578308,-9.813610076904297,-0.02088267329429274,-0.029318808946181305,0.05581297542071364,1.284976840019226,1.8433406352996826,0.8873677253723145
1730865592.499646,-1.7537466287612915,1.2200111150741577,-9.826689720153809,-0.023712903804190152,-0.02620053933333202,0.05027430462063584,1.2853929996490479,1.837246060371399,0.887867271900177
1730865592.5496716,-1.7732454538345337,1.2201341390609741,-9.836679458618164,-0.0239373473151306,-0.03065706203993275,0.03787821569199558,1.2857468128204346,1.8311160802841187,0.8884749412536621
1730865592.5995958,-1.758342981338501,1.230372428894043,-9.861529350280762,-0.021047653884534653,-0.039375084263352574,0.02113224996182824,1.2863224744796753,1.8545585870742798,0.8879950642585754
1730865592.6496384,-1.7265435457229614,1.254645586013794,-9.864341735839844,-0.015351619219827396,-0.04573450704041801,0.0031337462986425783,1.2866955995559692,1.8554151058197021,0.8883504271507263
1730865592.6996546,-1.7091233730316162,1.2388296127319336,-9.874214172363281,-0.007482618462509008,-0.04572816373367635,-0.012956679843221167,1.2886176109313965,1.866959810256958,0.8874308466911316
1730865592.7496467,-1.7135982513427734,1.1784336566925049,-9.877266883850098,0.002041829295541778,-0.0391906229115105,-0.024139551182125202,1.289500117301941,1.8704330921173096,0.8873416781425476
1730865592.79959,-1.7283896207809448,1.119641661643982,-9.870433807373047,0.011801887814730906,-0.0269491280433909,-0.028565367765877918,1.2904000282287598,1.8738247156143188,0.8871867656707764
1730865592.8496294,-1.7306462526321411,1.098185658454895,-9.860124588012695,0.018722945853051485,-0.008381415087049825,-0.026285322032821367,1.2913414239883423,1.8771841526031494,0.8869625329971313
1730865592.899568,-1.719444990158081,1.108996033668518,-9.853816986083984,0.019738654888301566,0.01765074912228377,-0.01885519942186272,1.2899330854415894,1.8788341283798218,0.8869203925132751
1730865592.9495454,-1.7241512537002563,1.1127773523330688,-9.82294750213623,0.014272501954081434,0.04928906126953912,-0.008448759119348143,1.2904365062713623,1.8816324472427368,0.8867599368095398
1730865592.9995646,-1.7621158361434937,1.0984224081039429,-9.827560424804688,0.004575142310282802,0.07918284258029074,0.002844531223381573,1.2915207147598267,1.8917279243469238,0.886553168296814
1730865593.0495524,-1.73941171169281,1.0742920637130737,-9.829395294189453,-0.00602930897936339,0.09715156227184592,0.013182853879934738,1.2933809757232666,1.9320662021636963,0.886743426322937
1730865593.0995388,-1.7270286083221436,1.0696901082992554,-9.83831787109375,-0.01439715353192577,0.09699710024639373,0.02065286843251769,1.2944620847702026,1.9507259130477905,0.8867900967597961
1730865593.1495056,-1.712222933769226,1.0640684366226196,-9.870257377624512,-0.017830436843242956,0.08032635384300826,0.023248602510524297,1.2955127954483032,1.9697891473770142,0.8868928551673889
1730865593.1994703,-1.7213973999023438,1.109652042388916,-9.867985725402832,-0.01494850455919633,0.05418589707334569,0.019526145577300105,1.2965028285980225,1.9886561632156372,0.8870465755462646
1730865593.249564,-1.6843305826187134,1.1131573915481567,-9.90003776550293,-0.006466801585109587,0.026246509479546386,0.009332800302314013,1.2960646152496338,1.9785014390945435,0.8869538307189941
1730865593.299529,-1.6978424787521362,1.133506178855896,-9.886960983276367,0.005263673088299276,0.0016958569373456845,-0.0056682547966110525,1.2983156442642212,2.0142600536346436,0.8870372772216797
1730865593.3494036,-1.7068448066711426,1.073006272315979,-9.915060997009277,0.016780837521396176,-0.016478120428275903,-0.021659620799380108,1.2995256185531616,2.033407211303711,0.8870605230331421
1730865593.3994734,-1.6933324337005615,1.078847885131836,-9.90542221069336,0.02416981441851489,-0.025519779287222717,-0.03382448098574643,1.30126953125,2.0606722831726074,0.8869739770889282
1730865593.449441,-1.6755390167236328,1.088262915611267,-9.90966796875,0.025120463774379934,-0.023288368911533963,-0.039032900564328274,1.3026509284973145,2.0810494422912598,0.8868389129638672
1730865593.4993496,-1.6742924451828003,1.120381236076355,-9.875659942626953,0.02063332192053644,-0.011556886319501511,-0.036952944474310516,1.3040851354599,2.1013150215148926,0.8866090774536133
1730865593.549462,-1.6909080743789673,1.1141996383666992,-9.86785888671875,0.014046913581865841,0.002779729066386282,-0.02871290742443909,1.3039000034332275,2.0173308849334717,0.8868892192840576
1730865593.599356,-1.7129151821136475,1.1032578945159912,-9.847248077392578,0.008360703927907748,0.011799920355536227,-0.015840745829610495,1.3050249814987183,2.012022018432617,0.8867395520210266
1730865593.6493456,-1.723581314086914,1.1001516580581665,-9.835930824279785,0.004301725176725693,0.012111637754580665,-0.0005596179897406511,1.3056929111480713,1.9732180833816528,0.8869191408157349
1730865593.6994255,-1.6994061470031738,1.098920464515686,-9.839730262756348,0.0007826959049180183,0.006202193848550808,0.014033850598787851,1.307777762413025,1.9083306789398193,0.886976957321167
1730865593.7494984,-1.6901956796646118,1.1249927282333374,-9.826600074768066,-0.0027616857404908473,-0.0010606980233876517,0.024715034291836684,1.3091703653335571,1.8775935173034668,0.8870266079902649
1730865593.7992747,-1.7247880697250366,1.1341806650161743,-9.83398151397705,-0.005366358262190154,-0.006616199680193939,0.029353143379247472,1.310533046722412,1.8472864627838135,0.8871424794197083
1730865593.8493285,-1.7572942972183228,1.1374098062515259,-9.824498176574707,-0.006499299393959617,-0.010480234792728412,0.02791343022808461,1.30924654006958,1.8460901975631714,0.8870631456375122
1730865593.899297,-1.787406325340271,1.1087013483047485,-9.84160327911377,-0.007744498721060514,-0.013926162833917441,0.02226770850612095,1.3098969459533691,1.8259074687957764,0.8871936798095703
1730865593.9492855,-1.772452712059021,1.1448782682418823,-9.833919525146484,-0.011228832408260449,-0.01692856414911903,0.014738578885673075,1.3081406354904175,1.7760614156723022,0.8870805501937866
1730865593.9991999,-1.7582881450653076,1.1519715785980225,-9.848560333251953,-0.016870572673537254,-0.017961070462102473,0.006909295292694441,1.3080694675445557,1.7459862232208252,0.8871674537658691
1730865594.0492446,-1.7744863033294678,1.1595027446746826,-9.83802604675293,-0.0219772763100944,-0.016165456142349405,-0.00031030834816956417,1.3070917129516602,1.704756259918213,0.8870517611503601
1730865594.099231,-1.7899010181427002,1.1025432348251343,-9.869269371032715,-0.023570022012162035,-0.012205410673065836,-0.006269647046190303,1.306739330291748,1.6703890562057495,0.8870688080787659
1730865594.1493216,-1.8051068782806396,1.1050816774368286,-9.862679481506348,-0.020986910024872373,-0.006519573844802494,-0.010781372322651122,1.3063302040100098,1.6359314918518066,0.8870643973350525
1730865594.199184,-1.76714289188385,1.1180944442749023,-9.878317832946777,-0.0161780451458394,0.0016936231324500169,-0.014385019508904502,1.3062903881072998,1.6398568153381348,0.8869961500167847
1730865594.2492573,-1.7640035152435303,1.1293143033981323,-9.88270092010498,-0.011547782976409626,0.012604564854712525,-0.017826770947792364,1.3059550523757935,1.6122348308563232,0.8869341611862183
1730865594.299126,-1.7565912008285522,1.1418933868408203,-9.888143539428711,-0.007985655164234922,0.023550985689208496,-0.021074682466645463,1.3049137592315674,1.5812865495681763,0.8869506120681763
1730865594.349192,-1.7749513387680054,1.1572920083999634,-9.885732650756836,-0.005130684482439147,0.029848691359461617,-0.02303828190892783,1.3044410943984985,1.5564380884170532,0.8868476152420044
1730865594.399163,-1.7529985904693604,1.1587889194488525,-9.890311241149902,-0.0027616551248081135,0.028122108279954365,-0.02245607143486409,1.303933024406433,1.5303575992584229,0.8866783976554871
1730865594.4491873,-1.752954125404358,1.1504360437393188,-9.878616333007812,-0.001155623681362023,0.018716381211488515,-0.01892284172720493,1.3034641742706299,1.5065906047821045,0.8864740133285522
1730865594.499197,-1.7325708866119385,1.1157054901123047,-9.883493423461914,-0.00027597209804858616,0.005402348664853607,-0.0130808874807581,1.303367257118225,1.5101165771484375,0.8869163990020752
1730865594.549054,-1.7228293418884277,1.1115933656692505,-9.861472129821777,0.0006655001329780922,-0.00656457972132226,-0.006133288230477879,1.30296790599823,1.4901349544525146,0.8868358135223389
1730865594.5990894,-1.7383675575256348,1.0729681253433228,-9.850459098815918,0.002457021219526309,-0.012788607178436067,0.0008789734678942131,1.3043156862258911,1.4328765869140625,0.8869526386260986
1730865594.6491375,-1.754438042640686,1.074462652206421,-9.841059684753418,0.004781130847185044,-0.011521121904874993,0.00748083887466197,1.3044682741165161,1.3989557027816772,0.8869409561157227
1730865594.69903,-1.7364157438278198,1.0975289344787598,-9.815296173095703,0.006232400326702431,-0.004347043131829709,0.013429156193069386,1.3046340942382812,1.3651201725006104,0.8869553804397583
1730865594.7491121,-1.7046027183532715,1.0973918437957764,-9.823759078979492,0.0058414233165126365,0.004311242414260959,0.018409413290443155,1.3048166036605835,1.3309797048568726,0.8870100975036621
1730865594.7989964,-1.7056751251220703,1.118204116821289,-9.820476531982422,0.004529430558441787,0.009296799482766379,0.022289980307230055,1.3051294088363647,1.4512736797332764,0.8870214223861694
1730865594.8490837,-1.7181450128555298,1.1303941011428833,-9.832493782043457,0.004400983355898452,0.007506984136609717,0.02499610781120974,1.3053114414215088,1.4468369483947754,0.8871223330497742
1730865594.8989766,-1.7235723733901978,1.139276146888733,-9.821890830993652,0.006220388047058822,-0.000599425281758971,0.02586330030601209,1.3055050373077393,1.4424487352371216,0.8872856497764587
1730865594.9488747,-1.715099573135376,1.1526187658309937,-9.840462684631348,0.008279917149503453,-0.011710525096301102,0.02373747770366192,1.3056533336639404,1.4708505868911743,0.8870812058448792
1730865594.9989374,-1.7429057359695435,1.1352099180221558,-9.844036102294922,0.00810132305302124,-0.021829398434150826,0.01805361671106267,1.30583918094635,1.4712404012680054,0.8872030973434448
1730865595.0490012,-1.7370755672454834,1.1407345533370972,-9.848094940185547,0.004451396859050775,-0.027734205558350766,0.00967383518176045,1.3060436248779297,1.4715731143951416,0.8873617053031921
1730865595.0989435,-1.738389015197754,1.169912338256836,-9.846660614013672,-0.002241279557258,-0.027557900973619095,0.0006621397566049525,1.307020664215088,1.4911895990371704,0.8870696425437927
1730865595.148891,-1.761665940284729,1.1448137760162354,-9.847281455993652,-0.010398415397676254,-0.021649291933873348,-0.00673248557263042,1.3074036836624146,1.4952797889709473,0.8870980739593506
1730865595.1988492,-1.7457878589630127,1.126975178718567,-9.8363676071167,-0.017993414247062585,-0.01218532133295491,-0.010971365222953102,1.3083916902542114,1.5086508989334106,0.8870134353637695
1730865595.248946,-1.7227840423583984,1.1495215892791748,-9.85661792755127,-0.023032736857777125,-0.0014746898721884,-0.01160570322703963,1.3119741678237915,1.521469235420227,0.8869849443435669
1730865595.2989037,-1.7280519008636475,1.1720466613769531,-9.853251457214355,-0.02384390451852679,0.008133434400735759,-0.009455320327187634,1.3133429288864136,1.5287386178970337,0.8869359493255615
1730865595.3489213,-1.7371740341186523,1.1501798629760742,-9.859830856323242,-0.019989819763756862,0.013749068609392406,-0.00619970170744769,1.3146488666534424,1.535989761352539,0.8868678212165833
1730865595.3988273,-1.7488077878952026,1.1128631830215454,-9.868827819824219,-0.013259354671296233,0.01377009365694186,-0.0033596777453500388,1.3162524700164795,1.5403311252593994,0.8869686722755432
1730865595.448839,-1.7699757814407349,1.0428977012634277,-9.884243965148926,-0.007005003412049253,0.010150056770428822,-0.0018480143871700055,1.3174748420715332,1.5465549230575562,0.88694167137146
1730865595.4987931,-1.7283916473388672,1.0515738725662231,-9.892119407653809,-0.003897546368560984,0.007749058073385326,-0.002180562627327367,1.3186886310577393,1.55282723903656,0.8869094252586365
1730865595.5487852,-1.7392973899841309,1.046750545501709,-9.90984058380127,-0.004008773372081886,0.0110520610795692,-0.004616908476721349,1.319894790649414,1.5591349601745605,0.8868686556816101
1730865595.598768,-1.7379299402236938,1.0515072345733643,-9.91302490234375,-0.005090430281335036,0.021254341715261908,-0.009248786216765644,1.3209779262542725,1.5566201210021973,0.8869708180427551
1730865595.6486995,-1.725706696510315,1.0601389408111572,-9.905806541442871,-0.004747571181618314,0.03563517578805808,-0.015714191420115535,1.322190284729004,1.561541199684143,0.8869204521179199
1730865595.6986496,-1.7038975954055786,1.077383279800415,-9.907876968383789,-0.0019708780873303588,0.0485160136951226,-0.022313103589592962,1.325430154800415,1.5768965482711792,0.8869473338127136
1730865595.7486699,-1.701802372932434,1.0841189622879028,-9.891870498657227,0.0029747176487465695,0.053566500797508326,-0.026063235043276064,1.3270856142044067,1.5845218896865845,0.8868400454521179
1730865595.7986803,-1.7429929971694946,1.0996724367141724,-9.869237899780273,0.008681244295887415,0.04740449797547463,-0.02439471558613338,1.3310476541519165,1.6010408401489258,0.8869162201881409
1730865595.84862,-1.7477080821990967,1.1008435487747192,-9.842676162719727,0.012497006312971529,0.031692446907509754,-0.016610648031417673,1.3336405754089355,1.6250669956207275,0.886925220489502
1730865595.898602,-1.7836865186691284,1.067913293838501,-9.823204040527344,0.011838551286611734,0.012042303643583864,-0.004158352679719797,1.3359932899475098,1.6408048868179321,0.8868430256843567
1730865595.9486253,-1.7820786237716675,1.086943507194519,-9.803007125854492,0.005991162145146113,-0.004636929987851302,0.00989787822279332,1.3383827209472656,1.6566487550735474,0.8867676258087158
1730865595.9985838,-1.7505321502685547,1.0993412733078003,-9.809561729431152,-0.0036425786377802284,-0.013212167426459769,0.02231580941883795,1.3407670259475708,1.67241632938385,0.8867326974868774
1730865596.0486214,-1.7391694784164429,1.0837239027023315,-9.79960823059082,-0.014075821672469208,-0.012670763812078475,0.031199811385839497,1.335716724395752,1.6401771306991577,0.8869930505752563
1730865596.0985541,-1.7678630352020264,1.0318584442138672,-9.815424919128418,-0.021715822143497245,-0.005546460611660918,0.036080747846233344,1.3366447687149048,1.6466615200042725,0.8871151804924011
1730865596.1485784,-1.7592803239822388,1.0580928325653076,-9.802144050598145,-0.024472842712086475,0.004828154818130673,0.03673844343488075,1.3375191688537598,1.6531742811203003,0.8873292207717896
1730865596.1995416,-1.7754241228103638,1.109596610069275,-9.827431678771973,-0.023143704339200277,0.015595800090233689,0.03263548179550702,1.3383443355560303,1.6598021984100342,0.8876351118087769
1730865596.2495651,-1.7538225650787354,1.151685357093811,-9.825697898864746,-0.020339797819856655,0.023304970000325807,0.023691144851473937,1.3398460149765015,1.6521564722061157,0.8891422748565674
1730865596.2994988,-1.7889460325241089,1.1443415880203247,-9.852221488952637,-0.018410869588663545,0.02398417712785647,0.01104228226433737,1.340950846672058,1.65708589553833,0.8896837830543518
1730865596.3494768,-1.7695598602294922,1.1436845064163208,-9.87524127960205,-0.01835639688976074,0.01628451847103809,-0.0031759166291411497,1.3440937995910645,1.6625694036483765,0.8911842107772827
1730865596.3994462,-1.759399175643921,1.128300666809082,-9.893887519836426,-0.019737234589814502,0.003748771990846666,-0.016657536459494898,1.3480063676834106,1.6730180978775024,0.8928096890449524
1730865596.4495711,-1.7349787950515747,1.0993489027023315,-9.906513214111328,-0.020787318665090322,-0.007389034509532286,-0.027407057577510587,1.3500738143920898,1.6793739795684814,0.893649160861969
1730865596.4994977,-1.7191563844680786,1.0477573871612549,-9.916781425476074,-0.019007757261682266,-0.011920065735233134,-0.03379250169946111,1.3527534008026123,1.6873295307159424,0.8948901295661926
1730865596.549594,-1.722201943397522,1.060347080230713,-9.908947944641113,-0.012725166147717591,-0.007577252432339704,-0.03499348711144244,1.3549727201461792,1.6943365335464478,0.8957524299621582
1730865596.5994494,-1.739113450050354,1.0637749433517456,-9.907065391540527,-0.0028639424329738017,0.0037771920861649306,-0.031304308111956364,1.357154369354248,1.7012816667556763,0.8965246677398682
1730865596.6495721,-1.7097606658935547,1.0771211385726929,-9.891295433044434,0.006974476146054487,0.016175420089493932,-0.02367121089046406,1.3593536615371704,1.7082915306091309,0.8972322344779968
1730865596.6994236,-1.7060930728912354,1.1048768758773804,-9.88768196105957,0.013096142866578524,0.022669367407194323,-0.013271677314438256,1.3569666147232056,1.697554588317871,0.8962730765342712
1730865596.749572,-1.7169115543365479,1.1058896780014038,-9.874262809753418,0.014328610830756483,0.01936218090048615,-0.0015417270063419089,1.3584078550338745,1.7014282941818237,0.8967136740684509
1730865596.7994657,-1.709573745727539,1.1085199117660522,-9.864591598510742,0.011777493784692701,0.007439752307163622,0.009709294727237229,1.360446810722351,2.083503246307373,0.8979318141937256
1730865596.8493643,-1.7441903352737427,1.0707378387451172,-9.859369277954102,0.007005953492106209,-0.0074588777323644235,0.01855586470334792,1.3622806072235107,2.2101902961730957,0.8987405896186829
1730865596.8993945,-1.7207287549972534,1.0434966087341309,-9.845393180847168,0.0010373323223087873,-0.018074331100256122,0.023623113315853338,1.3641260862350464,2.3369524478912354,0.8996027112007141
1730865596.9493597,-1.7252541780471802,1.0386091470718384,-9.839146614074707,-0.005429579308020418,-0.018738724699988184,0.024720885540900458,1.3634982109069824,2.390287399291992,0.8992920517921448
1730865596.9993036,-1.7096059322357178,1.074979305267334,-9.835895538330078,-0.011318551225826097,-0.008071216513389398,0.02293835230627446,1.364589810371399,2.478733777999878,0.8998743295669556
1730865597.0492861,-1.714469313621521,1.101967215538025,-9.814817428588867,-0.014956355730680092,0.00902479257358051,0.01989868822153599,1.367113709449768,2.7484359741210938,0.9009990692138672
1730865597.0992692,-1.7353339195251465,1.1071361303329468,-9.830657005310059,-0.014965037463110214,0.023047174347300234,0.016787715665899292,1.3687459230422974,2.9013376235961914,0.9018687605857849
1730865597.1494012,-1.7679649591445923,1.0703715085983276,-9.830649375915527,-0.011893121513130314,0.026580274426980403,0.013801161940080728,1.3697841167449951,3.087894916534424,0.9026399254798889
1730865597.1993313,-1.7771202325820923,1.0574222803115845,-9.856680870056152,-0.008601899116177177,0.019806388062575814,0.010139314931803537,1.3712824583053589,3.2585196495056152,0.903563916683197
1730865597.2492998,-1.7242581844329834,1.051182508468628,-9.866937637329102,-0.007707266032700042,0.008892667596581395,0.004742357760367234,1.372768759727478,3.4301207065582275,0.904511570930481
1730865597.2992802,-1.7307195663452148,1.080298662185669,-9.87178897857666,-0.008471776972825383,0.00023627909810109392,-0.002849423916801733,1.3742316961288452,3.601375102996826,0.9054596424102783
1730865597.3492613,-1.7278698682785034,1.0851917266845703,-9.899014472961426,-0.007340504199654577,-0.0034144546454602464,-0.012370801356868822,1.3719373941421509,3.3554632663726807,0.9038184881210327
1730865597.3992147,-1.7307440042495728,1.0741536617279053,-9.897319793701172,-0.0016693645115010444,-0.0030571868786084208,-0.022945313309077193,1.3706626892089844,3.6104588508605957,0.9029893279075623
1730865597.449286,-1.7247533798217773,1.0577850341796875,-9.895645141601562,0.007603181454957343,-0.0009961507799115146,-0.032544208308387626,1.3707430362701416,3.753605604171753,0.9029055833816528
1730865597.4992747,-1.7209320068359375,1.0982316732406616,-9.883350372314453,0.0167575482731526,0.0012538578710888624,-0.03790084277599446,1.3708534240722656,3.895872116088867,0.9027339816093445
1730865597.5492713,-1.7143465280532837,1.1025111675262451,-9.870643615722656,0.02230822077155665,0.002705469830323323,-0.036231583734375725,1.3710126876831055,4.038270473480225,0.9024693965911865
1730865597.5991755,-1.7220600843429565,1.13001549243927,-9.850019454956055,0.02315854245508591,0.0018869190585948199,-0.026985042297200973,1.3690462112426758,3.9211251735687256,0.9020990133285522
1730865597.6491692,-1.7281911373138428,1.148434042930603,-9.822110176086426,0.020333316812902277,-0.0026536444300672484,-0.011879295488035143,1.3689212799072266,4.010600566864014,0.901852011680603
1730865597.699137,-1.7613810300827026,1.1504411697387695,-9.81326675415039,0.01528626652905405,-0.010770071661719458,0.005851788106278425,1.3675786256790161,4.245256423950195,0.9015863537788391
1730865597.7491863,-1.7937614917755127,1.1016297340393066,-9.796077728271484,0.008568566967994047,-0.019802819951870398,0.022324792706526132,1.3671247959136963,4.3960113525390625,0.9013872146606445
1730865597.7990723,-1.8257741928100586,1.0742088556289673,-9.796035766601562,-0.00011362092002724236,-0.02505996114428766,0.03413112434021681,1.3662930727005005,4.5579962730407715,0.9012220501899719
1730865597.8490915,-1.7729774713516235,1.0898085832595825,-9.795940399169922,-0.010498506494370287,-0.022092286993757,0.03928684823288465,1.3657127618789673,4.717947483062744,0.901147723197937
1730865597.8990638,-1.757308006286621,1.0876516103744507,-9.807382583618164,-0.01977013342891269,-0.010542629280826919,0.037515232381852635,1.3650970458984375,4.87719202041626,0.9011697173118591
1730865597.9492533,-1.7489893436431885,1.0562841892242432,-9.846698760986328,-0.02245649395159977,0.004503247990442781,0.029752046857125222,1.3644893169403076,4.80649995803833,0.9010637402534485
1730865597.9990103,-1.7814964056015015,1.0932977199554443,-9.857254981994629,-0.014499285834861032,0.016306733971585642,0.017454989243886363,1.3638710975646973,4.9057817459106445,0.9011098742485046
1730865598.0490174,-1.7771111726760864,1.1116085052490234,-9.883098602294922,0.0017597251429745135,0.020442262456019315,0.002654089994983097,1.3629441261291504,4.738964557647705,0.9007404446601868
1730865598.0990129,-1.7697480916976929,1.1413432359695435,-9.885811805725098,0.018105244836570628,0.015428091784150562,-0.011806348171061035,1.3622536659240723,4.760887622833252,0.9006315469741821
1730865598.149041,-1.751497745513916,1.1649202108383179,-9.917448997497559,0.026939396301248447,0.0025480312173644035,-0.02300240999515919,1.3616125583648682,4.78306245803833,0.9004776477813721
1730865598.1989791,-1.7290722131729126,1.1534984111785889,-9.92528247833252,0.02675037102504173,-0.014496383487899117,-0.029354553538509853,1.3610422611236572,4.805100440979004,0.9002590775489807
1730865598.2490952,-1.7384421825408936,1.118396520614624,-9.946737289428711,0.021674544942229777,-0.031029452436781835,-0.03162107974304955,1.3615564107894897,4.686435699462891,0.9004679322242737
1730865598.29897,-1.701387882232666,1.070204496383667,-9.913471221923828,0.01732287040074134,-0.042467085515002556,-0.03201263292067222,1.3612112998962402,4.6878838539123535,0.9002618789672852
1730865598.349081,-1.7011979818344116,1.0456502437591553,-9.899568557739258,0.01712155946789396,-0.04457191395759441,-0.0312849296272379,1.3609052896499634,4.689239978790283,0.8999741673469543
1730865598.398977,-1.6888307332992554,1.0566376447677612,-9.858935356140137,0.021340358544276905,-0.034591105903258465,-0.027037231666193484,1.3611265420913696,4.661378860473633,0.9002317190170288
1730865598.4489322,-1.7192479372024536,1.0416643619537354,-9.845903396606445,0.027945937473324377,-0.01353249557567553,-0.016052082893936986,1.3609960079193115,4.659263610839844,0.9000312089920044
1730865598.498897,-1.7151516675949097,1.0191116333007812,-9.827605247497559,0.03326806625687641,0.012820965688182976,0.0015464689213455741,1.3609418869018555,4.657151699066162,0.8998129963874817
1730865598.548968,-1.758594274520874,1.0097535848617554,-9.825434684753418,0.03287335204648171,0.036489795719030806,0.021220969675526762,1.360970377922058,4.655091762542725,0.8996223211288452
1730865598.5989127,-1.738533616065979,1.0488361120224,-9.81623363494873,0.02369122960915579,0.05162038616935217,0.0372759339314483,1.362141489982605,4.642268657684326,0.8999912738800049
1730865598.6488514,-1.7617924213409424,1.0349297523498535,-9.835814476013184,0.006172912814497194,0.05630688973524249,0.046226309012177384,1.3623806238174438,4.6389994621276855,0.9000465869903564
1730865598.6988788,-1.7614940404891968,1.0370457172393799,-9.842076301574707,-0.01522933960865857,0.05168990958880866,0.046900143317222254,1.3626073598861694,4.635880470275879,0.9002178907394409
1730865598.748916,-1.766884446144104,1.0415668487548828,-9.873006820678711,-0.03409243792232514,0.04083308003425316,0.03914689226591016,1.36227285861969,4.629647731781006,0.8999260067939758
1730865598.7988386,-1.7509377002716064,1.0044903755187988,-9.877531051635742,-0.04529424809582793,0.02782341558398449,0.023963931294230537,1.3622039556503296,4.625805854797363,0.9000413417816162
1730865598.8489041,-1.7453542947769165,1.0261976718902588,-9.8826904296875,-0.04661866857813746,0.016700128039749653,0.004628944945096644,1.363523244857788,4.615177631378174,0.8997389674186707
1730865598.898738,-1.7498812675476074,1.062611699104309,-9.881860733032227,-0.03855825955479389,0.0099590046091282,-0.013519237550062355,1.3636655807495117,4.610334396362305,0.8997194766998291
1730865598.9488583,-1.7566797733306885,1.0844746828079224,-9.880301475524902,-0.024219118858085455,0.006858781935455315,-0.025420695014884077,1.365227222442627,4.601261615753174,0.8995487689971924
1730865598.9987688,-1.771225929260254,1.0755691528320312,-9.87851619720459,-0.008771392786265422,0.003946243407072392,-0.02868963448583362,1.3657194375991821,4.5953803062438965,0.8994014859199524
1730865599.0488248,-1.7921431064605713,1.0576707124710083,-9.872528076171875,0.0025650434132208945,-0.0011605845937434547,-0.024172512394328684,1.3662058115005493,4.589479923248291,0.899187445640564
1730865599.0986662,-1.785644292831421,1.0155813694000244,-9.867497444152832,0.0065712357646565914,-0.006706850791764089,-0.014853143187223212,1.3666998147964478,4.583615303039551,0.8989266157150269
1730865599.1487412,-1.7345033884048462,1.0359630584716797,-9.866899490356445,0.0031086125134404253,-0.008099548464247682,-0.004171724868115622,1.3672090768814087,4.577693939208984,0.8986403942108154
1730865599.1986477,-1.709503412246704,1.0166901350021362,-9.871627807617188,-0.004428416574100657,-0.001818321500466413,0.005196694578853005,1.3677173852920532,4.571750164031982,0.8983550071716309
1730865599.2486494,-1.7059078216552734,0.9914587736129761,-9.865065574645996,-0.01016945180039519,0.012197507464584005,0.011744697842425862,1.3666826486587524,4.585729122161865,0.8994004130363464
1730865599.2986567,-1.7186344861984253,0.9402386546134949,-9.866700172424316,-0.009229963922719278,0.03109681390944888,0.01504511346061591,1.3669320344924927,4.582522392272949,0.8993969559669495
1730865599.3486936,-1.6942440271377563,0.9523008465766907,-9.86063003540039,-0.0012938206512988068,0.0504712521942093,0.015397876197132431,1.3708901405334473,4.570327281951904,0.8993805050849915
1730865599.3986132,-1.7175952196121216,0.9796178936958313,-9.865543365478516,0.00934813006577939,0.06506808441073905,0.013434655336601884,1.3721485137939453,4.5648651123046875,0.8994091153144836
1730865599.4486966,-1.7255089282989502,1.0080287456512451,-9.846075057983398,0.017050946578115345,0.06967557501103402,0.010015683617577074,1.3734498023986816,4.559530258178711,0.899467408657074
1730865599.498629,-1.7630906105041504,1.004967451095581,-9.852815628051758,0.017688220851892034,0.06081631010293406,0.006319176500322019,1.3752437829971313,4.551119804382324,0.8993074893951416
1730865599.5487108,-1.8043702840805054,0.9965152144432068,-9.844161033630371,0.009731313603975725,0.039117454798365765,0.0036214587793018845,1.3765838146209717,4.545502662658691,0.8993170857429504
1730865599.5985558,-1.787334680557251,1.0180492401123047,-9.849335670471191,-0.005262841314932901,0.010621390268621623,0.002671573601673564,1.3801870346069336,4.52979040145874,0.8991812467575073
1730865599.6486142,-1.757080078125,1.0706191062927246,-9.858051300048828,-0.02252452402137203,-0.015811308262769955,0.0032348368840976085,1.382300615310669,4.5204925537109375,0.8991528153419495
1730865599.698526,-1.757080078125,1.0706191062927246,-9.858051300048828,-0.03534583504361497,-0.03392049508071142,0.004213546356735936,1.384681224822998,4.513516426086426,0.8990669250488281
1730865599.698526,-1.7148994207382202,1.0743175745010376,-9.85269832611084,-0.03800882784973983,-0.04268132731501266,0.004351966439285076,1.3847140073776245,4.513382911682129,0.8990663886070251
1730865599.7485826,-1.7048791646957397,1.0693937540054321,-9.877126693725586,-0.028633811712496692,-0.04397291926305875,0.003080604783520249,1.3868151903152466,4.504645824432373,0.8990343809127808
1730865599.7985406,-1.7108392715454102,1.0754344463348389,-9.882387161254883,-0.00977241874846374,-0.03961708131459747,0.0005260746811647616,1.3888787031173706,4.495765209197998,0.899006724357605
1730865599.849496,-1.6981221437454224,1.0655312538146973,-9.882131576538086,0.013286628702527333,-0.031136772559321978,-0.003158302773711174,1.3905012607574463,4.4964985847473145,0.898968517780304
1730865599.899485,-1.6940562725067139,1.0941802263259888,-9.904532432556152,0.03472575961135527,-0.020658243715740467,-0.007886895409805693,1.3923687934875488,4.490353584289551,0.8989228010177612
1730865599.9495437,-1.701062798500061,1.1074848175048828,-9.889972686767578,0.04951182638089413,-0.011137975008594304,-0.013131014099260846,1.3943501710891724,4.484142780303955,0.8988504409790039
1730865599.999504,-1.699482798576355,1.1015801429748535,-9.89096736907959,0.05422320429291401,-0.005741917669534221,-0.017717899278108816,1.3963541984558105,4.481066703796387,0.8989502787590027
1730865600.049357,-1.7170530557632446,1.0595027208328247,-9.89752197265625,0.048213962421967294,-0.006020893526691151,-0.020301560582680202,1.3985891342163086,4.4751715660095215,0.8988627791404724
1730865600.099417,-1.7072442770004272,1.0655444860458374,-9.889803886413574,0.034030238616353334,-0.009861207544084663,-0.020112799294301445,1.4009373188018799,4.469228744506836,0.8987244367599487
1730865600.1494074,-1.680128574371338,1.0828261375427246,-9.866316795349121,0.01637294121312056,-0.012296957893341582,-0.017162626987590163,1.400051474571228,4.461057662963867,0.8989266753196716
1730865600.199329,-1.7081055641174316,1.073100209236145,-9.85116958618164,0.00040782780976559045,-0.009503206099062057,-0.01180433462160222,1.4016674757003784,4.454298973083496,0.898835301399231
1730865600.2494614,-1.6955288648605347,1.0601876974105835,-9.81264591217041,-0.010352726629254131,-0.001596890339604153,-0.004408986319996724,1.403909683227539,4.4443206787109375,0.8988212943077087
1730865600.2993796,-1.7181910276412964,1.0541739463806152,-9.818387985229492,-0.015463520565662253,0.008368221925389819,0.004463602021701831,1.411091685295105,4.43015718460083,0.8987507224082947
1730865600.3494208,-1.7357594966888428,1.0693073272705078,-9.785134315490723,-0.01673712044530004,0.016781786709729928,0.01355961226952982,1.4144654273986816,4.421429634094238,0.8987134695053101
1730865600.3993037,-1.7917253971099854,1.1061937808990479,-9.798267364501953,-0.016653414806037003,0.020612076248728763,0.021044188449384417,1.4177838563919067,4.412784576416016,0.8987193703651428
1730865600.4492621,-1.806741714477539,1.1011161804199219,-9.796547889709473,-0.017966305303363312,0.017689523258175733,0.025625774633755885,1.4210644960403442,4.404172897338867,0.8987833261489868
1730865600.4992208,-1.8360979557037354,1.0949084758758545,-9.816685676574707,-0.023644605299981518,0.007479415991688508,0.027115152997080477,1.4193761348724365,4.412909030914307,0.8987109065055847
1730865600.5493686,-1.8077176809310913,1.1261297464370728,-9.832674026489258,-0.035085312691648454,-0.00798883639380744,0.025742350161133205,1.421481966972351,4.407778263092041,0.8988071084022522
1730865600.5992126,-1.7993342876434326,1.160546898841858,-9.863235473632812,-0.049001160750213324,-0.02469776416671617,0.021370747335598128,1.4234596490859985,4.4026641845703125,0.8989609479904175
1730865600.649308,-1.788899302482605,1.1837855577468872,-9.869314193725586,-0.05743636181590364,-0.0390736615438161,0.013389660564101,1.4264625310897827,4.396494388580322,0.8986432552337646
1730865600.6991844,-1.78946852684021,1.1690398454666138,-9.896707534790039,-0.05332977104613394,-0.04960518314415416,0.001548554808869825,1.4288417100906372,4.390133857727051,0.8986847400665283
1730865600.7492182,-1.7615388631820679,1.1008788347244263,-9.91903018951416,-0.03623048627014952,-0.05498044855482727,-0.012866076144896633,1.4311186075210571,4.383615970611572,0.8987122178077698
1730865600.7991765,-1.781359076499939,1.1367734670639038,-9.90443229675293,-0.012202412303863396,-0.05185109529197819,-0.027114404231567343,1.4332311153411865,4.379861354827881,0.8984748721122742
1730865600.8491523,-1.7646301984786987,1.1374026536941528,-9.900341033935547,0.010675389803427405,-0.03747321409980834,-0.03823127224908557,1.440010905265808,4.364339828491211,0.898315966129303
1730865600.8991487,-1.76291024684906,1.1258597373962402,-9.883631706237793,0.02638819997342895,-0.01442603698417247,-0.04365516403430382,1.4435138702392578,4.355966567993164,0.8980963826179504
1730865600.9491544,-1.7335255146026611,1.0754303932189941,-9.889174461364746,0.0326888307925162,0.009957244404436901,-0.04158333401062357,1.4489049911499023,4.343959331512451,0.8981167078018188
1730865600.9991467,-1.70375657081604,1.0868042707443237,-9.862545013427734,0.03109290705488351,0.028859445065443738,-0.03201807081344808,1.4529107809066772,4.334930419921875,0.897857666015625
1730865601.0492327,-1.6439130306243896,1.0763189792633057,-9.869196891784668,0.0258848827436408,0.03893874448245872,-0.01724604790185536,1.4569830894470215,4.325996398925781,0.8975374102592468
1730865601.099195,-1.6442171335220337,1.0742757320404053,-9.855182647705078,0.0225474809720972,0.03960092771146631,-0.0008352938203121411,1.4530889987945557,4.325533866882324,0.8981471061706543
1730865601.1492534,-1.6559942960739136,1.1005043983459473,-9.85362720489502,0.02518167813957477,0.03225189891798781,0.013760906259202068,1.4553813934326172,4.3184003829956055,0.8980902433395386
1730865601.199164,-1.6890467405319214,1.0797196626663208,-9.84434986114502,0.0329819065988652,0.0198738809215065,0.02393041668606803,1.4591387510299683,4.306967735290527,0.8982717990875244
1730865601.2492328,-1.7240769863128662,1.0486069917678833,-9.847335815429688,0.039591441715318546,0.006234128407265598,0.028203450531298063,1.468069076538086,4.293562889099121,0.8983374238014221
1730865601.2991188,-1.7406835556030273,1.0349169969558716,-9.85758113861084,0.03797583358349399,-0.004613237686914575,0.026523927235572564,1.4734606742858887,4.283371448516846,0.8984615802764893
1730865601.3491096,-1.7401906251907349,1.077555537223816,-9.836002349853516,0.026102340798209098,-0.00964635456344624,0.020233489215386646,1.4787884950637817,4.27343225479126,0.8986402153968811
1730865601.3990524,-1.733494758605957,1.115400791168213,-9.848051071166992,0.007820442750961387,-0.009241688464000768,0.011741923563796278,1.4754385948181152,4.275850296020508,0.8981680274009705
1730865601.449118,-1.743166446685791,1.0880310535430908,-9.843888282775879,-0.01042098496235089,-0.007190889402959042,0.003813927469582572,1.4782482385635376,4.2695441246032715,0.8982000350952148
1730865601.4991758,-1.7691043615341187,1.0483062267303467,-9.835204124450684,-0.023397835134262537,-0.006537147980443233,-0.001473118958068188,1.4783854484558105,4.256165027618408,0.8978762030601501
1730865601.549193,-1.7637319564819336,1.0255327224731445,-9.858388900756836,-0.029171215900342787,-0.006021322967588714,-0.0034260675650007876,1.4805378913879395,4.2471442222595215,0.8977988958358765
1730865601.5991282,-1.734677791595459,1.0381760597229004,-9.844328880310059,-0.0284283705672312,-0.002356606457081095,-0.002929787277272787,1.481603741645813,4.242415428161621,0.8962815999984741
1730865601.6491022,-1.7406610250473022,1.0665963888168335,-9.854950904846191,-0.022526590806878383,0.004946552602308654,-0.0019130288018356077,1.4835113286972046,4.234655857086182,0.8957590460777283
1730865601.6990702,-1.7242777347564697,1.0976848602294922,-9.852511405944824,-0.013112620904486557,0.01226938307522863,-0.0019847808926191208,1.4854121208190918,4.22676420211792,0.8952212333679199
1730865601.7491324,-1.7236006259918213,1.0836185216903687,-9.858475685119629,-0.0026893835054718008,0.014384141188285376,-0.003545759344902267,1.4808844327926636,4.220510482788086,0.8947710394859314
1730865601.7990632,-1.711710810661316,1.0351134538650513,-9.876565933227539,0.006161587594816429,0.008485710309566682,-0.006123705894513465,1.4813696146011353,4.212275981903076,0.8942404389381409
1730865601.8490493,-1.7395174503326416,1.0527764558792114,-9.894720077514648,0.011859880616657255,-0.0026805638285394,-0.009182761580811334,1.480489730834961,4.202997207641602,0.8933456540107727
1730865601.8990886,-1.745994210243225,1.0689046382904053,-9.890522003173828,0.013734633517551985,-0.01235865833281415,-0.01247145251792001,1.4784854650497437,4.185694217681885,0.8919769525527954
1730865601.949093,-1.7974518537521362,1.0175232887268066,-9.891837120056152,0.011552034129768607,-0.015280719620488381,-0.015488331672328503,1.4779666662216187,4.174216270446777,0.8910584449768066
1730865601.9990628,-1.7723764181137085,1.0104162693023682,-9.894285202026367,0.005387019717158992,-0.01039119603906012,-0.01708700148323753,1.477457046508789,4.162443161010742,0.8900783658027649
1730865602.0490537,-1.750440239906311,0.9884245991706848,-9.896666526794434,-0.003925340640858792,0.0010471513051069502,-0.01631477473113095,1.4767544269561768,4.164587497711182,0.8907174468040466
1730865602.0990047,-1.7457934617996216,1.0031286478042603,-9.90075397491455,-0.014007988305786019,0.016814899684420036,-0.013369408182917531,1.4762799739837646,4.156778812408447,0.8901273608207703
1730865602.1490116,-1.7376874685287476,1.0475353002548218,-9.877223014831543,-0.021326886023663755,0.03246129941350993,-0.009287559518487129,1.4757850170135498,4.149394512176514,0.8895372748374939
1730865602.1989284,-1.7066062688827515,1.076993703842163,-9.876578330993652,-0.022890351674010996,0.04090110744865537,-0.004858134875010713,1.4752247333526611,4.141933441162109,0.888916552066803
1730865602.2489538,-1.7079546451568604,1.1178467273712158,-9.854317665100098,-0.01743882166096577,0.035398477712533086,-1.705912557135609e-05,1.4750057458877563,4.149797439575195,0.8908125758171082
1730865602.2989156,-1.7426449060440063,1.1024610996246338,-9.863097190856934,-0.006031589282487016,0.014118879885588164,0.005622961119469479,1.4744842052459717,4.144765377044678,0.8906648755073547
1730865602.3489432,-1.7554264068603516,1.0772545337677002,-9.835597038269043,0.007154604903290293,-0.01665024572541659,0.011607922764610866,1.4716660976409912,4.129042625427246,0.8908451795578003
1730865602.3989317,-1.7983673810958862,1.0280126333236694,-9.837689399719238,0.015710959470775613,-0.043912936235894685,0.01639714639769649,1.4706015586853027,4.121053695678711,0.8907988667488098
1730865602.4489007,-1.7591028213500977,1.0371867418289185,-9.818723678588867,0.014893048364422658,-0.05527500286371474,0.01854398983207363,1.475538969039917,4.104238986968994,0.890725314617157
1730865602.4988549,-1.7339468002319336,1.062784194946289,-9.813454627990723,0.005334210117942368,-0.04663421975448508,0.01779563438387327,1.481048583984375,4.0840349197387695,0.8909203410148621
1730865602.5488818,-1.734938144683838,1.0833163261413574,-9.800116539001465,-0.007277105161963419,-0.02407535710745901,0.015079207194533217,1.483628511428833,4.0705084800720215,0.891025185585022
1730865602.5988119,-1.7637051343917847,1.1096564531326294,-9.805622100830078,-0.016535858673722804,0.0004433962695544712,0.011799913781247215,1.4862892627716064,4.056371212005615,0.8911683559417725
1730865602.6488135,-1.7351070642471313,1.1177059412002563,-9.82131576538086,-0.01964848200766028,0.015870174357893903,0.009043004220092766,1.4888168573379517,4.042726039886475,0.89133220911026
1730865602.6988118,-1.7351070642471313,1.1177059412002563,-9.82131576538086,-0.017755124099587086,0.016724139766453178,0.007011540047391903,1.4853464365005493,4.062412738800049,0.8910824060440063
1730865602.6988118,-1.7738771438598633,1.0756938457489014,-9.825752258300781,-0.013502911169023833,0.004433031647356893,0.005122798311743697,1.4854129552841187,4.062034606933594,0.8910859823226929
1730865602.748878,-1.7946494817733765,1.0276618003845215,-9.84537410736084,-0.009769218946633724,-0.013171313535961902,0.0026970568357280013,1.4866783618927002,4.054757118225098,0.8911586999893188
1730865602.7987988,-1.7795804738998413,1.0511027574539185,-9.865225791931152,-0.00946049981931936,-0.024852746307251466,-0.0007571724746252144,1.4880199432373047,4.046851634979248,0.8912395238876343
1730865602.8487718,-1.7544028759002686,1.1077487468719482,-9.864472389221191,-0.014153611293613543,-0.022383546131038955,-0.005821551204100479,1.4884459972381592,4.0445075035095215,0.8923690915107727
1730865602.898726,-1.7415134906768799,1.1397647857666016,-9.874933242797852,-0.022352325803342253,-0.006345237359483265,-0.01279753225066955,1.489547848701477,4.03770637512207,0.8926395773887634
1730865602.948811,-1.7378385066986084,1.148332953453064,-9.883875846862793,-0.02973531207143317,0.014211120537894658,-0.02066495789490009,1.4905071258544922,4.031406402587891,0.8928503394126892
1730865602.998716,-1.7248185873031616,1.1357192993164062,-9.901291847229004,-0.0316412493049608,0.028074601917657885,-0.027249967736890618,1.4900610446929932,4.022994041442871,0.8937402367591858
1730865603.0487187,-1.7339760065078735,1.097645878791809,-9.911952018737793,-0.02592747700899828,0.029040260950221386,-0.030890625260328385,1.49069344997406,4.015622615814209,0.894040584564209
1730865603.0986865,-1.7814384698867798,1.062135934829712,-9.90929889678955,-0.014602134876653539,0.019366363223773407,-0.03127127265723636,1.4918376207351685,4.0006914138793945,0.8950739502906799
1730865603.1488016,-1.7796236276626587,1.132574200630188,-9.908432960510254,-0.0031013300019730253,0.007083133504608623,-0.02874758249910861,1.4946916103363037,3.978494882583618,0.8964123725891113
1730865603.198631,-1.737975835800171,1.2184622287750244,-9.905635833740234,0.003587670358172221,-0.0017067101103962418,-0.023814507690818797,1.496436595916748,3.9632041454315186,0.8971777558326721
1730865603.2486403,-1.7170300483703613,1.2538361549377441,-9.876545906066895,0.0051567891374403796,-0.008128564717205446,-0.01707273928711814,1.498199462890625,3.947840690612793,0.8978950381278992
1730865603.2985773,-1.708597183227539,1.2132251262664795,-9.886590003967285,0.005900481499573826,-0.01768948294669267,-0.009027306827088405,1.5000470876693726,3.9318323135375977,0.8986064195632935
1730865603.348649,-1.6978641748428345,1.1437065601348877,-9.864524841308594,0.010802780218160989,-0.03335064233195763,6.68864106503908e-07,1.498075246810913,3.960533380508423,0.8974500894546509
1730865603.398617,-1.7315688133239746,1.1593592166900635,-9.833868980407715,0.021590004267738744,-0.05172389192622269,0.009603295148673573,1.4992272853851318,3.9531092643737793,0.897842288017273
1730865603.4486163,-1.7423114776611328,1.147298812866211,-9.812677383422852,0.03459141558785457,-0.06530377781363153,0.01911989840755122,1.5003654956817627,3.9460668563842773,0.8982411026954651
1730865603.4985895,-1.7297452688217163,1.0140819549560547,-9.815438270568848,0.04222673939567238,-0.06740974991172008,0.027852557773420175,1.5012729167938232,3.945655345916748,0.8983924984931946
