Timestamp,IMU_Linear_Acc_X,IMU_Linear_Acc_Y,IMU_Linear_Acc_Z,Filtered_X,Filtered_Y,Filtered_Z,Pose_X,Pose_Y,Pose_Z
1730867906.7129476,-0.35403111577033997,0.4955456554889679,-9.994508743286133,-0.1633931751219635,0.12389171001439175,-0.021150285921165007,1.083250641822815,1.3510977029800415,1.395691156387329
1730867906.762927,-0.33125966787338257,0.4257344901561737,-10.04014778137207,-0.13408720429071289,0.10820116834570612,-0.04373294723517513,1.3790403604507446,1.7218153476715088,1.7777650356292725
1730867906.8128767,-0.4170304834842682,0.3288218677043915,-10.041093826293945,-0.10219314724394173,0.10185852964676778,-0.07061431183308886,1.6883563995361328,2.1101675033569336,2.1775662899017334
1730867906.8629577,-0.4612753689289093,0.280819833278656,-10.062446594238281,-0.07757628956032313,0.10359198296755737,-0.0894901328848288,0.8321082592010498,1.0380301475524902,1.0690739154815674
1730867906.912989,-0.4097211956977844,0.24853450059890747,-10.0138521194458,-0.06702459014476457,0.11471589648715683,-0.09546533836769859,0.8853209018707275,1.1059238910675049,1.1373447179794312
1730867906.962936,-0.24290670454502106,0.18164610862731934,-10.002081871032715,-0.06828268510435573,0.13275778747796307,-0.08825504591548045,0.7468942999839783,0.9322179555892944,0.9556843042373657
1730867907.0129027,-0.14907994866371155,0.1793588101863861,-10.002583503723145,-0.06747687443739626,0.14828905769725273,-0.06878353554435196,0.7611930966377258,0.9514860510826111,0.9731874465942383
1730867907.0628507,-0.28885331749916077,0.20363539457321167,-9.94002914428711,-0.05002527930259409,0.15045501808323952,-0.040120824868040514,0.7758057117462158,0.9717673063278198,0.9911200404167175
1730867907.112862,-0.36931049823760986,0.21830709278583527,-9.946236610412598,-0.016169089064906023,0.13342015578146296,-0.008242141110733835,0.7123475670814514,0.8894893527030945,0.9090195894241333
1730867907.1627765,-0.28108346462249756,0.25401803851127625,-9.886493682861328,0.018594797820139702,0.09851521940008362,0.020746442785405116,0.716195821762085,0.8953796625137329,0.9133082032203674
1730867907.2127295,-0.37574872374534607,0.31116312742233276,-9.872489929199219,0.03893815257481556,0.052982184753216637,0.043125958762295274,0.7048748135566711,0.8795483708381653,0.8967187404632568
1730867907.262721,-0.48814600706100464,0.29575738310813904,-9.920068740844727,0.040783462482955765,0.006535546697660861,0.05730554429157136,0.7073816657066345,0.8828860521316528,0.8987829685211182
1730867907.3127656,-0.4209181070327759,0.3783901631832123,-9.909224510192871,0.027695045071751974,-0.03179455088504224,0.06187983520155791,0.7099896669387817,0.8862107396125793,0.9010101556777954
1730867907.3627756,-0.3252490758895874,0.41770049929618835,-9.937318801879883,0.005253663882299621,-0.05637153754858047,0.05492918853446166,0.7125939726829529,0.8893694877624512,0.903343915939331
1730867907.4127052,-0.18351294100284576,0.3587765097618103,-9.944133758544922,-0.01752627903903315,-0.06741806050747977,0.03610111026019246,0.7152084708213806,0.8924049735069275,0.9058138728141785
1730867907.462855,-0.16192641854286194,0.3580407202243805,-9.949553489685059,-0.027329571848753273,-0.06951391344802588,0.008391905458466763,0.7029366493225098,0.8760432600975037,0.891399085521698
1730867907.5127652,-0.15631461143493652,0.34430578351020813,-9.978086471557617,-0.01337644663429165,-0.0668017648272129,-0.02244274993494095,0.7036911845207214,0.8766942024230957,0.8917958736419678
1730867907.5627718,-0.1463412493467331,0.43298330903053284,-9.950210571289062,0.022401927250491192,-0.06086009464027196,-0.049294933772772775,0.7047564387321472,0.8770303130149841,0.8901484608650208
1730867907.6126792,-0.08209417760372162,0.47625091671943665,-9.991350173950195,0.06432187458965445,-0.05270311211454134,-0.06565650642790366,0.7066367864608765,0.8794701099395752,0.8899213075637817
1730867907.662674,-0.022107023745775223,0.5021311044692993,-9.967670440673828,0.09470721711187255,-0.04456938855565587,-0.06836916301890766,0.708404004573822,0.8809735774993896,0.8897960782051086
1730867907.7126787,-0.1809137910604477,0.5188182592391968,-9.980035781860352,0.1045713001832118,-0.03866024967055803,-0.05868719719890428,0.7104197144508362,0.8823705315589905,0.889511227607727
1730867907.762656,-0.2821911573410034,0.5059214234352112,-9.983049392700195,0.09245113120638668,-0.03556333924139013,-0.0407166497332531,0.708787202835083,0.8823081851005554,0.8879882097244263
1730867907.8126762,-0.2821911573410034,0.5059214234352112,-9.983049392700195,0.05966496601174921,-0.03445161209981928,-0.019734869542358244,0.7100349068641663,0.8831579089164734,0.8874506950378418
1730867907.8126762,-0.3282527029514313,0.5112087726593018,-10.031476974487305,0.012355812733558277,-0.03359327159034606,-0.0012893310685745578,0.710066556930542,0.8831772804260254,0.8874372243881226
1730867907.8625488,-0.3057360053062439,0.53703773021698,-10.059855461120605,-0.03621682960163531,-0.031172418412007588,0.009575211857938361,0.7100715041160583,1.2252393960952759,0.8860861659049988
1730867907.9126325,-0.3305763006210327,0.5797755718231201,-10.07426929473877,-0.07167715541695045,-0.026902926289325738,0.009574432618232586,0.7108213305473328,1.3346397876739502,0.8853946924209595
1730867907.9625773,-0.32100364565849304,0.6155064702033997,-10.063430786132812,-0.08630677699099146,-0.0227943692229157,-0.0005852456490792377,0.7117553949356079,1.537139892578125,0.8844608068466187
1730867908.0125973,-0.3343442678451538,0.6486173272132874,-10.057174682617188,-0.08091137090098119,-0.021877317590727315,-0.015373457581332482,0.7123596668243408,1.6714636087417603,0.8836714029312134
1730867908.062594,-0.3737350106239319,0.6653370261192322,-10.021262168884277,-0.06236350090026625,-0.02575075302213104,-0.027197748821137083,0.7134670615196228,1.812241792678833,0.8829305171966553
1730867908.1125927,-0.46065425872802734,0.6565055847167969,-9.967411994934082,-0.040374621747765516,-0.03299010518320496,-0.030166614361390405,0.7140018939971924,1.9331616163253784,0.8821360468864441
1730867908.1625714,-0.5201278924942017,0.6567542552947998,-9.910676956176758,-0.024763099882329182,-0.0396336730161751,-0.021752339234920225,0.7147780656814575,2.1040399074554443,0.8812852501869202
1730867908.2125874,-0.584969162940979,0.6571613550186157,-9.856813430786133,-0.022597296719562374,-0.04133489088318951,-0.0027445729351745236,0.7154237627983093,2.2642080783843994,0.8802811503410339
1730867908.2625706,-0.6321218609809875,0.6759917736053467,-9.819254875183105,-0.035099906093660455,-0.03612226409896425,0.023036060591057634,0.7184631824493408,2.3714139461517334,0.8797231912612915
1730867908.3125741,-0.657964289188385,0.6896981000900269,-9.802927017211914,-0.05683829779356381,-0.025803221385784586,0.04944223032687264,0.7198589444160461,2.5249202251434326,0.8789099454879761
1730867908.3625164,-0.6574234366416931,0.7113074660301208,-9.808173179626465,-0.07847085427181102,-0.014680681223920057,0.06961794802938805,0.7210601568222046,2.6757659912109375,0.8782608509063721
1730867908.412551,-0.6135396957397461,0.7370157241821289,-9.83175277709961,-0.09081958368463909,-0.007175143539156383,0.07801174089006928,0.7211381793022156,2.6025946140289307,0.8786099553108215
1730867908.4624875,-0.5834988355636597,0.742222011089325,-9.858677864074707,-0.08825377588947513,-0.006058136651727278,0.0722890693150435,0.721675455570221,2.6931116580963135,0.8784430027008057
1730867908.5124924,-0.5325285196304321,0.7245998382568359,-9.906471252441406,-0.07017768023899532,-0.010954442910470747,0.053981609557437096,0.7220193147659302,2.7846474647521973,0.8784331679344177
1730867908.5624592,-0.47679826617240906,0.7224808931350708,-9.953819274902344,-0.03982007688904084,-0.017943717495193624,0.026867514736919913,0.7245240211486816,2.8697803020477295,0.879112720489502
1730867908.6135077,-0.4256206452846527,0.678205132484436,-10.010360717773438,-0.002124368328962397,-0.021755642055705147,-0.004997934479894065,0.7254908680915833,2.9718017578125,0.8792187571525574
1730867908.6624856,-0.3530436158180237,0.6873946189880371,-10.071436882019043,0.036883438881187496,-0.01878794655694795,-0.03739038097433474,0.7264549732208252,3.0691628456115723,0.8792695999145508
1730867908.7124774,-0.259870707988739,0.6990823745727539,-10.106924057006836,0.07141019180189224,-0.008636013410947701,-0.06617166314379384,0.7277092337608337,3.131805658340454,0.8792482614517212
1730867908.7634625,-0.196073979139328,0.7028201222419739,-10.135385513305664,0.09880389631705234,0.005802940249504631,-0.08875566436738101,0.7309427857398987,3.375697612762451,0.8792389631271362
1730867908.813406,-0.15452654659748077,0.6974603533744812,-10.12865924835205,0.11851829572378574,0.01951703924893448,-0.10317611819408484,0.7329186797142029,3.502345561981201,0.878869354724884
1730867908.8633485,-0.14139607548713684,0.7088123559951782,-10.110422134399414,0.1282976030717135,0.02781743913782623,-0.10597591213634189,0.7347192168235779,3.6880104541778564,0.8791981339454651
1730867908.9133413,-0.1681596338748932,0.7138774394989014,-10.054092407226562,0.12498342212544318,0.02854578119307448,-0.09391095717380979,0.7369455099105835,3.8262507915496826,0.8787184953689575
1730867908.9633393,-0.2233610451221466,0.7221425771713257,-9.98060131072998,0.107534349827104,0.022516855429093437,-0.06705309400267596,0.739463210105896,3.964614152908325,0.878037691116333
1730867909.0133173,-0.2520417273044586,0.7301366329193115,-9.890787124633789,0.07706237356155651,0.012383867582132065,-0.028300854517930442,0.7378316521644592,3.6452066898345947,0.8795233964920044
1730867909.0633416,-0.2927590608596802,0.7248190641403198,-9.833499908447266,0.03658555955566194,0.0012354654643750296,0.01839391569826415,0.7395374774932861,3.67510724067688,0.8793963193893433
1730867909.1133585,-0.3528456389904022,0.6909580826759338,-9.770023345947266,-0.007823683040031634,-0.007937122013158653,0.06677350265251328,0.7406441569328308,3.594857692718506,0.8801496624946594
1730867909.1633506,-0.3991921544075012,0.6421748995780945,-9.743233680725098,-0.04794963830206117,-0.012154826324275418,0.10735640226114013,0.7432580590248108,3.577225685119629,0.880686342716217
1730867909.2133214,-0.43662071228027344,0.5862354040145874,-9.75236701965332,-0.0766801046808561,-0.00910702804504948,0.13070533726920938,0.7448927760124207,3.579911231994629,0.8813413977622986
1730867909.2632713,-0.4212743639945984,0.5592659711837769,-9.796110153198242,-0.09015838852039959,0.0016176413006655185,0.13121449489782422,0.7464075088500977,3.5827503204345703,0.8823794722557068
1730867909.3132722,-0.3991105556488037,0.5336417555809021,-9.863615989685059,-0.08818925041156653,0.018447710331365958,0.1084109740835271,0.7476293444633484,3.5854861736297607,0.8836730718612671
1730867909.363234,-0.37451234459877014,0.5148525238037109,-9.94296646118164,-0.0736916030976864,0.03906495456739598,0.06612218729433997,0.7473865747451782,3.581862449645996,0.8819611668586731
1730867909.413276,-0.35623785853385925,0.49037230014801025,-10.028589248657227,-0.051302879659086364,0.06087616183979094,0.010895108873091388,0.7483496069908142,3.585494041442871,0.8826028108596802
1730867909.4632702,-0.3121122717857361,0.5035948157310486,-10.077381134033203,-0.025894528657731713,0.07971063608766178,-0.048099865751059956,0.7492245435714722,3.589313507080078,0.8832026124000549
1730867909.5132182,-0.29099607467651367,0.4729223847389221,-10.118734359741211,-0.0012255886199231663,0.08986111357091997,-0.10011696386768161,0.7489075660705566,3.5923001766204834,0.8825188875198364
1730867909.5632143,-0.2933560609817505,0.4554198086261749,-10.117195129394531,0.020594722899379882,0.08766769677120057,-0.13671624613058245,0.749615490436554,3.5963125228881836,0.8824114799499512
1730867909.6132145,-0.2995526194572449,0.46449562907218933,-10.113451957702637,0.03756147125544887,0.07438074299713349,-0.1530917382303309,0.7503520846366882,3.600287675857544,0.8819587826728821
1730867909.6632524,-0.2905540466308594,0.4705936014652252,-10.075798034667969,0.04658734761179534,0.054765304981621826,-0.14665671592190316,0.7528501152992249,3.608590841293335,0.8829307556152344
1730867909.7132218,-0.30149149894714355,0.462336003780365,-10.05019760131836,0.04548816410182163,0.03414161949682708,-0.11839580999303295,0.7542513608932495,3.6140036582946777,0.8825202584266663
1730867909.7631664,-0.30236712098121643,0.4750738739967346,-9.979076385498047,0.03530620580243478,0.016644595590682744,-0.07470837039715476,0.7565189003944397,3.625244379043579,0.8837404251098633
1730867909.8131413,-0.3167644739151001,0.4733209013938904,-9.965980529785156,0.01984847865639429,0.004504537860158873,-0.025518708598611734,0.7623411417007446,3.6438140869140625,0.8849921822547913
1730867909.8631816,-0.32278698682785034,0.4879837930202484,-9.933955192565918,0.0037205973406544994,-0.002091762870135134,0.01892797580152875,0.7651116251945496,3.6532771587371826,0.8853775858879089
1730867909.9131057,-0.34302955865859985,0.4833014905452728,-9.92172908782959,-0.009340865531313636,-0.004549851354485009,0.0504932354291999,0.7684305906295776,3.66463303565979,0.8859263062477112
1730867909.9631221,-0.3844144940376282,0.5133159160614014,-9.901702880859375,-0.017767240155733683,-0.005106460928174482,0.06574075422021156,0.7657095193862915,3.658494710922241,0.8859847784042358
1730867910.0130777,-0.41173917055130005,0.5218408703804016,-9.912270545959473,-0.022663503081133605,-0.005998013349990537,0.06682867082762917,0.7673377394676208,3.66508412361145,0.8865950703620911
1730867910.063069,-0.4277474582195282,0.5460506081581116,-9.913387298583984,-0.026367379794886153,-0.008546165285508597,0.058543539991298035,0.7703818082809448,3.676140785217285,0.8870364427566528
1730867910.113002,-0.4325837790966034,0.5441628694534302,-9.917769432067871,-0.03010563842018015,-0.012593274095118647,0.044853374045921504,0.7725164294242859,3.684516668319702,0.8877497911453247
1730867910.1630886,-0.4405100345611572,0.5455207824707031,-9.922952651977539,-0.03315796603650868,-0.01669926525762545,0.028612239223431618,0.7745802998542786,3.6928908824920654,0.8885588049888611
1730867910.2130296,-0.4208866357803345,0.5239511728286743,-9.942682266235352,-0.03378743459977828,-0.018819214843473916,0.01249918777045291,0.776549220085144,3.7011759281158447,0.8894150257110596
1730867910.2630062,-0.40911948680877686,0.5217165946960449,-9.945785522460938,-0.030592829739547384,-0.01719308438020601,-0.0013953876245860098,0.7748960852622986,3.6967623233795166,0.8876901865005493
1730867910.3129876,-0.360088974237442,0.5123128890991211,-9.97071647644043,-0.02311076778795431,-0.011270235842332171,-0.012256805498506362,0.7761335372924805,3.7025718688964844,0.8879693746566772
1730867910.3630693,-0.3445986211299896,0.5436009168624878,-9.975183486938477,-0.011523664776422015,-0.0024299671041278694,-0.02016482639651136,0.7817246913909912,3.7209534645080566,0.8901311159133911
1730867910.4130445,-0.3196024000644684,0.5652751326560974,-9.99183464050293,0.0034159321227216497,0.006036264355191171,-0.025368287909068837,0.7846106290817261,3.7317492961883545,0.8910412788391113
1730867910.463016,-0.3035002648830414,0.5781051516532898,-9.979195594787598,0.01970235069175048,0.010341908032327029,-0.027943711878626105,0.7880688309669495,3.7431671619415283,0.8923799395561218
1730867910.5129776,-0.2867118716239929,0.6008076667785645,-9.997249603271484,0.03403667091399404,0.008306756428043884,-0.027815621426545388,0.7912939190864563,3.754534959793091,0.8933508396148682
1730867910.5630174,-0.2812136113643646,0.6228671073913574,-10.011022567749023,0.04323604518586918,0.00039683670072022514,-0.025305855267725882,0.7946069240570068,3.765882730484009,0.8942527174949646
1730867910.61287,-0.2614154517650604,0.6084952354431152,-10.008901596069336,0.04585996533481061,-0.010943201635222896,-0.021753132186853354,0.7918920516967773,3.7595300674438477,0.8935496211051941
1730867910.6629455,-0.2548561692237854,0.6437970995903015,-10.010974884033203,0.04283468547254456,-0.022682345540736004,-0.018959235128183302,0.7937719821929932,3.766103506088257,0.8939802646636963
1730867910.712961,-0.25745296478271484,0.6495663523674011,-10.02517032623291,0.036474652645381654,-0.032294017376363456,-0.01774443384954465,0.7957302331924438,3.772535562515259,0.8943602442741394
1730867910.7628238,-0.26422521471977234,0.6870593428611755,-9.994922637939453,0.028745989251637863,-0.03864601532067216,-0.017408004082730737,0.7971035838127136,3.778571367263794,0.8949429392814636
1730867910.8128247,-0.27355554699897766,0.7080994844436646,-10.005375862121582,0.020640188838175054,-0.042350285774235906,-0.016542545671213264,0.7992279529571533,3.7856714725494385,0.8954081535339355
1730867910.862878,-0.28887033462524414,0.7493234872817993,-9.96612548828125,0.012559353378407575,-0.04467569528880598,-0.01405982873265063,0.8013942837715149,3.792661190032959,0.8958345055580139
1730867910.9128387,-0.32518908381462097,0.76758873462677,-9.955714225769043,0.004406314147933946,-0.04648223648967048,-0.009436808944470021,0.8013201355934143,3.821099281311035,0.898561418056488
1730867910.9628077,-0.3503953516483307,0.7682099342346191,-9.911863327026367,-0.0044443267871791085,-0.04832947725678473,-0.002343853708004283,0.802992045879364,3.8332276344299316,0.8995391130447388
1730867911.0128067,-0.4145143926143646,0.7411019206047058,-9.883514404296875,-0.014551295951015293,-0.04965855749830717,0.007388925914395711,0.8061093688011169,3.8683290481567383,0.9026166796684265
1730867911.0627744,-0.46097245812416077,0.7314722537994385,-9.851653099060059,-0.02587437720663337,-0.047799433049835666,0.019325488278073087,0.808357834815979,3.888101816177368,0.904335081577301
1730867911.1127832,-0.5084960460662842,0.6833336353302002,-9.82935905456543,-0.037867133287391934,-0.03978294021477825,0.03199175582440126,0.8092361092567444,3.9131269454956055,0.9063601493835449
1730867911.1627324,-0.5009955167770386,0.7025769352912903,-9.814752578735352,-0.04933516795944733,-0.025167259931830645,0.04296056086471445,0.8110092282295227,3.935082197189331,0.9083429574966431
1730867911.2127366,-0.49321138858795166,0.6918929219245911,-9.834566116333008,-0.05766778480940839,-0.007111165238773776,0.049551932391517735,0.8122689723968506,3.952383041381836,0.9092674255371094
1730867911.2627637,-0.4804370105266571,0.71437007188797,-9.872641563415527,-0.059036423172587935,0.008716298122622194,0.04946050033855216,0.8135606050491333,3.970578670501709,0.910914421081543
1730867911.3126814,-0.45079660415649414,0.7334819436073303,-9.915983200073242,-0.050796650607093194,0.017045206079427402,0.04111398643206013,0.8155789375305176,4.001406669616699,0.912872850894928
1730867911.3626409,-0.3844492733478546,0.7379095554351807,-9.963715553283691,-0.03349006100253492,0.01570280088789533,0.02424631840248444,0.8195650577545166,4.042224884033203,0.9161326289176941
1730867911.4126618,-0.341621071100235,0.737779438495636,-10.027236938476562,-0.010235248671619736,0.00652715142672967,0.0008498026888609529,0.8217918872833252,4.069344997406006,0.9183881878852844
1730867911.4625883,-0.31764501333236694,0.7394993305206299,-10.053780555725098,0.014681177422775766,-0.00557051244762748,-0.024795254461822423,0.8240513205528259,4.096792697906494,0.9206402897834778
1730867911.5126274,-0.33251166343688965,0.7449787855148315,-10.085444450378418,0.03693330156962753,-0.015282973175798853,-0.048329143037551446,0.8263969421386719,4.124448776245117,0.922817051410675
1730867911.5626025,-0.3284560739994049,0.7515090703964233,-10.084254264831543,0.05337511605481816,-0.01964841794489973,-0.06778127507936414,0.8222816586494446,4.089982032775879,0.918341338634491
1730867911.612608,-0.3136275112628937,0.7573211193084717,-10.080492973327637,0.06256261910043749,-0.018815791468866052,-0.08296144228635631,0.8235447406768799,4.10612154006958,0.9190312027931213
1730867911.6626272,-0.3140600919723511,0.7365326285362244,-10.072416305541992,0.06423579560102424,-0.0147703198046838,-0.09220106425566085,0.8249779343605042,4.122348308563232,0.9195054769515991
1730867911.7125757,-0.3140600919723511,0.7365326285362244,-10.072416305541992,0.05891829337856999,-0.009421250101780812,-0.09144939649385184,0.8265489935874939,4.138367652893066,0.919745683670044
1730867911.7125757,-0.3268328607082367,0.7316510677337646,-10.040964126586914,0.04820662889775969,-0.0036675287274916877,-0.07786306908358845,0.8266363143920898,4.13921594619751,0.9197521209716797
1730867911.762557,-0.32849422097206116,0.7177249193191528,-9.994802474975586,0.03471149496148112,0.0022990239793678783,-0.05272452921829592,0.8252369165420532,4.129358768463135,0.9197522401809692
1730867911.8125622,-0.3525795638561249,0.7111228108406067,-9.948200225830078,0.0210796824012661,0.008385439318607281,-0.020439503573783498,0.826349139213562,4.142094135284424,0.9201337099075317
1730867911.8624372,-0.39848625659942627,0.681574821472168,-9.895581245422363,0.008725589617887386,0.014182006768275805,0.01344828784007655,0.8284842371940613,4.170657157897949,0.9219714403152466
1730867911.9125464,-0.44980117678642273,0.6302993297576904,-9.849222183227539,-0.002814967715547754,0.019196385549176555,0.04356821652212868,0.8298131227493286,4.186978340148926,0.9228382110595703
1730867911.9625125,-0.485517680644989,0.5299948453903198,-9.823805809020996,-0.015034300624127486,0.024139677477329556,0.06588271999698717,0.8331929445266724,4.220359802246094,0.9247816205024719
1730867912.0124702,-0.48414090275764465,0.49688273668289185,-9.809773445129395,-0.02848254989333094,0.031463594401782896,0.07824122238319352,0.8370364904403687,4.239280700683594,0.9248882532119751
1730867912.0624614,-0.46615731716156006,0.5042178630828857,-9.831884384155273,-0.04103821904424301,0.04243792416408873,0.0799867192828172,0.8396375179290771,4.259171009063721,0.925869345664978
1730867912.1124516,-0.46228235960006714,0.5014540553092957,-9.881569862365723,-0.04809569020348575,0.05358042293512477,0.07104258241518999,0.842178463935852,4.279692649841309,0.9270862936973572
1730867912.1624634,-0.40864378213882446,0.5314943194389343,-9.938352584838867,-0.0453105513573869,0.058321663241707754,0.051392461653399696,0.8441837430000305,4.296821117401123,0.9282285571098328
1730867912.2124722,-0.33830368518829346,0.5322139263153076,-10.01566219329834,-0.030868753431678865,0.05211915132340502,0.021170091738360316,0.8403448462486267,4.2663445472717285,0.9249927401542664
1730867912.262447,-0.2801021933555603,0.5820069909095764,-10.079678535461426,-0.005541986973257758,0.035051287180637984,-0.01831643137637913,0.8414713144302368,4.276861190795898,0.9253323078155518
1730867912.31238,-0.252681702375412,0.6081145405769348,-10.136423110961914,0.026842770451650802,0.010881625771049407,-0.062103658729216575,0.8426132202148438,4.2873334884643555,0.9255689382553101
1730867912.362341,-0.21667787432670593,0.6554352641105652,-10.116079330444336,0.05946469634035406,-0.01563337131196217,-0.10133520527495472,0.843991219997406,4.289565563201904,0.9246437549591064
1730867912.4133263,-0.21261492371559143,0.6886862516403198,-10.134065628051758,0.08539952457638257,-0.040888723978961566,-0.12744122489818527,0.8454402685165405,4.298125743865967,0.9242970943450928
1730867912.4633567,-0.19988669455051422,0.7053390145301819,-10.088356971740723,0.09971632407671932,-0.06195642450217219,-0.1353108378508035,0.8470913171768188,4.3063740730285645,0.9236271381378174
1730867912.513385,-0.23975533246994019,0.7099525332450867,-10.059733390808105,0.09944161689447761,-0.07565001479390733,-0.12319526643083367,0.8493349552154541,4.326406002044678,0.9244430661201477
1730867912.563279,-0.288726270198822,0.7387585639953613,-9.989280700683594,0.08428086618199453,-0.07995344105274009,-0.09282665234053106,0.8533503413200378,4.355723857879639,0.9245105385780334
1730867912.6133254,-0.38651755452156067,0.7416403293609619,-9.926448822021484,0.057021933149949106,-0.07535031900924957,-0.049967464578087824,0.8562087416648865,4.3730926513671875,0.9240807890892029
1730867912.6632934,-0.4551313817501068,0.7633088827133179,-9.856112480163574,0.021810349501929997,-0.06400897858007265,-0.0030587306854953245,0.8578886389732361,4.395784854888916,0.9246877431869507
1730867912.7132676,-0.4757448136806488,0.7439712285995483,-9.813158988952637,-0.01721103589903139,-0.04874198079777141,0.03978677814511224,0.8602163195610046,4.41359281539917,0.9246445298194885
1730867912.7632923,-0.48238489031791687,0.7272535562515259,-9.793974876403809,-0.05437352043793751,-0.032224568706968416,0.07258374659190724,0.86260986328125,4.432496070861816,0.9247391819953918
1730867912.8132966,-0.4696805477142334,0.6746935248374939,-9.810089111328125,-0.08157049528737202,-0.015761733071176363,0.0915963075471332,0.8648010492324829,4.45108699798584,0.9250385165214539
1730867912.8631594,-0.4624558091163635,0.663570761680603,-9.822216987609863,-0.0920069080490937,0.0012967370799085798,0.09593720660364188,0.8617661595344543,4.431085586547852,0.9244398474693298
1730867912.9131045,-0.45026445388793945,0.6754152774810791,-9.871495246887207,-0.0845082955166784,0.019913884696641456,0.08762287359136335,0.8648045659065247,4.464911937713623,0.9241344928741455
1730867912.9630666,-0.4241366386413574,0.6839154958724976,-9.92608642578125,-0.06344462663218721,0.03810187951300895,0.06958344206924548,0.8662858605384827,4.48285436630249,0.9243674874305725
1730867913.013064,-0.3622673749923706,0.7249529957771301,-9.994391441345215,-0.035463430664920685,0.05012977367303049,0.04394229531949167,0.8676693439483643,4.501270294189453,0.9247515201568604
1730867913.0630193,-0.3251158595085144,0.7991145253181458,-10.028182029724121,-0.005850602146731993,0.04982918592606091,0.012047608387053177,0.8689636588096619,4.519320487976074,0.9251960515975952
1730867913.1130605,-0.3180212378501892,0.9041786193847656,-10.054556846618652,0.02328436649526028,0.03337867014759001,-0.024921835511898277,0.8696597814559937,4.533610820770264,0.9235775470733643
1730867913.1631067,-0.3270854651927948,0.9644906520843506,-10.08012866973877,0.05115194185811748,0.00023460212121581385,-0.06445111165613984,0.8709953427314758,4.55035924911499,0.9234095811843872
1730867913.213141,-0.3270854651927948,0.9644906520843506,-10.08012866973877,0.07424897185995191,-0.04422482094305802,-0.1001088831079979,0.8732751607894897,4.606650352478027,0.9226994514465332
1730867913.213141,-0.36434370279312134,0.9937674403190613,-10.057319641113281,0.08576107299092472,-0.08752999402338048,-0.12202400035483456,0.8733335137367249,4.607595443725586,0.9226834177970886
1730867913.263097,-0.3989529311656952,0.9705654382705688,-10.054991722106934,0.0801208858176484,-0.11568235201415816,-0.1223465782377274,0.8753360509872437,4.638277530670166,0.9220080375671387
1730867913.3131015,-0.41317054629325867,0.9378283619880676,-10.028366088867188,0.05702106769770758,-0.12054467089144047,-0.100266051899227,0.8777881264686584,4.676092624664307,0.9220772385597229
1730867913.363051,-0.44904425740242004,0.8783456683158875,-10.012248992919922,0.021572584138263167,-0.10220287057489963,-0.06228825078770009,0.8801270723342896,4.7090020179748535,0.9213841557502747
1730867913.4130232,-0.48281240463256836,0.8583300709724426,-9.951288223266602,-0.017485379508797267,-0.06679222186806835,-0.018971940195364228,0.8825363516807556,4.742612361907959,0.9205646514892578
1730867913.4630206,-0.4653800129890442,0.8412644267082214,-9.937040328979492,-0.05086752058114801,-0.023019613189033828,0.019872799740293077,0.8810636401176453,4.719461441040039,0.9199991822242737
1730867913.5130925,-0.42419588565826416,0.8320967555046082,-9.900182723999023,-0.0719352555819088,0.02029423038717249,0.04881624554309908,0.8820736408233643,4.735936641693115,0.9195391535758972
1730867913.5630965,-0.3723496198654175,0.7724232077598572,-9.899027824401855,-0.07701282958916697,0.05518708159540407,0.0664511082619617,0.8830025792121887,4.754084587097168,0.9191734194755554
1730867913.6129966,-0.31713131070137024,0.7300585508346558,-9.892786979675293,-0.0640382848370372,0.07642067198533792,0.07315876035306464,0.8833578824996948,4.773096084594727,0.9179272651672363
1730867913.662993,-0.28553929924964905,0.6804851293563843,-9.902373313903809,-0.0336198950642765,0.08411512715157497,0.07040446956775831,0.8841757774353027,4.794201374053955,0.9175103902816772
1730867913.7129598,-0.2602371573448181,0.6492275595664978,-9.915452003479004,0.007946759268810343,0.08281476946975017,0.060370284711331546,0.8850016593933105,4.816585540771484,0.9172468781471252
1730867913.7629366,-0.26744285225868225,0.6298968195915222,-9.915121078491211,0.049079365669077966,0.07780264607947851,0.045054236100267944,0.8851207494735718,4.8294525146484375,0.9179553389549255
1730867913.8129838,-0.3069901764392853,0.5860652923583984,-9.921985626220703,0.07818698142494335,0.07309280033637683,0.026513498924085305,0.8860318660736084,4.849460601806641,0.9179784059524536
1730867913.8629432,-0.32960042357444763,0.5849692821502686,-9.914318084716797,0.08800241148525523,0.07050119386173237,0.007788496083225785,0.8883237242698669,4.890487194061279,0.9179091453552246
1730867913.9129124,-0.3556545376777649,0.6054795384407043,-9.90269660949707,0.07663576148481141,0.06881517232298799,-0.00735946891654249,0.8899909257888794,4.918186187744141,0.9178568124771118
1730867913.9629204,-0.40756332874298096,0.6436417698860168,-9.899317741394043,0.048015953020879326,0.06438000055014298,-0.015860557653827094,0.8918633460998535,4.946834087371826,0.9177733063697815
1730867914.0128887,-0.45922791957855225,0.6679245233535767,-9.902111053466797,0.010328344633633458,0.05292313685039046,-0.0166387676462687,0.8937483429908752,4.97470760345459,0.9176524877548218
1730867914.062972,-0.4955780804157257,0.6890046000480652,-9.9336519241333,-0.02866154052686037,0.03181388355690793,-0.011141182152889416,0.8956654667854309,5.00351619720459,0.9174929857254028
1730867914.1129165,-0.5093133449554443,0.6943433880805969,-9.977849006652832,-0.06498507665631718,0.0017570252773871208,-0.003226537014865703,0.8908922672271729,4.950523853302002,0.9176275134086609
1730867914.1628673,-0.5524230003356934,0.6996614933013916,-10.011940956115723,-0.09712272120163574,-0.032732530329256875,0.001916696382311197,0.8913331031799316,4.965620994567871,0.917545735836029
1730867914.2128406,-0.5370615720748901,0.7350276112556458,-10.043497085571289,-0.12191854343433756,-0.06386226313159765,0.0002475854680310729,0.8932621479034424,5.005066394805908,0.9174172282218933
1730867914.2628975,-0.500556468963623,0.7661740779876709,-10.083037376403809,-0.13318958016771965,-0.08338979592733192,-0.00892751620768843,0.8937146663665771,5.0241265296936035,0.9173333048820496
1730867914.3128278,-0.4598466455936432,0.7526824474334717,-10.10280990600586,-0.12515658700330057,-0.08716191666696417,-0.02301451791553579,0.893930971622467,5.045790672302246,0.9171983599662781
1730867914.3627517,-0.3817916512489319,0.7605732083320618,-10.108951568603516,-0.09619312339704766,-0.07696444357640556,-0.03800925919390032,0.8938666582107544,5.067584991455078,0.9169827699661255
1730867914.4127421,-0.3161722421646118,0.774470329284668,-10.093761444091797,-0.04907777147059127,-0.05865004507225799,-0.05057223840230854,0.8967466354370117,5.071614742279053,0.9171436429023743
1730867914.462727,-0.2684888541698456,0.7686060667037964,-10.070601463317871,0.009911264326438761,-0.03914158175055925,-0.05856659908926914,0.8974770903587341,5.091186046600342,0.9168530106544495
1730867914.5127318,-0.23110045492649078,0.7621251940727234,-9.997050285339355,0.07014375098433201,-0.023417467871655148,-0.059616052189233285,0.8998429775238037,5.101187705993652,0.9168396592140198
1730867914.5627184,-0.2602272629737854,0.7227984666824341,-9.960040092468262,0.11742902020819049,-0.01263612322045458,-0.0505237475597279,0.9014149904251099,5.118851661682129,0.9164526462554932
1730867914.6127117,-0.3344120681285858,0.7114098072052002,-9.88102912902832,0.13897482080047777,-0.004761371851349984,-0.02978002187598308,0.903299868106842,5.136405944824219,0.9159670472145081
1730867914.6626873,-0.392453134059906,0.6708663105964661,-9.827893257141113,0.127950806442856,0.0034182583271296385,0.0005506865230938771,0.9055006504058838,5.153831958770752,0.9154486656188965
1730867914.7127347,-0.4251813590526581,0.6304659247398376,-9.773119926452637,0.08510768435190522,0.014861134714845604,0.03698438734988552,0.9079990983009338,5.171522617340088,0.9149705767631531
1730867914.7627065,-0.4540300667285919,0.6014400720596313,-9.76240062713623,0.018529801417317394,0.031775800832406706,0.07718704121281493,0.9033445715904236,5.139565467834473,0.9167400002479553
1730867914.812712,-0.4582642912864685,0.600673258304596,-9.773625373840332,-0.05767968669642896,0.054323224576386435,0.11825509362586645,0.904223620891571,5.1490912437438965,0.9169842004776001
1730867914.8626907,-0.4741707742214203,0.6390689015388489,-9.824950218200684,-0.12492122183850776,0.07768917198508586,0.15191118356691527,0.9076990485191345,5.1843085289001465,0.9169009923934937
1730867914.9127033,-0.45809465646743774,0.6973541975021362,-9.880247116088867,-0.16460896646348544,0.09186119794370995,0.16460070801169813,0.9088756442070007,5.201950550079346,0.9175134897232056
1730867914.9626958,-0.4257902204990387,0.7296462059020996,-9.956254959106445,-0.16647826333322088,0.087372213943525,0.1461634016706251,0.9096785187721252,5.220850467681885,0.9185751080513
1730867915.012687,-0.38320380449295044,0.7380973696708679,-10.028064727783203,-0.13308254612288162,0.061585654205364396,0.09713328781456633,0.9100496768951416,5.238173961639404,0.9198296070098877
1730867915.0626626,-0.33636316657066345,0.7378044724464417,-10.087526321411133,-0.07627801637577193,0.019759720652182615,0.026715868550660975,0.9120285511016846,5.237513542175293,0.9188464879989624
1730867915.1126852,-0.2765710651874542,0.7307225465774536,-10.124574661254883,-0.010932710473665407,-0.027518776262098928,-0.052076754072611725,0.916812539100647,4.765299320220947,0.9201759696006775
1730867915.1626303,-0.2502802312374115,0.7227614521980286,-10.131251335144043,0.048696783254866816,-0.06738026656271676,-0.12306238763280375,0.9190082550048828,4.6100640296936035,0.9207057356834412
1730867915.212633,-0.21956709027290344,0.7004214525222778,-10.117511749267578,0.0907862588533909,-0.08855856298885396,-0.1683315015038172,0.9228078126907349,4.208284378051758,0.9195478558540344
1730867915.262576,-0.2202461063861847,0.6627830266952515,-10.088787078857422,0.1088744423838339,-0.08599209566780779,-0.17592838296646648,0.9257440567016602,3.9919321537017822,0.9189000725746155
1730867915.312677,-0.22399069368839264,0.6334783434867859,-10.034817695617676,0.10371983256340778,-0.06262891185601563,-0.1465288522756412,0.9287229180335999,3.790773391723633,0.9179162979125977
1730867915.3625772,-0.24612107872962952,0.6000427603721619,-9.988216400146484,0.08144938075010397,-0.026700570627995957,-0.09142473076199953,0.9269344806671143,3.751974105834961,0.918847918510437
1730867915.412586,-0.29592540860176086,0.6102656126022339,-9.914214134216309,0.050184663296385275,0.012254368596506422,-0.025735605670946238,0.9290712475776672,3.5804641246795654,0.918270468711853
1730867915.4625485,-0.3602658808231354,0.6231592893600464,-9.891373634338379,0.017060131036437817,0.04495248362086312,0.03637357379788509,0.9337961673736572,3.293308973312378,0.91890949010849
1730867915.512636,-0.38874226808547974,0.6044700145721436,-9.845440864562988,-0.01355112950304524,0.06334239878026574,0.08390003642512281,0.9369059801101685,3.076991319656372,0.9189050197601318
1730867915.5625556,-0.4313787519931793,0.6055269241333008,-9.849123001098633,-0.039206271523779035,0.06406208265794736,0.11056811030858535,0.9403993487358093,2.828425407409668,0.919198215007782
1730867915.6125424,-0.4734632968902588,0.6188415884971619,-9.845617294311523,-0.05813910248633111,0.05074263566094489,0.11562460461311438,0.9429410099983215,2.640413999557495,0.9196639060974121
1730867915.6625137,-0.4990956783294678,0.6391718983650208,-9.887660026550293,-0.07053993374310191,0.03114387060886386,0.10326894933420475,0.938614547252655,2.9065656661987305,0.9192505478858948
1730867915.7125037,-0.512435793876648,0.6575949192047119,-9.924125671386719,-0.07895207391242387,0.012230453314401582,0.08029146544546417,0.9397948384284973,2.794630765914917,0.9196973443031311
1730867915.762517,-0.5096977949142456,0.6815275549888611,-9.967788696289062,-0.08467486433736998,-0.0024287268675110326,0.052619637257719516,0.9441187381744385,2.410627603530884,0.9192682504653931
1730867915.8124375,-0.513260006904602,0.694302499294281,-10.017915725708008,-0.08527903621426361,-0.012418222285163979,0.023586670303373632,0.9458423256874084,2.2361817359924316,0.9195106029510498
1730867915.8623984,-0.468024343252182,0.7120694518089294,-10.031824111938477,-0.07728519018448596,-0.018794443142536647,-0.004823594794450257,0.9495236277580261,1.942932367324829,0.917792558670044
1730867915.9124517,-0.44971558451652527,0.6980550289154053,-10.0683012008667,-0.05978275865105996,-0.022449069541902608,-0.030142584367254144,0.9519199728965759,1.7065545320510864,0.9173778891563416
1730867915.9624486,-0.4088478684425354,0.6865571737289429,-10.05561351776123,-0.03516831454191957,-0.023286621573143144,-0.0492714404500731,0.9552592039108276,1.4769343137741089,0.9163398742675781
1730867916.0124354,-0.3876248896121979,0.6654700040817261,-10.040529251098633,-0.00796433507985771,-0.02037728976772035,-0.059426379598713885,0.9578309655189514,1.2461776733398438,0.9156210422515869
1730867916.0623996,-0.36411720514297485,0.6519210338592529,-10.010042190551758,0.016830956745705672,-0.013118243939895939,-0.058875047251995376,0.9590423703193665,0.9971973896026611,0.9149733781814575
1730867916.1123793,-0.3864935636520386,0.6109739542007446,-9.966828346252441,0.03502164124355484,-0.002247886022208891,-0.04742055356090605,0.9613445997238159,0.7506750226020813,0.9141134023666382
1730867916.1633458,-0.38550466299057007,0.5904037952423096,-9.917763710021973,0.04368253424798729,0.010520820204943142,-0.026795404882085004,0.9628391265869141,0.5125508308410645,0.9139024019241333
1730867916.2123294,-0.39936986565589905,0.5759927034378052,-9.888249397277832,0.041548293459704344,0.023325750761136937,-0.0005934710054620535,0.9651904702186584,0.25568121671676636,0.9131761193275452
1730867916.263272,-0.3976585566997528,0.5388855934143066,-9.86102294921875,0.02998939290346099,0.03427752315496682,0.026185327784080524,0.9677115082740784,-0.009471246041357517,0.9124601483345032
1730867916.313285,-0.39373236894607544,0.5362843871116638,-9.8655424118042,0.013229859720299487,0.04181973761846136,0.048235627417201894,0.9664034247398376,0.6332975029945374,0.9132357239723206
1730867916.3631163,-0.37033048272132874,0.5169510841369629,-9.866714477539062,-0.0031808705030210048,0.04560785562372682,0.06175663018970402,0.9680253863334656,0.576000452041626,0.9130609035491943
1730867916.4130895,-0.3809555470943451,0.5403626561164856,-9.882372856140137,-0.014333732729135976,0.04606220999527434,0.06508954119518243,0.9694131016731262,0.5263980031013489,0.9130564332008362
1730867916.463129,-0.33660197257995605,0.5485826134681702,-9.918083190917969,-0.0172876300121908,0.04300637799189526,0.05796152785315406,0.9708342552185059,0.7401885390281677,0.9101835489273071
1730867916.513109,-0.33639127016067505,0.5469495058059692,-9.94932746887207,-0.01174370777885431,0.03586829608880884,0.0413958724733744,0.9725362062454224,0.7300460934638977,0.9094471335411072
1730867916.563102,-0.31873688101768494,0.5376193523406982,-9.996109962463379,-0.00024134385463103931,0.02525136691066033,0.018210868897469618,0.9742364287376404,0.7199013233184814,0.9087796807289124
1730867916.6131124,-0.3103678524494171,0.5478363633155823,-10.018159866333008,0.012697635698759811,0.013566282230567734,-0.00769311509097824,0.9752213358879089,0.7808068990707397,0.9073411226272583
1730867916.6630948,-0.3266814053058624,0.5513634085655212,-10.071053504943848,0.022723698935811967,0.003771561529275269,-0.03287205187265288,0.9767895340919495,0.779390811920166,0.90645831823349
1730867916.7131808,-0.32729822397232056,0.5886620283126831,-10.0597562789917,0.02711656490641194,-0.0025686737057854458,-0.05441399343901153,0.9774413704872131,0.7939898371696472,0.9041835069656372
1730867916.7630775,-0.3507046401500702,0.6210355758666992,-10.101298332214355,0.024788248758997697,-0.00621636727061937,-0.06923694575035605,0.9796761870384216,0.7987972497940063,0.9016761183738708
1730867916.8131053,-0.3381997048854828,0.662939190864563,-10.087011337280273,0.01650561533426963,-0.009423276076127713,-0.07481226901129727,0.9812332391738892,0.799763023853302,0.8999164700508118
1730867916.8629975,-0.3673560321331024,0.6762982606887817,-10.075376510620117,0.005169540506613826,-0.014176944278109295,-0.07014376239550088,0.9827941656112671,0.8006853461265564,0.898003339767456
1730867916.9132583,-0.3612074851989746,0.6992759704589844,-10.028997421264648,-0.005425678043989584,-0.021340482154602096,-0.055657326829539625,0.9820553660392761,0.8033199906349182,0.8984786868095398
1730867916.963118,-0.4048825800418854,0.6608463525772095,-9.99331283569336,-0.0128223608649818,-0.030423733032082397,-0.033104239328270196,0.9843858480453491,0.806387186050415,0.8972262740135193
1730867917.0130053,-0.4086087942123413,0.625417172908783,-9.944518089294434,-0.01689428016790568,-0.03851482673190359,-0.006024434525159888,0.9858013391494751,0.8078640699386597,0.8959232568740845
1730867917.0629525,-0.44210153818130493,0.5583459138870239,-9.902080535888672,-0.018850057387474483,-0.04019768362885383,0.020706443693410764,0.9861043095588684,0.8077057003974915,0.8954779505729675
1730867917.112991,-0.41456618905067444,0.5148512721061707,-9.85180950164795,-0.0196656585359707,-0.03063667175676478,0.0429727123445752,0.9871547818183899,0.8085005879402161,0.8944345116615295
1730867917.1629214,-0.38683634996414185,0.4788472652435303,-9.838153839111328,-0.018956358513069562,-0.00943755696920328,0.05879230694996252,0.9881558418273926,0.8092445731163025,0.8935192227363586
1730867917.2129395,-0.3525550663471222,0.4657718539237976,-9.832717895507812,-0.014566782732104778,0.01874090631700452,0.06785734414717089,0.9891089797019958,0.8099950551986694,0.8927662968635559
1730867917.2629743,-0.36251282691955566,0.4846303462982178,-9.852459907531738,-0.0037964754147949966,0.047243070205690976,0.07102457724146821,0.9871495366096497,0.8092123866081238,0.8944442272186279
1730867917.3128428,-0.36927199363708496,0.5226848125457764,-9.89473819732666,0.013698469223067507,0.07002657993653684,0.06946405869992797,0.9876577258110046,0.8099570274353027,0.8942291140556335
1730867917.3628597,-0.39026790857315063,0.5588452219963074,-9.948671340942383,0.033466727506009646,0.08135411603941986,0.06259948838654553,0.9881604909896851,0.8109422922134399,0.8931449055671692
1730867917.4128873,-0.41338562965393066,0.6219648718833923,-9.99060344696045,0.0474523288883625,0.07607384775385048,0.047792829042298486,0.9888334274291992,0.8120060563087463,0.8928345441818237
1730867917.4627964,-0.44281163811683655,0.6766359210014343,-10.023735046386719,0.04890650259801417,0.052694462093087174,0.023811302091510216,0.9896228909492493,0.813223659992218,0.8926212191581726
1730867917.5129073,-0.4389359951019287,0.7269684672355652,-10.050950050354004,0.0363237191047541,0.014979097274580636,-0.0063818100780039175,0.9890537261962891,0.81688392162323,0.8914018869400024
1730867917.5628695,-0.45300227403640747,0.7515089511871338,-10.051800727844238,0.013567823686840324,-0.029801233328715385,-0.036969225518227684,0.9895684719085693,0.8185341954231262,0.8908665776252747
1730867917.6128175,-0.42526108026504517,0.7507323622703552,-10.04065227508545,-0.01195483026521511,-0.0719877998877956,-0.06125219435133232,0.9903151988983154,0.823207437992096,0.8915743231773376
1730867917.6626947,-0.4195476174354553,0.7520280480384827,-10.009941101074219,-0.03188598325385431,-0.10068002712173033,-0.07279752174640108,0.9909009337425232,0.8256469368934631,0.8912227153778076
1730867917.7127302,-0.4278082549571991,0.7590343952178955,-9.981541633605957,-0.04040015161747977,-0.10825838186553385,-0.06788609789287364,0.9910048842430115,0.8270010948181152,0.8917195796966553
1730867917.7626715,-0.4252438545227051,0.7479780912399292,-9.941390991210938,-0.036770937362340016,-0.09460747535693553,-0.047659701598315875,0.9913115501403809,0.8286857604980469,0.891420841217041
1730867917.81269,-0.43464741110801697,0.7058057188987732,-9.906559944152832,-0.0249136966328806,-0.06626951493183367,-0.017652377031331972,0.9922431707382202,0.8362017869949341,0.8917902708053589
1730867917.8626428,-0.4283360540866852,0.6507638692855835,-9.873641967773438,-0.01062855851479929,-0.03197058099119739,0.01455690559534584,0.992644190788269,0.839154064655304,0.8916634917259216
1730867917.912701,-0.4149952828884125,0.5901198983192444,-9.88852596282959,0.0013104543939882187,0.001432688999279192,0.04174822618563089,0.9933405518531799,0.8471378087997437,0.8919514417648315
1730867917.962672,-0.38949576020240784,0.5786342024803162,-9.897761344909668,0.008879341230478503,0.03017126623956706,0.05844850307051329,0.9938556551933289,0.8516930341720581,0.8920982480049133
1730867918.0127387,-0.35821062326431274,0.5675914883613586,-9.920333862304688,0.012889753471940013,0.05187319814674891,0.06173724451618443,0.9945922493934631,0.8583271503448486,0.8921200037002563
1730867918.0626738,-0.33501675724983215,0.5968403816223145,-9.949542999267578,0.015724893873606247,0.06372396730837623,0.051825553644886724,0.9952991604804993,0.8642914295196533,0.8923972249031067
1730867918.1126907,-0.33965879678726196,0.6153888702392578,-9.978779792785645,0.019320437788293857,0.06314976688715934,0.03190535497131325,0.996094822883606,0.8707737922668457,0.8928035497665405
1730867918.1626904,-0.34029683470726013,0.6437088847160339,-10.002009391784668,0.023657985092872185,0.04958699246704373,0.006810771360877485,0.9952265620231628,0.8678402304649353,0.8921567797660828
1730867918.2127302,-0.34916427731513977,0.6540693044662476,-10.002710342407227,0.027081301468800504,0.02549854903130109,-0.01858848149093876,0.995671808719635,0.8718938827514648,0.8922393918037415
1730867918.2626915,-0.3420116603374481,0.676458477973938,-10.016748428344727,0.027664306437373446,-0.003287966136900906,-0.03958485180175999,0.9960193634033203,0.8792027235031128,0.8920176029205322
1730867918.3127353,-0.33021485805511475,0.6936211585998535,-10.008707046508789,0.024418452832351625,-0.029043641229475455,-0.05170262119009661,0.9965712428092957,0.8846105933189392,0.8918676376342773
1730867918.3626246,-0.30107247829437256,0.7222917079925537,-10.022541046142578,0.018264466020257313,-0.04567754497097484,-0.05249893458807088,0.9969885945320129,0.8898383975028992,0.8918647766113281
1730867918.41258,-0.25719544291496277,0.7234335541725159,-10.007204055786133,0.01214327560546659,-0.051341221893236866,-0.04311614690523724,0.9975740313529968,0.8951073288917542,0.8915951251983643
1730867918.4625967,-0.19452990591526031,0.7038875818252563,-10.025954246520996,0.00984457240616694,-0.047720737639605916,-0.027598025940394295,0.9979902505874634,0.9025053381919861,0.8918593525886536
1730867918.512575,-0.16599050164222717,0.6930106282234192,-10.018552780151367,0.01422549997934527,-0.03759694577622245,-0.010963617331753314,0.9990987777709961,0.9134290218353271,0.8918898701667786
1730867918.562544,-0.1860494613647461,0.6804838180541992,-10.004106521606445,0.024894155214454546,-0.023690086117776604,0.0026289354722144683,0.9997245073318481,0.91908860206604,0.8918182253837585
1730867918.612555,-0.21336552500724792,0.6411958336830139,-9.968076705932617,0.03665484596239951,-0.008687994805258092,0.01131603592748685,1.0030453205108643,0.9250935316085815,0.8919563889503479
1730867918.6625512,-0.2731962502002716,0.575687050819397,-9.946928024291992,0.04168906742041256,0.005499170193975073,0.015959133096899787,1.004648208618164,0.9308750629425049,0.891983151435852
1730867918.7125185,-0.3414306938648224,0.5224562883377075,-9.903353691101074,0.03416020814906817,0.01882508758527829,0.01895312736521589,1.006356954574585,0.9367266893386841,0.8920538425445557
1730867918.7625256,-0.42106568813323975,0.4669204354286194,-9.880805969238281,0.012252795460347375,0.033246052469573115,0.022748384319889608,1.0069141387939453,0.9396771192550659,0.8920372724533081
1730867918.8125043,-0.4711219370365143,0.4506263732910156,-9.849489212036133,-0.022253184338746134,0.05103648322981641,0.029116710901600125,1.0083204507827759,0.9453204274177551,0.8921506404876709
1730867918.862515,-0.5160192251205444,0.42107492685317993,-9.836898803710938,-0.06306223233537211,0.07101195897912048,0.03804503203444693,1.0069483518600464,0.9478036761283875,0.8921055793762207
1730867918.9125354,-0.5006711483001709,0.4206611216068268,-9.857229232788086,-0.09924463061875231,0.08699619654351919,0.046865023948240055,1.0070160627365112,0.9549217224121094,0.8921211957931519
1730867918.9624553,-0.48753947019577026,0.44412216544151306,-9.899974822998047,-0.1193587269478816,0.09179159882156443,0.0511550788136523,1.0070563554763794,0.9608049988746643,0.8923474550247192
1730867919.0124216,-0.4776279628276825,0.4857240915298462,-9.927970886230469,-0.11677589595957447,0.0817325241272325,0.046680137112416434,1.0067874193191528,0.9671103358268738,0.8927097916603088
1730867919.0624137,-0.4610000252723694,0.5695973634719849,-9.976688385009766,-0.09250634311231451,0.057283267974289835,0.031175735929838893,1.0072005987167358,0.9650132060050964,0.8921764492988586
1730867919.1124344,-0.45372650027275085,0.6338880658149719,-9.998916625976562,-0.054468925435237146,0.021595159803166508,0.005640827615763832,1.0069620609283447,0.9690698981285095,0.8923500776290894
1730867919.1623836,-0.4450509548187256,0.66667640209198,-10.041692733764648,-0.013926690015425123,-0.019771034124822506,-0.02489953356955066,1.0078238248825073,0.9731624722480774,0.8920722007751465
1730867919.2124195,-0.4284715950489044,0.6885970830917358,-10.061599731445312,0.018834173764111513,-0.05874704020161777,-0.052559909904818174,1.0079365968704224,0.9767686128616333,0.8919985890388489
1730867919.2624025,-0.42304322123527527,0.7074689269065857,-10.064352035522461,0.03796084008137477,-0.08679899934520778,-0.07019701324042361,1.0081279277801514,0.9805080890655518,0.8917708396911621
1730867919.3124597,-0.3989790976047516,0.7127689123153687,-10.055036544799805,0.04335473607853441,-0.09845730627661903,-0.07446688459476619,1.0084209442138672,0.9840197563171387,0.8913623094558716
1730867919.3623807,-0.41185054183006287,0.719054102897644,-10.0450439453125,0.03944514962801479,-0.0939120631215274,-0.06640995451645448,1.00858736038208,0.9807337522506714,0.8918565511703491
1730867919.4123287,-0.4037120044231415,0.7125956416130066,-10.019927024841309,0.032168503604713725,-0.07843943262885249,-0.0500925059357489,1.008915662765503,0.9828638434410095,0.8915387988090515
1730867919.4623685,-0.396173894405365,0.7141834497451782,-9.986821174621582,0.025748667620824197,-0.058581252867251035,-0.030105389279710126,1.009368896484375,0.9904533624649048,0.8933772444725037
1730867919.5122988,-0.3696413040161133,0.6980866193771362,-9.952099800109863,0.021580950763783992,-0.03877255009759366,-0.009619302136507624,1.00981605052948,0.9946210980415344,0.893716037273407
1730867919.5622473,-0.3443892300128937,0.6613410115242004,-9.925004959106445,0.01962285685116413,-0.02086739651868244,0.0096055879331501,1.0100547075271606,0.9958588480949402,0.8949221968650818
1730867919.6122491,-0.3113170862197876,0.6323724389076233,-9.914093017578125,0.01995571017851297,-0.005061452446557698,0.026150014716880134,1.0105127096176147,0.9992194175720215,0.8955814242362976
1730867919.662233,-0.28581297397613525,0.5936161875724792,-9.91031265258789,0.02282155967832098,0.00912804432782954,0.038253274588641,1.0110281705856323,1.0026170015335083,0.8963268995285034
1730867919.712239,-0.29527127742767334,0.5644745826721191,-9.911259651184082,0.028002369385537604,0.022308352698759606,0.04409003301450934,1.0106630325317383,1.0025120973587036,0.8961121439933777
1730867919.7622042,-0.30094343423843384,0.5437559485435486,-9.915301322937012,0.03441689739801958,0.03505326214776984,0.042913726972723984,1.011041283607483,1.0050464868545532,0.8967012166976929
1730867919.812269,-0.33541232347488403,0.5207876563072205,-9.932138442993164,0.03949252493189749,0.0468744788673537,0.03566055582713245,1.0115110874176025,1.0076744556427002,0.897386908531189
1730867919.8622394,-0.3286557197570801,0.5323671698570251,-9.939990997314453,0.03932516576406257,0.05556794282525831,0.02420626010847164,1.0081349611282349,1.01172935962677,0.8975244760513306
1730867919.9122562,-0.30449819564819336,0.5249411463737488,-9.989144325256348,0.03128537908939728,0.058778408374737925,0.010429378043105456,1.0076600313186646,1.0155500173568726,0.8982084393501282
1730867919.9622273,-0.25915253162384033,0.5262733697891235,-10.014826774597168,0.017368668531838216,0.05560633725939426,-0.00429528344537364,1.0072563886642456,1.019416332244873,0.8988832831382751
1730867920.0131247,-0.21641285717487335,0.5176249742507935,-10.05483341217041,0.00458018987902241,0.04680367367877561,-0.019539876005543143,1.0057610273361206,1.019734501838684,0.8986173868179321
1730867920.062177,-0.1568196415901184,0.5392473936080933,-10.070466995239258,0.001059251957748004,0.034463517500216194,-0.03544192638065697,1.0052121877670288,1.022606372833252,0.8989492654800415
1730867920.1122763,-0.1568196415901184,0.5392473936080933,-10.070466995239258,0.010511552857438,0.021049384904125987,-0.05063200806664047,1.0059148073196411,1.0294005870819092,0.8999348878860474
1730867920.1122763,-0.11878899484872818,0.5613000988960266,-10.092235565185547,0.029591953902275512,0.008235694020271259,-0.061200605123274625,1.00591242313385,1.0294896364212036,0.8999448418617249
1730867920.1622162,-0.13247673213481903,0.5883821249008179,-10.059671401977539,0.0503216404829925,-0.0032506380792881513,-0.06324800298902547,1.005853295326233,1.0339645147323608,0.9003649950027466
1730867920.2131793,-0.20611651241779327,0.6270660161972046,-10.006254196166992,0.06442028948371979,-0.013549175355530971,-0.05549732372745572,1.00593900680542,1.0385959148406982,0.9006500840187073
1730867920.2622116,-0.3304888904094696,0.6577945947647095,-9.953263282775879,0.06537786225538586,-0.02406004117634527,-0.03858368414731149,1.0061843395233154,1.043046474456787,0.9008091688156128
1730867920.3122544,-0.4430495798587799,0.6480720043182373,-9.885218620300293,0.04786750463608343,-0.03703870252679704,-0.013124679081528652,1.0048637390136719,1.0412473678588867,0.9009320139884949
1730867920.3621864,-0.5685389637947083,0.6491441130638123,-9.822144508361816,0.008661874369227949,-0.053238161842184814,0.020066275506132006,1.0035371780395508,1.6035876274108887,0.9021985530853271
1730867920.4121761,-0.6602899432182312,0.6110832095146179,-9.767765998840332,-0.04809836680067524,-0.06897627446517664,0.05703706389506137,1.0029302835464478,1.8189265727996826,0.9029443860054016
1730867920.4621866,-0.7181351780891418,0.5854121446609497,-9.744513511657715,-0.10826545789538454,-0.07646380426694702,0.08949444795420368,1.0027515888214111,2.2062854766845703,0.9037660956382751
1730867920.5131671,-0.7161440253257751,0.5392699837684631,-9.780360221862793,-0.15440688103513203,-0.06877135084336652,0.1087077033188011,1.001914143562317,2.4488108158111572,0.9048093557357788
1730867920.5622692,-0.6734925508499146,0.536186695098877,-9.837681770324707,-0.1741472213504365,-0.04508740829405517,0.10934975295385305,1.0004907846450806,2.7201571464538574,0.9062985777854919
1730867920.613259,-0.614587664604187,0.5316058993339539,-9.92957878112793,-0.16243033987601851,-0.011459467274893895,0.08928849093736879,0.9990234971046448,2.9306857585906982,0.9076701402664185
1730867920.6631463,-0.5229911208152771,0.5332950353622437,-10.017328262329102,-0.1209184341446314,0.022887888114184938,0.04851550059548433,1.001969337463379,2.68778133392334,0.9051122665405273
1730867920.713201,-0.42436790466308594,0.5549089312553406,-10.093217849731445,-0.057280300782211475,0.04971589093359635,-0.009655092028200474,1.0011622905731201,2.834420680999756,0.905775249004364
1730867920.7631354,-0.36880582571029663,0.5645086765289307,-10.144861221313477,0.015908625395007047,0.06341940219508532,-0.07545998506504767,1.0017237663269043,3.171910285949707,0.9045582413673401
1730867920.813088,-0.36880582571029663,0.5645086765289307,-10.144861221313477,0.08324471365863005,0.06155476044696115,-0.13284003923960205,1.0015774965286255,3.586458683013916,0.9041659832000732
1730867920.813088,-0.32667845487594604,0.6054354310035706,-10.15234661102295,0.13019404476959373,0.04598133579734577,-0.16593468161600855,1.0015745162963867,3.5934672355651855,0.9041564464569092
1730867920.8630705,-0.301807701587677,0.6418166160583496,-10.14108657836914,0.1479679431509093,0.022217528830094632,-0.16652335094201112,1.0016584396362305,3.8411076068878174,0.9036064147949219
1730867920.9130204,-0.25471359491348267,0.6721408367156982,-10.11586856842041,0.13796539641694872,-0.004065722037521625,-0.1371896795708062,1.002086877822876,4.084074974060059,0.9026988744735718
1730867920.9631171,-0.2271338850259781,0.6980972290039062,-10.061614036560059,0.11186493188349653,-0.02983309531104397,-0.08892778686798886,1.0012381076812744,4.121931552886963,0.9038565754890442
1730867921.0130703,-0.20954757928848267,0.7065774202346802,-10.038626670837402,0.08509344306657379,-0.05388940540611621,-0.03520057704619632,1.0015391111373901,4.309032917022705,0.9034042954444885
1730867921.0630496,-0.22979313135147095,0.6997128129005432,-9.988232612609863,0.06750932379538191,-0.07359757565597437,0.012668478446846826,1.0020519495010376,4.5066375732421875,0.9028991460800171
1730867921.1130052,-0.21841494739055634,0.6867364048957825,-9.95551586151123,0.058971284666896245,-0.08371205250284533,0.047728962973175346,1.0007281303405762,4.567695617675781,0.9040089845657349
1730867921.1630418,-0.20061856508255005,0.6972407102584839,-9.91840934753418,0.053501326805432556,-0.07998437079831344,0.06851384147625415,1.0008928775787354,4.7407989501953125,0.9041135907173157
1730867921.2129982,-0.1954057216644287,0.687157154083252,-9.90718936920166,0.046308535121623744,-0.06328630703499939,0.07740433711044614,1.001183032989502,4.913428783416748,0.9044017791748047
1730867921.2629414,-0.22376690804958344,0.6721749901771545,-9.878914833068848,0.03656109354221388,-0.039402838208983944,0.07761226594447213,1.000429391860962,4.987117290496826,0.9042151570320129
1730867921.3129704,-0.2750062346458435,0.651385486125946,-9.85401725769043,0.02555160023760642,-0.015371366629677072,0.07233137088835348,1.000558853149414,5.126477241516113,0.9045584201812744
1730867921.3629475,-0.32911527156829834,0.6224662065505981,-9.83869457244873,0.013635794981501258,0.004000304964954686,0.06459720878078942,0.9994269013404846,5.4949727058410645,0.9040908217430115
1730867921.412961,-0.41285350918769836,0.634627103805542,-9.828850746154785,-0.0008458423202481482,0.01713100674577349,0.05629662311218284,0.9992058873176575,5.704033374786377,0.9043617844581604
1730867921.462973,-0.4732954800128937,0.6780179142951965,-9.826126098632812,-0.019835243356285635,0.02391475080356506,0.047925655824414125,0.9998836517333984,6.0151519775390625,0.9039821624755859
1730867921.512967,-0.5155500173568726,0.7179912328720093,-9.827920913696289,-0.043139427035948426,0.02356731163094962,0.03928083661700922,0.9998884201049805,6.266580581665039,0.9042008519172668
1730867921.5628867,-0.5397962927818298,0.7487846612930298,-9.864274024963379,-0.06720189718191441,0.015106852878991134,0.029976079867126745,1.000264286994934,5.913563251495361,0.9038510918617249
1730867921.6128798,-0.5510004758834839,0.758361279964447,-9.898487091064453,-0.08591941415193519,-0.00042609438036201024,0.0194668742481032,1.0001044273376465,5.9772114753723145,0.9039896130561829
1730867921.6627362,-0.5529366135597229,0.7609726786613464,-9.957982063293457,-0.09357921905784072,-0.018923626146201238,0.0070200298336383325,0.9996238946914673,5.81303071975708,0.9036757946014404
1730867921.7126667,-0.5208026170730591,0.7560845613479614,-10.009907722473145,-0.08762272668315879,-0.03438443410716304,-0.00795173153015358,0.9990506172180176,5.825756549835205,0.9036874175071716
1730867921.7626517,-0.4477885961532593,0.7172375917434692,-10.05128288269043,-0.06889596099570794,-0.04153909448192198,-0.02518074633846526,0.9982792139053345,5.83839225769043,0.9036571979522705
1730867921.8126857,-0.3641901910305023,0.6954477429389954,-10.076416969299316,-0.0395249459794576,-0.037720313811497846,-0.043358050991547804,0.9973810911178589,5.85079288482666,0.903542160987854
1730867921.8627052,-0.32480061054229736,0.6890383362770081,-10.066129684448242,-0.0007650043436098989,-0.023062982305828504,-0.06113335986959989,0.9964296817779541,5.863162517547607,0.903296709060669
1730867921.9126492,-0.3374404013156891,0.6788040995597839,-10.048178672790527,0.046493719365267104,-0.00018177924599390057,-0.07759483067741084,0.9994040727615356,5.755861759185791,0.9035617113113403
1730867921.9626448,-0.31984972953796387,0.6617079973220825,-10.000581741333008,0.09815837410487888,0.026163793184793747,-0.09078693414732791,0.999317467212677,5.755642414093018,0.9030270576477051
1730867922.012643,-0.34346485137939453,0.5959891080856323,-9.990119934082031,0.1434621162085128,0.049972520109272556,-0.09598869346864823,0.9996660351753235,5.755643367767334,0.9024207592010498
1730867922.062646,-0.37019839882850647,0.566798985004425,-9.942276000976562,0.16747067951248834,0.06656363720081322,-0.08700125283003254,1.0003998279571533,5.755789279937744,0.9015894532203674
1730867922.1125507,-0.3971317708492279,0.5276512503623962,-9.926742553710938,0.15995113296058242,0.07572978563994015,-0.06045061335971335,0.9993804097175598,5.7317047119140625,0.9030841588973999
1730867922.1626744,-0.39792245626449585,0.5146808624267578,-9.919520378112793,0.12225743385039724,0.08111907936633173,-0.019349257679648846,0.9999881982803345,5.729381084442139,0.9027310609817505
1730867922.2125561,-0.4099477529525757,0.4955824315547943,-9.945135116577148,0.06684306071222225,0.08515462443932298,0.026152275118358652,0.9990769624710083,5.713748455047607,0.9030048251152039
1730867922.2625234,-0.38254863023757935,0.4811253845691681,-9.967098236083984,0.01134963022179564,0.08598454041553605,0.061891670809433565,0.9993313550949097,5.7086896896362305,0.9029825329780579
1730867922.3124912,-0.36055290699005127,0.48320239782333374,-10.00763988494873,-0.028719020842207243,0.08030443270815601,0.0765247212652658,0.998553991317749,5.699063301086426,0.9029942154884338
1730867922.3624797,-0.341955304145813,0.5043011903762817,-10.022722244262695,-0.045139599083733106,0.06716175857240293,0.0670824951274208,0.9983775615692139,5.693202495574951,0.9032029509544373
1730867922.4125087,-0.3415364623069763,0.5553908348083496,-10.055129051208496,-0.03871102675347929,0.048082457669095774,0.039408147107454314,0.9979913830757141,5.68445348739624,0.9028545022010803
1730867922.4624717,-0.31619715690612793,0.5946691632270813,-10.078043937683105,-0.017576503986754255,0.02521842682293472,0.004485071158354579,0.9976609349250793,5.677032947540283,0.9029374718666077
1730867922.5125158,-0.3136422634124756,0.6366427540779114,-10.073087692260742,0.007474481525724349,0.0006919676107593606,-0.026648192284754055,0.9973167777061462,5.669620037078857,0.9029929637908936
1730867922.5626192,-0.299734890460968,0.6509671211242676,-10.064752578735352,0.02794387382993401,-0.023250182091074333,-0.0465745714957856,0.9977356195449829,5.673828601837158,0.9025648236274719
1730867922.6125622,-0.32082244753837585,0.6457155346870422,-10.028951644897461,0.039726908670111215,-0.04438266721953567,-0.052553599834017854,0.9977203011512756,5.669340133666992,0.9023406505584717
1730867922.6624305,-0.334926038980484,0.6331366300582886,-9.99814510345459,0.041941992467208415,-0.059696912461131464,-0.04542222219140713,0.9978059530258179,5.664791584014893,0.9019989371299744
1730867922.7124503,-0.334926038980484,0.6331366300582886,-9.99814510345459,0.035007321897158744,-0.06505669974248336,-0.027776754569454068,0.997995138168335,5.6598920822143555,0.9015482664108276
1730867922.7124503,-0.3658643960952759,0.5762295722961426,-9.942777633666992,0.02033746469354654,-0.05760597614087416,-0.0029639703630230203,0.9980031251907349,5.65972375869751,0.9015318155288696
1730867922.7625215,-0.4077340066432953,0.5191810131072998,-9.879551887512207,0.0003774843276934661,-0.03763796763852384,0.025827499486868036,0.9982377886772156,5.662387371063232,0.9023926854133606
1730867922.8124986,-0.48736125230789185,0.46303409337997437,-9.846857070922852,-0.022335569569486034,-0.007903708580482859,0.05614219853275359,0.9983152747154236,5.658541679382324,0.9024329781532288
1730867922.862431,-0.5398920774459839,0.45698365569114685,-9.799551963806152,-0.045654572196623,0.026527638830900906,0.08439676718208836,0.9987592697143555,5.645358562469482,0.9024749398231506
1730867922.912497,-0.5433986186981201,0.4576988220214844,-9.79284954071045,-0.0671828037546136,0.05797110437318459,0.10454644336285034,0.9987464547157288,5.639078140258789,0.9028013348579407
1730867922.9624875,-0.5583467483520508,0.49589040875434875,-9.804997444152832,-0.08321343727957266,0.07801358978142894,0.11074585349610937,0.999226987361908,5.630440711975098,0.9025593400001526
1730867923.0124893,-0.5607618689537048,0.5045517086982727,-9.86123275756836,-0.08908389411733972,0.08082636088625177,0.1005040819309104,0.9996466040611267,5.61867094039917,0.902494490146637
1730867923.0624492,-0.5626705288887024,0.5428432822227478,-9.907327651977539,-0.0821264109563162,0.06597414467136405,0.07537849082556089,0.9995119571685791,5.611248016357422,0.9029285311698914
1730867923.1123724,-0.5159574151039124,0.5833306908607483,-9.980012893676758,-0.0638977857505982,0.03858702697494681,0.040091908330676794,0.9991934299468994,5.603905200958252,0.9035101532936096
1730867923.1623719,-0.4323241114616394,0.6358659267425537,-10.053264617919922,-0.03843492992541997,0.005778713385459797,0.00015571778938474994,0.9987461566925049,5.596617698669434,0.9041423797607422
1730867923.2123892,-0.36466214060783386,0.6735111474990845,-10.096919059753418,-0.008463727429155611,-0.027571942123708743,-0.041178321275376795,1.0000213384628296,5.604242324829102,0.902318000793457
1730867923.2623866,-0.31198957562446594,0.7282827496528625,-10.113313674926758,0.025492578901739053,-0.05940044938085451,-0.0824740394695154,1.000038504600525,5.5995378494262695,0.9021967053413391
1730867923.3123782,-0.24827206134796143,0.7516496181488037,-10.095813751220703,0.06137603402728857,-0.08732349254316484,-0.11889729936965002,1.000638484954834,5.590634822845459,0.9017306566238403
1730867923.362304,-0.2113746851682663,0.7569206357002258,-10.086834907531738,0.0930698250577187,-0.10663688244368236,-0.14022772195050834,1.001064419746399,5.584023475646973,0.9011314511299133
1730867923.412245,-0.16557849943637848,0.7490372061729431,-10.046141624450684,0.11342129280751473,-0.11231609338063892,-0.13741948809288473,1.0017597675323486,5.577045917510986,0.9001697897911072
1730867923.462274,-0.14726874232292175,0.7107678055763245,-9.994379997253418,0.11899633529643515,-0.10202161317470473,-0.109424834066436,1.0027230978012085,5.569993019104004,0.8989291787147522
1730867923.5122516,-0.1330244392156601,0.7223209142684937,-9.929677963256836,0.11233699534183213,-0.07741966102567695,-0.06253556198324216,1.0031331777572632,5.576366901397705,0.901332676410675
1730867923.5621996,-0.16649489104747772,0.7313100099563599,-9.895965576171875,0.09976989340935102,-0.04411344485414273,-0.0063202194629171475,1.0041383504867554,5.571880340576172,0.9009097814559937
1730867923.6121995,-0.20295271277427673,0.7377085089683533,-9.83651351928711,0.08540880411391294,-0.010529351990860534,0.04817976530281662,1.0055845975875854,5.559931755065918,0.9013397097587585
1730867923.6621554,-0.265947163105011,0.7277194857597351,-9.817038536071777,0.06778043921932775,0.014847729945706614,0.08990033063438486,1.0071029663085938,5.546812534332275,0.9013797640800476
1730867923.712143,-0.3149866759777069,0.7116361260414124,-9.791522026062012,0.043579598519490184,0.027321589432613185,0.1112324657382815,1.0084826946258545,5.538428783416748,0.9016408920288086
1730867923.7621503,-0.36858171224594116,0.7066648006439209,-9.820351600646973,0.01302632933133021,0.027903175925219875,0.11053687358371266,1.009913444519043,5.530232906341553,0.9021738767623901
1730867923.8122053,-0.38563159108161926,0.6872729063034058,-9.843039512634277,-0.02002526533146426,0.021712973723217864,0.09168929607751142,1.0113463401794434,5.522035598754883,0.9029632210731506
1730867923.8621962,-0.4165806174278259,0.6829655170440674,-9.888045310974121,-0.0515890802517229,0.014878951471020287,0.06159163398791844,1.008741021156311,5.530745983123779,0.901446521282196
1730867923.912227,-0.42458730936050415,0.7168723344802856,-9.940871238708496,-0.07895727922021056,0.011676025019439047,0.02719238916130932,1.00913667678833,5.525978088378906,0.9017459750175476
1730867923.9621544,-0.42270222306251526,0.7387709617614746,-10.001209259033203,-0.09862361296376537,0.012162212841267811,-0.006238865944644389,1.0085523128509521,5.514392375946045,0.9011021256446838
1730867924.012296,-0.4044676125049591,0.7332521080970764,-10.046422958374023,-0.10538675046204041,0.012451104095973825,-0.03535475332763404,1.0084141492843628,5.506656169891357,0.9010456204414368
1730867924.062219,-0.3690372407436371,0.7200651168823242,-10.082000732421875,-0.09555578708859382,0.009029113826468572,-0.058098905932162506,1.0080211162567139,5.4989705085754395,0.900870680809021
1730867924.1121726,-0.3718254864215851,0.7324740290641785,-10.091644287109375,-0.0701247964690102,0.002532734205817706,-0.07327356457344164,1.0074183940887451,5.49130392074585,0.9005293846130371
1730867924.162207,-0.3589347004890442,0.6744718551635742,-10.087013244628906,-0.03454918954588586,-0.003228668161688665,-0.08121701748199579,1.0083165168762207,5.499321937561035,0.9006420969963074
1730867924.2121649,-0.40385377407073975,0.6323186159133911,-10.063884735107422,0.0029812303727993796,-0.004307440897806046,-0.08347988938167418,1.0085557699203491,5.484847068786621,0.9003655314445496
1730867924.2621605,-0.44106045365333557,0.5825477242469788,-10.020054817199707,0.03299767272586136,0.0013704020258525139,-0.08022483802694903,1.0086212158203125,5.47707986831665,0.8998675346374512
1730867924.3121388,-0.45182767510414124,0.55655837059021,-9.990262031555176,0.04721832451280361,0.013152100245843875,-0.06907073416816067,1.0089260339736938,5.464699745178223,0.9000091552734375
1730867924.362175,-0.44412094354629517,0.5214331150054932,-9.974776268005371,0.04262145099795972,0.028250804521102797,-0.0480530967132225,1.0092118978500366,5.455638885498047,0.8995293974876404
1730867924.4122,-0.447060227394104,0.48570287227630615,-9.946439743041992,0.02382067695089595,0.043135709106241614,-0.019402783422637786,1.0095809698104858,5.4466633796691895,0.8989651203155518
1730867924.462132,-0.4143323600292206,0.47358646988868713,-9.938301086425781,0.0008250072101756937,0.054939302674757516,0.010581896641160687,1.0099846124649048,5.437726974487305,0.8983843922615051
1730867924.512082,-0.4155789911746979,0.496071457862854,-9.934406280517578,-0.01610856780555738,0.06268182903671317,0.03542893358192957,1.0091679096221924,5.448615074157715,0.8998163342475891
1730867924.5630054,-0.4051249325275421,0.5352334976196289,-9.936527252197266,-0.02097760085387641,0.06651341642163863,0.05149571847793889,1.0092164278030396,5.44342041015625,0.8998052477836609
1730867924.6120496,-0.40113145112991333,0.5619067549705505,-9.93344783782959,-0.013957805344313111,0.06503970609154477,0.057628299059862734,1.009374976158142,5.433215618133545,0.8998724818229675
1730867924.6620376,-0.3802962601184845,0.5782376527786255,-9.924999237060547,-0.00011270044643876256,0.055099715131049415,0.05409975577945114,1.0094361305236816,5.426957130432129,0.9000368118286133
1730867924.7120028,-0.3940991759300232,0.5664893388748169,-9.914887428283691,0.01415602192875923,0.035755636611918926,0.043019814748761286,1.0095148086547852,5.420821666717529,0.9003231525421143
1730867924.7629805,-0.38105273246765137,0.568987250328064,-9.88960075378418,0.02417852468755989,0.011300536236237727,0.028701651727450338,1.0079219341278076,5.4169697761535645,0.899792492389679
1730867924.8129506,-0.39884188771247864,0.5435652732849121,-9.887872695922852,0.028007969777481326,-0.010816098836863484,0.016279744330861948,1.0077141523361206,5.411676406860352,0.8999067544937134
1730867924.8629212,-0.42964819073677063,0.5553613305091858,-9.872252464294434,0.02560710225931279,-0.024208377094992507,0.009179269501367698,1.0062800645828247,5.39840030670166,0.8996483087539673
1730867924.912855,-0.456376850605011,0.5932988524436951,-9.88308334350586,0.017553703400028178,-0.026458281426628164,0.007557087178240285,1.0057849884033203,5.390270233154297,0.8996737003326416
1730867924.9628422,-0.4624244272708893,0.6105636954307556,-9.91286849975586,0.005020686560342778,-0.02034776622381313,0.008799567093685704,1.0052813291549683,5.3814544677734375,0.8997228741645813
1730867925.012804,-0.4280281066894531,0.6199129819869995,-9.954980850219727,-0.009385632978246008,-0.012584395756688951,0.00884095321593903,1.0048249959945679,5.373502731323242,0.8997877240180969
1730867925.0627375,-0.36613473296165466,0.638164222240448,-10.011582374572754,-0.021503454983137063,-0.010012271132549752,0.003267245386366974,1.0043020248413086,5.365025520324707,0.8998712301254272
1730867925.1127965,-0.3248078227043152,0.6387208700180054,-10.09411907196045,-0.02621164952436953,-0.016223240109067488,-0.011841284554530856,1.005434513092041,5.379040718078613,0.8984335064888
1730867925.1627507,-0.2762826681137085,0.6529631018638611,-10.128735542297363,-0.019220725243766845,-0.030318611357540062,-0.03821693938727482,1.0051195621490479,5.374361991882324,0.8981920480728149
1730867925.2127883,-0.23700419068336487,0.6820206642150879,-10.156463623046875,-0.00018240283406007612,-0.04730745126311098,-0.0718444564396769,1.0047777891159058,5.369550704956055,0.897809624671936
1730867925.2627275,-0.17163556814193726,0.7125641107559204,-10.149053573608398,0.0265966176660931,-0.06078486520341628,-0.10232736453532416,1.0046894550323486,5.362399101257324,0.8969465494155884
1730867925.3126981,-0.16021138429641724,0.7085341215133667,-10.123310089111328,0.0550779006997334,-0.06683361235212126,-0.11878494437677654,1.0045169591903687,5.356227397918701,0.8961235284805298
1730867925.3628232,-0.1523834466934204,0.6981266736984253,-10.080260276794434,0.07904828311669321,-0.06481441945637838,-0.11542048794748877,1.0045123100280762,5.349742412567139,0.8949819207191467
1730867925.4126725,-0.19146601855754852,0.716230571269989,-10.008464813232422,0.09192697069950272,-0.05542595861212147,-0.09169222833735982,1.0054643154144287,5.340490818023682,0.895580530166626
1730867925.4626985,-0.26211288571357727,0.7152659893035889,-9.946913719177246,0.08880362225606675,-0.04037664547231304,-0.051055586693776786,1.0059267282485962,5.333313465118408,0.8947378993034363
1730867925.51269,-0.3266550898551941,0.742530107498169,-9.847732543945312,0.0685895320496241,-0.023168585208703144,-0.0007898377220245945,1.0062835216522217,5.321950912475586,0.8944624066352844
1730867925.5626912,-0.37807562947273254,0.7568450570106506,-9.822850227355957,0.033981794430463966,-0.008327875553878282,0.049241605995736626,1.006846308708191,5.313232898712158,0.8938461542129517
1730867925.6126597,-0.3919569253921509,0.7517863512039185,-9.780592918395996,-0.008441678096515585,0.0005994265602023091,0.08916364017186032,1.0068150758743286,5.303678035736084,0.8935251832008362
1730867925.6626797,-0.40722957253456116,0.7226712107658386,-9.788442611694336,-0.048708990835261375,0.0028662269453782504,0.11144030284679159,1.0071061849594116,5.2941741943359375,0.8932750821113586
1730867925.7126846,-0.44573599100112915,0.695652425289154,-9.81810188293457,-0.07698437208446274,0.0011242957609866365,0.11268361860324308,1.0072383880615234,5.284672737121582,0.8933082818984985
1730867925.7626455,-0.47629016637802124,0.638830304145813,-9.850211143493652,-0.0883690222097036,0.00044754830427825974,0.09407342475996244,1.006996989250183,5.284074783325195,0.8928772211074829
1730867925.8126802,-0.4949360489845276,0.5942549109458923,-9.889948844909668,-0.08492430939934303,0.0059063027820736354,0.06053594245349167,1.0067830085754395,5.2774505615234375,0.8929932713508606
1730867925.8626785,-0.4947936534881592,0.5332140326499939,-9.914292335510254,-0.0728117242217352,0.019471171833734275,0.019864924640907246,1.0063648223876953,5.270785331726074,0.893213152885437
1730867925.9127777,-0.48932406306266785,0.47114431858062744,-9.933045387268066,-0.05763544993555897,0.03931936022904347,-0.01921875914751606,1.0068550109863281,5.266149520874023,0.8918171525001526
1730867925.9627414,-0.5075290203094482,0.45375964045524597,-9.936478614807129,-0.04273226979079575,0.06203905175516924,-0.049861211440292666,1.0065826177597046,5.259528160095215,0.8914484977722168
1730867926.012618,-0.49123862385749817,0.42978641390800476,-9.934762001037598,-0.029950685533990697,0.08308866299859133,-0.0679677142313563,1.006221890449524,5.253136157989502,0.8909362554550171
1730867926.0626378,-0.4642999768257141,0.466354638338089,-9.920948028564453,-0.020013223149911077,0.09621214361447149,-0.07164553299371473,1.0068273544311523,5.243556499481201,0.8927345871925354
1730867926.1127365,-0.42558202147483826,0.48262208700180054,-9.948431015014648,-0.01218451754706696,0.09612807241796761,-0.06188891494543469,1.006679892539978,5.236578941345215,0.8925930857658386
1730867926.162669,-0.3743411898612976,0.4964786767959595,-9.950973510742188,-0.004361084538525582,0.08171018798327212,-0.043574605120196744,1.0077897310256958,5.221336841583252,0.8938942551612854
1730867926.2126231,-0.3353707194328308,0.5479205250740051,-9.997424125671387,0.005884446172956012,0.056068201846809745,-0.024240535916940892,1.0080379247665405,5.211462020874023,0.894075870513916
1730867926.2625883,-0.31515005230903625,0.6338639855384827,-10.018736839294434,0.01944366747077394,0.02431440445868046,-0.011018723222708615,1.0086935758590698,5.200606822967529,0.8949765563011169
1730867926.3126028,-0.29070764780044556,0.7003456354141235,-10.052441596984863,0.0344500770617674,-0.009084132026414414,-0.007903424035719048,1.0091562271118164,5.1896586418151855,0.8953531980514526
1730867926.3625777,-0.2935999035835266,0.7139226198196411,-10.058160781860352,0.04713579360245285,-0.04074977613991198,-0.014474052851773361,1.009421944618225,5.182947158813477,0.8968938589096069
1730867926.4125986,-0.29060837626457214,0.7476780414581299,-10.072809219360352,0.053843780904996766,-0.06693051798002321,-0.0264257272800155,1.0099270343780518,5.174282550811768,0.897445559501648
1730867926.462614,-0.2899708151817322,0.754275918006897,-10.061487197875977,0.05265807994445801,-0.0835441299202031,-0.03781131787393085,1.0101816654205322,5.159714221954346,0.8991988301277161
1730867926.512583,-0.2674645781517029,0.7453426122665405,-10.047977447509766,0.04423635553659012,-0.08793601195050883,-0.04357633783056345,1.01076340675354,5.148666858673096,0.8999700546264648
1730867926.5626128,-0.26389485597610474,0.7295265197753906,-10.031590461730957,0.031750177270924884,-0.07991290631430753,-0.041082130336260826,1.0114521980285645,5.137196063995361,0.9006490707397461
1730867926.6126063,-0.2506179213523865,0.6968023777008057,-10.001880645751953,0.01974645905448974,-0.06136956122899059,-0.030315466043006764,1.012197732925415,5.125682353973389,0.90123051404953
1730867926.6625412,-0.2434641718864441,0.67279452085495,-9.990275382995605,0.012297845808378616,-0.035390755936501164,-0.013038860157073832,1.0129834413528442,5.114042282104492,0.9017581343650818
1730867926.7125204,-0.26475030183792114,0.6860123872756958,-9.971640586853027,0.011413670926847794,-0.005568343408458982,0.008266429741259903,1.0108453035354614,5.1405510902404785,0.9010022282600403
1730867926.7625442,-0.31354302167892456,0.6396402716636658,-9.977388381958008,0.015947031944413846,0.024077298935938306,0.030546317324323682,1.0111360549926758,5.135116100311279,0.9014753699302673
1730867926.8125522,-0.30691441893577576,0.6265769600868225,-9.950031280517578,0.02131798531185491,0.04911775264439643,0.049436137699728794,1.0113813877105713,5.119219779968262,0.9031336307525635
1730867926.8625693,-0.29882022738456726,0.6008970737457275,-9.947202682495117,0.021869325218286342,0.06575285305876938,0.059958906198036,1.011783480644226,5.1096601486206055,0.9042259454727173
1730867926.912539,-0.30798783898353577,0.600900411605835,-9.939179420471191,0.015280808687713084,0.07214525267227626,0.059400918437073805,1.0122371912002563,5.097108364105225,0.9052951335906982
1730867926.9625797,-0.3143889904022217,0.5779833197593689,-9.948785781860352,0.004231554509254899,0.06880902093722666,0.0490560836853696,1.0127036571502686,5.086775779724121,0.9065477848052979
1730867927.0125003,-0.3396785855293274,0.5544521808624268,-9.938739776611328,-0.006617324598855992,0.058436039259807185,0.03304895432871817,1.0129551887512207,5.079408168792725,0.9070830345153809
1730867927.0624526,-0.338694304227829,0.532105565071106,-9.957921028137207,-0.014227080381850131,0.04529691847601183,0.016068681435365245,1.0132546424865723,5.071804523468018,0.9080216884613037
1730867927.1124675,-0.32829004526138306,0.5107345581054688,-9.964591026306152,-0.01777136552306985,0.033716018114006194,0.001592131147235173,1.0143928527832031,5.058492660522461,0.9090580344200134
1730867927.1624575,-0.35876139998435974,0.5350562334060669,-9.971664428710938,-0.017501326277837837,0.026191102997215665,-0.008872750256729404,1.015806794166565,5.0444560050964355,0.9086315035820007
1730867927.2124302,-0.42956188321113586,0.5150709748268127,-9.988398551940918,-0.01484556748996256,0.022412898905163146,-0.015287431882220743,1.016610026359558,5.033632278442383,0.9089741110801697
1730867927.2624722,-0.4808761179447174,0.5084150433540344,-9.97044849395752,-0.013368775288801234,0.020334766536435976,-0.018137306953139153,1.0173817873001099,5.022808074951172,0.9092763662338257
1730867927.3123786,-0.5026237964630127,0.5439953207969666,-9.953457832336426,-0.018086074530602483,0.018416503955455577,-0.017892061066616977,1.01810622215271,5.012148857116699,0.9095305800437927
1730867927.362396,-0.5175440311431885,0.6032612919807434,-9.890039443969727,-0.03288791047645814,0.015852103876690584,-0.014463233560568,1.0162909030914307,5.026899814605713,0.9082295298576355
1730867927.4124362,-0.5606838464736938,0.6282726526260376,-9.872658729553223,-0.057529712388281376,0.011107774227797629,-0.00700429623262157,1.0164048671722412,5.020748138427734,0.9082251787185669
1730867927.4624102,-0.5817605257034302,0.6171857714653015,-9.838688850402832,-0.08588858964782034,0.0026832897633249655,0.004702467713004268,1.0163377523422241,5.014542579650879,0.9082179665565491
1730867927.5123959,-0.6082737445831299,0.5923153758049011,-9.833674430847168,-0.1083716023548169,-0.00837656355415913,0.018878093617484444,1.0168615579605103,5.012303352355957,0.9080679416656494
1730867927.5624022,-0.591769278049469,0.5920900106430054,-9.832382202148438,-0.11768334102933709,-0.018315294022375646,0.03248287432496999,1.0166269540786743,5.007080554962158,0.9081549048423767
1730867927.6123607,-0.5595180988311768,0.599888026714325,-9.869001388549805,-0.11140530282484504,-0.023371164844744195,0.042117729218303424,1.0161060094833374,5.001809597015381,0.9083350896835327
1730867927.6624177,-0.5313223600387573,0.6273695230484009,-9.899589538574219,-0.09013125855142633,-0.02249883731212972,0.04403555853937739,1.0177631378173828,4.995121955871582,0.9081165790557861
1730867927.7123518,-0.5095723867416382,0.6273211240768433,-9.970537185668945,-0.056704587884802427,-0.01781585582415611,0.035264107815470166,1.0188463926315308,4.979195594787598,0.9081209301948547
1730867927.76231,-0.5095723867416382,0.6273211240768433,-9.970537185668945,-0.017575808835113525,-0.012528492306670694,0.016041908099138105,1.0190815925598145,4.970065116882324,0.9082870483398438
1730867927.76231,-0.43672388792037964,0.6673977375030518,-9.996858596801758,0.01808559625702679,-0.008715138313981479,-0.008661501736680493,1.0190837383270264,4.969971656799316,0.9082889556884766
1730867927.8122876,-0.369229257106781,0.7000156044960022,-10.057652473449707,0.04348246125788489,-0.007526049424341109,-0.03131916504841586,1.0201536417007446,4.965853691101074,0.908042311668396
1730867927.8622708,-0.2803756296634674,0.7057729959487915,-10.094565391540527,0.058621597218395716,-0.010131799055974501,-0.046820833181857174,1.0208306312561035,4.958249568939209,0.9079471230506897
1730867927.912309,-0.22426263988018036,0.7011024355888367,-10.09797191619873,0.06853650010772916,-0.016430148790542703,-0.05454771466142117,1.0216742753982544,4.950536727905273,0.9077234864234924
1730867927.96222,-0.18999291956424713,0.6942793726921082,-10.118877410888672,0.07851284445813873,-0.023547120525730096,-0.056266898760727435,1.0215929746627808,4.953446388244629,0.9078822135925293
1730867928.012212,-0.1340642124414444,0.6970012784004211,-10.127595901489258,0.09143951538750383,-0.027447167407239723,-0.054137339424015093,1.0224145650863647,4.948286056518555,0.9076062440872192
1730867928.062227,-0.08021216839551926,0.6781046390533447,-10.110250473022461,0.10631111754362732,-0.025835674741264653,-0.049689487075762304,1.0229207277297974,4.938042640686035,0.907815158367157
1730867928.1122332,-0.035471100360155106,0.6582586765289307,-10.075908660888672,0.11838944438978762,-0.019026664319349375,-0.042884545602995566,1.0240044593811035,4.930826187133789,0.9075521230697632
1730867928.1622057,-0.0563645176589489,0.6326547265052795,-10.032024383544922,0.12234916010622766,-0.008790223353709908,-0.032361909270275324,1.0253984928131104,4.9235100746154785,0.9071928262710571
1730867928.2122529,-0.10260435193777084,0.6549558639526367,-9.966327667236328,0.11498043806392721,0.002956178602451299,-0.0163868116438508,1.0270841121673584,4.916211128234863,0.9067738652229309
1730867928.2621949,-0.25650033354759216,0.714933454990387,-9.891741752624512,0.09507454844682,0.014165128646828904,0.006938420350223855,1.024980902671814,4.924373626708984,0.9059757590293884
1730867928.3121877,-0.36020368337631226,0.7409242987632751,-9.820570945739746,0.062196328926319544,0.021825141100597016,0.03866549750375793,1.026000738143921,4.920166969299316,0.9056198000907898
1730867928.3622005,-0.48670652508735657,0.6939242482185364,-9.795207977294922,0.017182068761904444,0.02290162706853726,0.07566313965967689,1.0268361568450928,4.908936023712158,0.9041029214859009
1730867928.4122036,-0.5604654550552368,0.6832234263420105,-9.761463165283203,-0.035791530809313056,0.017253816128155255,0.10919828142389353,1.0278050899505615,4.902295112609863,0.9036999344825745
1730867928.4621875,-0.5768617987632751,0.689672589302063,-9.776453971862793,-0.08815984276803825,0.008408921822826425,0.12910566975906018,1.0300841331481934,4.890494346618652,0.9021152257919312
1730867928.5121653,-0.5790609121322632,0.6510577201843262,-9.811595916748047,-0.12843576463499803,0.0009220065826228451,0.12916352662739441,1.031378984451294,4.880943298339844,0.9016253352165222
1730867928.5621777,-0.5592301487922668,0.6153718829154968,-9.860365867614746,-0.146397980077808,-0.0018331935239643468,0.10887234729333753,1.0323480367660522,4.871246814727783,0.9014268517494202
1730867928.6121466,-0.5184458494186401,0.5649572014808655,-9.904958724975586,-0.1375027750622248,0.0024451961327810034,0.07206155242588788,1.032003402709961,4.879586219787598,0.9008631706237793
1730867928.6621516,-0.49613478779792786,0.5409051775932312,-9.940052032470703,-0.10472089518891846,0.014871765922553749,0.025188287250907944,1.032277226448059,4.8745341300964355,0.9006941318511963
1730867928.7120621,-0.48433464765548706,0.517009437084198,-9.977075576782227,-0.05767669565287153,0.03340009270071932,-0.022977968296848617,1.0342639684677124,4.865683078765869,0.898928165435791
1730867928.7620978,-0.45462921261787415,0.5377575755119324,-10.003786087036133,-0.009270464555408248,0.05193773932422215,-0.06255258185439398,1.0372647047042847,4.852171421051025,0.8963532447814941
1730867928.8120942,-0.47454360127449036,0.605770468711853,-10.045401573181152,0.028993325344911065,0.06273148626212458,-0.08608691435383319,1.0392045974731445,4.8418965339660645,0.8944887518882751
1730867928.8620727,-0.46527084708213806,0.6573991775512695,-10.049012184143066,0.05013485549077251,0.059450065873431934,-0.09154733816451897,1.0412607192993164,4.831684589385986,0.8923852443695068
1730867928.9120486,-0.5016440153121948,0.6785217523574829,-10.095869064331055,0.052464351730361014,0.039100579656936946,-0.08276987849666621,1.0391366481781006,4.840062141418457,0.8947178721427917
1730867928.9620981,-0.4705813229084015,0.7089607119560242,-10.096826553344727,0.03931241658127202,0.003772283379309441,-0.0673792696827019,1.0402748584747314,4.834539413452148,0.8935431838035583
1730867929.0120578,-0.43687912821769714,0.6718128323554993,-10.11893081665039,0.018441677167416966,-0.03786096037438949,-0.05241709078766871,1.0415165424346924,4.828832626342773,0.8921830654144287
1730867929.0620537,-0.3599088191986084,0.6324708461761475,-10.088733673095703,0.0005415233738441812,-0.0721657816495466,-0.04086203177313125,1.0427422523498535,4.823173522949219,0.8907495737075806
1730867929.1120512,-0.2805282175540924,0.6381403803825378,-10.085617065429688,-0.0037108217555921396,-0.08672489936597513,-0.032026892298487805,1.04190194606781,4.827333450317383,0.8933374881744385
1730867929.1620364,-0.21659335494041443,0.6926213502883911,-10.018342971801758,0.012115261709040441,-0.0773104597732848,-0.023711587810053326,1.0429056882858276,4.822249412536621,0.8925184607505798
1730867929.2120075,-0.24120429158210754,0.736118733882904,-9.974868774414062,0.04528108590014833,-0.050958225059232184,-0.013193248906692073,1.0439095497131348,4.817353248596191,0.8917098045349121
1730867929.2619863,-0.27247628569602966,0.7546818852424622,-9.90264892578125,0.08284349059910467,-0.02282258327418978,0.0026852484409497245,1.044248342514038,4.814207553863525,0.8920340538024902
1730867929.3120081,-0.27247628569602966,0.7546818852424622,-9.90264892578125,0.10858586698593592,-0.00738942360641925,0.025969351345590804,1.0453927516937256,4.809811115264893,0.8915187120437622
1730867929.3120081,-0.3445790112018585,0.7671552300453186,-9.84717845916748,0.11203550562678516,-0.009542777363637686,0.05387520390090613,1.045427680015564,4.809691429138184,0.8915055990219116
1730867929.3619387,-0.40345948934555054,0.7665286064147949,-9.81106948852539,0.09141235851037548,-0.02305383878338208,0.0784467384412162,1.047327995300293,4.797988414764404,0.8923819661140442
1730867929.4119444,-0.46198055148124695,0.7436316013336182,-9.792380332946777,0.0514942947102217,-0.03710281799229545,0.09244554353905576,1.0489892959594727,4.790957927703857,0.892548680305481
1730867929.4619048,-0.46841853857040405,0.6997566819190979,-9.773618698120117,0.0016769415068780373,-0.043068740648720405,0.09374288918063411,1.050732970237732,4.7837629318237305,0.8929551839828491
1730867929.5128706,-0.4527179002761841,0.6413480043411255,-9.797850608825684,-0.04582798343749561,-0.03645598689956589,0.0842093343104956,1.0524004697799683,4.776552677154541,0.8935816287994385
1730867929.56289,-0.4261426329612732,0.6245088577270508,-9.828506469726562,-0.07999148467708919,-0.016115317847072604,0.06747244291742964,1.0500158071517944,4.783442497253418,0.8945988416671753
1730867929.6129062,-0.4365619122982025,0.6712324023246765,-9.860345840454102,-0.09482549621094649,0.015240141147841786,0.04726779766864423,1.052256464958191,4.770838737487793,0.8961437940597534
1730867929.6628683,-0.4250885546207428,0.6977856755256653,-9.922426223754883,-0.09030453474535349,0.04884265792052607,0.026135506866643073,1.053149700164795,4.7641496658325195,0.8970663547515869
1730867929.7129147,-0.41078269481658936,0.6961075067520142,-9.976417541503906,-0.07096088564694508,0.07166228460419273,0.004980738426340795,1.0538185834884644,4.7577948570251465,0.898002028465271
1730867929.7629251,-0.37143629789352417,0.684850811958313,-10.063549995422363,-0.04336622901231287,0.07434547430016256,-0.01718230299252991,1.0543571710586548,4.751506328582764,0.898939311504364
1730867929.8128502,-0.323161244392395,0.666012704372406,-10.123884201049805,-0.013305708573357085,0.05729837074192684,-0.043435979259503044,1.0548205375671387,4.745432376861572,0.8997936248779297
1730867929.8628204,-0.2616216242313385,0.6405200958251953,-10.179046630859375,0.016372388201488848,0.029408856181341043,-0.07785116920833729,1.055296778678894,4.739355564117432,0.9005085825920105
1730867929.91283,-0.19463659822940826,0.5925057530403137,-10.205900192260742,0.04635023799468991,0.0028192138480610295,-0.12294070853047283,1.0542062520980835,4.751522541046143,0.8976790308952332
1730867929.9628208,-0.11189083009958267,0.5902650952339172,-10.20751953125,0.0786689192314378,-0.01241774230086478,-0.1757208784968767,1.05479896068573,4.747838497161865,0.8974670171737671
1730867930.0128078,-0.08307396620512009,0.6190556883811951,-10.176383018493652,0.11197447096856242,-0.012855838872033721,-0.22317022802308203,1.0556201934814453,4.744168758392334,0.8967640995979309
1730867930.062785,-0.09515497088432312,0.6113942861557007,-10.110525131225586,0.13964259895839304,-0.003136081141599445,-0.24448524172402297,1.056661605834961,4.735572814941406,0.8986425995826721
1730867930.1128175,-0.1386113464832306,0.6883347034454346,-10.002524375915527,0.15376492068316716,0.007611292171854229,-0.2236701973751259,1.0580503940582275,4.730045795440674,0.8980050683021545
1730867930.1628294,-0.19992877542972565,0.7172231078147888,-9.93535041809082,0.14865888440042682,0.011016547490753783,-0.1604450974605433,1.0588501691818237,4.716914176940918,0.8997372388839722
1730867930.2127702,-0.24394753575325012,0.7224984765052795,-9.823524475097656,0.12169925284293417,0.002805439431856903,-0.06961011854137689,1.0603021383285522,4.710602760314941,0.8993682861328125
1730867930.262817,-0.3121758997440338,0.6815547347068787,-9.779508590698242,0.07559499519704152,-0.014798558647109659,0.02676496854320499,1.0615954399108887,4.6932501792907715,0.9016690850257874
1730867930.3127367,-0.3394327163696289,0.643612265586853,-9.740445137023926,0.019682404837999757,-0.03305931308464153,0.10752642164431432,1.063197135925293,4.683311462402344,0.9023288488388062
1730867930.3627992,-0.39972031116485596,0.595038652420044,-9.735607147216797,-0.033344215742079034,-0.041626577439211485,0.15797983911545543,1.0638489723205566,4.676914691925049,0.9037084579467773
1730867930.4127529,-0.42987075448036194,0.5291004776954651,-9.747794151306152,-0.07263317463730602,-0.03452027663705937,0.17225793083698357,1.0650334358215332,4.667856216430664,0.905103325843811
1730867930.4627964,-0.5097007155418396,0.4901038706302643,-9.796120643615723,-0.09306770051265732,-0.01237915282790809,0.15324239649943386,1.0659892559051514,4.658923149108887,0.9068723320960999
1730867930.5126567,-0.5824940800666809,0.4988501965999603,-9.827733039855957,-0.09700557849491195,0.01908972549660553,0.11004529417963752,1.0646815299987793,4.657672882080078,0.9055482149124146
1730867930.5626557,-0.6922352910041809,0.5608872175216675,-9.887996673583984,-0.09309822467767148,0.051555356505857755,0.054381395272852975,1.0648919343948364,4.650638580322266,0.9066678285598755
1730867930.612666,-0.7238278985023499,0.5993272066116333,-9.925851821899414,-0.09103091581958671,0.07484567560576162,-0.001973777677663588,1.068943977355957,4.643074035644531,0.9067515730857849
1730867930.6625493,-0.7228363156318665,0.5995134711265564,-9.992120742797852,-0.09509697545532386,0.07912903432830895,-0.04919558732588953,1.0729330778121948,4.628828048706055,0.9059990644454956
1730867930.7125645,-0.6754521131515503,0.6224039196968079,-10.044440269470215,-0.10154246173375307,0.061346332991408736,-0.08124709285261822,1.0747963190078735,4.619398593902588,0.9060109257698059
1730867930.762554,-0.5911111235618591,0.62378990650177,-10.100098609924316,-0.1007935642416973,0.02873152830562617,-0.09658260063243336,1.076418161392212,4.610026836395264,0.9058010578155518
1730867930.8125565,-0.46713167428970337,0.5992398262023926,-10.143572807312012,-0.08261730964674406,-0.006062932961712905,-0.0984449004746939,1.0758628845214844,4.6136088371276855,0.9052294492721558
1730867930.8625565,-0.3517323136329651,0.5719241499900818,-10.16109561920166,-0.04157849474542873,-0.031986195709768364,-0.09370773766344924,1.076643705368042,4.607809543609619,0.9047455787658691
1730867930.9125123,-0.25741761922836304,0.5761215090751648,-10.160537719726562,0.01878902980393364,-0.04288737630242498,-0.08801965875308848,1.076532006263733,4.597252368927002,0.9048784971237183
1730867930.9625404,-0.23521772027015686,0.6643064618110657,-10.108839988708496,0.08555033684404281,-0.03868504225778236,-0.08148267561012368,1.0772883892059326,4.589190483093262,0.9043528437614441
1730867931.0125184,-0.2241254597902298,0.7617014050483704,-10.045337677001953,0.14098434788644687,-0.026421897647710683,-0.06978801622155774,1.0774438381195068,4.5860090255737305,0.9047210812568665
1730867931.0624905,-0.22273463010787964,0.7972120642662048,-9.998831748962402,0.169604272059296,-0.018055789688043743,-0.048554075525766814,1.0785726308822632,4.5793914794921875,0.9042825102806091
1730867931.1124704,-0.16685611009597778,0.8702576160430908,-9.952634811401367,0.16505661852377823,-0.022578013452951594,-0.017409686739044736,1.0801175832748413,4.572732925415039,0.9037622213363647
1730867931.1624827,-0.13252469897270203,0.9714945554733276,-9.906343460083008,0.13363929148626855,-0.040476982883980585,0.019044371880930378,1.0786703824996948,4.569523811340332,0.9047365784645081
1730867931.2124152,-0.14234426617622375,1.0251497030258179,-9.901862144470215,0.09074457468498602,-0.0667875167001516,0.05412067183806221,1.0797760486602783,4.563093185424805,0.9047076106071472
1730867931.2623599,-0.15335942804813385,1.0387734174728394,-9.887472152709961,0.051553154260804646,-0.09471841536561565,0.08112196030976926,1.0810668468475342,4.556396007537842,0.9048434495925903
1730867931.312383,-0.2051251083612442,0.9899811148643494,-9.89721393585205,0.023197885757640417,-0.11586275940398183,0.09399997179024712,1.0794788599014282,4.558587074279785,0.9051006436347961
1730867931.3623526,-0.2315913587808609,0.8742685914039612,-9.880338668823242,0.0044588503032199755,-0.12200840726329082,0.09009042648220125,1.0800433158874512,4.553936958312988,0.9054787755012512
1730867931.4123695,-0.32222604751586914,0.7880311012268066,-9.890454292297363,-0.009373267651988459,-0.10726209533882333,0.07237932187352537,1.0806472301483154,4.548630714416504,0.9060834050178528
1730867931.4623556,-0.4306599199771881,0.7603474855422974,-9.848169326782227,-0.02333720653856027,-0.068608005203634,0.04809620955775308,1.079085350036621,4.5440568923950195,0.905259907245636
1730867931.512384,-0.4902048408985138,0.6950296759605408,-9.851401329040527,-0.04214247845854244,-0.008596195187011487,0.025377468285026156,1.0791208744049072,4.539034366607666,0.9055545330047607
1730867931.562424,-0.5031769871711731,0.6370038986206055,-9.850913047790527,-0.06699095840617687,0.06108342956616377,0.009848935841840715,1.0788490772247314,4.52635383605957,0.9034538865089417
1730867931.6124313,-0.47739896178245544,0.5598481297492981,-9.887105941772461,-0.09199110903278603,0.12241843279860944,0.002434957458367101,1.0785986185073853,4.519035339355469,0.9030146598815918
1730867931.6623616,-0.384623646736145,0.5109504461288452,-9.948269844055176,-0.10629793914071296,0.16055097735149343,-0.0003414569435189245,1.078105092048645,4.5121660232543945,0.9025838971138
1730867931.7123272,-0.33683592081069946,0.46658292412757874,-10.011340141296387,-0.09961462631204367,0.17136947283511772,-0.004580301645136856,1.0773496627807617,4.50565242767334,0.9021431803703308
1730867931.7623675,-0.33683592081069946,0.46658292412757874,-10.011340141296387,-0.06694137650331389,0.1620573502901536,-0.016739917153955366,1.0789862871170044,4.5115966796875,0.9018658995628357
1730867931.7623675,-0.30367887020111084,0.45273557305336,-10.065474510192871,-0.012385927655385504,0.14493210640059037,-0.03993712442625054,1.078980803489685,4.5115132331848145,0.9018573760986328
1730867931.812359,-0.27375614643096924,0.4243643283843994,-10.101512908935547,0.04995187525799877,0.12837388682565393,-0.07035117707734766,1.0787997245788574,4.5080180168151855,0.9013949036598206
1730867931.8623655,-0.2969699501991272,0.4321061968803406,-10.090187072753906,0.10146929451111374,0.11311024413665821,-0.09863797870360785,1.0766290426254272,4.491407871246338,0.8998551368713379
1730867931.9123483,-0.336582213640213,0.4549630284309387,-10.075647354125977,0.12817163098944206,0.09631565257874837,-0.11579589816274334,1.0750354528427124,4.4766082763671875,0.8984542489051819
1730867931.9622686,-0.350918173789978,0.4528651237487793,-9.997303009033203,0.12560658200143116,0.07616811202773081,-0.11647133153102997,1.0744524002075195,4.466450214385986,0.8969879150390625
1730867932.0122614,-0.3964889347553253,0.4694129526615143,-9.949718475341797,0.09805630940872463,0.05302500049835377,-0.09829399550688941,1.0741629600524902,4.456704139709473,0.8952897787094116
1730867932.062233,-0.4218035340309143,0.49254268407821655,-9.895317077636719,0.05530421102406177,0.029103380383331014,-0.061570757057978286,1.0740619897842407,4.447013854980469,0.8933855295181274
1730867932.1122673,-0.4360768795013428,0.5688183307647705,-9.861501693725586,0.00827270791473428,0.006783376993830012,-0.009841907969153314,1.0733249187469482,4.460697650909424,0.8989598751068115
1730867932.1621933,-0.43096983432769775,0.6234345436096191,-9.872099876403809,-0.0340778877918517,-0.013437396695889978,0.04941977901669639,1.072904348373413,4.455504894256592,0.8987372517585754
1730867932.2121954,-0.40243715047836304,0.6752631068229675,-9.904895782470703,-0.0644899466217282,-0.032436249296420916,0.10322883463620824,1.0723601579666138,4.450229167938232,0.8987016677856445
1730867932.2622387,-0.36188799142837524,0.7426159977912903,-9.987008094787598,-0.07676808866469181,-0.05091521177403359,0.13465521804660818,1.0716348886489868,4.444806098937988,0.898963212966919
1730867932.312218,-0.38162052631378174,0.819961428642273,-10.020182609558105,-0.0678782398971407,-0.07027999709519223,0.13054749836994625,1.0741182565689087,4.446587085723877,0.9002296924591064
1730867932.3622134,-0.45788347721099854,0.8321095705032349,-10.082959175109863,-0.04132350449600451,-0.09265701318877068,0.08946859097952764,1.073895812034607,4.441656112670898,0.9008351564407349
1730867932.4121876,-0.5328953266143799,0.8131829500198364,-10.06881046295166,-0.00875891368681714,-0.11588421684605434,0.023914325367614186,1.075397253036499,4.426273345947266,0.9007879495620728
1730867932.4621716,-0.5625020265579224,0.8159201741218567,-10.044885635375977,0.013802910880377016,-0.13068222032159363,-0.04421938737852743,1.075652837753296,4.417917251586914,0.9010822176933289
1730867932.5121996,-0.5666231513023376,0.8210487365722656,-9.996515274047852,0.0157889070387527,-0.12739218791384,-0.09279245723115048,1.0765541791915894,4.408147811889648,0.9009520411491394
1730867932.5622334,-0.5427089929580688,0.7868936061859131,-9.938426971435547,-0.0007019118351522299,-0.10431139775184543,-0.10796612266232818,1.0773265361785889,4.395005702972412,0.9010446667671204
1730867932.6121683,-0.43875637650489807,0.7052958011627197,-9.878178596496582,-0.02331428098731052,-0.06768990098478253,-0.08849281301862198,1.0777877569198608,4.385190963745117,0.9007693529129028
1730867932.662204,-0.3273756504058838,0.6341463327407837,-9.829681396484375,-0.03661026079040951,-0.025750509677661848,-0.04455248498432217,1.0781784057617188,4.3751044273376465,0.9003178477287292
1730867932.7121494,-0.23421736061573029,0.6251435875892639,-9.809318542480469,-0.02754689055479389,0.016185590710804568,0.008657969291297236,1.0784727334976196,4.365472316741943,0.8998420238494873
1730867932.7621887,-0.20614230632781982,0.5723820924758911,-9.820192337036133,0.010916988047331681,0.056411027503588534,0.058161920936061734,1.080162525177002,4.379507541656494,0.9012195467948914
1730867932.8122485,-0.14902043342590332,0.5896425843238831,-9.858198165893555,0.07572509030173977,0.09381846259512058,0.09559936916166344,1.0809178352355957,4.3745341300964355,0.9014464616775513
1730867932.8621943,-0.16559526324272156,0.6606120467185974,-9.89687442779541,0.1500091768881984,0.12297388860517092,0.11475257320782781,1.0819518566131592,4.369857311248779,0.9019354581832886
1730867932.912226,-0.2097756713628769,0.7093902826309204,-9.91720199584961,0.20729870478666493,0.13281194678830446,0.11026751365009986,1.0834325551986694,4.365499019622803,0.9027057886123657
1730867932.962172,-0.24356606602668762,0.709536075592041,-9.991907119750977,0.22554552645942696,0.11335860851159332,0.08058808390058111,1.0832717418670654,4.3663811683654785,0.9058238863945007
1730867933.0121222,-0.21823211014270782,0.7035106420516968,-10.049626350402832,0.19911931269850336,0.06502667432630765,0.030845706686854206,1.0849571228027344,4.362568378448486,0.9070673584938049
1730867933.0622718,-0.21862228214740753,0.720787525177002,-10.10586929321289,0.14007963971805137,0.0018228017417208434,-0.027473597131129276,1.087233066558838,4.350583076477051,0.91014164686203
1730867933.1121225,-0.17997220158576965,0.7305439710617065,-10.119831085205078,0.07085370393434823,-0.05488011638582454,-0.07986298378818897,1.090106725692749,4.335122585296631,0.9138631820678711
1730867933.162116,-0.15538311004638672,0.7543011903762817,-10.152647018432617,0.013382583435155181,-0.08809076113670433,-0.11390018569463803,1.0922436714172363,4.326351165771484,0.9156245589256287
1730867933.2120664,-0.16016338765621185,0.7287338972091675,-10.182989120483398,-0.019525763986467153,-0.09292265496269983,-0.12366098186931593,1.0940016508102417,4.316338539123535,0.9180946946144104
1730867933.2620246,-0.24822667241096497,0.7751543521881104,-10.144189834594727,-0.027219445833367967,-0.07568140587378891,-0.11133404611085598,1.095931053161621,4.3070878982543945,0.9196298122406006
1730867933.3120701,-0.35308435559272766,0.8658062815666199,-10.09221076965332,-0.019872576409494667,-0.048939201570872504,-0.08416141509685457,1.0977556705474854,4.297909259796143,0.920887291431427
1730867933.362277,-0.46701115369796753,0.8860520124435425,-10.011786460876465,-0.014455023253791777,-0.027159551998311132,-0.04855056451206849,1.099616289138794,4.288228988647461,0.9220293760299683
1730867933.4120505,-0.5833640098571777,0.8754933476448059,-9.93331241607666,-0.028466282737926056,-0.02211553732620608,-0.006961297894549365,1.096920371055603,4.301640033721924,0.9193925857543945
1730867933.4620914,-0.686729907989502,0.8544048070907593,-9.836185455322266,-0.07155610619846098,-0.03714266255056387,0.040131427622033915,1.0978920459747314,4.295991897583008,0.920076310634613
1730867933.5120506,-0.7424160838127136,0.827294111251831,-9.765438079833984,-0.13706805134572755,-0.06361469750337943,0.08941886799795759,1.0991566181182861,4.288196563720703,0.9208316802978516
1730867933.561933,-0.7436643242835999,0.7888322472572327,-9.708314895629883,-0.20223270266286128,-0.08488843790234363,0.1327416557740284,1.0996192693710327,4.281999111175537,0.9219219088554382
1730867933.6118867,-0.6757814288139343,0.7315641641616821,-9.697988510131836,-0.2404957944678449,-0.08667150733158552,0.16061433755815122,1.0995219945907593,4.275978088378906,0.9232968091964722
1730867933.6618497,-0.5631200671195984,0.689219057559967,-9.718609809875488,-0.23449979946222166,-0.06441221520020657,0.16709140246396914,1.1013277769088745,4.270936965942383,0.9231122136116028
1730867933.7118602,-0.5033772587776184,0.7058129906654358,-9.758010864257812,-0.18186437328597,-0.023347348536195547,0.15208649395341856,1.1011357307434082,4.264893531799316,0.9245988726615906
1730867933.7619922,-0.5031734704971313,0.7078559398651123,-9.830720901489258,-0.09613666501386117,0.02384367416579887,0.11987615367205408,1.1039693355560303,4.253233432769775,0.9226921200752258
1730867933.8119607,-0.4938216805458069,0.674404501914978,-9.903932571411133,-0.002507214058631538,0.0612782474201455,0.07582331851132385,1.1045998334884644,4.24537992477417,0.9234433174133301
1730867933.861906,-0.44369959831237793,0.6522449851036072,-9.99161434173584,0.07287311302026334,0.07819175496731855,0.025394576658151022,1.107041597366333,4.235692501068115,0.9220853447914124
1730867933.9118683,-0.4382336437702179,0.6247389316558838,-10.054518699645996,0.11405088089737551,0.07473557210571621,-0.025231174876597217,1.108565330505371,4.227193355560303,0.9222626686096191
1730867933.9628813,-0.4154146611690521,0.6049983501434326,-10.107874870300293,0.11942041111523988,0.05923638801840038,-0.06942811118827458,1.1104055643081665,4.2187819480896,0.9223193526268005
1730867934.0129256,-0.3600054979324341,0.6061651110649109,-10.1530122756958,0.09868296991621922,0.04157275555814437,-0.10185213385785842,1.1087874174118042,4.219118595123291,0.921463131904602
1730867934.062772,-0.26330894231796265,0.555020809173584,-10.183343887329102,0.06741643683855919,0.028907003660852554,-0.12066924588507458,1.1101118326187134,4.206904888153076,0.9188399314880371
1730867934.1127338,-0.182599276304245,0.5530518293380737,-10.168595314025879,0.041220824876703616,0.024142017242483427,-0.1264713099013693,1.1113053560256958,4.199459075927734,0.9175373315811157
1730867934.1628416,-0.15444229543209076,0.5467826128005981,-10.136775016784668,0.030006216955021408,0.02573533569891389,-0.11890283937465634,1.1126489639282227,4.191683292388916,0.915864109992981
1730867934.2127788,-0.1683492362499237,0.6109086275100708,-10.056883811950684,0.03549117312041349,0.02896880296099596,-0.09669765935826855,1.1140823364257812,4.18394136428833,0.9139087200164795
1730867934.2626667,-0.1951839029788971,0.6257380247116089,-9.992268562316895,0.05284085219069101,0.02823940242235368,-0.059912117991157,1.1155823469161987,4.176490306854248,0.911817193031311
1730867934.3126705,-0.2943350374698639,0.6678847670555115,-9.901657104492188,0.07340737953675025,0.01914019769207205,-0.010233325237702946,1.1109776496887207,4.189343452453613,0.9156816601753235
1730867934.362682,-0.4079640209674835,0.6637201309204102,-9.843924522399902,0.08665811076539282,0.0004938022550103624,0.04859445339387662,1.111654281616211,4.185235977172852,0.9149458408355713
1730867934.412671,-0.510295569896698,0.7220218181610107,-9.778116226196289,0.08219285632326201,-0.02384721825746796,0.10791805761488509,1.1115251779556274,4.171829700469971,0.913372278213501
1730867934.4626505,-0.5387025475502014,0.7549197673797607,-9.785686492919922,0.053886418494514005,-0.04635593322402258,0.1540760589146663,1.1122732162475586,4.164310932159424,0.9127418398857117
1730867934.5126264,-0.5499143600463867,0.7694975137710571,-9.796144485473633,0.005798583575846372,-0.06061954969444529,0.17434849673926262,1.111633062362671,4.153528213500977,0.9111853241920471
1730867934.562647,-0.5468993782997131,0.7581191658973694,-9.87876033782959,-0.046792639152101315,-0.06445322405296261,0.16299959514144588,1.111932635307312,4.144369125366211,0.9107414484024048
1730867934.6126738,-0.4754384160041809,0.7269129753112793,-9.953747749328613,-0.08518211353105337,-0.05871657595687691,0.12263978674669826,1.1120953559875488,4.139086723327637,0.9093256592750549
1730867934.662666,-0.42147982120513916,0.7328155636787415,-10.025294303894043,-0.09666095222284828,-0.04518508274350321,0.06226371232414114,1.1120463609695435,4.131967067718506,0.9090151190757751
1730867934.71266,-0.35414576530456543,0.7325329780578613,-10.083864212036133,-0.078716824878066,-0.026732719541733084,-0.005263292192715329,1.1128367185592651,4.1209001541137695,0.9067118167877197
1730867934.7626863,-0.32714003324508667,0.7413402795791626,-10.10335636138916,-0.03843432559202847,-0.008080032325573742,-0.06586361913400937,1.1143449544906616,4.109028339385986,0.9041497707366943
1730867934.8127668,-0.28940844535827637,0.7084391713142395,-10.133560180664062,0.010710276032216127,0.005978229679109059,-0.10762751531314366,1.1149824857711792,4.099261283874512,0.9023045301437378
1730867934.8627374,-0.23304349184036255,0.7134101986885071,-10.088618278503418,0.05397181907850297,0.013513062723899788,-0.12376714571304356,1.11567223072052,4.089921951293945,0.9002507925033569
1730867934.912679,-0.19887368381023407,0.7103766202926636,-10.065621376037598,0.08195113267175522,0.01611689989449095,-0.1141085882411859,1.1165512800216675,4.080373287200928,0.897844672203064
1730867934.962691,-0.20274390280246735,0.6957962512969971,-10.009354591369629,0.09444913570597258,0.016957316389105352,-0.08422416725458934,1.1160625219345093,4.092648029327393,0.9038966298103333
1730867935.0126162,-0.22032372653484344,0.6553388833999634,-9.950013160705566,0.0971061675856749,0.018685864002034785,-0.04255880389112021,1.1169116497039795,4.0871477127075195,0.9031476974487305
1730867935.0626523,-0.29770204424858093,0.6864554286003113,-9.881513595581055,0.09359051437655708,0.02237959612495996,0.002177303425953821,1.118016242980957,4.081600666046143,0.9023349285125732
1730867935.1126387,-0.4030965268611908,0.7167199850082397,-9.815074920654297,0.08102910909915552,0.026932840668668266,0.04331102340176041,1.1193219423294067,4.076196193695068,0.9015903472900391
1730867935.1626105,-0.504821240901947,0.7394660115242004,-9.759471893310547,0.052337463495747055,0.029217841098868245,0.07873809293419604,1.1190353631973267,4.077975749969482,0.9063728451728821
1730867935.212572,-0.5643346905708313,0.7338341474533081,-9.748893737792969,0.0031917688314891963,0.025965643668910847,0.10987072496924902,1.1200183629989624,4.073382377624512,0.9069252014160156
1730867935.2625468,-0.6146798133850098,0.7397351264953613,-9.76424789428711,-0.06037047886284661,0.016612447198188558,0.13519177853545006,1.121805191040039,4.060947895050049,0.9086923599243164
1730867935.3125076,-0.620053231716156,0.7854973673820496,-9.807819366455078,-0.12108348621836895,0.0040409946781193905,0.14678901769155767,1.1227049827575684,4.0540032386779785,0.9099175333976746
1730867935.3625693,-0.6083305478096008,0.7705869674682617,-9.886740684509277,-0.15951183879115347,-0.008097297491410008,0.13594886822818952,1.124624490737915,4.042545795440674,0.9108434319496155
1730867935.4125512,-0.6083305478096008,0.7705869674682617,-9.886740684509277,-0.16448843049991693,-0.01778034159907438,0.10079295339670803,1.1271123886108398,4.031717300415039,0.912238597869873
1730867935.4125512,-0.514054536819458,0.703807532787323,-9.971040725708008,-0.13703438539389307,-0.02369989441532076,0.04891100810565266,1.1271347999572754,4.031543254852295,0.9122673869132996
1730867935.4625258,-0.40921616554260254,0.645810604095459,-10.075878143310547,-0.08674701568815582,-0.02323634324883656,-0.006576366121822922,1.1280555725097656,4.0235700607299805,0.9135786890983582
1730867935.5125227,-0.37050342559814453,0.6627527475357056,-10.139129638671875,-0.02429391735629502,-0.012740333122530012,-0.05583204846089939,1.1288920640945435,4.015054702758789,0.9148887395858765
1730867935.5624983,-0.33953341841697693,0.6531419157981873,-10.188528060913086,0.042932233742945664,0.009464420914836694,-0.09780683771367686,1.1297025680541992,4.0070085525512695,0.9159390330314636
1730867935.6124735,-0.25011926889419556,0.6787417531013489,-10.197687149047852,0.11022926205568015,0.04040223119257489,-0.13734667715090879,1.1303699016571045,4.014808177947998,0.9133870005607605
1730867935.662469,-0.14955104887485504,0.6738356947898865,-10.22619342803955,0.17320600153398003,0.07262877025198594,-0.17742914019877692,1.1316465139389038,4.009959697723389,0.9133217334747314
1730867935.7124631,-0.13010290265083313,0.671651303768158,-10.172369003295898,0.22439890801915732,0.09654764361321817,-0.21176368578603272,1.1345988512039185,4.000368118286133,0.9123721718788147
1730867935.762444,-0.1689927875995636,0.6490094065666199,-10.130912780761719,0.25237856241927503,0.10427319865877153,-0.22532857419085747,1.1369839906692505,3.9948575496673584,0.9114309549331665
1730867935.812439,-0.2412145733833313,0.652661144733429,-10.008371353149414,0.24663381193650064,0.09396662530228511,-0.20501886852202925,1.1399307250976562,3.989712953567505,0.9099805355072021
1730867935.862383,-0.3428099453449249,0.63078373670578,-9.900547981262207,0.20311660077290067,0.07096399354382668,-0.14845329117914116,1.1435317993164062,3.984630584716797,0.9080409407615662
1730867935.9123354,-0.4836413562297821,0.6333544254302979,-9.762490272521973,0.12550883387639342,0.04458893057523046,-0.06242474514038952,1.1389145851135254,3.9823365211486816,0.9116378426551819
1730867935.9623418,-0.58907151222229,0.612174391746521,-9.64731502532959,0.024391128635187567,0.02350873850276955,0.041296694424816566,1.1454532146453857,3.9656894207000732,0.911763072013855
1730867936.0123382,-0.6990153789520264,0.6046029925346375,-9.598259925842285,-0.08206416270303224,0.012195884950415264,0.1445111980698657,1.1487069129943848,3.9571714401245117,0.9117621183395386
1730867936.0623379,-0.7527559399604797,0.6698315143585205,-9.604655265808105,-0.17039457108794873,0.009645782195943028,0.22254822463331553,1.1523164510726929,3.945775032043457,0.9120547771453857
1730867936.1123774,-0.7319892048835754,0.743296205997467,-9.652016639709473,-0.22163098423696717,0.010419060520967168,0.2543996480774429,1.154968500137329,3.936497211456299,0.912900447845459
1730867936.1623423,-0.6878863573074341,0.7894922494888306,-9.768232345581055,-0.2286416491682967,0.007409774914639685,0.23353607878081115,1.1570535898208618,3.92724347114563,0.9143599271774292
1730867936.2123365,-0.6878863573074341,0.7894922494888306,-9.768232345581055,-0.19477315584149418,-0.004753252973208438,0.168067611543726,1.158588171005249,3.9181180000305176,0.9162954092025757
1730867936.2123365,-0.5903220176696777,0.7931281924247742,-9.9024658203125,-0.13073724072475829,-0.027291330712449664,0.07440774058355731,1.15862238407135,3.9178762435913086,0.9163521528244019
1730867936.2622914,-0.5212002396583557,0.7864353060722351,-10.021883010864258,-0.051210733242100626,-0.05687477819087564,-0.029843069298514154,1.1555273532867432,3.9312920570373535,0.9122877717018127
1730867936.312282,-0.39118731021881104,0.7802689075469971,-10.135592460632324,0.029964440157577977,-0.08669100847063167,-0.1305631419231148,1.1578946113586426,3.9176177978515625,0.9099546074867249
1730867936.3622067,-0.26753920316696167,0.7396885752677917,-10.2257719039917,0.10137017953720356,-0.10771749275314169,-0.21457426344620179,1.1595420837402344,3.90989089012146,0.9088207483291626
1730867936.4122725,-0.15026883780956268,0.6956198215484619,-10.2776517868042,0.15391165366131032,-0.11098104567221778,-0.2669369978412952,1.1615197658538818,3.9018499851226807,0.9070739150047302
1730867936.462256,-0.04027179256081581,0.6211820244789124,-10.289254188537598,0.18487171240428413,-0.09135474750236763,-0.2783969507395793,1.1639211177825928,3.893568277359009,0.9046425223350525
1730867936.5121934,0.017757857218384743,0.5721986889839172,-10.256803512573242,0.20193463473606837,-0.04968234327229025,-0.253766162048009,1.160965919494629,3.8998990058898926,0.9068818092346191
1730867936.5621083,0.05722919851541519,0.5679817199707031,-10.196229934692383,0.21751157409093574,0.007276818023189916,-0.20808846102612483,1.1627962589263916,3.8946309089660645,0.9050676226615906
1730867936.6121306,0.046899355947971344,0.584449291229248,-10.097225189208984,0.23493366527915385,0.06617718545868467,-0.15467389152849292,1.16317617893219,3.883058547973633,0.9046432375907898
1730867936.662143,-0.0015731625026091933,0.5942034125328064,-9.98109245300293,0.24274696982307947,0.10931028802089822,-0.0981473215973517,1.1653966903686523,3.875676155090332,0.9028494954109192
1730867936.7122324,-0.12590840458869934,0.617564857006073,-9.871265411376953,0.224930886489715,0.12324555148240042,-0.03802641342078219,1.166864037513733,3.8655452728271484,0.9028353691101074
