Timestamp,IMU_Linear_Acc_X,IMU_Linear_Acc_Y,IMU_Linear_Acc_Z,Filtered_X,Filtered_Y,Filtered_Z,Pose_X,Pose_Y,Pose_Z
1731474253.9922936,-0.36115026473999023,0.5138611197471619,-10.030807495117188,0.009602220767672583,-0.0048512859200342505,-0.005820415668533165,2.0523173809051514,9.816240310668945,0.8847398161888123
1731474254.0421584,-0.34938913583755493,0.4934355318546295,-9.945629119873047,0.0035747877399017235,0.004513914019311697,-0.009869971004019184,2.0535590648651123,9.873906135559082,0.8849605321884155
1731474254.0921988,-0.35769233107566833,0.5304606556892395,-9.971107482910156,-0.0017249346769765519,0.008921651435360547,-0.008985105387839806,2.0534160137176514,9.867424011230469,0.8849563002586365
1731474254.1420658,-0.3550556004047394,0.552696943283081,-9.986837387084961,-0.006075540820527929,0.007455733995452725,-0.004284884716524176,2.05279803276062,9.828852653503418,0.8849876523017883
1731474254.1920695,-0.33092430233955383,0.5605481863021851,-9.966734886169434,-0.00895438512259375,0.0004641170695260726,0.0010543803514071737,2.052334785461426,9.804106712341309,0.8849852681159973
1731474254.2419848,-0.34216395020484924,0.5550380945205688,-9.985627174377441,-0.009490403451194594,-0.010157024508481254,0.003812291166565324,2.0513992309570312,9.754127502441406,0.8849804401397705
1731474254.2919254,-0.31401512026786804,0.5400730967521667,-9.995025634765625,-0.006855867316969062,-0.020483343354332967,0.0034055659130693542,2.0509772300720215,9.731584548950195,0.8849782943725586
1731474254.341844,-0.34681436419487,0.5448755621910095,-9.991961479187012,-0.0009466034081146118,-0.026163707665898293,0.0012042746140682485,2.0518510341644287,9.760504722595215,0.8849964737892151
1731474254.3918183,-0.3606502115726471,0.4962179660797119,-9.971785545349121,0.006935514581338288,-0.02472822629522324,-0.0013220014525501097,2.042196035385132,9.139397621154785,0.8849790096282959
1731474254.441778,-0.3536258339881897,0.4896567165851593,-10.002979278564453,0.013964744380329547,-0.01608712376603251,-0.0030060963570967174,2.029849052429199,8.343505859375,0.8849515318870544
1731474254.4918027,-0.3282982110977173,0.5092635750770569,-10.000433921813965,0.01724166124594343,-0.001795956017548732,-0.0032397740153245575,2.0464587211608887,9.402572631835938,0.8849852085113525
1731474254.5416353,-0.3466982841491699,0.49463188648223877,-9.975262641906738,0.015876247924194432,0.01512528527064328,-0.0023369008168723088,2.043680429458618,9.217069625854492,0.8849678039550781
1731474254.5917106,-0.33477044105529785,0.5154754519462585,-9.966718673706055,0.01110201117772015,0.030245942465213928,-0.0006753564878416718,2.0409133434295654,9.03010082244873,0.8849465250968933
1731474254.6415374,-0.3541453778743744,0.5108052492141724,-9.992206573486328,0.004678633058189179,0.03903851535760073,0.0021559657980068517,2.049046516418457,9.52742862701416,0.8849923014640808
1731474254.6914575,-0.35502490401268005,0.5280846357345581,-10.002062797546387,-0.002046563549558125,0.03896338622482398,0.0063457804710560384,2.0483977794647217,9.47473430633545,0.885001003742218
1731474254.7414355,-0.36024534702301025,0.5171383619308472,-9.995183944702148,-0.007949877637319119,0.03059684922553651,0.010578778505103205,2.0501625537872314,9.55521011352539,0.8850146532058716
1731474254.7915576,-0.36024534702301025,0.5171383619308472,-9.995183944702148,-0.011920689797667139,0.017161809116204838,0.012761527124399643,2.049877882003784,9.521650314331055,0.8850616216659546
1731474254.7915576,-0.35241249203681946,0.5186712145805359,-9.984601020812988,-0.013165874289075896,0.0031110956499618824,0.011862489781849419,2.0498759746551514,9.521431922912598,0.885062038898468
1731474254.8413777,-0.3847103714942932,0.5281559228897095,-9.971307754516602,-0.01170217985054156,-0.007660253642524055,0.008760704842517607,2.050722360610962,9.533102989196777,0.8850294351577759
1731474254.891334,-0.3721483051776886,0.5145497918128967,-9.975733757019043,-0.008559686951524204,-0.013205258128517527,0.0055172004859391985,2.0506200790405273,9.503920555114746,0.8850711584091187
1731474254.9421976,-0.37656980752944946,0.5181497931480408,-9.975494384765625,-0.005130805101009188,-0.013536558256633,0.003710354239579072,2.0514392852783203,9.493783950805664,0.8850274682044983
1731474254.9922435,-0.3418162763118744,0.5437055230140686,-9.989014625549316,-0.001971307942045135,-0.009936555283952393,0.0032794904733246207,2.051541566848755,9.470588684082031,0.8850539326667786
1731474255.0422342,-0.3847009837627411,0.5323137640953064,-9.988744735717773,0.0013581753021137104,-0.004775554692929655,0.0029460635608991063,2.0521316528320312,9.441157341003418,0.8850204348564148
1731474255.092159,-0.36099857091903687,0.533940315246582,-9.957430839538574,0.005153536197637441,-0.0008869897997087784,0.001673275791364484,2.052701473236084,9.38974380493164,0.8850132822990417
1731474255.142016,-0.342937707901001,0.5394316911697388,-9.969188690185547,0.008969991849629778,9.281960730913235e-05,-0.00020588363186305506,2.0530381202697754,9.35598087310791,0.8850228786468506
1731474255.1920748,-0.3506304919719696,0.5363717675209045,-10.013087272644043,0.012226482977158733,-0.0014636828486344242,-0.0017770933879841706,2.053402900695801,9.322064399719238,0.8850300312042236
1731474255.2418864,-0.34582558274269104,0.5311051607131958,-9.9962158203125,0.014609349324900912,-0.004015552092617042,-0.0035828461461547318,2.053800582885742,9.288224220275879,0.8850304484367371
1731474255.2919583,-0.3714505732059479,0.5238518118858337,-9.970282554626465,0.01582514199582724,-0.005944676130046239,-0.007405413399120485,2.053290605545044,9.33561897277832,0.8849965333938599
1731474255.3418417,-0.345988005399704,0.5189125537872314,-9.99704647064209,0.015553621534607487,-0.00612797062847994,-0.013722761382962058,2.053823232650757,9.292845726013184,0.8849776387214661
1731474255.3918052,-0.32242637872695923,0.510887086391449,-9.994477272033691,0.013997600223325692,-0.004256158529326785,-0.02071897291423426,2.0541813373565674,9.267130851745605,0.8849107027053833
1731474255.4417105,-0.3452032804489136,0.4803561568260193,-9.995905876159668,0.012196340934838797,-0.0007299709319811708,-0.025633191325958014,2.054426908493042,9.248513221740723,0.8849349021911621
1731474255.4918272,-0.34020382165908813,0.49010801315307617,-9.973431587219238,0.011109878364265137,0.003843259335159606,-0.026253688107010682,2.054779529571533,9.225491523742676,0.8848119378089905
1731474255.5417006,-0.3363352119922638,0.5183935761451721,-9.974600791931152,0.010690656088478526,0.008378294246228093,-0.021683813650579836,2.0551557540893555,9.202699661254883,0.8846304416656494
1731474255.5916178,-0.33142316341400146,0.5303587317466736,-9.98336410522461,0.01037485206162129,0.010512086460403474,-0.012624892612789998,2.0555598735809326,9.179824829101562,0.8844053745269775
1731474255.6415257,-0.33142316341400146,0.5303587317466736,-9.98336410522461,0.009966510706727709,0.007402026737532019,-0.0012660512755278057,2.0546607971191406,9.200119018554688,0.8849197030067444
1731474255.6415257,-0.3155786991119385,0.5580862760543823,-9.974822044372559,0.009738279889829926,-0.0019966302124368816,0.009429988680099583,2.054661750793457,9.200020790100098,0.8849194049835205
1731474255.6914732,-0.3155786991119385,0.5580862760543823,-9.974822044372559,0.010041156857144552,-0.015607069406267046,0.016936063628806505,2.054837942123413,9.184504508972168,0.8848956227302551
1731474255.6914732,-0.32561472058296204,0.5542500019073486,-10.000598907470703,0.010950497849898527,-0.029183142257418266,0.01997120477982937,2.0548391342163086,9.184414863586426,0.8848956227302551
1731474255.7414072,-0.3187223970890045,0.5345733761787415,-9.987415313720703,0.012119565576574814,-0.03858829539242666,0.01843536267496508,2.0549042224884033,9.160890579223633,0.8850046396255493
1731474255.791526,-0.33522868156433105,0.536790668964386,-9.968482971191406,0.012859236611140832,-0.04144454607498572,0.013284917085112294,2.0551211833953857,9.140178680419922,0.8850668668746948
1731474255.8413527,-0.3151799738407135,0.5338147282600403,-9.973977088928223,0.012347924368350287,-0.037520459618635114,0.006730567965621693,2.0553674697875977,9.119564056396484,0.8851534724235535
1731474255.8912456,-0.34957343339920044,0.5195742249488831,-10.027864456176758,0.009947475607869165,-0.02840620766440371,0.0013588434922887026,2.0556423664093018,9.098791122436523,0.8852503895759583
1731474255.9412482,-0.3472212851047516,0.4997401237487793,-9.988950729370117,0.005401404594423835,-0.016550112648139294,-0.0018511112484194629,2.0549464225769043,9.114294052124023,0.8850300312042236
1731474255.9912896,-0.34494391083717346,0.5091537237167358,-9.968703269958496,-0.0010495287496783035,-0.004224859419064758,-0.00367353764357619,2.0550272464752197,9.10069751739502,0.8850377202033997
1731474256.0421805,-0.3569214642047882,0.5132235884666443,-10.003605842590332,-0.008214183359217376,0.0064121127220379695,-0.00468924477459806,2.055233955383301,9.058111190795898,0.885003924369812
1731474256.09213,-0.3342142403125763,0.526075005531311,-9.994843482971191,-0.01391280450421108,0.012987639347851774,-0.004696843764056748,2.0550320148468018,9.018861770629883,0.8849929571151733
1731474256.1420546,-0.3342142403125763,0.526075005531311,-9.994843482971191,-0.016014193495782304,0.013930262490417521,-0.0036776689446950915,2.0549676418304443,8.989920616149902,0.8849725723266602
1731474256.1420546,-0.3365321159362793,0.5302221775054932,-9.988142013549805,-0.013748424917526746,0.009811361497596056,-0.002002239488942232,2.054967164993286,8.98974895477295,0.8849724531173706
1731474256.192053,-0.3391522467136383,0.5092096924781799,-9.971908569335938,-0.008331756321606335,0.003198085248536702,2.917637202822193e-05,2.054872989654541,8.96097469329834,0.884947657585144
1731474256.2419474,-0.39324384927749634,0.4989974796772003,-9.986224174499512,-0.002548766216626748,-0.0025932799771514452,0.0024240946282834677,2.0548646450042725,8.973902702331543,0.8849940896034241
1731474256.2920218,-0.37354519963264465,0.5270703434944153,-9.958976745605469,0.0005092480995926061,-0.005012437974823576,0.005344814096583499,2.054816722869873,8.957060813903809,0.8850024342536926
1731474256.3418775,-0.37354519963264465,0.5270703434944153,-9.958976745605469,-0.000446538933558609,-0.003929684332760113,0.008842893133767512,2.0552425384521484,8.92187786102295,0.8850126266479492
1731474256.3418775,-0.3760372996330261,0.5062395930290222,-9.99882698059082,-0.003588000596508862,-0.001696960468202998,0.012535888318221854,2.0552432537078857,8.921738624572754,0.8850128054618835
1731474256.3919454,-0.34658798575401306,0.5204729437828064,-10.007423400878906,-0.005706344025711804,-0.0005181364960695741,0.01477772693695046,2.0553393363952637,8.897967338562012,0.8850576281547546
1731474256.4417965,-0.375823050737381,0.497670978307724,-9.949674606323242,-0.004872793338760541,-0.0003113107388371349,0.012946631764597217,2.0554208755493164,8.874542236328125,0.8851360082626343
1731474256.4918149,-0.37881380319595337,0.5079866051673889,-9.970585823059082,-0.0012843279965013459,0.0005248351587485232,0.006129521325699201,2.0554957389831543,8.85081958770752,0.8852390646934509
1731474256.5416756,-0.38234981894493103,0.5306254625320435,-9.999187469482422,0.0031844886755565092,0.0031654060129534443,-0.0034736855845191126,2.055572748184204,8.82723331451416,0.8853448629379272
1731474256.5917559,-0.38234981894493103,0.5306254625320435,-9.999187469482422,0.006168899187816091,0.007120569843733938,-0.01288946802756989,2.055661916732788,8.803499221801758,0.8854308724403381
1731474256.5917559,-0.37992697954177856,0.5148998498916626,-9.981711387634277,0.006238729888222447,0.010556730904246895,-0.02069376423486193,2.0556623935699463,8.803360939025879,0.8854312896728516
1731474256.641554,-0.37992697954177856,0.5148998498916626,-9.981711387634277,0.0035030950305278774,0.011991624497243421,-0.026564494608102666,2.055792808532715,8.873283386230469,0.8848890066146851
1731474256.641554,-0.3675638437271118,0.5037556290626526,-9.980525016784668,-0.0006869202440068291,0.011457998102293256,-0.03006398882588711,2.055793285369873,8.873233795166016,0.8848886489868164
1731474256.691563,-0.3675638437271118,0.5037556290626526,-9.980525016784668,-0.004362075797971467,0.010039778527668738,-0.030439025322387923,2.0558900833129883,8.861860275268555,0.8847752213478088
1731474256.691563,-0.36014965176582336,0.5107858180999756,-9.984106063842773,-0.005682973498827862,0.008795803768199629,-0.027199727776696672,2.0558907985687256,8.861766815185547,0.8847739696502686
1731474256.7414477,-0.329439640045166,0.5455515384674072,-9.986712455749512,-0.003562094987651301,0.00797507580410423,-0.02086714722604067,2.056579351425171,8.819348335266113,0.884722888469696
1731474256.791563,-0.329439640045166,0.5455515384674072,-9.986712455749512,0.0020830575782142084,0.0067816767334695945,-0.013111940474665183,2.0568151473999023,8.800023078918457,0.8845973610877991
1731474256.791563,-0.3339204490184784,0.5265224575996399,-9.976625442504883,0.00988329365211182,0.004348130317200098,-0.005902124907278801,2.056816577911377,8.799908638000488,0.8845965266227722
1731474256.841407,-0.3551371395587921,0.5257540345191956,-9.980992317199707,0.016765720351920123,0.0012641849241966235,-0.00044128194968563413,2.0570762157440186,8.780531883239746,0.884454071521759
1731474256.891481,-0.30654120445251465,0.5323370695114136,-10.022384643554688,0.019449599924346916,-0.000559252756767803,0.0028993319577941628,2.0574495792388916,8.750508308410645,0.8846330642700195
1731474256.9412403,-0.31174618005752563,0.5433902144432068,-10.009928703308105,0.01691010285355485,0.00020656092772989443,0.003855208433730431,2.057769298553467,8.730290412902832,0.8845952153205872
1731474256.992243,-0.3118092119693756,0.5102533102035522,-9.966021537780762,0.010912309740206237,0.0030516872914912335,0.0027052378082788645,2.0588576793670654,8.685417175292969,0.8845401406288147
1731474257.0422232,-0.3474029302597046,0.49566301703453064,-10.010079383850098,0.003992213345671469,0.006453442907205041,0.001204577328798501,2.059494972229004,8.654845237731934,0.8844930529594421
1731474257.0921392,-0.3056321144104004,0.5208983421325684,-10.008938789367676,-0.0024008378732282114,0.009272484377199679,0.0007595659512535974,2.0601277351379395,8.624615669250488,0.8844489455223083
1731474257.1420546,-0.3056321144104004,0.5208983421325684,-10.008938789367676,-0.007594587916221162,0.010756273396427062,-1.9630067946883797e-05,2.060750961303711,8.594255447387695,0.8844055533409119
1731474257.1420546,-0.34620413184165955,0.5087897777557373,-9.969107627868652,-0.010854466037403254,0.010146709332971085,-0.003704270230042056,2.0607550144195557,8.5940523147583,0.884405255317688
1731474257.1920705,-0.3788537383079529,0.524947464466095,-9.961037635803223,-0.012287038922235536,0.007237181745953986,-0.010475053030270638,2.0613510608673096,8.563838005065918,0.88434898853302
1731474257.2419436,-0.3788537383079529,0.524947464466095,-9.961037635803223,-0.01402089555398624,0.0027071632985243904,-0.017416513911330166,2.0597989559173584,8.627067565917969,0.88444584608078
1731474257.2419436,-0.3605196475982666,0.7142654657363892,-9.990447998046875,-0.018595327852141092,-0.003291562250514122,-0.021100638425931465,2.059800148010254,8.626980781555176,0.8844454288482666
1731474257.2919545,-0.23919789493083954,1.958263874053955,-9.944758415222168,-0.02491533542380213,-0.019602210635658864,-0.020313651587710854,2.0599923133850098,8.611952781677246,0.8843510746955872
1731474257.3418088,-0.4381619095802307,0.7943592667579651,-9.80710506439209,-0.02717051394199104,-0.0721254396388089,-0.01538693746528719,2.0614871978759766,8.567350387573242,0.8843131065368652
1731474257.391899,-0.2693640887737274,1.0008348226547241,-10.000381469726562,-0.0199690222517099,-0.18092978473252122,-0.006478826709566976,2.0620927810668945,8.539444923400879,0.884197473526001
1731474257.4418283,-0.3814236521720886,0.9091935157775879,-10.141448974609375,-0.002639780309586495,-0.32278447180264624,0.0020685373806401813,2.062875986099243,8.508230209350586,0.8842155337333679
1731474257.4917512,0.010424108244478703,1.2862468957901,-9.879755973815918,0.023366509314009087,-0.44069317142226083,-0.0002633747401491629,2.0635786056518555,8.47717571258545,0.8841473460197449
1731474257.541729,-1.0114773511886597,-0.19654883444309235,-10.062114715576172,0.05464184675147352,-0.4851640594799497,-0.016592758335277718,2.0647854804992676,8.444474220275879,0.8841230869293213
1731474257.5916746,-1.061429500579834,-0.2709430158138275,-10.157659530639648,0.07721475405337706,-0.4288002333727834,-0.03405110438974153,2.065769672393799,8.414435386657715,0.8839916586875916
1731474257.6415129,-0.4840531647205353,0.21645401418209076,-9.939034461975098,0.07283756869378147,-0.2740644801658419,-0.038471028520911416,2.0670979022979736,8.384206771850586,0.8839580416679382
1731474257.691609,-0.4840531647205353,0.21645401418209076,-9.939034461975098,0.04562999114917893,-0.07256702906226192,-0.027411279238477387,2.0687777996063232,8.331330299377441,0.8838503956794739
1731474257.691609,-0.6038371324539185,-0.0769946351647377,-9.916457176208496,0.021457968447808895,0.09713352046782976,-0.006522666876862183,2.0687854290008545,8.331120491027832,0.8838493824005127
1731474257.7414844,-0.38023295998573303,0.24895775318145752,-10.003250122070312,0.015734730528818672,0.18727546039500867,0.015820322864509215,2.070162057876587,8.294304847717285,0.8836869597434998
1731474257.7915306,0.03647226467728615,-0.1084752082824707,-10.04917049407959,0.025698116850207352,0.2012479743793803,0.030355567508629312,2.0715794563293457,8.258248329162598,0.8835828900337219
1731474257.8413234,-0.3431105613708496,0.35543373227119446,-9.9984769821167,0.04998128945096099,0.1698691118093531,0.029741733399186565,2.0731382369995117,8.221574783325195,0.8835532665252686
1731474257.891458,-0.3431105613708496,0.35543373227119446,-9.9984769821167,0.09143277975047451,0.12297516017415662,0.012386221020856568,2.0709030628204346,8.28438949584961,0.88394695520401
1731474257.891458,-0.17972466349601746,0.19616428017616272,-9.92529296875,0.14328300789407797,0.07565076385048766,-0.015371932828191723,2.070908784866333,8.284285545349121,0.8839471340179443
1731474257.9412751,-0.2253514677286148,0.40161705017089844,-9.962855339050293,0.1888665722142513,0.03385109476454182,-0.04122093526072932,2.0721781253814697,8.265937805175781,0.8839253187179565
1731474257.9913201,-0.17322804033756256,0.3836570382118225,-9.94884204864502,0.21425326876013157,0.0032536956287552016,-0.05300134655643532,2.0738525390625,8.248759269714355,0.8837921619415283
1731474258.0421906,-0.21450014412403107,0.49829381704330444,-9.947694778442383,0.21576413426902946,-0.014045817172165201,-0.045376374057541656,2.0728087425231934,8.242777824401855,0.8839164972305298
1731474258.0921295,-0.21169376373291016,0.5051408410072327,-9.971762657165527,0.19829256646821466,-0.023014240121774727,-0.02212825995148506,2.0743861198425293,8.227850914001465,0.8837389945983887
1731474258.142069,-0.21939261257648468,0.5503336191177368,-10.01452350616455,0.168756611204587,-0.030227987758994677,0.0062052433554026926,2.0764174461364746,8.212891578674316,0.883542001247406
1731474258.192035,-0.24212223291397095,0.5615008473396301,-9.98791790008545,0.1315915616143165,-0.03819458007243252,0.02702149523210292,2.0788285732269287,8.1978120803833,0.8833860754966736
1731474258.2419562,-0.24094904959201813,0.5657532811164856,-9.991032600402832,0.08988197637608344,-0.04606862583219147,0.03169445330525046,2.0755808353424072,8.192923545837402,0.883948564529419
1731474258.2919693,-0.29622259736061096,0.5670278668403625,-10.01882266998291,0.047643486059220405,-0.05252120659670889,0.019723423578127307,2.0768661499023438,8.178824424743652,0.8840315937995911
1731474258.3418329,-0.2915175259113312,0.555531919002533,-10.010415077209473,0.009436725221165265,-0.0558645710742271,-0.0022526357508697433,2.078249931335449,8.164301872253418,0.8841383457183838
1731474258.3918815,-0.3279157876968384,0.5656564235687256,-9.97781753540039,-0.02138718098716831,-0.053714373567196924,-0.024758700156069915,2.0785553455352783,8.139277458190918,0.883993923664093
1731474258.4417493,-0.30819523334503174,0.5761828422546387,-9.979680061340332,-0.0433488608586098,-0.04487001012141984,-0.0396511347128806,2.079667568206787,8.120409965515137,0.8839052319526672
1731474258.4917963,-0.3183772563934326,0.5686792135238647,-10.016313552856445,-0.05553409495114123,-0.031126483150565903,-0.043081311759719576,2.0806663036346436,8.101271629333496,0.883712112903595
1731474258.5416462,-0.3183772563934326,0.5686792135238647,-10.016313552856445,-0.05672583843290101,-0.016435172522842142,-0.03684050354012757,2.0812065601348877,8.090054512023926,0.8839040398597717
1731474258.5416462,-0.3429259657859802,0.5291363596916199,-9.98890495300293,-0.04731564690877728,-0.004332635481213217,-0.02648094287020422,2.0812113285064697,8.089956283569336,0.8839032053947449
1731474258.5916977,-0.3429259657859802,0.5291363596916199,-9.98890495300293,-0.03133615589987428,0.004101486108880068,-0.016710022901349934,2.084491729736328,8.040236473083496,0.8839265704154968
1731474258.5916977,-0.36911168694496155,0.5140436291694641,-9.953060150146484,-0.01526495631614426,0.010150630376997103,-0.008533249328942703,2.084502696990967,8.040050506591797,0.8839259743690491
1731474258.6415408,-0.37056058645248413,0.5247267484664917,-10.002022743225098,-0.004708859401531721,0.015277016498818685,-0.0008132326059092378,2.085982084274292,8.015088081359863,0.8838457465171814
1731474258.691514,-0.37056058645248413,0.5247267484664917,-10.002022743225098,-0.0020346741891860646,0.01934527476204984,0.00653966207590813,2.08866024017334,7.977659702301025,0.8839713335037231
1731474258.691514,-0.408696711063385,0.5317175984382629,-9.963028907775879,-0.006293527008862394,0.021086052199345326,0.011888229374185117,2.088674783706665,7.9774346351623535,0.8839713335037231
1731474258.7414737,-0.43023356795310974,0.4923507869243622,-9.951766967773438,-0.014793640840318374,0.01971588913547027,0.01431288960373158,2.0906131267547607,7.947072982788086,0.8839886784553528
1731474258.7915273,-0.43023356795310974,0.4923507869243622,-9.951766967773438,-0.024964032415368636,0.016149341326343835,0.01547944138514071,2.0924694538116455,7.917274475097656,0.8840422630310059
1731474258.7915273,-0.42842626571655273,0.4934951961040497,-9.997085571289062,-0.03520383437016095,0.012856525045836285,0.018009106341759305,2.092479944229126,7.917101860046387,0.8840426802635193
1731474258.841419,-0.45721203088760376,0.4949522614479065,-9.999756813049316,-0.044670028202481754,0.01221141762078828,0.022440099727248138,2.0942888259887695,7.886683464050293,0.8841455578804016
1731474258.891353,-0.42687341570854187,0.5134192109107971,-9.959959030151367,-0.05299984034762181,0.014837176216336867,0.026744757654112817,2.0907063484191895,7.935968399047852,0.8840387463569641
1731474258.9412003,-0.41138559579849243,0.49635040760040283,-9.958231925964355,-0.05959312952302451,0.019354365280722857,0.028762338569583514,2.0913853645324707,7.919989585876465,0.884156346321106
1731474258.9912236,-0.38786134123802185,0.48493507504463196,-10.013429641723633,-0.0621753976671483,0.023516627108108118,0.02761842754878814,2.091916799545288,7.903967380523682,0.8843449950218201
1731474259.0421762,-0.3825375735759735,0.4921257197856903,-9.95477294921875,-0.05704414588100737,0.025805582881019952,0.02275428202601496,2.0937957763671875,7.8931050300598145,0.8840936422348022
1731474259.0921328,-0.37149134278297424,0.49844661355018616,-9.968839645385742,-0.04214812095432571,0.025950510900146752,0.01405178022498953,2.094449520111084,7.879469871520996,0.8842139840126038
1731474259.142018,-0.37149134278297424,0.49844661355018616,-9.968839645385742,-0.019901387674029658,0.024047721879579216,0.0031687522646397974,2.095032215118408,7.865781307220459,0.8843565583229065
1731474259.142018,-0.3653051555156708,0.49976539611816406,-9.989553451538086,0.0035213899546880515,0.019948457770369944,-0.0071885314374963705,2.0950357913970947,7.865695476531982,0.8843574523925781
1731474259.1920078,-0.3597586452960968,0.5057997703552246,-9.992593765258789,0.02182153101875453,0.01374004092029977,-0.015316773324245421,2.099224090576172,7.824267864227295,0.8840430378913879
1731474259.2419808,-0.32375091314315796,0.5126527547836304,-9.960384368896484,0.03184488623691357,0.006225868561263602,-0.02087068180527361,2.1009788513183594,7.801316738128662,0.8840041756629944
1731474259.2918918,-0.27954578399658203,0.512941837310791,-10.020535469055176,0.034532122756989636,-0.001249550695685933,-0.02353281275779368,2.1039881706237793,7.769961833953857,0.8839671611785889
1731474259.3418503,-0.26400724053382874,0.5220966935157776,-9.999555587768555,0.03367804520933775,-0.007295286287747187,-0.022677165323013098,2.1082119941711426,7.720580577850342,0.8839393258094788
1731474259.3918777,-0.26551181077957153,0.5102487206459045,-9.976055145263672,0.032809615503430284,-0.010927677220553426,-0.01827219428996517,2.111011266708374,7.688613414764404,0.8838340640068054
1731474259.4417617,-0.26551181077957153,0.5102487206459045,-9.976055145263672,0.03240005890538698,-0.011646611200158138,-0.010939666348159821,2.113950729370117,7.655930995941162,0.8836907148361206
1731474259.4417617,-0.2692081928253174,0.5217732787132263,-10.02657413482666,0.030488899086736024,-0.00940819744809578,-0.001873839554687888,2.1139698028564453,7.6557230949401855,0.8836897015571594
1731474259.491703,-0.28410080075263977,0.5133116841316223,-10.01400375366211,0.02536814814548157,-0.00492473525253776,0.006496224791119006,2.1125261783599854,7.675171852111816,0.8839501738548279
1731474259.541658,-0.27495571970939636,0.5511316657066345,-9.973592758178711,0.017052096102633765,0.0001478063996326244,0.011316014396704979,2.114274263381958,7.656963348388672,0.8839527368545532
1731474259.591599,-0.28116661310195923,0.5095332860946655,-9.986105918884277,0.007289422038757872,0.003611938356551281,0.011943034307925211,2.1161301136016846,7.625770568847656,0.8840034008026123
1731474259.6415753,-0.28580236434936523,0.5497510433197021,-9.983711242675781,-0.0012579310505657383,0.0037407052759139336,0.010626999968093288,2.1180551052093506,7.601796627044678,0.8840512037277222
1731474259.6915286,-0.28580236434936523,0.5497510433197021,-9.983711242675781,-0.006564888292886472,3.615096604540208e-05,0.009837540505297566,2.119926929473877,7.578372001647949,0.8841232061386108
1731474259.6915286,-0.29321086406707764,0.5121716260910034,-9.965170860290527,-0.008333071215675288,-0.006851112317609812,0.010144778239053878,2.119939088821411,7.578219890594482,0.8841237425804138
1731474259.7414758,-0.32591837644577026,0.5348840951919556,-9.999778747558594,-0.00790463905641954,-0.01514429184392667,0.010832424125268716,2.121798276901245,7.55471134185791,0.8842214345932007
1731474259.7914712,-0.3417065441608429,0.5319466590881348,-9.9926118850708,-0.007751677700726958,-0.022337830997281285,0.010945216813576835,2.1236650943756104,7.530810356140137,0.8843477964401245
1731474259.8413827,-0.3383355736732483,0.5384328365325928,-9.94963264465332,-0.01062917289281361,-0.02666915426141238,0.009794904395097215,2.119921922683716,7.583678245544434,0.8840379118919373
1731474259.8913229,-0.3472735285758972,0.5439709424972534,-9.960057258605957,-0.017844393858766905,-0.02792694281038113,0.007708080676046974,2.120835781097412,7.572469711303711,0.8840901851654053
1731474259.9412582,-0.36747029423713684,0.5125245451927185,-10.009913444519043,-0.02773301012921455,-0.026555576900875878,0.005485133696794854,2.1216824054718018,7.561328411102295,0.884158194065094
1731474259.9911633,-0.36164718866348267,0.5389857292175293,-9.982494354248047,-0.03650840468135041,-0.022571372680715605,0.0024890265076635866,2.12459135055542,7.5332865715026855,0.8840324878692627
1731474260.0411706,-0.357643723487854,0.5017773509025574,-9.967860221862793,-0.04088360747037638,-0.015817704434335424,-0.0028343176502598957,2.126070976257324,7.515050888061523,0.8840510249137878
1731474260.0921178,-0.3658211827278137,0.4961976408958435,-9.977298736572266,-0.03952259031495293,-0.006642984859488346,-0.009992190812406362,2.127389907836914,7.497535228729248,0.8840530514717102
1731474260.1420953,-0.37395355105400085,0.5081296563148499,-10.01409912109375,-0.032967093415632816,0.004197985444690868,-0.016074329264849745,2.1290786266326904,7.469142913818359,0.8839908838272095
1731474260.1920152,-0.3738284707069397,0.47436872124671936,-9.96627426147461,-0.023331645286726245,0.015578216514124665,-0.018527076434115206,2.1304373741149902,7.448925018310547,0.8839261531829834
1731474260.2419841,-0.37065598368644714,0.49779775738716125,-9.985980033874512,-0.013420655325103257,0.025756191533253963,-0.01639708320475281,2.134794235229492,7.416111469268799,0.8839539885520935
1731474260.2920353,-0.3399655818939209,0.4900871515274048,-10.01250171661377,-0.005217091765514159,0.0326697362464437,-0.009848176526955198,2.138869047164917,7.3695878982543945,0.883955180644989
1731474260.3418567,-0.36259159445762634,0.4862562417984009,-9.962312698364258,0.0007851358996233098,0.0347217273249506,-0.0006058997817166892,2.14141583442688,7.34101676940918,0.8839062452316284
1731474260.3920105,-0.3347059488296509,0.5005926489830017,-9.974414825439453,0.004691606281033701,0.031530008131328044,0.008688947051028732,2.1440155506134033,7.312014102935791,0.8838669061660767
1731474260.4418404,-0.3347059488296509,0.5005926489830017,-9.974414825439453,0.0063925863097087,0.02405066634645869,0.01667191702359375,2.1465301513671875,7.284180641174316,0.8838598132133484
1731474260.4418404,-0.3296290934085846,0.5082863569259644,-10.004375457763672,0.006111673460265015,0.014042963886720062,0.023321739002444716,2.1465466022491455,7.283999443054199,0.8838598728179932
1731474260.491835,-0.3118429481983185,0.5484282970428467,-9.972600936889648,0.004970003001514377,0.0032484972618103468,0.028388888114060283,2.1420462131500244,7.318192481994629,0.8840137124061584
1731474260.5416083,-0.3118429481983185,0.5484282970428467,-9.972600936889648,0.004465838970556743,-0.007246607156175607,0.031180694063062578,2.1431920528411865,7.302348613739014,0.8841241598129272
1731474260.5416083,-0.281728059053421,0.5223520398139954,-9.966303825378418,0.005513430522475622,-0.016348712864705916,0.03119006743337788,2.143200635910034,7.3022308349609375,0.884125292301178
1731474260.5915737,-0.2727040648460388,0.5486530661582947,-9.987418174743652,0.008189251068427487,-0.02188671971874802,0.028183486631509134,2.1443605422973633,7.286372661590576,0.884308934211731
1731474260.6414769,-0.2961918115615845,0.5122963786125183,-9.994918823242188,0.012263376542349567,-0.02163826002465557,0.02215455610261701,2.1455559730529785,7.270320892333984,0.8845565915107727
1731474260.6915138,-0.26259684562683105,0.5288105010986328,-10.006884574890137,0.01734007660381627,-0.015222487841819628,0.013428254239962722,2.1458611488342285,7.272943496704102,0.8840703964233398
1731474260.7414804,-0.2813274562358856,0.5267104506492615,-9.99380874633789,0.022527600297109325,-0.004462909208205516,0.0029327351989237556,2.147132396697998,7.2584075927734375,0.884148359298706
1731474260.791385,-0.26994991302490234,0.536649763584137,-10.013660430908203,0.0261733674265438,0.007196468049453457,-0.00731393023801804,2.1508805751800537,7.212900638580322,0.8840340971946716
1731474260.841281,-0.27946171164512634,0.5263699889183044,-9.95245361328125,0.02617546856215938,0.015891168600851168,-0.014331995485324971,2.1528358459472656,7.190801620483398,0.8840175271034241
1731474260.891341,-0.3083479404449463,0.49930036067962646,-10.007706642150879,0.02126263838567307,0.01943410477302246,-0.015357972283810046,2.1558423042297363,7.153153896331787,0.8839852213859558
1731474260.9412327,-0.3083479404449463,0.49930036067962646,-10.007706642150879,0.011946734145881197,0.018580666106770737,-0.009671212445697836,2.1599624156951904,7.103053092956543,0.8839712738990784
1731474260.9412327,-0.2865124046802521,0.5282800793647766,-10.013312339782715,0.000583295999763611,0.01557009529129781,0.00017086362561178963,2.159980297088623,7.102841854095459,0.8839710354804993
1731474260.9913182,-0.31414875388145447,0.5039757490158081,-9.971837043762207,-0.009135739698484314,0.011605446511201208,0.009746984309760273,2.162799596786499,7.069386005401611,0.8839423060417175
1731474261.0411649,-0.3073425889015198,0.4976935386657715,-9.976236343383789,-0.014041652240650786,0.006683936231210592,0.01608857832580592,2.165558338165283,7.036332607269287,0.8839457035064697
1731474261.091087,-0.3437751233577728,0.5129514932632446,-10.015432357788086,-0.01365332713183336,0.0011929933232591816,0.019060208589712406,2.1683123111724854,7.002931594848633,0.8839929699897766
1731474261.141051,-0.3437751233577728,0.5129514932632446,-10.015432357788086,-0.010436023799261635,-0.0038301998168142814,0.019572148007433187,2.1640281677246094,7.053901672363281,0.8840155601501465
1731474261.141051,-0.3543604016304016,0.5046914219856262,-9.97769832611084,-0.008000828361015185,-0.007571863694638253,0.018002707688994167,2.164091110229492,7.053130626678467,0.8840181827545166
1731474261.1920078,-0.3437732458114624,0.5287873148918152,-9.974113464355469,-0.008486340632229458,-0.009640640710407955,0.015162011994968862,2.1667191982269287,7.010500907897949,0.8840333223342896
1731474261.241969,-0.3467560410499573,0.5095616579055786,-10.01371955871582,-0.01121815051830221,-0.00988857125064116,0.012851269572852422,2.1684274673461914,6.985684871673584,0.8841051459312439
1731474261.2920585,-0.3765934407711029,0.5189170837402344,-9.956082344055176,-0.014017982332597937,-0.008337071738539538,0.011895554261954492,2.170003890991211,6.962319374084473,0.8842028975486755
1731474261.3419363,-0.3474811017513275,0.5160711407661438,-9.958419799804688,-0.015496782355490296,-0.005079015483072261,0.0113231054958501,2.1715993881225586,6.938108921051025,0.8843329548835754
1731474261.3918636,-0.35007941722869873,0.5183472037315369,-10.028416633605957,-0.015633149129407366,-0.0004895144992346694,0.010014652538348856,2.173128366470337,6.914319038391113,0.8844870328903198
1731474261.4417737,-0.36163008213043213,0.5016106367111206,-9.977723121643066,-0.014828706513095032,0.004636846522171789,0.007211906574303988,2.174635171890259,6.890289306640625,0.8846640586853027
1731474261.4918113,-0.35553649067878723,0.5168299078941345,-9.954503059387207,-0.013492891393805915,0.009502664745674965,0.002470943660641864,2.170865535736084,6.961291313171387,0.8840520977973938
1731474261.5417175,-0.35553649067878723,0.5168299078941345,-9.954503059387207,-0.012125554252664325,0.0135027261441588,-0.0030911982489611562,2.171682119369507,6.9503560066223145,0.8840782642364502
1731474261.5417175,-0.32405510544776917,0.5394337773323059,-10.000442504882812,-0.01078289214068861,0.01579975188426664,-0.007298379332166461,2.171687364578247,6.950284957885742,0.8840783834457397
1731474261.5915892,-0.3522171080112457,0.5132187008857727,-9.991219520568848,-0.008633326752790358,0.015288930130794482,-0.00958858078721622,2.1749496459960938,6.9150800704956055,0.8840059041976929
1731474261.641531,-0.3522171080112457,0.5132187008857727,-9.991219520568848,-0.004846836500937904,0.011600210135988108,-0.011498775589706875,2.1764111518859863,6.897377967834473,0.8839724063873291
1731474261.641531,-0.31086963415145874,0.5478129386901855,-9.976883888244629,0.0002955783437503896,0.005743199799484974,-0.014056902032160555,2.1764204502105713,6.897265911102295,0.8839721083641052
1731474261.6914985,-0.3342536687850952,0.5424432754516602,-9.98953914642334,0.005931613852499479,-0.0009179383423780919,-0.016090568713755724,2.1778767108917236,6.879658222198486,0.8839044570922852
1731474261.7413893,-0.3342536687850952,0.5424432754516602,-9.98953914642334,0.011523158213514649,-0.007784148371755016,-0.015651600070078497,2.179424524307251,6.84891939163208,0.8839659690856934
1731474261.7413893,-0.33723005652427673,0.541192889213562,-9.98468017578125,0.01644867806848462,-0.014508468921193333,-0.012142825507013719,2.1794373989105225,6.848740577697754,0.8839654922485352
1731474261.7915103,-0.30891498923301697,0.5227032899856567,-9.957521438598633,0.01964228306463478,-0.01986727901748432,-0.0064926959517339865,2.1809329986572266,6.828211307525635,0.8839030265808105
1731474261.8413835,-0.30891498923301697,0.5227032899856567,-9.957521438598633,0.020480575018124402,-0.02173360705285491,0.00017517513519107086,2.185166358947754,6.792566299438477,0.8839772939682007
1731474261.8413835,-0.33515170216560364,0.5208950042724609,-9.993314743041992,0.01939069697568215,-0.01852421336853245,0.007039110899030938,2.185182571411133,6.79239559173584,0.8839771747589111
1731474261.8915136,-0.33515170216560364,0.5208950042724609,-9.993314743041992,0.016763778112494514,-0.010834816021932389,0.012406295819929369,2.1877834796905518,6.765379905700684,0.8839786052703857
1731474261.8915136,-0.29356619715690613,0.5534061789512634,-10.002238273620605,0.0121912462498118,-0.00159210624794169,0.013339608283648073,2.187800884246826,6.765200614929199,0.8839787244796753
1731474261.9412656,-0.30185309052467346,0.5242305397987366,-9.971726417541504,0.005895939543634857,0.005417324817944991,0.007787658421905871,2.1889188289642334,6.7419962882995605,0.8840067386627197
1731474261.9913228,-0.29817134141921997,0.5143473744392395,-9.988537788391113,-0.00022768863191770152,0.00773758825100464,-0.0031622298629582577,2.191169261932373,6.714285850524902,0.8840251564979553
1731474262.0411637,-0.29817134141921997,0.5143473744392395,-9.988537788391113,-0.00400330881504486,0.005760201811249514,-0.01562165213979735,2.193329095840454,6.6876444816589355,0.8840202689170837
1731474262.0411637,-0.29089540243148804,0.5221478939056396,-10.021998405456543,-0.004584361706673457,0.0020652287278583085,-0.025527955503670808,2.193402051925659,6.686742305755615,0.8840194344520569
1731474262.0911996,-0.3168226480484009,0.5087156891822815,-9.961423873901367,-0.002593082402153675,-0.00070551442747302,-0.030934824735582157,2.190960168838501,6.700691223144531,0.8839667439460754
1731474262.141148,-0.3168226480484009,0.5087156891822815,-9.961423873901367,0.00040144912631431525,-0.001227341564326889,-0.031774038455094,2.1920106410980225,6.684402942657471,0.8838471174240112
1731474262.141148,-0.3120763897895813,0.5058252811431885,-10.004660606384277,0.0026855763242006844,0.0003740395122244995,-0.028664037619042855,2.1920173168182373,6.684300422668457,0.88384610414505
1731474262.1920094,-0.3120999336242676,0.47754037380218506,-10.014442443847656,0.0034371052921099154,0.0031109034530724445,-0.02337137971191951,2.193077325820923,6.667942523956299,0.8836560249328613
1731474262.241928,-0.3345818519592285,0.5095679759979248,-9.963786125183105,0.0029097848444534164,0.0060995722144484565,-0.019001310175834424,2.19413423538208,6.651767730712891,0.8834152221679688
1731474262.2919507,-0.31062477827072144,0.5256940126419067,-9.987154960632324,0.0016140012784305745,0.008738710003277332,-0.01775867033591528,2.194126605987549,6.654214382171631,0.883918285369873
1731474262.3418813,-0.3407110273838043,0.5384764075279236,-10.003299713134766,-0.00021260648574264555,0.010004594468905323,-0.019263037669936037,2.19510555267334,6.640263557434082,0.8838110566139221
1731474262.3918486,-0.33475905656814575,0.5370134115219116,-9.97066593170166,-0.0026512834352186944,0.008676053958947563,-0.021489549342282255,2.198110342025757,6.587957859039307,0.8839160203933716
1731474262.441774,-0.33475905656814575,0.5370134115219116,-9.97066593170166,-0.005935964781332001,0.004560803991365443,-0.022171390821847797,2.199676752090454,6.5626540184021,0.8838009834289551
1731474262.441774,-0.3196718394756317,0.534850537776947,-9.941985130310059,-0.00963345734091725,-0.001001152785951199,-0.01961730799904197,2.1996865272521973,6.562493801116943,0.8838000893592834
1731474262.4917703,-0.3282461166381836,0.5605183839797974,-9.997122764587402,-0.012135537822085197,-0.006001973612299024,-0.013567776627505686,2.201420783996582,6.532015323638916,0.8839280009269714
1731474262.5416727,-0.3282461166381836,0.5605183839797974,-9.997122764587402,-0.011781300519933292,-0.009166277213546709,-0.005712300263314623,2.204197406768799,6.485621929168701,0.883951723575592
1731474262.5416727,-0.3316074311733246,0.527795672416687,-9.963452339172363,-0.00841879555176464,-0.010222370996466678,0.0012751567567788418,2.2042081356048584,6.485438823699951,0.8839514851570129
1731474262.591795,-0.32330626249313354,0.5580564737319946,-9.963869094848633,-0.003523036670970216,-0.008953670500331933,0.00604411026435855,2.206037759780884,6.454449653625488,0.8839219808578491
1731474262.6417222,-0.34221792221069336,0.5391687154769897,-10.003349304199219,0.0009437802440680031,-0.005119795315873369,0.00934731637890212,2.207872152328491,6.423308372497559,0.8839115500450134
1731474262.6916506,-0.3422446846961975,0.5492489337921143,-9.994108200073242,0.0034580990126085076,0.0006927447340377502,0.012084519188290616,2.2097017765045166,6.392333507537842,0.8839278221130371
1731474262.7415483,-0.3422446846961975,0.5492489337921143,-9.994108200073242,0.003209010632383485,0.007056152130809797,0.013837048232338427,2.206533908843994,6.437302589416504,0.8840029239654541
1731474262.7415483,-0.3516961932182312,0.5258873701095581,-9.952585220336914,0.0002905846719658444,0.012474954996485082,0.01393540259655672,2.2065393924713135,6.437198638916016,0.8840031623840332
1731474262.7914133,-0.3516961932182312,0.5258873701095581,-9.952585220336914,-0.004237507316986104,0.0161318685264443,0.013111976885299829,2.2074074745178223,6.420846462249756,0.8840584754943848
1731474262.7914133,-0.3370512127876282,0.520551860332489,-10.001510620117188,-0.008745370232455784,0.018207169433010224,0.013191920410356828,2.2074146270751953,6.420712471008301,0.8840590715408325
1731474262.8413503,-0.3370512127876282,0.520551860332489,-10.001510620117188,-0.011609790527104369,0.019521525614343924,0.014861067690582694,2.2080745697021484,6.3860955238342285,0.884032130241394
1731474262.8413503,-0.3451996445655823,0.5130869746208191,-10.018362998962402,-0.011813212777119105,0.02078548222039399,0.016468267694876134,2.208080291748047,6.385940074920654,0.8840324282646179
1731474262.8913836,-0.35070565342903137,0.5381011962890625,-9.988478660583496,-0.009574221480495557,0.02181511500971857,0.01567044951952521,2.2089736461639404,6.36150598526001,0.884101390838623
1731474262.9412954,-0.33822372555732727,0.5210782289505005,-9.953425407409668,-0.006336087214150686,0.021337967529348918,0.012042605065960435,2.2098422050476074,6.337263107299805,0.8842042684555054
1731474262.99144,-0.3267037272453308,0.550597608089447,-10.036611557006836,-0.0036424907713758113,0.017963868251864926,0.007632608375030315,2.2107090950012207,6.312769412994385,0.8843331336975098
1731474263.0411665,-0.3231850862503052,0.5352139472961426,-9.97836971282959,-0.001923514275213206,0.011334265679306343,0.0046567237656278265,2.209860324859619,6.343388080596924,0.8840376138687134
1731474263.0911767,-0.307501882314682,0.5550757646560669,-9.959206581115723,-0.0004632900879419018,0.002361930379636651,0.00365076164528109,2.210402488708496,6.329931735992432,0.8840740323066711
1731474263.141181,-0.307501882314682,0.5550757646560669,-9.959206581115723,0.0016725598811222044,-0.007169016015839318,0.004354942567298263,2.211400032043457,6.290478229522705,0.8840270042419434
1731474263.141181,-0.3045119643211365,0.5228787660598755,-9.99755859375,0.004777600040869423,-0.015095522494607626,0.006369055837637318,2.21140456199646,6.2903337478637695,0.8840271234512329
1731474263.141181,-0.3045119643211365,0.5228787660598755,-9.99755859375,0.008217740870297897,-0.019065069911424815,0.008103050048956359,2.2116310596466064,6.283287048339844,0.8840347528457642
1731474263.141181,-0.3045119643211365,0.5228787660598755,-9.99755859375,0.010804508950723067,-0.017018035471307424,0.006798282060760727,2.2116355895996094,6.283143520355225,0.8840349316596985
1731474263.5227277,-0.3049001693725586,0.5161281228065491,-9.995744705200195,0.011601187584618231,-0.008518816448753477,0.0005853009545252388,2.220773696899414,6.014925003051758,0.8840541243553162
1731474263.5727777,-0.32399624586105347,0.5335017442703247,-10.015623092651367,0.010376147582640516,0.004291806194630954,-0.009827937625515214,2.218271493911743,6.058480739593506,0.8840107917785645
1731474263.6226602,-0.3225729763507843,0.5290247201919556,-10.007339477539062,0.007382502218491235,0.017096364109052013,-0.021316626947790154,2.2189435958862305,6.035206317901611,0.8839654326438904
1731474263.6727102,-0.32502999901771545,0.524421751499176,-9.974569320678711,0.003227830171576172,0.025317415642613382,-0.029532457586543815,2.217383623123169,6.046400547027588,0.8839466571807861
1731474263.722569,-0.3374834656715393,0.5510570406913757,-9.992619514465332,-0.0010598828027307996,0.02658077419541288,-0.03074091927906799,2.2177443504333496,6.026607990264893,0.8838149905204773
1731474263.7726133,-0.3374834656715393,0.5510570406913757,-9.992619514465332,-0.004533758019238558,0.02124895064766571,-0.024326703290581272,2.2170326709747314,6.001300811767578,0.8839062452316284
1731474263.7726133,-0.33284899592399597,0.5397325158119202,-9.970932960510254,-0.006860812869806741,0.011306430134698842,-0.013594858409686213,2.217033624649048,6.001156806945801,0.8839056491851807
1731474263.8226008,-0.33284899592399597,0.5397325158119202,-9.970932960510254,-0.007982366514670866,-5.7239654276282186e-05,-0.002958720375048459,2.2166054248809814,5.967044353485107,0.8839497566223145
1731474263.8226008,-0.3403918147087097,0.5350664854049683,-9.962098121643066,-0.007734682640299868,-0.008942381667466342,0.005204758351095967,2.2166051864624023,5.966887950897217,0.8839495778083801
1731474263.8724194,-0.3301069140434265,0.5356677174568176,-9.9998197555542,-0.006211481113876578,-0.01258626634060629,0.010389768592361822,2.216566324234009,5.939671516418457,0.8839266896247864
1731474263.9224997,-0.3673486113548279,0.5318745374679565,-9.985032081604004,-0.004173435993667537,-0.01078513635634795,0.012155271356810061,2.2165141105651855,5.912177562713623,0.8839317560195923
1731474263.9723306,-0.34999555349349976,0.5166594982147217,-9.930706024169922,-0.002969784652255378,-0.005326255514204466,0.010164897744308371,2.2164535522460938,5.884884357452393,0.8839645385742188
1731474264.0223477,-0.3313302993774414,0.5247297883033752,-10.015475273132324,-0.003787033091536997,0.0015834030187097054,0.005579620680129942,2.2163777351379395,5.921171188354492,0.8839966058731079
1731474264.0722985,-0.3398519456386566,0.5365292429924011,-10.036428451538086,-0.00649970427613555,0.008132195480467274,0.00036478332610482395,2.216325283050537,5.904721260070801,0.884017825126648
1731474264.1222117,-0.31204524636268616,0.5352579355239868,-9.936779975891113,-0.009512864850205015,0.012647800863813688,-0.004209658768472173,2.2152297496795654,5.885168075561523,0.8840006589889526
1731474264.1722736,-0.3470475971698761,0.5392178297042847,-9.983247756958008,-0.011034987258912641,0.013656322167002112,-0.006816563110334964,2.214357852935791,5.855160713195801,0.8839905261993408
1731474264.2222207,-0.3343464732170105,0.5260656476020813,-9.986680030822754,-0.010493358926579491,0.010898982859838854,-0.0063261899737858856,2.2138683795928955,5.835760593414307,0.8839638233184814
1731474264.272053,-0.33254554867744446,0.5461159348487854,-9.964720726013184,-0.008511375412089153,0.005885911941306597,-0.0036290608398551055,2.2133562564849854,5.816421985626221,0.8839247822761536
1731474264.3230038,-0.3322692811489105,0.5612680912017822,-9.9815092086792,-0.005605628396428957,0.0007735404499026992,-0.0006112595399374057,2.2118237018585205,5.7983903884887695,0.8839836120605469
1731474264.3728774,-0.3322692811489105,0.5612680912017822,-9.9815092086792,-0.0018054428207835396,-0.003241638833066062,0.0018339112929337954,2.21104097366333,5.778789043426514,0.8839749097824097
1731474264.3728774,-0.3373151421546936,0.5251361131668091,-10.014772415161133,0.0024274830692361605,-0.005839266983644394,0.003348693059414282,2.211036443710327,5.778676986694336,0.8839748501777649
1731474264.422978,-0.3367127776145935,0.5258690714836121,-9.943154335021973,0.0058488580610864,-0.00621293886536071,0.0033925343006022514,2.2094037532806396,5.760269641876221,0.8839983940124512
1731474264.4728253,-0.31102949380874634,0.5451017022132874,-9.968538284301758,0.007351414316024672,-0.0032436095927914615,0.002001753521187515,2.2076523303985596,5.724513530731201,0.8840036392211914
1731474264.5229533,-0.3020649552345276,0.5534698963165283,-10.003899574279785,0.007096441778418844,0.0024502413171535887,-0.00011109929395618386,2.206449031829834,5.6995673179626465,0.8840111494064331
1731474264.5727313,-0.30998116731643677,0.5240218639373779,-10.004076957702637,0.006329139894083574,0.008094065379566594,-0.0029536944317905063,2.205278158187866,5.6749587059021,0.8840147256851196
1731474264.6227033,-0.3064423203468323,0.5213543176651001,-9.972135543823242,0.00600925263968693,0.011331180247012074,-0.007297780023426057,2.204512119293213,5.67479944229126,0.8839941024780273
1731474264.67266,-0.32323408126831055,0.5349228978157043,-10.008607864379883,0.006035066399714595,0.012060488084225465,-0.01302854827508965,2.203533172607422,5.657403945922852,0.8839595317840576
1731474264.7226682,-0.32498684525489807,0.5346763134002686,-9.99293327331543,0.0055229811052221415,0.011162369201006859,-0.018843357709355836,2.2011284828186035,5.636996269226074,0.8839623332023621
1731474264.772553,-0.3268061876296997,0.5049630403518677,-9.983131408691406,0.00351438650194706,0.009028960359118245,-0.023295578193084303,2.1996991634368896,5.617932319641113,0.8838730454444885
1731474264.822442,-0.323529452085495,0.4981513023376465,-10.017570495605469,-8.053999583494936e-05,0.0063779003709000855,-0.025222063859824013,2.1946046352386475,5.597583293914795,0.8839253783226013
1731474264.872408,-0.31287068128585815,0.5102391839027405,-10.006871223449707,-0.004041027992390708,0.004916348590788336,-0.02400785298574782,2.191952705383301,5.577218532562256,0.8838008642196655
1731474264.9223416,-0.33194395899772644,0.5104357004165649,-9.94683837890625,-0.00663458738698769,0.005595742326921852,-0.019638169789851816,2.189284563064575,5.5568461418151855,0.8836218118667603
1731474264.9723978,-0.3249147832393646,0.5570355653762817,-9.992575645446777,-0.006954500906844195,0.006894672165108407,-0.011847646226011185,2.1865909099578857,5.536424160003662,0.8834027051925659
1731474265.0222626,-0.3515361249446869,0.545881450176239,-10.008210182189941,-0.005565959530007377,0.00559932917855838,-0.0005622910959462825,2.18902325630188,5.550331115722656,0.8839195370674133
1731474265.0723045,-0.3515361249446869,0.545881450176239,-10.008210182189941,-0.004027554418429125,-0.0006270018565787054,0.012190533964121618,2.187309503555298,5.535852432250977,0.8838928937911987
1731474265.0723045,-0.30771344900131226,0.5316721200942993,-9.960872650146484,-0.0034218575436173425,-0.010728051851866025,0.022694139222764826,2.1872990131378174,5.535764694213867,0.883892834186554
1731474265.122254,-0.3264414072036743,0.5364122986793518,-9.960006713867188,-0.0029359262734747578,-0.020241143965465943,0.028639534003389776,2.1824018955230713,5.517366409301758,0.8840125203132629
1731474265.1722767,-0.3206590712070465,0.5212417244911194,-9.994772911071777,-0.0005978143044532091,-0.024410587525751693,0.030487938047203435,2.1799159049987793,5.502614974975586,0.8841193914413452
1731474265.22207,-0.31260693073272705,0.549697995185852,-9.98924446105957,0.004273318852635624,-0.021423495044512998,0.029117324680221324,2.1774544715881348,5.487926483154297,0.8842988014221191
1731474265.2720246,-0.31260693073272705,0.549697995185852,-9.98924446105957,0.010250550978158813,-0.01324491586513683,0.02384481735455135,2.1757543087005615,5.464940547943115,0.884086012840271
1731474265.2720246,-0.3149814009666443,0.514053225517273,-9.987812042236328,0.015208658685011173,-0.003893058347306767,0.014069600076017088,2.1757421493530273,5.464848041534424,0.8840866088867188
1731474265.3219795,-0.32480400800704956,0.5183500647544861,-10.005520820617676,0.01752705276757162,0.0036746779256899356,0.0015285557676442997,2.173530340194702,5.447941780090332,0.8841928839683533
1731474265.3719232,-0.32480400800704956,0.5183500647544861,-10.005520820617676,0.016318854026414403,0.009228525851933381,-0.01029905985360159,2.1671769618988037,5.408780097961426,0.8840319514274597
1731474265.3719232,-0.3166676163673401,0.5219999551773071,-9.988259315490723,0.01170138806650093,0.013858380690200327,-0.018385488972895735,2.16715145111084,5.4086079597473145,0.8840319514274597
1731474265.4228723,-0.3214646875858307,0.5225016474723816,-9.940592765808105,0.005173574418083628,0.01768177883160267,-0.020888969765665944,2.1634840965270996,5.383763790130615,0.8840016722679138
1731474265.4728343,-0.29618650674819946,0.5497760772705078,-9.986241340637207,-0.0007475011828471511,0.019292311686157707,-0.016648368653195546,2.1597673892974854,5.369785308837891,0.8839772343635559
1731474265.522836,-0.31810981035232544,0.5148547887802124,-10.0104398727417,-0.0038182690959972,0.01720733102801167,-0.00618310698780878,2.155848741531372,5.347164154052734,0.8839163184165955
1731474265.5727453,-0.31484130024909973,0.505188524723053,-9.955629348754883,-0.0036349419362199124,0.01206400566255638,0.006862365548110942,2.151925563812256,5.3246073722839355,0.8838562369346619
1731474265.6226714,-0.2853081524372101,0.5261355042457581,-9.966559410095215,-0.0019091453616429013,0.007160823138365934,0.017594318247746845,2.1542551517486572,5.32694673538208,0.8839936852455139
1731474265.6727145,-0.2906323969364166,0.5523709654808044,-9.994071006774902,-0.000640207790424243,0.005727232766659056,0.02316820884654317,2.151968240737915,5.311404228210449,0.8840561509132385
1731474265.7225666,-0.3109251856803894,0.5387099981307983,-9.938576698303223,-0.0005946204869225622,0.007646136449559417,0.0232282106362933,2.1496994495391846,5.2960124015808105,0.884175717830658
1731474265.772623,-0.28149253129959106,0.5300312638282776,-10.004875183105469,-0.0017700465165255384,0.009807038891683205,0.018785116990702164,2.145763874053955,5.27564001083374,0.8840553760528564
1731474265.8224926,-0.3000970184803009,0.5264539122581482,-10.0068359375,-0.0039435718181167825,0.009429231059644232,0.011524849677849475,2.142792224884033,5.257535457611084,0.8841472864151001
1731474265.872452,-0.31953108310699463,0.5208117365837097,-9.97626781463623,-0.006707750444660195,0.0062717820875825715,0.003394832261912792,2.1397604942321777,5.239166736602783,0.8842592835426331
1731474265.9223912,-0.28984037041664124,0.5502431988716125,-9.957892417907715,-0.009886907056122336,0.002000465268262022,-0.003047190334307924,2.136955499649048,5.226720333099365,0.8840457201004028
1731474265.9723232,-0.346956729888916,0.5331382751464844,-10.014243125915527,-0.01361129278581559,-0.0016560660170757897,-0.005200871523551402,2.133835554122925,5.209047317504883,0.8840557336807251
1731474266.0222816,-0.3076716959476471,0.5201113820075989,-9.989180564880371,-0.017963090559090133,-0.003619774874692479,-0.0031872896829880323,2.1273105144500732,5.172755241394043,0.8840109705924988
1731474266.0722406,-0.3111601173877716,0.5213032960891724,-9.957371711730957,-0.02259670995782567,-0.003085092124280605,-0.00040425356484007167,2.1227667331695557,5.1301703453063965,0.8840018510818481
1731474266.122204,-0.31183117628097534,0.5082178711891174,-10.006572723388672,-0.026208740699947254,8.940544235642566e-05,0.00011330551681635725,2.11907696723938,5.1042680740356445,0.8839983940124512
1731474266.1721885,-0.3181125819683075,0.530582845211029,-10.00157356262207,-0.026975113490889876,0.004680606594036382,-0.0023006589842019644,2.115328311920166,5.078423023223877,0.8839922547340393
1731474266.2221777,-0.33481565117836,0.4788532853126526,-9.98330307006836,-0.024158266481406572,0.008835266107813744,-0.007482122856997201,2.111518383026123,5.052613735198975,0.8839738368988037
1731474266.2720802,-0.32978081703186035,0.5026003122329712,-9.983539581298828,-0.019007866462657997,0.011664345423686485,-0.014912153752715495,2.114957809448242,5.07624626159668,0.8839793801307678
1731474266.3220048,-0.325701504945755,0.5114051103591919,-10.013266563415527,-0.01383796338231932,0.013545095214342048,-0.02295799042195083,2.1124696731567383,5.0601701736450195,0.8839086890220642
1731474266.3720546,-0.33451300859451294,0.48850592970848083,-9.962746620178223,-0.010202692647110077,0.014759189287659069,-0.02929719476161032,2.109945058822632,5.044088363647461,0.8837723731994629
1731474266.4220517,-0.33722060918807983,0.526779294013977,-9.972648620605469,-0.00815728545624771,0.014741516044615287,-0.03165765718451983,2.1090381145477295,5.027813911437988,0.8839201331138611
1731474266.4720132,-0.33504539728164673,0.5138705968856812,-10.020307540893555,-0.0070337837289363445,0.012801487342516352,-0.02875640492800502,2.1065967082977295,5.009653091430664,0.8837689757347107
1731474266.5228665,-0.3640320897102356,0.5218547582626343,-9.994608879089355,-0.006332617872621805,0.009052009259288094,-0.021932653816693813,2.1041009426116943,4.991242408752441,0.8835506439208984
1731474266.5729673,-0.3640320897102356,0.5218547582626343,-9.994608879089355,-0.006170731057584671,0.004702007369415204,-0.014925040827983998,2.1008574962615967,4.97942590713501,0.8838966488838196
1731474266.5729673,-0.360244482755661,0.512336254119873,-9.944747924804688,-0.007126924876690897,0.001350204403778005,-0.010695603443731777,2.100841760635376,4.97932767868042,0.8838961720466614
1731474266.6227298,-0.3583848178386688,0.5067895650863647,-9.986056327819824,-0.009151795861356999,2.3255433691426596e-05,-0.008836165969451665,2.094019889831543,4.929981708526611,0.8839454650878906
1731474266.6728506,-0.3583848178386688,0.5067895650863647,-9.986056327819824,-0.010943256717515643,0.0008786604246335506,-0.006740501626835602,2.090240955352783,4.903815746307373,0.8838916420936584
1731474266.6728506,-0.3336363732814789,0.5239189267158508,-9.970438003540039,-0.010886687860222372,0.003132018468552868,-0.0028294045219790995,2.090210437774658,4.903605937957764,0.8838911652565002
1731474266.7226827,-0.33592644333839417,0.5150628685951233,-9.967849731445312,-0.00807704504379025,0.0051258487887441955,0.0023728856772403154,2.0832793712615967,4.872858047485352,0.8839741349220276
1731474266.7725897,-0.33855390548706055,0.5274216532707214,-9.994497299194336,-0.0026092829327533187,0.005178222174388738,0.007432667040648009,2.0784988403320312,4.84584379196167,0.88397616147995
1731474266.822567,-0.3449597954750061,0.5192838907241821,-9.986856460571289,0.004109565948166587,0.0027184116980370756,0.010622406785996191,2.0737311840057373,4.818901538848877,0.8840005993843079
1731474266.872521,-0.3449597954750061,0.5192838907241821,-9.986856460571289,0.009555710494005222,-0.0014237022531294649,0.010200469057921224,2.068962335586548,4.79185676574707,0.8840510845184326
1731474266.872521,-0.30319851636886597,0.5308548808097839,-9.968290328979492,0.011674179097784596,-0.00572126936453417,0.0056388959021438975,2.068934440612793,4.791697978973389,0.8840514421463013
1731474266.9224253,-0.3259652554988861,0.5265880823135376,-10.013493537902832,0.010604602511216303,-0.008989075089737711,-0.0017061851082518246,2.0748305320739746,4.828846454620361,0.8840020895004272
1731474266.972374,-0.5179258584976196,1.143417477607727,-10.018087387084961,0.0074174427937963704,-0.013828821425836444,-0.009697703330069014,2.072108745574951,4.8137054443359375,0.8839951157569885
1731474267.0223348,-0.6302743554115295,1.1026157140731812,-9.844955444335938,-0.0007374983622657392,-0.033075068709323405,-0.015691921206213467,2.065585136413574,4.783642768859863,0.8839780688285828
1731474267.0722876,-0.5803192257881165,0.6344143748283386,-9.909140586853027,-0.020752336276208514,-0.08179092044845315,-0.015671119758548825,2.0618090629577637,4.764239311218262,0.8839142918586731
1731474267.1222553,-0.7841694355010986,1.0278509855270386,-10.10506820678711,-0.05387380146569001,-0.14940650774877226,-0.008653941119092153,2.0579497814178467,4.744598865509033,0.8838203549385071
1731474267.1722002,-0.40963637828826904,0.5507951378822327,-9.874038696289062,-0.08905948176204787,-0.19348341254081083,-0.0027629396809456665,2.0571820735931396,4.733088970184326,0.8839619159698486
1731474267.2221777,-0.5610631108283997,0.7470771670341492,-10.088411331176758,-0.10954437326079848,-0.17467899829114758,-0.009659341943358516,2.0537919998168945,4.714905261993408,0.8839208483695984
1731474267.2720823,-0.5689842700958252,0.36572206020355225,-10.020023345947266,-0.10644753789011048,-0.09165403055878091,-0.03369719052288647,2.0456080436706543,4.680190563201904,0.8839335441589355
1731474267.322061,-0.24161472916603088,-0.36098724603652954,-9.939613342285156,-0.08494109321353217,0.023370321010330153,-0.06923727337485919,2.040203094482422,4.655852794647217,0.883747935295105
1731474267.3720021,0.4129486680030823,-0.07544082403182983,-10.186524391174316,-0.04921104077402447,0.13987305429936595,-0.10350774010653478,2.0340335369110107,4.62723445892334,0.8837842345237732
1731474267.4219427,-0.16887719929218292,0.20228992402553558,-10.040576934814453,0.01001866462187305,0.2442525762520278,-0.12281069352028098,2.0281565189361572,4.601199150085449,0.8833011388778687
1731474267.4718857,0.010714244097471237,0.14940328896045685,-9.934988975524902,0.0887782726319349,0.31815914929373085,-0.11813605057771585,2.022401809692383,4.57586145401001,0.8825171589851379
1731474267.5228264,-0.25908026099205017,0.26603156328201294,-9.962977409362793,0.14387557145631513,0.3298184520057701,-0.08460283736740493,2.0270886421203613,4.588465213775635,0.8836014270782471
1731474267.5727983,0.4249321520328522,0.886677086353302,-9.969147682189941,0.12746850881790384,0.2573646959618096,-0.02365282765733477,2.024522304534912,4.574243068695068,0.8831594586372375
1731474267.6227672,0.5990078449249268,1.412781834602356,-9.882990837097168,0.0481837340080189,0.1033442474005937,0.05043819288125323,2.0155928134918213,4.540832042694092,0.88381028175354
1731474267.6727276,0.7047712206840515,1.436801791191101,-9.930950164794922,-0.02372366810035611,-0.1103164113915418,0.1138158268363463,2.010692596435547,4.519113063812256,0.8839554190635681
1731474267.722707,0.3682870864868164,1.0027546882629395,-9.98015308380127,-0.024509153564944607,-0.3362046565935949,0.14576216615205775,2.0057382583618164,4.496862411499023,0.8844262957572937
1731474267.7726483,0.2899029850959778,1.0311297178268433,-10.026430130004883,0.04073092565624572,-0.4966667630648245,0.13720286907986762,2.0008459091186523,4.473770618438721,0.885243833065033
1731474267.8225632,0.2377896010875702,0.8355798721313477,-9.977432250976562,0.11097183718458621,-0.5185738353144052,0.09182286138696974,2.0069262981414795,4.495682239532471,0.8842300772666931
1731474267.872561,0.007701775059103966,0.6583819389343262,-10.028789520263672,0.12632467438103734,-0.3825614627867602,0.024164590054280642,2.004429578781128,4.479307174682617,0.8846633434295654
1731474267.9225612,0.07677127420902252,0.6860634684562683,-10.004084587097168,0.06733969301831014,-0.13713841951561367,-0.04491854098577593,1.9943273067474365,4.446353912353516,0.8841454386711121
1731474267.9724562,-0.32338762283325195,0.24751415848731995,-9.971555709838867,-0.04350519900366968,0.12954467633109895,-0.09557670898684224,1.9890587329864502,4.422979831695557,0.8840356469154358
1731474268.022392,-0.877236545085907,-0.5585793852806091,-10.015877723693848,-0.16964104159891302,0.34298969134319807,-0.11589676625584044,1.9834837913513184,4.400023937225342,0.8836603164672852
1731474268.0723956,-1.1337575912475586,-0.6645302176475525,-10.094112396240234,-0.293996065845716,0.4869711584706784,-0.10583988169803807,1.9773615598678589,4.378225803375244,0.883010745048523
1731474268.122339,-0.7908710241317749,-0.07949605584144592,-10.029687881469727,-0.42624102607691206,0.597501446057977,-0.07669287945171083,1.970296859741211,4.357651233673096,0.8821281790733337
1731474268.1722405,-0.8081215620040894,-0.12551118433475494,-10.002025604248047,-0.5768353558423056,0.71032419499912,-0.04429644975624131,1.9823094606399536,4.394576072692871,0.8838222026824951
1731474268.2222085,-0.7065904140472412,0.03707491233944893,-9.920763969421387,-0.7284459118248513,0.8189377110604031,-0.019507105813128395,1.9769175052642822,4.385231018066406,0.8835436701774597
1731474268.272204,-0.6969472169876099,0.05729907751083374,-9.98228931427002,-0.8314263217431197,0.8764787776905555,-0.003979424152945855,1.9677984714508057,4.348161220550537,0.8838590979576111
1731474268.3220966,-0.7342919707298279,0.18153466284275055,-9.982004165649414,-0.8293173272073104,0.8295315677111812,0.006013311477398256,1.958313226699829,4.331399440765381,0.8837781548500061
1731474268.3720245,-0.7036710381507874,0.27418631315231323,-9.971558570861816,-0.7011916818454929,0.6600716232017836,0.013390366346966758,1.9469228982925415,4.3164825439453125,0.8837212920188904
1731474268.4219587,-0.6527414321899414,0.30350562930107117,-9.996478080749512,-0.4811951552532119,0.40218017431774983,0.018191954931104645,1.9340442419052124,4.302867412567139,0.8837037086486816
1731474268.4719632,-0.6345911026000977,0.3228936791419983,-9.960973739624023,-0.235733862415881,0.12062731436999177,0.01944897304000379,1.954267144203186,4.2915191650390625,0.8839729428291321
1731474268.5218732,-0.6333616971969604,0.32672199606895447,-9.929878234863281,-0.02704108124485255,-0.12114993720619006,0.01734329847992962,1.9411287307739258,4.250222682952881,0.8840225338935852
1731474268.5718024,-0.6435306668281555,0.44327306747436523,-9.995220184326172,0.1079005374996801,-0.2798364832701994,0.013447612869877827,1.933495283126831,4.2279462814331055,0.8841004371643066
1731474268.622774,-0.5745496153831482,0.5028165578842163,-9.978682518005371,0.16132988486241157,-0.3403980453466017,0.008582060480302942,1.9261095523834229,4.204587936401367,0.884207546710968
1731474268.6726964,-0.5168029069900513,0.5065910220146179,-9.94627857208252,0.14997250381731653,-0.31840975127377086,0.0016553096737161911,1.919248104095459,4.180822849273682,0.8843256831169128
1731474268.7226608,-0.5016849040985107,0.5159313678741455,-9.949262619018555,0.10530882958782833,-0.2509804116887735,-0.007937161779625508,1.9126909971237183,4.15629768371582,0.8844361901283264
1731474268.772696,-0.5218551158905029,0.5036101937294006,-9.976438522338867,0.05996544586036608,-0.1781468568893083,-0.01843662219521461,1.906309962272644,4.131113529205322,0.8845140337944031
1731474268.822564,-0.5254730582237244,0.5187700986862183,-9.992433547973633,0.035363200554152624,-0.1275250561597888,-0.02749493315038421,1.9280247688293457,4.189202785491943,0.8840216398239136
1731474268.8726664,-0.49428683519363403,0.5250231623649597,-9.967522621154785,0.03656145705411547,-0.10835481774101896,-0.03405659241919125,1.925180196762085,4.17620849609375,0.883916974067688
1731474268.9225054,-0.49428683519363403,0.5250231623649597,-9.967522621154785,0.05497583241331546,-0.1125495516595642,-0.03723363195138321,1.913321614265442,4.135373115539551,0.8839249014854431
1731474268.9225054,-0.4319351613521576,0.5404562950134277,-9.947872161865234,0.07614846116018333,-0.12200654856208293,-0.03509751168838081,1.913281798362732,4.135220050811768,0.8839238882064819
1731474268.972558,-0.40252840518951416,0.5291794538497925,-9.98701286315918,0.0888260153183503,-0.12058628828719963,-0.026586965787946226,1.9081369638442993,4.1148600578308105,0.8837597370147705
1731474269.0224357,-0.3626687526702881,0.5744192600250244,-9.975079536437988,0.0903607511676515,-0.10272375882884163,-0.013913312323448897,1.903232216835022,4.094293594360352,0.8835458159446716
1731474269.072348,-0.3670298755168915,0.5301118493080139,-9.995895385742188,0.08574194518426938,-0.07338267548949602,-0.0018326492482754822,1.8965847492218018,4.074199199676514,0.8839306235313416
1731474269.122299,-0.34323644638061523,0.508213996887207,-9.987896919250488,0.08193782880703356,-0.04207331599069143,0.0053799728263574705,1.8917853832244873,4.054836750030518,0.8838925957679749
1731474269.1722686,-0.3512645959854126,0.5277687311172485,-9.985387802124023,0.08160442087760655,-0.016317094622395088,0.0064405132827428,1.8774064779281616,4.006808757781982,0.8839779496192932
1731474269.2222116,-0.33456486463546753,0.5349037647247314,-9.983627319335938,0.08142107753593718,0.0008559030653683868,0.003344731886353889,1.8692008256912231,3.976057291030884,0.8839901089668274
1731474269.272187,-0.3504325747489929,0.5255001187324524,-10.00665283203125,0.07630302870967591,0.009501881614937764,-0.0007074098267629491,1.8597524166107178,3.959958553314209,0.8839977383613586
1731474269.3220725,-0.3506605923175812,0.4917945861816406,-9.992938995361328,0.06402284318201248,0.011359596668153563,-0.003683281454014289,1.8510949611663818,3.9329514503479004,0.883995771408081
1731474269.3720322,-0.38686496019363403,0.49263373017311096,-9.97742748260498,0.04596187341848815,0.009637919331422965,-0.004895132069982523,1.8425745964050293,3.905970335006714,0.8839831352233887
1731474269.4220512,-0.3807694613933563,0.5056595206260681,-10.01363468170166,0.025217280033301828,0.00812707889544459,-0.003923438202278595,1.8455671072006226,3.9111595153808594,0.8839920163154602
1731474269.4719393,-0.39183324575424194,0.5018951296806335,-10.000149726867676,0.004928727624415907,0.009169058776891718,-0.0007830997557782012,1.8402442932128906,3.8930511474609375,0.8839772939682007
1731474269.5218873,-0.4042629599571228,0.49662455916404724,-10.009300231933594,-0.012105105006314922,0.012443842070362691,0.0034598412261559997,1.8349109888076782,3.874964475631714,0.8839658498764038
1731474269.5729542,-0.4035475552082062,0.4918229579925537,-9.995539665222168,-0.02374943170961601,0.01592564820939186,0.0073570935107672856,1.8317397832870483,3.8658711910247803,0.8840027451515198
1731474269.6218505,-0.41740673780441284,0.5086850523948669,-10.00033950805664,-0.029336877816603872,0.017704113413321607,0.01001399670576504,1.8262732028961182,3.8482625484466553,0.8840315937995911
1731474269.6728873,-0.4395971894264221,0.5041316151618958,-9.969256401062012,-0.02985601773506447,0.016712608126577606,0.01120643210099081,1.820476770401001,3.82987904548645,0.8840889930725098
1731474269.7227201,-0.4714931845664978,0.5168536305427551,-9.979823112487793,-0.027616005703775787,0.012562362997321094,0.011306663624331092,1.815924882888794,3.8105247020721436,0.8840301036834717
1731474269.772673,-0.4582520127296448,0.5216635465621948,-9.978119850158691,-0.02550856154511133,0.005660517169148542,0.011109554397513256,1.8102703094482422,3.791604518890381,0.8840863704681396
1731474269.8225613,-0.4765278697013855,0.5158577561378479,-9.989787101745605,-0.025028783109521786,-0.0024790984705480696,0.01102713659559243,1.8014425039291382,3.760953187942505,0.8840414881706238
1731474269.8727527,-0.46851682662963867,0.5481253266334534,-9.932147026062012,-0.024971068081570555,-0.009673225199993588,0.010811641958753677,1.790709376335144,3.72251033782959,0.8840398788452148
1731474269.9225752,-0.4672974944114685,0.5452349781990051,-9.963930130004883,-0.02303881370529205,-0.014361689345763366,0.010479127493665242,1.783704400062561,3.698436975479126,0.884096622467041
1731474269.9725206,-0.42918676137924194,0.58107590675354,-9.958946228027344,-0.018013333348840012,-0.016362957637131935,0.010102423917354227,1.776611328125,3.674198865890503,0.8841793537139893
1731474270.022468,-0.46737411618232727,0.545769453048706,-9.968525886535645,-0.010087442969249655,-0.016435646792503835,0.008477229159224959,1.769474983215332,3.6498920917510986,0.8842854499816895
1731474270.0723882,-0.419489324092865,0.578093409538269,-9.97137451171875,-0.0003796512147420479,-0.015567794683501151,0.003733856588139235,1.7769054174423218,3.6730005741119385,0.8840438723564148
1731474270.1223657,-0.4364819824695587,0.550204873085022,-9.980304718017578,0.009423649364771101,-0.014420038801806062,-0.004601266195922377,1.7726001739501953,3.6577818393707275,0.884067952632904
1731474270.1722543,-0.4218859374523163,0.5539461970329285,-9.942971229553223,0.01723589070921059,-0.012739089092537676,-0.014497296227033187,1.7683169841766357,3.642488956451416,0.8840682506561279
1731474270.2221735,-0.40520748496055603,0.5720391273498535,-9.981450080871582,0.02100662320838845,-0.009421236704480782,-0.022046229936951753,1.7665501832962036,3.6284379959106445,0.8839873671531677
1731474270.2722883,-0.36214107275009155,0.5341287851333618,-10.024599075317383,0.0202243598102302,-0.0037445788571442307,-0.024186708374295277,1.7623594999313354,3.611361265182495,0.883898138999939
1731474270.3221228,-0.38230955600738525,0.5235628485679626,-9.979303359985352,0.016951812261532,0.00393555277070847,-0.021332540733414448,1.7569818496704102,3.5880520343780518,0.8839389085769653
1731474270.3720465,-0.38230955600738525,0.5235628485679626,-9.979303359985352,0.014246424440971055,0.012707193276188281,-0.016379841968611218,1.7531452178955078,3.5721049308776855,0.8838338851928711
1731474270.3720465,-0.32464662194252014,0.5124883651733398,-9.973196983337402,0.013765472853065175,0.021036507366313566,-0.011616541617852234,1.7531211376190186,3.572004556655884,0.883833110332489
1731474270.4221153,-0.3271986246109009,0.5382009744644165,-9.998067855834961,0.01576851982964458,0.026555774913013516,-0.007728810341019108,1.7447230815887451,3.5336923599243164,0.8839439153671265
1731474270.4721458,-0.3270312249660492,0.526619017124176,-9.972969055175781,0.020203243224219757,0.027238241853795017,-0.004764854125328389,1.739272952079773,3.509845495223999,0.8838919997215271
1731474270.5220149,-0.28419584035873413,0.5078709125518799,-9.99479866027832,0.026150833719363276,0.02305683839260628,-0.0025135328922396543,1.7331565618515015,3.482673406600952,0.8839641809463501
1731474270.5719023,-0.3039253354072571,0.4963424503803253,-10.02415657043457,0.03134700144734011,0.01641725900583429,-0.0005893194475262378,1.7272764444351196,3.4565649032592773,0.8839420080184937
1731474270.6218073,-0.2851150929927826,0.49032825231552124,-9.962420463562012,0.03324606927057015,0.010636794283331905,0.0009208975159803661,1.721476674079895,3.430488348007202,0.8839201927185059
1731474270.6727765,-0.31124114990234375,0.5193082094192505,-10.012370109558105,0.03014644380612256,0.007686256410820668,0.0016620765105958089,1.7156363725662231,3.4038851261138916,0.8839012980461121
1731474270.7227335,-0.27696990966796875,0.5121291875839233,-10.013882637023926,0.02197492061301517,0.007228931664107929,0.001612127332114526,1.7269541025161743,3.440093517303467,0.8839866518974304
1731474270.772674,-0.3216593861579895,0.5228700637817383,-9.996683120727539,0.010529100371161915,0.007414229266966052,0.0007448590575498519,1.7242834568023682,3.424917459487915,0.8839887976646423
1731474270.8225803,-0.3216593861579895,0.5228700637817383,-9.996683120727539,-0.0017312545124995651,0.006435333559722053,-0.0007055168130304021,1.7188105583190918,3.3988218307495117,0.8839963674545288
1731474270.8225803,-0.3091851472854614,0.5299105644226074,-9.968754768371582,-0.013025911284549318,0.003586529762308855,-0.001495052267824069,1.718782901763916,3.398681163787842,0.8839963674545288
1731474270.8725922,-0.315007746219635,0.518240749835968,-9.948634147644043,-0.02172023846678963,-0.0005802307024235474,8.195407004518436e-05,1.7153217792510986,3.3812007904052734,0.883995532989502
1731474270.9225144,-0.3292370140552521,0.529829740524292,-9.994674682617188,-0.025748516217877992,-0.0046833287491567085,0.004930275373299661,1.7118042707443237,3.3637261390686035,0.884000837802887
1731474270.9725676,-0.37034720182418823,0.5084031820297241,-10.013260841369629,-0.024328093962456228,-0.007296012654129245,0.012019659978379829,1.711669683456421,3.3498716354370117,0.8840147256851196
1731474271.0224705,-0.37442347407341003,0.4798356592655182,-9.966322898864746,-0.019520777920650483,-0.007463914849481701,0.01846534641790732,1.7089428901672363,3.333448886871338,0.8840697407722473
1731474271.072432,-0.3666945695877075,0.509796142578125,-10.002009391784668,-0.014630450425720412,-0.004782228865819441,0.021875721436033422,1.700853705406189,3.2965095043182373,0.8840506672859192
1731474271.122362,-0.3822610378265381,0.5025978684425354,-10.001511573791504,-0.01142815167126577,0.00020292725103817277,0.022127072383186987,1.6961003541946411,3.272284984588623,0.8841531872749329
1731474271.1723738,-0.34353378415107727,0.5262895226478577,-9.942564010620117,-0.009650239666812423,0.005682140010022816,0.0204806231862227,1.692962646484375,3.2438693046569824,0.8840765953063965
1731474271.2222342,-0.37129777669906616,0.5140050649642944,-9.995330810546875,-0.008280962088557933,0.009409552844689813,0.01828940588768068,1.6884970664978027,3.2168729305267334,0.8841850161552429
1731474271.2722309,-0.37129777669906616,0.5140050649642944,-9.995330810546875,-0.006884806517821647,0.010208855175536215,0.015694427780321388,1.6839877367019653,3.189751386642456,0.884336531162262
1731474271.2722309,-0.38908281922340393,0.5293147563934326,-9.994523048400879,-0.006375291116181256,0.008665648637699551,0.010673944127560083,1.6839569807052612,3.1895668506622314,0.8843377232551575
1731474271.322179,-0.38908281922340393,0.5293147563934326,-9.994523048400879,-0.008426775611777543,0.006209508779568298,0.0009146724298950801,1.6849557161331177,3.2052831649780273,0.8840612769126892
1731474271.322179,-0.40046706795692444,0.5179414749145508,-9.960800170898438,-0.013846567965317597,0.0038703135830177255,-0.013023561824834473,1.684938907623291,3.205195426940918,0.8840614557266235
1731474271.3721023,-0.39436960220336914,0.5319697856903076,-9.972800254821777,-0.021320465440835264,0.0021484392043754565,-0.02666510121781674,1.6819896697998047,3.1899471282958984,0.884060263633728
1731474271.422039,-0.3985940217971802,0.5423499345779419,-9.980707168579102,-0.027747308642802546,0.0012021996942004724,-0.03387368920476993,1.6789593696594238,3.174600124359131,0.8839836120605469
1731474271.4720085,-0.3756088614463806,0.5194728970527649,-9.972177505493164,-0.030147790061199314,0.0007194784909382199,-0.031065006083538536,1.6762913465499878,3.157778263092041,0.8839645981788635
1731474271.5219815,-0.34622377157211304,0.5271730422973633,-9.983002662658691,-0.02715050305240502,0.00024269495125469478,-0.019547238105917922,1.672911524772644,3.1398403644561768,0.8838422894477844
1731474271.5719326,-0.3523027002811432,0.5009538531303406,-9.988737106323242,-0.018980478268352797,-0.00026317184115520536,-0.004432848283424704,1.6694691181182861,3.1218762397766113,0.8836898803710938
1731474271.6218703,-0.36817073822021484,0.4937552511692047,-9.974197387695312,-0.007194754241349995,-0.0002660542474175908,0.008167654059874322,1.6668717861175537,3.11155366897583,0.8839520812034607
1731474271.6718023,-0.3607686460018158,0.49952954053878784,-9.990265846252441,0.005372850400924325,0.0010030711979528702,0.014119143450462827,1.6604903936386108,3.068176746368408,0.8839977383613586
1731474271.7227383,-0.3617355227470398,0.5188949108123779,-10.01913833618164,0.015394002745506778,0.0035291938758195093,0.012663598449975846,1.6566561460494995,3.0448226928710938,0.8840454816818237
1731474271.7726562,-0.3571624755859375,0.4848553240299225,-9.958599090576172,0.02048104393319722,0.005925665450557116,0.005791415817427025,1.650992751121521,3.011930227279663,0.8840253949165344
1731474271.8226542,-0.3304176926612854,0.520939290523529,-9.976174354553223,0.020272618200755828,0.006543368577208575,-0.002849336081387399,1.6468334197998047,2.9870762825012207,0.884053647518158
1731474271.872563,-0.3119033873081207,0.5340275764465332,-10.016883850097656,0.016727980236657992,0.004416492685451426,-0.009780984036038682,1.6427308320999146,2.962298631668091,0.8840660452842712
1731474271.9225361,-0.3400708734989166,0.5132928490638733,-9.994880676269531,0.013237609652416786,-0.0010288741404602276,-0.014184448791048625,1.6426676511764526,2.9660067558288574,0.8839962482452393
1731474271.9724796,-0.3165813684463501,0.5388612151145935,-9.988935470581055,0.012488155503598775,-0.009587922683119168,-0.017612397798481033,1.639352798461914,2.946911096572876,0.8839387893676758
1731474272.0224128,-0.34977179765701294,0.5207169055938721,-9.978607177734375,0.014706547936809734,-0.019381425277247188,-0.02075841889421338,1.6364121437072754,2.9192428588867188,0.8839528560638428
1731474272.07238,-0.33556807041168213,0.5238460302352905,-9.971901893615723,0.0178860963231638,-0.02733533299932207,-0.022022401088086452,1.6289924383163452,2.889580726623535,0.8839378356933594
1731474272.1223826,-0.3614134192466736,0.5192083120346069,-9.987278938293457,0.019445271124992815,-0.030725795826375794,-0.0195989809404585,1.6243367195129395,2.865642547607422,0.8838304281234741
1731474272.172355,-0.3815651535987854,0.4959227442741394,-9.994336128234863,0.017474674251943257,-0.02832885157238385,-0.013941601395024615,1.6198147535324097,2.842082977294922,0.8836832642555237
1731474272.2222486,-0.37524762749671936,0.5081514120101929,-9.991739273071289,0.01091859970840986,-0.02057178926683592,-0.007785379279946498,1.6237629652023315,2.8456544876098633,0.8839252591133118
1731474272.2722604,-0.414322167634964,0.5010625123977661,-9.976371765136719,-0.00012354087745071983,-0.009256107903887135,-0.003953116084495038,1.621486783027649,2.829521417617798,0.8838651180267334
1731474272.322213,-0.38226863741874695,0.5442839860916138,-9.978375434875488,-0.013720739891987362,0.002528336820005582,-0.0031032557617564588,1.6152361631393433,2.7967734336853027,0.883956253528595
1731474272.3721983,-0.40630802512168884,0.5185509920120239,-9.988180160522461,-0.02635465793376588,0.011090997950413335,-0.0036399654256925556,1.6112475395202637,2.7736880779266357,0.8839268088340759
1731474272.4220266,-0.41225162148475647,0.5096811652183533,-9.99591064453125,-0.034631527214425896,0.014352489220421703,-0.003840562555287019,1.6094154119491577,2.763366937637329,0.8839731216430664
1731474272.4720762,-0.4181298017501831,0.5246555209159851,-9.97081470489502,-0.037149914559607616,0.013422229738236873,-0.00337868384461307,1.605930209159851,2.7439053058624268,0.8839501738548279
1731474272.5220146,-0.43392032384872437,0.5179779529571533,-9.952306747436523,-0.03469824251188215,0.010811073861264085,-0.0023139402343969424,1.6023629903793335,2.724519968032837,0.8839201331138611
1731474272.5719023,-0.4517081379890442,0.5034991502761841,-9.989073753356934,-0.02931303443601196,0.007845102035171627,0.00018203811866895762,1.6040425300598145,2.720989942550659,0.883984386920929
1731474272.6218066,-0.4357387125492096,0.4923567473888397,-9.969158172607422,-0.023427447284342016,0.004849833149579279,0.0048318987939857715,1.601447343826294,2.7038869857788086,0.8839839100837708
1731474272.6718383,-0.4271180331707001,0.5144851207733154,-10.031026840209961,-0.018477341905441397,0.002333898865627895,0.010563011772375511,1.5987650156021118,2.6865651607513428,0.8840028047561646
1731474272.721738,-0.4437100887298584,0.49624109268188477,-10.001100540161133,-0.013875747353930316,0.0007807439385694952,0.014524976292576989,1.598572015762329,2.693969488143921,0.8840175271034241
1731474272.7727466,-0.42566388845443726,0.5127822160720825,-9.933700561523438,-0.008266860181913463,8.141209086055711e-05,0.014332360261198236,1.5962944030761719,2.6817195415496826,0.8840799331665039
1731474272.8226366,-0.4012471139431,0.5452463030815125,-9.99895191192627,-0.0012415255539549555,-0.0005647739219476103,0.010834506956140232,1.594056248664856,2.6697463989257812,0.8841726183891296
1731474272.872595,-0.3866416811943054,0.517095148563385,-9.99507999420166,0.006905692292330595,-0.0025785449207072395,0.007434278202330095,1.5929433107376099,2.653681755065918,0.8840412497520447
1731474272.9225662,-0.3880864083766937,0.51839280128479,-9.965017318725586,0.015827528439678353,-0.006974829771067637,0.006504886117200402,1.591068983078003,2.641037702560425,0.8840904235839844
1731474272.9725933,-0.3935522735118866,0.5180040001869202,-9.983057975769043,0.024260660558246903,-0.012829669827914624,0.008130791547302514,1.6020569801330566,2.6046125888824463,0.8840377330780029
1731474273.0224466,-0.35834577679634094,0.49926823377609253,-9.975299835205078,0.029677863639526857,-0.01747762840473562,0.011290460611360884,1.6042873859405518,2.5842654705047607,0.8840869665145874
1731474273.072489,-0.35834577679634094,0.49926823377609253,-9.975299835205078,0.030478602925978836,-0.01829872296798796,0.01455008851054455,1.6066020727157593,2.5637903213500977,0.8841687440872192
1731474273.072489,-0.3474522829055786,0.5255822539329529,-9.97052001953125,0.027946896946126027,-0.014296582489156997,0.016518804034783473,1.6066159009933472,2.5636703968048096,0.884169340133667
1731474273.1223912,-0.34667685627937317,0.4876403212547302,-9.988889694213867,0.0252285626642848,-0.006662200745101628,0.01650299250712554,1.6089751720428467,2.543382406234741,0.8842887878417969
1731474273.1723628,-0.33931872248649597,0.5089460611343384,-9.989567756652832,0.025044184681954754,0.0021340900974954097,0.014515730311269619,1.6100696325302124,2.562593460083008,0.8840503692626953
1731474273.2222145,-0.3474196493625641,0.5215896368026733,-9.973865509033203,0.028151278949927434,0.009760557766813371,0.010963604925530546,1.611957311630249,2.5501997470855713,0.8841208219528198
1731474273.2722175,-0.35267433524131775,0.5142461061477661,-9.98802661895752,0.03259994892887613,0.014384016304887667,0.006768988047501557,1.6258878707885742,2.513148546218872,0.8840450644493103
1731474273.322135,-0.3286641836166382,0.5259058475494385,-9.974292755126953,0.034686512863169136,0.014793176931451057,0.0032832257915024663,1.639700174331665,2.4732143878936768,0.8840299248695374
1731474273.3721097,-0.34779754281044006,0.5044733881950378,-10.030219078063965,0.03184140195653888,0.011187106518123576,0.0012707072575198841,1.6474759578704834,2.4482479095458984,0.8840539455413818
1731474273.4220686,-0.3375761806964874,0.5097032189369202,-10.000153541564941,0.024277464492900993,0.005609130151832358,-0.000202684526907633,1.6552706956863403,2.4234659671783447,0.8840791583061218
1731474273.4720783,-0.36898428201675415,0.49412602186203003,-9.966493606567383,0.01379780525672672,0.0011464528617119974,-0.0030341340907442814,1.6631827354431152,2.3984713554382324,0.8841004967689514
1731474273.5219471,-0.4014347195625305,0.4961412847042084,-10.010889053344727,0.001958291791662805,0.0003469925072536688,-0.007783040912419754,1.6570228338241577,2.427358865737915,0.8840064406394958
1731474273.5720172,-0.3875506818294525,0.5167773365974426,-9.981066703796387,-0.010418278293121606,0.0037996347553900787,-0.012978371976678808,1.6619999408721924,2.413015604019165,0.8839736580848694
1731474273.6218517,-0.39072129130363464,0.5131557583808899,-9.974630355834961,-0.021822617659852585,0.00943113131734308,-0.01618773150717849,1.6770288944244385,2.381960868835449,0.883970320224762
1731474273.6718562,-0.412226140499115,0.4963519275188446,-9.974672317504883,-0.029215200029909304,0.013589111837596158,-0.015071059418338612,1.6857346296310425,2.360309362411499,0.8838984370231628
1731474273.7217395,-0.41011518239974976,0.5101351737976074,-9.965764999389648,-0.030364836414869395,0.01391008573320508,-0.008991859733650985,1.6943261623382568,2.338791847229004,0.8837969303131104
1731474273.7717545,-0.40743011236190796,0.5312531590461731,-9.95200252532959,-0.026213247181424735,0.010779291949161173,4.976739446771201e-05,1.6960021257400513,2.328580856323242,0.8839605450630188
1731474273.8226824,-0.4300304055213928,0.510055422782898,-10.008225440979004,-0.019928046786258993,0.0060013138231539195,0.00865945849307989,1.7022182941436768,2.3114187717437744,0.8839476108551025
1731474273.8726676,-0.3959029018878937,0.4990851581096649,-10.009404182434082,-0.01445519650654444,0.0015809582804805421,0.013208124725332017,1.7187812328338623,2.2757089138031006,0.8840025663375854
1731474273.9225974,-0.4177134931087494,0.49992892146110535,-9.965874671936035,-0.01104792959313,-0.0004831696237583633,0.010950610183503184,1.7287039756774902,2.2516844272613525,0.8840488195419312
1731474273.9725745,-0.4177134931087494,0.49992892146110535,-9.965874671936035,-0.009543829194478458,0.0007389003998656892,0.0029203361232685637,1.7436819076538086,2.227094888687134,0.8840212821960449
1731474273.9725745,-0.3819459080696106,0.5360777974128723,-9.962688446044922,-0.009326984119375744,0.00391966434285332,-0.005375818744549782,1.7437673807144165,2.2269136905670166,0.8840214610099792
1731474274.0224714,-0.36807551980018616,0.5216067433357239,-10.003931999206543,-0.009026277283948114,0.00608439105821224,-0.008720426445262441,1.7548670768737793,2.203361988067627,0.8840337991714478
1731474274.0724397,-0.3951176404953003,0.518071711063385,-9.975960731506348,-0.006224624867056636,0.004644242015898716,-0.006836353752043362,1.7660659551620483,2.1795732975006104,0.8840269446372986
1731474274.1223543,-0.3951176404953003,0.518071711063385,-9.975960731506348,0.0006557150334717634,-0.0008459106799113985,-0.003310180193489556,1.7676481008529663,2.180025577545166,0.8840013146400452
1731474274.1223543,-0.3511852025985718,0.49532461166381836,-9.985883712768555,0.010617902579860724,-0.008426836788037033,-0.0014675785765051778,1.7677030563354492,2.179912805557251,0.8840012550354004
1731474274.1723647,-0.38465723395347595,0.5211740136146545,-10.0038480758667,0.02099620141908274,-0.014807899605046415,-0.002389977991266949,1.7773268222808838,2.160198450088501,0.883987307548523
1731474274.2223117,-0.39488500356674194,0.5112794041633606,-9.969393730163574,0.02905869825719256,-0.0171565906627699,-0.005514259469221509,1.7790896892547607,2.129866600036621,0.8839897513389587
1731474274.2724879,-0.39488500356674194,0.5112794041633606,-9.969393730163574,0.032609531295441474,-0.014723737062417194,-0.009383921584942263,1.7905356884002686,2.0982725620269775,0.8839804530143738
1731474274.2724879,-0.3529931902885437,0.5298073291778564,-9.959046363830566,0.030804245503532987,-0.009069198527601498,-0.012067041010530442,1.790586233139038,2.098128318786621,0.8839802742004395
1731474274.322248,-0.37672218680381775,0.5260846018791199,-10.003774642944336,0.025196908511459837,-0.00305165137550238,-0.012220591225107758,1.7991209030151367,2.073852300643921,0.8839356303215027
1731474274.3723042,-0.3544173240661621,0.522547721862793,-9.99242877960205,0.019130325585226295,0.0005976641435809344,-0.010340888438723769,1.8077839612960815,2.0493645668029785,0.8838625550270081
1731474274.4220853,-0.3544173240661621,0.522547721862793,-9.99242877960205,0.015712309452443778,0.0006137117206109066,-0.008544059307126095,1.7957496643066406,2.052129030227661,0.8839689493179321
1731474274.4220853,-0.3639032244682312,0.5050745010375977,-9.963001251220703,0.016224525425277768,-0.002282291340214038,-0.008526945847198271,1.7957706451416016,2.0520269870758057,0.883968710899353
1731474274.4720063,-0.2517091929912567,1.5373687744140625,-10.017573356628418,0.01989320046564992,-0.010799593876466975,-0.009880731244448392,1.7992407083511353,2.0353026390075684,0.8839202523231506
1731474274.5219657,-0.3284066915512085,1.3680566549301147,-9.787383079528809,0.025389483765668252,-0.043201748414907454,-0.009954568017883497,1.8027788400650024,2.018453598022461,0.8838470578193665
1731474274.5719378,-0.3097350597381592,0.6263008713722229,-9.936854362487793,0.03199802998088325,-0.12580790903434658,-0.004161811988368432,1.8064078092575073,2.001302480697632,0.8837559223175049
1731474274.6218157,-0.2861003577709198,1.15153169631958,-10.163492202758789,0.03889027806277533,-0.2581072693754856,0.010189377746511328,1.8008437156677246,2.0063743591308594,0.8839887380599976
1731474274.671892,-0.4015231132507324,0.5731099247932434,-9.953782081604004,0.04421009215470498,-0.39757268033085036,0.028281792380348537,1.8032068014144897,1.9913493394851685,0.8840357065200806
1731474274.7217736,-0.248381108045578,0.8995046019554138,-10.011473655700684,0.044674338411246864,-0.4812964445570055,0.042802218821968094,1.8062232732772827,1.9616167545318604,0.8840674757957458
1731474274.7717528,-0.41938841342926025,0.4617204964160919,-10.109435081481934,0.036670992252308125,-0.458022361669741,0.0530011729727479,1.8087650537490845,1.9426041841506958,0.8842620253562927
1731474274.8226275,-0.2244860678911209,0.6404634118080139,-9.966163635253906,0.018865444053338693,-0.31739712539735143,0.06041179461806616,1.8140408992767334,1.9008643627166748,0.884168803691864
1731474274.8726418,-0.47525104880332947,0.3637884557247162,-9.950271606445312,-0.006849530679313841,-0.09866824084783023,0.062405732478909584,1.817223310470581,1.8744277954101562,0.884192943572998
1731474274.922557,-0.3030596673488617,0.6153304576873779,-9.999186515808105,-0.03601464801828288,0.12907007977737533,0.056182477687599985,1.820278286933899,1.8500339984893799,0.8845004439353943
1731474274.9725683,-0.4025457501411438,0.4843559265136719,-10.003762245178223,-0.06041105094630449,0.2949103551236596,0.04216165668401256,1.8232306241989136,1.8260242938995361,0.8849338293075562
1731474275.0224326,-0.36427634954452515,0.601208508014679,-9.985947608947754,-0.06836741728083356,0.3513746074343368,0.02229925670608124,1.8259812593460083,1.8031580448150635,0.8854410648345947
1731474275.0724838,-0.42668160796165466,0.46690452098846436,-9.950742721557617,-0.05231352147025753,0.2926933816863533,-0.0002693750015276379,1.8226851224899292,1.8318915367126465,0.8842034339904785
1731474275.122388,-0.40289098024368286,0.5611894130706787,-9.975300788879395,-0.016223148406655057,0.15445340013633604,-0.020727971324009952,1.8243441581726074,1.8185997009277344,0.8842719793319702
1731474275.1723585,-3.2020514011383057,4.262880802154541,-9.862367630004883,0.012794892890678245,-0.024267853086459103,-0.033881543920998534,1.8260016441345215,1.8054481744766235,0.8842725157737732
1731474275.2222288,-3.2020514011383057,4.262880802154541,-9.862367630004883,-0.03929016332470125,-0.2694830894232055,-0.035541302357331536,1.8260421752929688,1.7894275188446045,0.8840135335922241
1731474275.2222288,-0.8029231429100037,0.3166663944721222,-8.938919067382812,-0.2516390367724983,-0.6407461884458958,-0.01938230528903969,1.8260513544082642,1.7893221378326416,0.8840129375457764
1731474275.2722116,0.13174737989902496,0.07169395685195923,-10.743435859680176,-0.5602091019960962,-1.0364260406482644,0.022180439275669612,1.8268078565597534,1.771268367767334,0.8839432001113892
1731474275.3221722,0.1974223554134369,-0.4127996563911438,-10.130023956298828,-0.7057359994148691,-1.126715041105212,0.07684018157588726,1.8259921073913574,1.75042724609375,0.8839964866638184
1731474275.3721225,-0.29381176829338074,0.5943819880485535,-10.165401458740234,-0.42492693635839,-0.6096820528796538,0.10308242078244395,1.8306117057800293,1.7452964782714844,0.8840008974075317
1731474275.4220254,-0.17561431229114532,0.5002039670944214,-9.929011344909668,0.3135146201699217,0.49604205899861986,0.06847043973874085,1.8343886137008667,1.7064476013183594,0.8839712738990784
1731474275.4720507,-0.13179734349250793,0.41527286171913147,-10.048039436340332,1.2551680034624508,1.8109367158277045,-0.013605207268974875,1.8381141424179077,1.688268780708313,0.8841814398765564
1731474275.5219595,-0.27581074833869934,0.008482246659696102,-10.180903434753418,2.0090575610209305,2.8114019922807794,-0.10016693492022569,1.8487658500671387,1.6606765985488892,0.8835650086402893
1731474275.5719817,-0.04239577800035477,0.30284568667411804,-9.931304931640625,2.2830915441532533,3.138610057089499,-0.15696902281938002,1.8555045127868652,1.657983660697937,0.8833171129226685
1731474275.6218212,-0.5384083390235901,0.8579494953155518,-9.960956573486328,2.0276681721630743,2.7549580515089724,-0.16990400340413964,1.8716973066329956,1.6587653160095215,0.8825520873069763
1731474275.671869,-0.06929414719343185,0.6608009934425354,-9.979982376098633,1.4061926577233934,1.8727961648811382,-0.13545499598298838,1.8922357559204102,1.6653372049331665,0.8814026713371277
1731474275.721775,0.02904973365366459,0.8554672598838806,-10.0346097946167,0.6733083463593592,0.8014871088336718,-0.060036052057025106,1.8554883003234863,1.622135877609253,0.8832217454910278
1731474275.7717755,-0.23064912855625153,1.2105519771575928,-9.731618881225586,0.05887290957663502,-0.17179899768116913,0.03695522008384132,1.8629710674285889,1.613266944885254,0.8828591704368591
1731474275.8227062,-0.1753564178943634,0.43992534279823303,-10.050161361694336,-0.30986302498787305,-0.8488116823647194,0.13041030625881636,1.8606351613998413,1.5786430835723877,0.8834433555603027
1731474275.8727078,-0.06647980213165283,0.7661218047142029,-9.931371688842773,-0.42788953380544537,-1.142677014979892,0.1983942731542988,1.8638685941696167,1.5604735612869263,0.8839147686958313
1731474275.9226027,-0.2552195191383362,0.6618779897689819,-10.047701835632324,-0.3686850825344882,-1.0810959165035732,0.22696152736540665,1.8660941123962402,1.5395387411117554,0.8849204182624817
1731474275.9725506,-0.20895250141620636,-0.18448245525360107,-9.850830078125,-0.2250551200510843,-0.7849572015572898,0.21493005562327352,1.8665024042129517,1.5311968326568604,0.8839098215103149
1731474276.0224845,-0.20895250141620636,-0.18448245525360107,-9.850830078125,-0.07520146830625297,-0.40308013141038557,0.1750316436081544,1.8684337139129639,1.512681007385254,0.8849131464958191
1731474276.0224845,-0.2294600009918213,-0.3821580410003662,-10.194416046142578,0.03183510513019368,-0.05163095493246518,0.12432037396390064,1.8684443235397339,1.5125715732574463,0.8849201798439026
1731474276.0725577,-0.36147773265838623,0.44124048948287964,-10.03564167022705,0.07901001801882226,0.19686510527531015,0.07004544077082872,1.8937664031982422,1.4848374128341675,0.8837742805480957
1731474276.1223857,-0.34554919600486755,-0.22218485176563263,-9.94765853881836,0.0727853460330048,0.3077781400291673,0.010498277688863009,1.9042662382125854,1.4633759260177612,0.8841691017150879
1731474276.172285,-0.32222801446914673,0.3982942998409271,-10.008308410644531,0.03299014251143681,0.29352826100457896,-0.049039641571071296,1.9189236164093018,1.4422602653503418,0.8833764791488647
1731474276.2222586,-0.39827030897140503,0.07509410381317139,-9.937370300292969,-0.015080629640163289,0.2110957532506239,-0.09172104691482785,1.930509090423584,1.4213680028915405,0.8832088112831116
1731474276.27234,-0.21368589997291565,0.49714621901512146,-9.959775924682617,-0.05034932878994628,0.12547441778872492,-0.10270946456535353,1.942059874534607,1.4008123874664307,0.8827962875366211
1731474276.3221924,-0.21368589997291565,0.49714621901512146,-9.959775924682617,-0.06200054783677551,0.07174316316570808,-0.08064156111190418,1.939465880393982,1.4050759077072144,0.8829126358032227
1731474276.3221924,-0.471038818359375,0.2772108316421509,-9.982123374938965,-0.04977321258308871,0.05002041083635739,-0.03722436272268698,1.9395145177841187,1.4049848318099976,0.8829106688499451
1731474276.3722808,-0.19884423911571503,0.5148170590400696,-9.952417373657227,-0.024770663749541337,0.04623887622504493,0.009550407203136475,1.9479728937149048,1.3891639709472656,0.8825778961181641
1731474276.4220583,-0.19884423911571503,0.5148170590400696,-9.952417373657227,-0.003948298533830429,0.049526201036171134,0.04366365784291647,1.9563738107681274,1.3735026121139526,0.8823117613792419
1731474276.4220583,-0.2211313247680664,0.5309531688690186,-9.979743003845215,0.003324532384621209,0.052420034443381586,0.0572749647497036,1.9564220905303955,1.3734129667282104,0.8823105692863464
1731474276.4721398,-0.1518489569425583,0.4764733612537384,-9.943487167358398,-0.00015534369776286534,0.04865653146982273,0.051664602230385145,1.9554553031921387,1.3708909749984741,0.8829337954521179
1731474276.522018,0.11947069317102432,1.0046747922897339,-9.988778114318848,-0.004938917451239034,0.03400816336797143,0.03384270485940013,1.961978793144226,1.3578059673309326,0.8830451369285583
1731474276.572061,0.07636946439743042,0.9017437100410461,-9.826522827148438,0.0009573544765805336,0.0016137496420071291,0.01267565143323933,1.9685511589050293,1.344657301902771,0.8832154273986816
1731474276.621952,0.07636946439743042,0.9017437100410461,-9.826522827148438,0.027426303164405866,-0.05868853997666146,-0.002791402749735797,1.971142053604126,1.338498830795288,0.8830340504646301
1731474276.621952,-0.5981679558753967,0.9243273735046387,-9.987105369567871,0.07088179714531842,-0.14676608003641367,-0.005861090270639746,1.971181869506836,1.338417887687683,0.8830342888832092
1731474276.671927,-0.12327610701322556,0.7020476460456848,-9.876341819763184,0.1047653531524663,-0.23916713045832294,0.001683583282028161,1.9767102003097534,1.3271551132202148,0.8830674290657043
1731474276.7217958,-0.12327610701322556,0.7020476460456848,-9.876341819763184,0.09413341962803638,-0.29538872119501836,0.009204043549573203,1.988404631614685,1.2970613241195679,0.8830268979072571
1731474276.7217958,-0.36996814608573914,0.6935781240463257,-9.987732887268066,0.02750448995292663,-0.2831020984874856,0.006779498013650995,1.9884514808654785,1.2969529628753662,0.8830270767211914
1731474276.771804,-0.36996814608573914,0.6935781240463257,-9.987732887268066,-0.07427722067878793,-0.20229899941261975,-0.008225164614981123,2.006939649581909,1.2415482997894287,0.8830028772354126
1731474276.771804,-0.20592892169952393,0.6911255717277527,-10.119592666625977,-0.17592321249405035,-0.08573894180992336,-0.03299734110286804,2.007020950317383,1.2413185834884644,0.8830028176307678
1731474276.821709,-0.20592892169952393,0.6911255717277527,-10.119592666625977,-0.24251387256375065,0.0231609630448637,-0.06252415604961845,2.0207817554473877,1.2015941143035889,0.8829134702682495
1731474276.821709,-0.25730085372924805,0.5752817988395691,-9.9153470993042,-0.24854016675505702,0.09386221343135347,-0.09044056987219758,2.020864248275757,1.2013506889343262,0.8829124569892883
1731474276.8716893,-0.24688276648521423,0.6123431324958801,-10.059106826782227,-0.1898752876156603,0.11912821669091694,-0.1087260950193121,2.0341761112213135,1.1615489721298218,0.8826096653938293
1731474276.9225688,-0.24688276648521423,0.6123431324958801,-10.059106826782227,-0.08741227434378743,0.11101547019918512,-0.11091556771924857,2.0118255615234375,1.2236324548721313,0.8828123211860657
1731474276.9225688,-0.28725287318229675,0.5390820503234863,-10.035333633422852,0.024268971602544712,0.08861175916139116,-0.09746166703308075,2.0118517875671387,1.2235510349273682,0.8828103542327881
1731474276.972612,-0.28725287318229675,0.5390820503234863,-10.035333633422852,0.11160087775073206,0.06738769924849353,-0.07452295189418141,2.016580820083618,1.2093915939331055,0.8823696970939636
1731474276.972612,-0.24625591933727264,0.5038769245147705,-10.01768684387207,0.1526941077648116,0.055408608820147545,-0.048038644498503,2.0166103839874268,1.209306001663208,0.8823664784431458
1731474277.02249,-0.24625591933727264,0.5038769245147705,-10.01768684387207,0.14420378289561708,0.0545534612581962,-0.0215874023585855,2.019061803817749,1.1917459964752197,0.8828362822532654
1731474277.02249,-0.30754849314689636,0.5115130543708801,-10.090774536132812,0.10027516894581005,0.062480831962537044,0.0018938668300879013,2.0191025733947754,1.191605567932129,0.8828352093696594
1731474277.0725384,-0.5024304986000061,-0.15182428061962128,-10.000584602355957,0.04146373368676254,0.07622572616995775,0.01852495627697825,2.0261571407318115,1.1743229627609253,0.8829516172409058
1731474277.1223423,-0.4541091024875641,-0.2863242030143738,-10.104085922241211,-0.016781161492635532,0.0988886798213614,0.024460932099263376,2.0314600467681885,1.159203052520752,0.8829900026321411
1731474277.172356,-0.7480857372283936,-0.07504456490278244,-10.073660850524902,-0.06582151521483688,0.1351877090057458,0.01807101260640866,2.036700963973999,1.1442570686340332,0.8830820918083191
