Timestamp,IMU_Linear_Acc_X,IMU_Linear_Acc_Y,IMU_Linear_Acc_Z,Filtered_X,Filtered_Y,Filtered_Z,Pose_X,Pose_Y,Pose_Z
1730869713.7120013,-0.3217073976993561,0.601632833480835,-9.788956642150879,-0.0015520269472190612,-0.002902483363987259,-0.047225287955532734,1.8479981422424316,5.0019965171813965,1.5849436521530151
1730869713.7619185,-0.381052702665329,0.3710758686065674,-10.335457801818848,-0.010171957955633075,-0.01737511957797994,-0.30343859514031135,1.8479838371276855,5.001971244812012,1.5845121145248413
1730869713.811971,-0.25184470415115356,0.53510582447052,-9.865546226501465,-0.030631542882695102,-0.04709906616569577,-0.9039901880136973,-0.27289673686027527,-0.7386048436164856,-0.23525457084178925
1730869713.861911,-0.3332250118255615,0.364938884973526,-10.263859748840332,-0.05731423455430572,-0.07696770156749014,-1.6981592734297801,-0.9047176241874695,-2.4485599994659424,-0.7817600965499878
1730869713.9119105,-0.3845071494579315,0.39580652117729187,-9.956463813781738,-0.07656319606639186,-0.08213744463817366,-2.3131255898014933,-1.480517029762268,-4.006664752960205,-1.2843091487884521
1730869713.9618871,-0.2975302040576935,0.3186416029930115,-10.11719799041748,-0.07955978287018868,-0.0483567945417932,-2.470686354711462,-2.1053614616394043,-5.697115898132324,-1.8355029821395874
1730869714.0118926,-0.2975302040576935,0.3186416029930115,-10.11719799041748,-0.06717903723729504,0.02080588430428481,-2.1456785496408237,-0.30051806569099426,-0.8130154609680176,-0.26359084248542786
1730869714.0118926,-0.33489513397216797,0.2858319878578186,-9.950995445251465,-0.04525489532575676,0.1092813237058539,-1.5105877131456218,-0.30280131101608276,-0.8191807866096497,-0.26572901010513306
1730869714.0618885,-0.26632043719291687,0.3084196150302887,-9.94671630859375,-0.020466986819990304,0.19734371059377373,-0.807128670033773,-0.4054359197616577,-1.0960158109664917,-0.3628080189228058
1730869714.1118522,-0.2867903709411621,0.261075496673584,-9.92221450805664,0.0017177141409758971,0.26900572528256034,-0.23333175710935197,-0.0880257859826088,-0.23759326338768005,-0.07932300865650177
1730869714.1619074,-0.2867903709411621,0.261075496673584,-9.92221450805664,0.018597361060388992,0.3162797094701684,0.11120391020219052,-0.10974999517202377,-0.29513615369796753,-0.10054574906826019
1730869714.1619074,-0.18355165421962738,0.40852001309394836,-9.858501434326172,0.03034216335876516,0.33915033394462085,0.22463816385161964,-0.11012305319309235,-0.29611849784851074,-0.10090813040733337
1730869714.2119272,-0.2754652798175812,0.37751898169517517,-9.868712425231934,0.03934963379843996,0.34113840125062533,0.1711942145524291,-0.02467200718820095,-0.06595750898122787,-0.022544510662555695
1730869714.2618463,-0.2640669345855713,0.5062688589096069,-9.796269416809082,0.048331935473251014,0.3252946076203449,0.040039500133561126,-0.009844712913036346,-0.025883948430418968,-0.008983568288385868
1730869714.3118782,-0.34939563274383545,0.47614866495132446,-9.882620811462402,0.057136372817944134,0.29412769062550304,-0.09007305938603935,-0.0112229585647583,-0.028627553954720497,-0.010405111126601696
1730869714.3619094,-0.34939563274383545,0.47614866495132446,-9.882620811462402,0.06192047688602773,0.25149224456852803,-0.17196579624004502,-0.012458277866244316,-0.03069964051246643,-0.012162256054580212
1730869714.3619094,-0.359426349401474,0.5383297204971313,-9.855673789978027,0.05792682927999872,0.20374136467007636,-0.19426361865602906,-0.012484227307140827,-0.03073893114924431,-0.01220668200403452
1730869714.4118202,-0.4245462119579315,0.5187817811965942,-9.910970687866211,0.04289674701893355,0.1582055766484869,-0.17131289583169684,-0.013572384603321552,-0.03226878494024277,-0.014378557913005352
1730869714.4618425,-0.36513856053352356,0.5351426601409912,-9.978612899780273,0.018247839889592526,0.12032053553760033,-0.12835296085349146,-0.0019327927147969604,-0.004575743339955807,-0.002145113656297326
1730869714.5118227,-0.3586350083351135,0.5473432540893555,-10.020275115966797,-0.01138777785180536,0.09253985381338631,-0.09042519577579515,-0.0007132631144486368,-0.001465798239223659,-0.0010060977656394243
1730869714.5617416,-0.2574721574783325,0.5471246242523193,-10.083772659301758,-0.03864772486029312,0.07467050207357312,-0.07558553090015147,-0.0008242064504884183,-0.001107176300138235,-0.0015539305750280619
1730869714.611732,-0.19116458296775818,0.6158398389816284,-10.113476753234863,-0.0545514971341665,0.06428758498079187,-0.09132598227609635,-0.0010533982422202826,-0.0005698497407138348,-0.0023182937875390053
1730869714.6617234,-0.07725359499454498,0.6253067851066589,-10.16397762298584,-0.05062397385926316,0.05715442018103939,-0.13479585704158692,-0.0014130453346297145,0.00011683486809488386,-0.003361700102686882
1730869714.7126791,-0.03514484688639641,0.6868201494216919,-10.119898796081543,-0.021409302002514764,0.04811446180340214,-0.19587910066268366,-0.0018705751281231642,0.0009496335405856371,-0.004846307914704084
1730869714.7626386,0.016425620764493942,0.6751635670661926,-10.138443946838379,0.03318805874275543,0.032868259923982,-0.2609896215201511,-0.00016480441263411194,5.133693775860593e-05,-0.0007941294461488724
1730869714.812697,0.009985288605093956,0.7061775922775269,-10.030797958374023,0.10677812661671363,0.009863545387119092,-0.31650114487245773,-1.8695456674322486e-05,0.00027970256633125246,-0.0021040060091763735
1730869714.8626738,-0.07633883506059647,0.6560362577438354,-10.01736068725586,0.1872030129613461,-0.01881630923274574,-0.3514361775968406,0.00024149274395313114,6.26362016191706e-05,-0.0010727307526394725
1730869714.912698,-0.13610534369945526,0.6162747144699097,-9.876737594604492,0.25864971640777856,-0.047736828377837694,-0.35907781279042916,2.2170145511627197,6.6579813957214355,1.9169213771820068
1730869714.96257,-0.18741106986999512,0.5561071634292603,-9.85208511352539,0.30455333513515664,-0.06926763442448129,-0.3370583662165198,3.0964837074279785,9.295928955078125,2.6751372814178467
1730869715.0125709,-0.18741106986999512,0.5561071634292603,-9.85208511352539,0.31102918652042455,-0.07588791262824782,-0.28662461554590585,3.9823696613311768,11.950616836547852,3.437432289123535
1730869715.0125709,-0.24487869441509247,0.508155107498169,-9.77946949005127,0.27173116655229157,-0.06347419879626955,-0.21320388120821931,4.002130508422852,12.009804725646973,3.454420566558838
1730869715.0625556,-0.29755398631095886,0.4496522843837738,-9.78808307647705,0.1924311336883473,-0.03318614412248594,-0.1270727567234179,2.2325150966644287,6.772872447967529,1.9317861795425415
1730869715.1125727,-0.3483375906944275,0.4155441224575043,-9.79351806640625,0.0904033024892748,0.009147444487332354,-0.04178971216319406,2.4041202068328857,7.300905227661133,2.078735589981079
1730869715.1625578,-0.3838009834289551,0.3919539153575897,-9.810684204101562,-0.011182576639900136,0.05387944954289021,0.02822067071425053,1.9774445295333862,6.089961528778076,1.7150174379348755
1730869715.2125924,-0.39587053656578064,0.36359164118766785,-9.861605644226074,-0.09048869190577356,0.08936899552703545,0.07084187822234779,2.018733263015747,6.250406742095947,1.7517743110656738
1730869715.2626216,-0.39587053656578064,0.36359164118766785,-9.861605644226074,-0.13379671509240926,0.10676680037181016,0.08073540437841359,1.8770012855529785,5.847764015197754,1.631071925163269
1730869715.2626216,-0.4168815016746521,0.35589757561683655,-9.890434265136719,-0.1389698525338109,0.10398063873685856,0.0619121385997458,1.877159833908081,5.848766803741455,1.6312346458435059
1730869715.3125734,-0.41829913854599,0.3569704592227936,-9.944403648376465,-0.11453875354593418,0.08531188925864855,0.025785907266773954,1.8862138986587524,5.907074928283691,1.6407121419906616
1730869715.3626294,-0.44957461953163147,0.36584246158599854,-9.971020698547363,-0.0755727023571643,0.058418744058449774,-0.014477833261027685,1.8337701559066772,5.773556709289551,1.5964094400405884
1730869715.412496,-0.42841005325317383,0.3740740418434143,-9.999332427978516,-0.03757223426846126,0.03106593910039568,-0.04925193705058435,1.8345364332199097,5.805811882019043,1.598516583442688
1730869715.4624984,-0.43157750368118286,0.4039986729621887,-10.042346954345703,-0.010506954710761617,0.00867932016071104,-0.07340157006541266,1.821570634841919,5.795762538909912,1.58773934841156
1730869715.5124795,-0.37427085638046265,0.43172627687454224,-10.064379692077637,0.003895491435208482,-0.006813777261041524,-0.0848716684733783,1.8207671642303467,5.822986602783203,1.5878996849060059
1730869715.5624943,-0.3152911365032196,0.47260522842407227,-10.11823844909668,0.010415180333680447,-0.016551713586331927,-0.08441571728285983,1.8154568672180176,5.831606864929199,1.584791660308838
1730869715.6125178,-0.22450314462184906,0.5016640424728394,-10.125242233276367,0.016413945510546805,-0.023162587708855466,-0.0754664272983603,1.813887596130371,5.859468936920166,1.5844404697418213
1730869715.6625588,-0.1746288686990738,0.5326931476593018,-10.137155532836914,0.027858975733484986,-0.028951842758000015,-0.062431406275857575,1.8123716115951538,5.887301921844482,1.5839166641235352
1730869715.7124116,-0.1746288686990738,0.5326931476593018,-10.137155532836914,0.046826579263249075,-0.034931821745773924,-0.04866056185815225,1.8118587732315063,5.881817817687988,1.583749771118164
1730869715.7124116,-0.20568248629570007,0.5780267119407654,-10.108488082885742,0.07079966346673144,-0.04111379813713385,-0.035885944084619356,1.8118342161178589,5.882349014282227,1.5837424993515015
1730869715.7626622,-0.1515180766582489,0.5457057356834412,-9.99473762512207,0.09244708711858554,-0.04675879486135984,-0.023841752864730517,1.8110477924346924,5.901663303375244,1.5834459066390991
1730869715.8125653,-0.09342313557863235,0.29163047671318054,-10.017292976379395,0.10272302431834321,-0.0489249139462309,-0.009375883810838176,1.8083875179290771,5.909135818481445,1.5834416151046753
1730869715.8625093,-0.1655166745185852,0.18929681181907654,-10.048758506774902,0.09734523844470487,-0.04094050147345837,0.010969202152865884,1.8072208166122437,5.927430629730225,1.583269715309143
1730869715.9125447,0.005159384571015835,-0.44615453481674194,-9.772537231445312,0.0789263904625701,-0.013366267162713028,0.036196297317377404,1.8061376810073853,5.940516471862793,1.583297848701477
1730869715.962534,-0.5560404658317566,-0.5200023055076599,-10.394559860229492,0.05156377750492357,0.04237136269974094,0.05877562038826735,1.805236577987671,5.957313537597656,1.5833344459533691
1730869716.0124214,-0.16639703512191772,-0.07734586298465729,-9.15693473815918,0.01316154943618997,0.12145739504559704,0.06685971616896169,1.804236650466919,5.977961540222168,1.5835726261138916
1730869716.0626013,-0.4408872723579407,0.013156051747500896,-10.39554214477539,-0.04328350432503258,0.19085820277540191,0.05397860120484517,1.8042641878128052,5.974578380584717,1.5841976404190063
1730869716.1125875,-0.05457606539130211,0.24757927656173706,-9.311368942260742,-0.11548695465437546,0.20269657601153662,0.02860127369936112,1.8032646179199219,5.988923072814941,1.5845954418182373
1730869716.1624618,-0.3143346905708313,0.36312752962112427,-10.2515230178833,-0.18013525494201757,0.1325377531490068,0.014828131655074546,1.800826072692871,6.014240741729736,1.585076093673706
1730869716.2124887,-0.22113467752933502,0.5142654180526733,-9.683226585388184,-0.20307440091458479,-0.0013657273437387152,0.04120456858271463,1.7987951040267944,6.031793117523193,1.5855201482772827
1730869716.262377,-0.3517010807991028,0.6128770709037781,-10.170031547546387,-0.16746184106724576,-0.15290414225446428,0.11681759055442895,1.796326756477356,6.048943996429443,1.5861551761627197
1730869716.3123431,-0.3339885175228119,0.7295340895652771,-10.133193016052246,-0.08904602094051912,-0.27619277102312245,0.21833632457832197,1.7935062646865845,6.065757751464844,1.5872209072113037
1730869716.3625484,-0.44125670194625854,0.8242432475090027,-9.986492156982422,-0.003576981422275624,-0.3480286688801507,0.3052970964558309,1.7981698513031006,6.063636302947998,1.5863823890686035
1730869716.41245,-0.36805444955825806,0.9878829121589661,-10.137479782104492,0.05607507054842405,-0.3724008391305306,0.3457856951492918,1.796141266822815,6.106945514678955,1.587451696395874
1730869716.4623222,-0.30565303564071655,1.1508333683013916,-9.990093231201172,0.0760930889033431,-0.3652811746545476,0.329417884811545,1.7950425148010254,6.127498626708984,1.58942711353302
1730869716.5122705,-0.29068052768707275,1.3028203248977661,-10.140589714050293,0.06461168025809148,-0.3391748022977159,0.2656343440009362,1.7941721677780151,6.1584153175354,1.5887737274169922
1730869716.5622776,-0.22948293387889862,1.4528335332870483,-9.968873977661133,0.04122530323833186,-0.3028678965031512,0.17803625728476385,1.793327808380127,6.180567741394043,1.5906524658203125
1730869716.6123576,-0.24576227366924286,1.5971177816390991,-10.009507179260254,0.023113303218503384,-0.265636815282495,0.095788718793344,1.7925679683685303,6.201903343200684,1.5928643941879272
1730869716.6623037,-0.322979211807251,1.6633752584457397,-9.859959602355957,0.017534391074895992,-0.2364913087278835,0.04293290410005493,1.7918550968170166,6.222723007202148,1.595262050628662
1730869716.7123492,-0.4523736834526062,1.7395267486572266,-9.816814422607422,0.02088714378148517,-0.22355617375523862,0.032140751681195324,1.7925829887390137,6.207403659820557,1.5891752243041992
1730869716.7623267,-0.5528234243392944,1.7902748584747314,-9.757420539855957,0.02219227162397688,-0.23139948113327263,0.06249204053480433,1.7921206951141357,6.221506595611572,1.589914083480835
1730869716.8123238,-0.570301353931427,1.8617700338363647,-9.714521408081055,0.010819925972033562,-0.25322952925500297,0.11809285593525998,1.7891136407852173,6.254329681396484,1.5895047187805176
1730869716.8623152,-0.5865618586540222,1.9409986734390259,-9.735849380493164,-0.015509179369247783,-0.2704151723408965,0.17226187420713637,1.7879904508590698,6.271848201751709,1.5904659032821655
1730869716.9122865,-0.4956018924713135,2.059924602508545,-9.682336807250977,-0.0483802169160106,-0.26605071542062325,0.2002097512560865,1.7868030071258545,6.288468360900879,1.591876745223999
1730869716.9622087,-0.44575151801109314,2.160869598388672,-9.734278678894043,-0.0726850681762602,-0.23854994112682065,0.19079527622386833,1.7854557037353516,6.275975227355957,1.5905882120132446
1730869717.0122783,-0.4597508907318115,2.220139265060425,-9.76317024230957,-0.07504588681893924,-0.20126863758198668,0.14885219785580317,1.7840518951416016,6.284865856170654,1.5918439626693726
1730869717.062255,-0.517257034778595,2.2521815299987793,-9.787196159362793,-0.05339547234641051,-0.1692791945595548,0.08921858255165761,1.7816743850708008,5.6937360763549805,1.5916969776153564
1730869717.112249,-0.6049466729164124,2.2292208671569824,-9.723855972290039,-0.019903199766176584,-0.1472086156106816,0.028894422049852674,1.7798758745193481,5.517027378082275,1.5927168130874634
1730869717.1621253,-0.6881219148635864,2.2662007808685303,-9.679309844970703,0.006611430676385746,-0.1295287186671651,-0.017188735682111107,1.7781586647033691,5.145322799682617,1.5924893617630005
1730869717.2121167,-0.739643931388855,2.3078243732452393,-9.663817405700684,0.01193786803927303,-0.10895498611609329,-0.03855682632933972,1.7762919664382935,4.904355049133301,1.5931122303009033
1730869717.2621005,-0.7354481816291809,2.382544994354248,-9.64962387084961,-0.006203409854802854,-0.08374643939997739,-0.03329808201458142,1.7744275331497192,4.662513732910156,1.5936466455459595
1730869717.312186,-0.6856863498687744,2.5434274673461914,-9.755260467529297,-0.03773402033987198,-0.06029046294269995,-0.010180384222287873,1.774359941482544,4.716667652130127,1.5921125411987305
1730869717.3621268,-0.7613314986228943,3.9798874855041504,-9.699313163757324,-0.06721142112783136,-0.05622906426315166,0.01596808632783138,1.7728345394134521,4.5610761642456055,1.5922335386276245
1730869717.4120548,-0.5447466969490051,3.494027614593506,-9.189258575439453,-0.08259282805886667,-0.10440910038690061,0.03575965712823942,1.770588755607605,4.229941368103027,1.5932440757751465
1730869717.4620368,-0.5087571740150452,3.3197319507598877,-10.686378479003906,-0.07829026091642746,-0.23017333175183896,0.047282235819689364,1.768572449684143,4.016809940338135,1.5938358306884766
1730869717.5121765,-0.34023886919021606,3.9234633445739746,-8.868244171142578,-0.053893159269671975,-0.4070846754287698,0.03779197476337451,1.766345739364624,3.797800064086914,1.5945461988449097
1730869717.5621102,-0.8090472221374512,2.7312731742858887,-10.340107917785645,-0.014983572443678046,-0.5563905851225368,-0.01664041017780067,1.7640292644500732,3.5771992206573486,1.5952842235565186
1730869717.6119828,-0.5264474153518677,2.775426149368286,-9.612080574035645,0.024392665265942665,-0.5950443400049645,-0.12482954823886369,1.767693281173706,3.771669626235962,1.5941393375396729
1730869717.6619604,-0.8055254220962524,2.4578919410705566,-9.414674758911133,0.04577768010266873,-0.47866066674669505,-0.2678287952909125,1.7666865587234497,3.622037649154663,1.5938537120819092
1730869717.7119734,-0.7051362991333008,2.2019810676574707,-10.075007438659668,0.03649075404462437,-0.22545138424169514,-0.4017238129670593,1.7651026248931885,3.2754297256469727,1.594741702079773
1730869717.7619781,-0.8988703489303589,2.157459020614624,-8.959853172302246,-0.0043130135102156745,0.08810780282992574,-0.4722231166015931,1.7638413906097412,3.050738573074341,1.5934357643127441
1730869717.8119786,-0.6241821050643921,1.8736023902893066,-9.971104621887207,-0.06476701052359496,0.36577343826789643,-0.4380433582490979,1.762503981590271,2.772225856781006,1.5954170227050781
1730869717.8619359,-0.8150867223739624,2.1314821243286133,-9.12989330291748,-0.12333949092517889,0.5337192631398087,-0.28836745177988105,1.7605446577072144,2.4821925163269043,1.5936956405639648
1730869717.9118838,-0.5785958170890808,1.790099024772644,-9.812756538391113,-0.15949216482026266,0.5619858261693089,-0.05313485079863185,1.7582589387893677,2.2088823318481445,1.5915355682373047
1730869717.9619417,-0.5381035804748535,1.862290382385254,-9.509204864501953,-0.16361536602038074,0.4666245318176066,0.20488973115828202,1.7601841688156128,2.373868703842163,1.5968223810195923
1730869718.011878,-0.27977025508880615,1.5311031341552734,-9.836064338684082,-0.13563808641138855,0.3004419653360497,0.4150460334397193,1.7588948011398315,2.2476558685302734,1.5974339246749878
1730869718.0618465,-0.8457896113395691,1.7198575735092163,-9.87911319732666,-0.08194061423526255,0.1326092712058557,0.5197312467839532,1.7599080801010132,1.880515694618225,1.5997422933578491
1730869718.1118143,-1.1937037706375122,1.6652400493621826,-9.629504203796387,-0.0212255405557038,0.019048078165869408,0.49142675339475006,1.7591248750686646,1.692911982536316,1.6022018194198608
1730869718.1617205,-1.044650912284851,1.1054611206054688,-10.161413192749023,0.015741728352374536,-0.017705248949795426,0.34980089077346965,1.7580317258834839,1.4307761192321777,1.6070630550384521
1730869718.2117367,-0.954616904258728,1.0559439659118652,-9.675639152526855,0.0062872408608140255,0.01851838524521028,0.1561174336021475,1.7574266195297241,1.2802543640136719,1.610366702079773
1730869718.261771,-0.8298472166061401,0.8380514979362488,-10.130788803100586,-0.04453796369257199,0.11668178713215763,-0.021035994301987243,1.7606067657470703,1.3763331174850464,1.6008933782577515
1730869718.31168,-0.5616050958633423,0.7716580629348755,-9.895461082458496,-0.10656674053409253,0.2600596111673156,-0.13633444532858302,1.761694312095642,1.4973081350326538,1.6002675294876099
1730869718.3616743,-0.5769183039665222,0.6613607406616211,-10.12339973449707,-0.14326518186593837,0.41217661957960217,-0.1765419134228125,1.7615017890930176,1.4438681602478027,1.6002449989318848
1730869718.411683,-0.4076380431652069,0.5278465747833252,-10.016132354736328,-0.13303079459500344,0.5199192084586169,-0.15632519019312296,1.7626508474349976,1.5564671754837036,1.6001769304275513
1730869718.461731,-0.36842450499534607,0.4956369996070862,-10.085269927978516,-0.07978061855079539,0.5441838445493565,-0.10767720893803132,1.762446641921997,1.5450358390808105,1.599791407585144
1730869718.5116787,-0.31067728996276855,0.32657891511917114,-10.04914665222168,-0.0056580881385553325,0.4834409368502105,-0.062303957126935115,1.7621345520019531,1.534877896308899,1.5991913080215454
1730869718.5617313,-0.16764064133167267,-0.48247918486595154,-10.069558143615723,0.0648077723642432,0.37231930308535643,-0.03658104573287485,1.764852523803711,1.5938581228256226,1.6009960174560547
1730869718.6116936,0.3858356475830078,-0.47536352276802063,-10.389885902404785,0.11904861345468484,0.26713438388008337,-0.032228236756917265,1.766974687576294,1.6062911748886108,1.6008681058883667
1730869718.6626034,0.7241856455802917,-0.6524653434753418,-10.175395965576172,0.16242486749587717,0.21333674664929478,-0.044914247658883306,1.768430233001709,1.608636736869812,1.6007198095321655
1730869718.7126439,0.4023587107658386,-0.28661632537841797,-10.159379959106445,0.20653047775424746,0.21221236433890855,-0.06396675120276579,1.7703232765197754,1.6114760637283325,1.6004376411437988
1730869718.7626274,0.6157352924346924,-0.18070825934410095,-10.140952110290527,0.25000053300234876,0.22595299027647534,-0.06935595766429026,1.772790789604187,1.6148689985275269,1.5999884605407715
1730869718.812587,0.34346166253089905,-0.12313131988048553,-9.964622497558594,0.2773767381958955,0.20981940034807994,-0.04153076997356256,1.77593994140625,1.6188337802886963,1.5993964672088623
1730869718.862583,0.3661594092845917,0.11221044510602951,-10.0712251663208,0.27382813869782924,0.13720645559908692,0.025466052583839247,1.7692642211914062,1.6157785654067993,1.6008036136627197
1730869718.9125998,0.2639342248439789,0.05238218978047371,-9.776820182800293,0.2343768584925936,0.010290986081517114,0.12107772573413962,1.771000623703003,1.6174938678741455,1.6009202003479004
1730869718.9626362,0.19931276142597198,0.38860875368118286,-9.954427719116211,0.1643628070562091,-0.1395647549404611,0.2220380086811493,1.7717163562774658,1.6209064722061157,1.6009435653686523
1730869719.0125449,0.1325644850730896,0.412604957818985,-9.790519714355469,0.07685196531856872,-0.2658783336756613,0.30035710305921826,1.7736390829086304,1.622536540031433,1.6018579006195068
1730869719.0625498,-0.022736094892024994,0.6399855017662048,-9.868663787841797,-0.011608974805345753,-0.3332636368723637,0.3350075018711143,1.7733155488967896,1.6250109672546387,1.601897954940796
1730869719.1126018,-0.1058426946401596,0.7128804326057434,-9.889497756958008,-0.08624268987916661,-0.3344978833370705,0.32024329431528376,1.7744183540344238,1.6258130073547363,1.6036022901535034
1730869719.162501,0.44603461027145386,1.7083542346954346,-10.006306648254395,-0.13509791212992572,-0.29132372736802786,0.263930965500467,1.7752721309661865,1.625261902809143,1.602664828300476
1730869719.2124538,0.40999770164489746,1.7659242153167725,-9.756146430969238,-0.14533613720891286,-0.24590376197632166,0.1817820632291492,1.7759003639221191,1.6247979402542114,1.6042757034301758
1730869719.2624416,0.6039416790008545,2.1896586418151855,-9.96702766418457,-0.10958229552261023,-0.2358664085194319,0.09602218094922818,1.7770423889160156,1.6259934902191162,1.6029244661331177
1730869719.3125439,0.09092926979064941,1.6560873985290527,-9.829533576965332,-0.04149929406237342,-0.26378966495132683,0.031141848114410127,1.7776495218276978,1.6254007816314697,1.6038533449172974
1730869719.362587,0.10004647076129913,1.5861351490020752,-9.79146957397461,0.021078752378997943,-0.29100786962578845,0.002661400891117904,1.7782467603683472,1.6240739822387695,1.6048492193222046
1730869719.4125435,-0.2691928446292877,1.3350410461425781,-9.718755722045898,0.03172311348866877,-0.2601749991093849,0.011983701248397718,1.7788840532302856,1.622123122215271,1.6058216094970703
1730869719.4625223,-0.8117973804473877,0.4823208451271057,-9.689814567565918,-0.044245043071778616,-0.12693968009280615,0.05114158014422724,1.7795205116271973,1.6196407079696655,1.6068981885910034
1730869719.5125253,-1.3610482215881348,0.22345305979251862,-10.138195037841797,-0.22251141229038165,0.1251606984299708,0.1061833750139189,1.7791125774383545,1.636910080909729,1.6040115356445312
1730869719.562495,-1.264198660850525,0.3915174901485443,-10.085031509399414,-0.4930657669518294,0.4763941726636145,0.1560175417273975,1.7784067392349243,1.6392334699630737,1.604900598526001
1730869719.6124778,-1.2622385025024414,0.663618803024292,-9.966453552246094,-0.7921103230320459,0.8426916486387663,0.17911731941322345,1.7801270484924316,1.6515861749649048,1.6060551404953003
1730869719.6624823,-1.3093338012695312,0.935282826423645,-10.23894214630127,-1.0026178943822253,1.0816967186432491,0.16737582930555867,1.777502417564392,1.659576654434204,1.6075913906097412
1730869719.7124507,-1.2288624048233032,0.9703149795532227,-9.875051498413086,-1.0266058528577793,1.0788790130296253,0.12712754613294597,1.7721824645996094,1.6707444190979004,1.6095860004425049
1730869719.7624178,-1.1986851692199707,1.1354217529296875,-10.082175254821777,-0.853569217780857,0.8275123946248769,0.07048770267797724,1.76468825340271,1.6839567422866821,1.611769676208496
1730869719.8124607,-1.140854835510254,1.1452789306640625,-9.932093620300293,-0.5536445007995154,0.4195410111146326,0.011961038288584042,1.7810348272323608,1.6736842393875122,1.607778787612915
1730869719.862424,-0.979691743850708,1.2733254432678223,-9.960369110107422,-0.22619783376769506,-0.016376004362684174,-0.03442546501098564,1.7784446477890015,1.6814788579940796,1.608548641204834
1730869719.9125135,-0.7653579711914062,1.3786547183990479,-10.057238578796387,0.047105768552641245,-0.3671504753747843,-0.0606764149477394,1.7756352424621582,1.6887809038162231,1.6091984510421753
1730869719.9623678,-0.6829754710197449,1.5067675113677979,-9.844121932983398,0.22783765866370662,-0.5661822458787712,-0.06741073608586887,1.7846359014511108,1.689739465713501,1.6086757183074951
1730869720.0126495,-0.6078941822052002,1.6473499536514282,-9.846325874328613,0.31980355106915487,-0.6070827995595202,-0.06019003721312375,1.785582423210144,1.6932235956192017,1.6088972091674805
1730869720.06239,-0.5362272262573242,1.7527847290039062,-9.698115348815918,0.3460648797776057,-0.5319885040102961,-0.043519193710064734,1.7873773574829102,1.6952667236328125,1.6089873313903809
1730869720.1124156,-0.5075788497924805,1.8312915563583374,-9.710315704345703,0.3279480952408725,-0.40259154803844616,-0.019073346684709412,1.7899410724639893,1.6961103677749634,1.60899817943573
1730869720.1624224,-0.5579162240028381,1.9206469058990479,-9.705680847167969,0.2827744373831115,-0.27694616424496266,0.012517593278078751,1.7887712717056274,1.7121672630310059,1.6104261875152588
1730869720.2123759,-0.5587639808654785,2.031187057495117,-9.748287200927734,0.22690798425928205,-0.19528983075645276,0.0483223696662096,1.7908002138137817,1.7166361808776855,1.610957384109497
1730869720.262392,-0.5409815311431885,2.162189245223999,-9.73635482788086,0.17213266740993846,-0.16953515008158368,0.07989716926157497,1.791621208190918,1.734724521636963,1.6123789548873901
1730869720.3123634,-0.5253890156745911,2.308044195175171,-9.698660850524902,0.12322678487434124,-0.18458236589542698,0.09594951672420225,1.7935636043548584,1.7418807744979858,1.6133958101272583
1730869720.3623443,-0.47824427485466003,2.6437408924102783,-9.842473030090332,0.08168106481259713,-0.21539865861056218,0.09026414507411562,1.795680284500122,1.748278260231018,1.6145992279052734
1730869720.4125848,-0.6826299428939819,4.126481056213379,-9.50568962097168,0.04872481040376829,-0.2536634582737821,0.06642477789487594,1.793607473373413,1.7597824335098267,1.6147969961166382
1730869720.462385,-0.5400726795196533,3.1821765899658203,-9.567176818847656,0.024306822265945518,-0.3168030359889471,0.03641004062315275,1.7946828603744507,1.7658179998397827,1.6157739162445068
1730869720.5123396,-0.7016422748565674,3.310546875,-10.107821464538574,0.007747688924834309,-0.4009770772336589,0.010506860721490775,1.7958674430847168,1.771392583847046,1.6168707609176636
1730869720.5623574,-0.512329638004303,3.0970916748046875,-9.274913787841797,0.00034595401167629436,-0.4363940628297842,-0.014560754689224638,1.797078251838684,1.7759872674942017,1.6179771423339844
1730869720.6122882,-0.5552380084991455,2.77887225151062,-10.151094436645508,0.004815433530642297,-0.3340448729222564,-0.04902424732717201,1.7955682277679443,1.7817593812942505,1.6160513162612915
1730869720.6621685,-0.5552380084991455,2.77887225151062,-10.151094436645508,0.02193502799373989,-0.06914401284751974,-0.0959022114453865,1.7963643074035645,1.7867966890335083,1.6163432598114014
1730869720.6621685,-0.48641809821128845,2.9594218730926514,-9.167158126831055,0.04695971648780043,0.2859612779053857,-0.1435120949212067,1.7963753938674927,1.7868634462356567,1.6163456439971924
1730869720.7121785,-0.43973588943481445,2.403714895248413,-9.88845443725586,0.07069328712002981,0.5963503312830065,-0.1581997842305468,1.7972135543823242,1.8097782135009766,1.617394208908081
1730869720.7622647,-0.4826743006706238,2.705504894256592,-9.332982063293457,0.08570461074539512,0.7480768835122943,-0.10161425089994555,1.7982535362243652,1.8215250968933105,1.6174594163894653
1730869720.8122692,-0.43190932273864746,2.1638593673706055,-9.656525611877441,0.08879189088563567,0.7098883706303291,0.030336886250053926,1.7994745969772339,1.8432320356369019,1.6194918155670166
1730869720.862252,-0.4749290347099304,2.35858154296875,-9.407169342041016,0.07909403146004959,0.5277373332387196,0.1986336726484412,1.8006575107574463,1.8591581583023071,1.6211892366409302
1730869720.912252,-0.47531864047050476,1.7141746282577515,-9.562189102172852,0.05821726991100984,0.2873142177544774,0.34570392938890737,1.8019729852676392,1.8743025064468384,1.6230272054672241
1730869720.9622612,-0.47852766513824463,1.8130499124526978,-9.66954517364502,0.031184107007632474,0.08074053708264736,0.4206656541947175,1.803411602973938,1.890026330947876,1.6258512735366821
1730869721.0122638,-0.5644682049751282,0.7052571177482605,-9.780596733093262,0.004651919660704583,-0.015402139627692497,0.39520431219308866,1.8048659563064575,1.9055157899856567,1.6296263933181763
1730869721.06224,-0.575775682926178,1.2420883178710938,-10.20833969116211,-0.017091353114803007,0.04538308604655803,0.26995387713586405,1.8023399114608765,1.8766443729400635,1.6237294673919678
1730869721.1121924,-0.6071605682373047,1.3714635372161865,-9.659829139709473,-0.03404321213233946,0.2569082766716885,0.074610144745848,1.802940845489502,1.8843448162078857,1.6256417036056519
1730869721.1622338,-0.5988069176673889,1.2020565271377563,-10.097891807556152,-0.04743478567866309,0.5369095991740774,-0.13044126866383132,1.8031889200210571,2.451140880584717,1.624822735786438
1730869721.212118,-0.7917307615280151,1.5415515899658203,-9.887603759765625,-0.05718076152030084,0.7533928752978247,-0.2693104114624822,1.8036118745803833,2.6374504566192627,1.625311017036438
1730869721.262136,-0.6022326350212097,1.2315397262573242,-10.011480331420898,-0.06392692126355104,0.8025749450181845,-0.2937984115605425,1.8038891553878784,2.829216957092285,1.6250947713851929
1730869721.312085,-0.7544679641723633,1.4810585975646973,-10.144497871398926,-0.06980618811145228,0.6648963877196585,-0.21222305164433047,1.8039952516555786,3.020259141921997,1.6242467164993286
1730869721.3621824,-0.7544679641723633,1.4810585975646973,-10.144497871398926,-0.07658678727735638,0.3983614018458056,-0.0766416174637296,1.8043882846832275,2.9341182708740234,1.62559175491333
1730869721.3621824,-0.6193708777427673,1.226257562637329,-9.96688461303711,-0.08450439521940391,0.09620008164428623,0.05137304758770331,1.8043913841247559,2.9374961853027344,1.6255905628204346
1730869721.4120858,-0.6193708777427673,1.226257562637329,-9.96688461303711,-0.08892427937822678,-0.15045520756335112,0.132757184470079,1.8043954372406006,3.055856704711914,1.6257073879241943
1730869721.4120858,-0.5804051160812378,1.380181074142456,-10.20177173614502,-0.0792557575505623,-0.27751226806695245,0.16179636993450086,1.804392695426941,3.058971881866455,1.625714659690857
1730869721.4620888,-0.4732200503349304,1.3049238920211792,-10.025656700134277,-0.04631848786415948,-0.26886030019545504,0.15253438497738844,1.8063057661056519,3.4868922233581543,1.6275179386138916
1730869721.5119905,-0.440275102853775,1.3599510192871094,-10.174796104431152,0.009577165843243899,-0.15941391758499207,0.12162574473620616,1.8074275255203247,3.873412609100342,1.6291601657867432
1730869721.562048,-0.28958651423454285,1.4401408433914185,-10.062660217285156,0.0764623979396249,-0.013258517482357707,0.08185064397834037,1.8082661628723145,4.128948211669922,1.630612850189209
1730869721.6120298,-0.2762141227722168,1.4765846729278564,-10.026415824890137,0.13593768435037396,0.1060908317322106,0.043640799726106405,1.809267282485962,4.358522415161133,1.6320687532424927
1730869721.6619785,-0.3206407129764557,1.6394948959350586,-9.91328239440918,0.17405038028910463,0.15818156104287506,0.01876485609331654,1.8091940879821777,4.373608589172363,1.6309144496917725
1730869721.712003,-0.3232973515987396,1.6894965171813965,-9.80167007446289,0.18681565847588819,0.13438321505728734,0.018338574739064438,1.8104511499404907,4.545393466949463,1.6317131519317627
1730869721.761978,-0.3542045056819916,1.8237980604171753,-9.819696426391602,0.17609553124527383,0.054183858796116875,0.044300580143046914,1.809959053993225,4.859229564666748,1.6330291032791138
1730869721.8119423,-0.38910260796546936,1.8870298862457275,-9.769766807556152,0.14527152643653873,-0.046888582787575364,0.08518874811980034,1.8112244606018066,5.094482898712158,1.6342966556549072
1730869721.8619394,-0.48885080218315125,1.9788727760314941,-9.758481979370117,0.09938562268471948,-0.1340112887806532,0.12255296031107468,1.8103735446929932,5.324657917022705,1.6348931789398193
1730869721.9119518,-0.5804073810577393,2.4527194499969482,-9.792348861694336,0.045344645858236735,-0.18798330969056803,0.14135865170154463,1.8112705945968628,5.566991806030273,1.636427402496338
1730869721.961959,-0.7549956440925598,3.7184207439422607,-9.140496253967285,-0.010099909508089703,-0.2190673628074027,0.13842439082834204,1.8121968507766724,5.8048481941223145,1.6382814645767212
1730869722.0119321,-0.6915133595466614,2.5657615661621094,-10.016229629516602,-0.06279167160949292,-0.2700565171618534,0.12530973652399913,1.8130452632904053,6.045616626739502,1.6404924392700195
1730869722.0618622,-0.7593812942504883,2.862590789794922,-9.406414031982422,-0.11155022032455059,-0.3819655781987507,0.1169874558711982,1.8103798627853394,5.7243218421936035,1.637183427810669
1730869722.1118233,-0.7343329191207886,2.5222392082214355,-9.82505989074707,-0.15471274458678966,-0.544237593491651,0.11581735592403852,1.8101545572280884,5.866886615753174,1.6385383605957031
1730869722.16185,-0.10249139368534088,2.9015748500823975,-9.692995071411133,-0.18217282189359654,-0.6884025936973323,0.108682237696821,1.8109393119812012,6.12142276763916,1.6392161846160889
1730869722.211792,-0.7767797112464905,2.1690475940704346,-9.424141883850098,-0.1755895979100231,-0.7313135215523169,0.07862525792177924,1.8104808330535889,6.287801265716553,1.6406278610229492
1730869722.2617981,-1.1529079675674438,0.826127290725708,-10.186713218688965,-0.13667094604426072,-0.6169927005274847,0.02317227473580598,1.8096225261688232,6.454663276672363,1.642186164855957
1730869722.3118064,-0.8906031847000122,1.759714126586914,-9.373068809509277,-0.11146596798692152,-0.3261237742321411,-0.041861072034544915,1.811400055885315,6.56341028213501,1.6413811445236206
1730869722.361799,-0.4558369219303131,1.2575806379318237,-10.111706733703613,-0.15227727709388664,0.11114207887177838,-0.09812751950452137,1.8108857870101929,6.717532157897949,1.6421098709106445
1730869722.4118044,-0.47126704454421997,1.6761714220046997,-9.510245323181152,-0.2500554014135861,0.5910414511818377,-0.13982753950739665,1.8122602701187134,6.475147247314453,1.6434751749038696
1730869722.4618237,-0.47126704454421997,1.6761714220046997,-9.510245323181152,-0.33169084034505303,0.9631537651646735,-0.17298459746952133,1.811353087425232,6.511239528656006,1.6440058946609497
1730869722.4618237,0.12150181829929352,1.278599500656128,-10.189705848693848,-0.3274500237779077,1.1124037582371795,-0.20193674927336205,1.8113384246826172,6.511640548706055,1.644008994102478
1730869722.5117824,-0.13766157627105713,1.6941465139389038,-9.788352966308594,-0.22032161410938814,1.0212737411160442,-0.22795566315670268,1.8128911256790161,6.399094581604004,1.6451071500778198
1730869722.5617821,-0.13766157627105713,1.6941465139389038,-9.788352966308594,-0.041687915672194466,0.7624522217025365,-0.2548009068606959,1.8123654127120972,6.402956962585449,1.6451711654663086
1730869722.5617821,0.00043604103848338127,1.7801988124847412,-10.018634796142578,0.14960512949834961,0.4428999892870319,-0.2791021197495586,1.8122917413711548,6.403607368469238,1.6451317071914673
1730869722.6117997,0.021728988736867905,1.6938258409500122,-10.05121898651123,0.29267979476773154,0.15372422618486634,-0.2886645913761844,1.812106728553772,6.408116817474365,1.644553780555725
1730869722.661814,0.02814706414937973,1.8787676095962524,-9.983210563659668,0.3541235402810932,-0.05130974424036001,-0.27819104001451417,1.8146384954452515,6.358648777008057,1.6468472480773926
1730869722.7118514,-0.034773461520671844,1.6170969009399414,-10.048604965209961,0.33761226692447377,-0.1570034120730389,-0.2539541484885601,1.8161988258361816,6.354835033416748,1.6462223529815674
1730869722.761844,-0.24731220304965973,1.7501286268234253,-9.881455421447754,0.26718365518858755,-0.17423708014475942,-0.22275833993831476,1.8163899183273315,6.330657482147217,1.6490323543548584
1730869722.8118134,-0.35623982548713684,1.5424230098724365,-9.86756706237793,0.16681010816904063,-0.12497471229403923,-0.1843811649290485,1.8181519508361816,6.3211870193481445,1.648873209953308
1730869722.861807,-0.503624677658081,1.6437371969223022,-9.823627471923828,0.054985027745348664,-0.0365143798229812,-0.1358523089182542,1.8202017545700073,6.311465740203857,1.6483100652694702
1730869722.911739,-0.5540392398834229,1.5742666721343994,-9.777570724487305,-0.052379306472909705,0.060984673928135676,-0.07893041093804595,1.8222614526748657,6.301743507385254,1.647472858428955
1730869722.961688,-0.5424374341964722,1.6788346767425537,-9.800854682922363,-0.1436770274244794,0.14128578445599926,-0.020559708629930496,1.8163671493530273,6.3078293800354,1.6516636610031128
1730869723.0116978,-0.5280759334564209,1.7737380266189575,-9.778658866882324,-0.2124815217979868,0.18763148872036856,0.031050523218917603,1.8161479234695435,6.302358627319336,1.6520235538482666
1730869723.0616562,-0.4876287579536438,1.9000028371810913,-9.841463088989258,-0.25171318504684903,0.19189430160219062,0.06820947857148765,1.8159600496292114,6.284050464630127,1.6545050144195557
1730869723.1117327,-0.4225751757621765,2.0679469108581543,-9.895215034484863,-0.25186195407933293,0.15249984643536374,0.0845351085916179,1.815656065940857,6.263678073883057,1.6572997570037842
1730869723.1616375,-0.41651543974876404,2.1872916221618652,-9.879255294799805,-0.20977911766709134,0.07701753552573296,0.07775291376642789,1.8146119117736816,6.251763343811035,1.6590956449508667
1730869723.2116764,-0.3968915641307831,2.2883009910583496,-9.929459571838379,-0.1366763761997421,-0.016116070656612018,0.05265353601162116,1.813117265701294,6.23978328704834,1.661077857017517
1730869723.261649,-0.4358275830745697,2.303952217102051,-9.794393539428711,-0.05476732779338124,-0.10467892379104833,0.020273453166030284,1.8113808631896973,6.227663040161133,1.6631505489349365
1730869723.3116536,-0.5335906147956848,2.3365390300750732,-9.730513572692871,0.012825546222834609,-0.17343498909049704,-0.0058407134904039475,1.8155707120895386,6.240545749664307,1.6596604585647583
1730869723.361624,-0.6374276280403137,2.3768703937530518,-9.718046188354492,0.04977972312480408,-0.2171963479737423,-0.014216617661767215,1.8153719902038574,6.232786178588867,1.6604688167572021
1730869723.4116285,-0.6991598606109619,2.410421371459961,-9.688474655151367,0.04997684588604996,-0.23523118781074617,-0.0016643612595680672,1.8146514892578125,6.217267036437988,1.6621419191360474
1730869723.4616573,-0.7724552154541016,2.443455934524536,-9.685136795043945,0.01825945129325028,-0.22716895825085492,0.02384746353492513,1.814318060874939,6.205506324768066,1.6633827686309814
1730869723.5116122,-0.7485546469688416,2.5657291412353516,-9.712571144104004,-0.03126676827944526,-0.19612828337317728,0.048659030205437076,1.8134653568267822,6.2011919021606445,1.664078712463379
1730869723.5616014,-0.8684629201889038,3.9508979320526123,-9.67402458190918,-0.0803072987146374,-0.15871032557465764,0.06171297745120219,1.8127785921096802,6.191071510314941,1.6653532981872559
1730869723.6115975,-0.6999577879905701,3.491774797439575,-9.076664924621582,-0.11376769569733526,-0.15442449011317894,0.0624776336448952,1.8119953870773315,6.178430080413818,1.6658170223236084
1730869723.6615536,-0.824286699295044,3.2906107902526855,-10.556622505187988,-0.1245809788124551,-0.22309124066854172,0.05788729237430004,1.8098104000091553,6.154503345489502,1.6679359674453735
1730869723.7125654,-0.595104455947876,3.32944393157959,-8.888836860656738,-0.11321679071948522,-0.35250714542160666,0.04708226369709926,1.8081343173980713,6.138937950134277,1.6695235967636108
1730869723.7626219,-0.7087298631668091,2.9644391536712646,-10.610060691833496,-0.08318804660681506,-0.4700725141465329,0.033485183519875575,1.806723952293396,6.128268241882324,1.6700304746627808
1730869723.81168,-0.6062240600585938,3.1535561084747314,-8.91716194152832,-0.038012715836878944,-0.5008239183440821,0.049660730237016615,1.8049561977386475,6.113006114959717,1.6713727712631226
1730869723.8626094,-0.5984085202217102,2.6599862575531006,-10.117408752441406,0.016040685388948747,-0.4214589900957879,0.1375390181889592,1.803095817565918,6.096004009246826,1.673005223274231
1730869723.9125605,-0.5984085202217102,2.6599862575531006,-10.117408752441406,0.06841242313902696,-0.26149177602120927,0.3053806657291059,1.801344394683838,6.078114032745361,1.6752116680145264
1730869723.9125605,-0.6110288500785828,2.8356852531433105,-9.367429733276367,0.10881240612935907,-0.07124354679184937,0.5136135772197012,1.8013060092926025,6.077691555023193,1.6752723455429077
1730869723.9625218,-0.6110288500785828,2.8356852531433105,-9.367429733276367,0.1317407362223614,0.10250359718212948,0.7080277094346525,1.8049856424331665,6.101203918457031,1.6725068092346191
1730869723.9625218,-0.5834951996803284,2.323051691055298,-9.479142189025879,0.13702466576722339,0.22695536731482774,0.8567808875607863,1.8049746751785278,6.100982189178467,1.6725667715072632
1730869724.0124807,-0.6033599376678467,2.43562912940979,-9.58797836303711,0.12759077084431453,0.2939444555818167,0.9353596853518673,1.803026556968689,6.082632541656494,1.6744756698608398
1730869724.0624607,-0.6552342176437378,2.180443048477173,-9.234959602355957,0.10685912304894803,0.31968532262530475,0.9084454045345738,1.802242398262024,6.069864273071289,1.680471420288086
1730869724.1124282,-0.6552342176437378,2.180443048477173,-9.234959602355957,0.07776353741651185,0.3257185773449791,0.765079542994838,1.8005365133285522,6.059615612030029,1.6767264604568481
1730869724.1124282,-0.6597673296928406,1.4716756343841553,-9.865102767944336,0.043637259469128165,0.32545608276508864,0.5458779834700487,1.8005144596099854,6.059360027313232,1.676813006401062
1730869724.1624227,-0.51971036195755,1.782413363456726,-9.194258689880371,0.010348596317891898,0.32938393689178186,0.3099215838498701,1.7995531558990479,6.048451900482178,1.6810518503189087
1730869724.2124133,-0.6303594708442688,0.27395105361938477,-10.026581764221191,-0.013110928399733227,0.35454961004001373,0.0951284028833809,1.7985312938690186,6.037839889526367,1.6860785484313965
1730869724.2623792,-0.6247918605804443,1.025019884109497,-9.682245254516602,-0.019349604715916756,0.4289278807447764,-0.08610153905860013,1.797613263130188,6.027824401855469,1.6771738529205322
1730869724.312363,-0.5757187604904175,1.0018061399459839,-9.860648155212402,-0.008635410533985475,0.5710268706469851,-0.2342285694155815,1.7965903282165527,6.018741130828857,1.6779670715332031
1730869724.3623466,-0.4849025309085846,1.0906306505203247,-9.966532707214355,0.012183159492397285,0.7450197679428024,-0.346355229823942,1.795552134513855,6.011086940765381,1.6780668497085571
1730869724.412339,-0.5215700268745422,1.3735953569412231,-10.027389526367188,0.03622516417200714,0.8591429267132731,-0.4120901047846013,1.7949919700622559,6.004964351654053,1.6768995523452759
1730869724.4623923,-0.25987452268600464,1.325905442237854,-10.082732200622559,0.06056006863999062,0.8312796567096485,-0.4266469195131639,1.7942488193511963,6.00011682510376,1.6756596565246582
1730869724.5123582,-0.372195303440094,1.612262487411499,-10.293079376220703,0.08583529419645024,0.6489538981491574,-0.3974599378504572,1.7936666011810303,5.997002601623535,1.673275351524353
1730869724.5624797,-0.18783871829509735,1.4199559688568115,-10.232202529907227,0.11390951457294875,0.37014811250220814,-0.3399968093142516,1.7921876907348633,5.972331523895264,1.6771841049194336
1730869724.6122334,-0.2776647210121155,1.5602868795394897,-10.392810821533203,0.14424956597641006,0.08189362308862629,-0.2738126022397519,1.791797161102295,5.9642534255981445,1.675673246383667
1730869724.6622348,-0.19892717897891998,1.4162520170211792,-10.146727561950684,0.169414081178375,-0.14221365466850336,-0.21530580373786365,1.7888654470443726,5.931548595428467,1.6788018941879272
1730869724.71228,-0.25833675265312195,1.3720775842666626,-10.13637924194336,0.17574976848068927,-0.26351973030998327,-0.16886148779654825,1.788151502609253,5.914680004119873,1.6781928539276123
1730869724.7623086,-0.2982567548751831,1.2775458097457886,-9.96961784362793,0.15313987391571776,-0.27962331932219847,-0.12753571546045223,1.7844352722167969,5.9025726318359375,1.6809289455413818
1730869724.812217,-0.35771122574806213,1.2249269485473633,-9.912290573120117,0.10325912386203875,-0.2145188319182028,-0.0823542520035827,1.7832146883010864,5.886739253997803,1.680949091911316
1730869724.862249,-0.37824851274490356,1.2615944147109985,-9.799511909484863,0.03831405347104094,-0.10655958340879065,-0.030106180946597907,1.7812141180038452,5.869564056396484,1.6825456619262695
1730869724.9121783,-0.3643214702606201,1.277587890625,-9.686498641967773,-0.024976170143110654,0.00301247337287568,0.025318357800566012,1.7800019979476929,5.854736328125,1.6828851699829102
1730869724.9621735,-0.30089032649993896,1.4300674200057983,-9.71786117553711,-0.07093108547121499,0.08089071951170732,0.07615829989105322,1.7759226560592651,5.829745769500732,1.684477686882019
1730869725.0121765,-0.22340595722198486,1.6415766477584839,-9.737167358398438,-0.08877840233178964,0.1083397508321888,0.11386420401984956,1.773468017578125,5.8113789558410645,1.685494303703308
1730869725.0621846,-0.35209977626800537,3.2302000522613525,-9.774076461791992,-0.07637838440504682,0.07480215583225772,0.1306381811289927,1.7703372240066528,5.800303936004639,1.6866246461868286
1730869725.1121798,-0.15236714482307434,2.8076229095458984,-9.328712463378906,-0.041897684059594195,-0.03085385698400539,0.12427160679068758,1.767164707183838,5.782166004180908,1.6881799697875977
1730869725.1621785,-0.31189945340156555,2.6427183151245117,-10.646134376525879,0.0015555011191450401,-0.19310726116768243,0.10076747455576751,1.7639325857162476,5.763694763183594,1.690023422241211
1730869725.212132,-0.2027297168970108,2.7356555461883545,-9.099174499511719,0.04338159699858534,-0.33738767539982306,0.06579165450528202,1.767441749572754,5.7688751220703125,1.6880669593811035
1730869725.2621212,-0.42972639203071594,2.368351936340332,-10.600593566894531,0.07587579580904191,-0.37136254436882216,0.01816644778025006,1.7660683393478394,5.754900932312012,1.6890285015106201
1730869725.3121605,-0.4615132808685303,2.544102191925049,-9.120962142944336,0.08932958601916742,-0.2614166343497281,-0.05042811421119371,1.7629433870315552,5.730993747711182,1.6898196935653687
1730869725.3620763,-0.6644928455352783,2.015251398086548,-10.121673583984375,0.07208614853594669,-0.050490808777290265,-0.1509122566003974,1.7596089839935303,5.708476543426514,1.690686583518982
1730869725.4120307,-0.7419378757476807,2.1496424674987793,-9.341550827026367,0.020555009203501867,0.18140838277608895,-0.2759626401054976,1.757658839225769,5.691877841949463,1.690792441368103
1730869725.4621377,-0.7890186905860901,1.758881688117981,-9.636456489562988,-0.052165547650214104,0.3599833565051014,-0.38051194409338246,1.755656123161316,5.675854682922363,1.690072774887085
1730869725.5121229,-0.6470683217048645,1.7372797727584839,-9.56879997253418,-0.12160888379355426,0.44246930752068736,-0.39757045642079997,1.7534319162368774,5.660830497741699,1.6883691549301147
1730869725.5620234,-0.8825929760932922,1.4607889652252197,-9.62126350402832,-0.16606637159495397,0.43164344650093134,-0.2869636990276099,1.7551801204681396,5.671098709106445,1.6916452646255493
1730869725.6120057,-0.05770247057080269,1.1308748722076416,-9.886285781860352,-0.17346514150655876,0.36922207596927603,-0.07208528187363068,1.753229022026062,5.661737442016602,1.6908435821533203
1730869725.6619925,-0.6572351455688477,0.7797195911407471,-9.865897178649902,-0.1348064018542504,0.307564779047538,0.1664203219926536,1.7508738040924072,5.653141021728516,1.6901541948318481
1730869725.71208,-0.682368278503418,0.8868253827095032,-10.105291366577148,-0.0453192418730063,0.28423513463683414,0.3305820864695761,1.751178503036499,5.644566535949707,1.6936630010604858
1730869725.7620738,-0.45562800765037537,1.0233392715454102,-9.88017463684082,0.07907260272655842,0.3094952013326734,0.35793342511185067,1.7494175434112549,5.634891510009766,1.6952970027923584
1730869725.8120172,-0.6625205278396606,1.210532546043396,-10.105202674865723,0.2011552523731157,0.3579818033544373,0.2565243923873032,1.748024344444275,5.626152992248535,1.6976808309555054
1730869725.862046,-0.5638623833656311,1.161231517791748,-10.005061149597168,0.2835991932917983,0.3770554960834319,0.0935346561677618,1.747170090675354,5.60707426071167,1.6962841749191284
1730869725.9120126,-0.6607995629310608,1.2069884538650513,-10.032011032104492,0.3061432418528096,0.3234747298096837,-0.0525914133523831,1.7442264556884766,5.570434093475342,1.6973663568496704
1730869725.9619846,-0.6750453114509583,1.1586147546768188,-10.111865043640137,0.26946784955439235,0.19803561874105363,-0.13449241311802068,1.7436912059783936,5.553426742553711,1.698076605796814
1730869726.011964,-0.6021832823753357,1.132714033126831,-10.014402389526367,0.19109008394140728,0.04443047204076848,-0.1467067530272844,1.7401179075241089,5.534550666809082,1.6987351179122925
1730869726.0620103,-0.5457080006599426,1.2233847379684448,-10.123512268066406,0.09867528935327108,-0.08227912170785054,-0.11193705341054655,1.7391374111175537,5.517879486083984,1.6989942789077759
1730869726.111973,-0.4828190803527832,1.2203508615493774,-9.946066856384277,0.021085420042257847,-0.1488340676881476,-0.06068566768785667,1.7383135557174683,5.501049518585205,1.699036717414856
1730869726.161984,-0.4635789394378662,1.3560737371444702,-10.056884765625,-0.02165870592420694,-0.15624646841782638,-0.01638984832205225,1.7374824285507202,5.483706474304199,1.6989831924438477
1730869726.2120435,-0.40173617005348206,1.37041437625885,-9.926584243774414,-0.02337949343120285,-0.130315159267688,0.010584999338577785,1.7363014221191406,5.494950294494629,1.7003278732299805
1730869726.2619267,-0.39834800362586975,1.4653359651565552,-9.877511024475098,0.00894068808792599,-0.1024225668210281,0.021472867629554793,1.732847809791565,5.459943771362305,1.701660394668579
1730869726.311977,-0.3885985016822815,1.537308692932129,-9.780895233154297,0.05765641596110998,-0.09183562122050302,0.02393707400402826,1.7311502695083618,5.439840316772461,1.7024377584457397
1730869726.361814,-0.3571076989173889,1.6664847135543823,-9.771907806396484,0.10035178226743077,-0.09953402985566831,0.02655007889873922,1.729786992073059,5.421249866485596,1.703208088874817
1730869726.4118562,-0.32658544182777405,1.7805895805358887,-9.789324760437012,0.1206355017439399,-0.11740811100583393,0.03481452540804694,1.7286274433135986,5.401443958282471,1.7040935754776
1730869726.4619734,-0.2593512535095215,1.9064499139785767,-9.772001266479492,0.11622108152322184,-0.1414243530030192,0.04964767738854191,1.7278265953063965,5.415246963500977,1.7035458087921143
1730869726.5119014,-0.20190218091011047,2.024946928024292,-9.814424514770508,0.09715166837630893,-0.17363104591272321,0.06748455613644463,1.7270557880401611,5.402503967285156,1.7042584419250488
1730869726.5618827,-0.12007433921098709,2.142786979675293,-9.83009147644043,0.07708186061816288,-0.21259168498244285,0.0809305354033087,1.7222994565963745,5.370111465454102,1.7049442529678345
1730869726.611848,-0.1030566617846489,2.31139874458313,-9.921560287475586,0.06526955281295102,-0.2479514142179814,0.08111688568644412,1.7204028367996216,5.349373817443848,1.7059388160705566
1730869726.6618562,-0.2995848059654236,3.743882417678833,-9.840852737426758,0.0622486569747174,-0.27444583065622313,0.06299771614476651,1.7186086177825928,5.327346324920654,1.7071444988250732
1730869726.7118511,-0.2379131019115448,3.2570960521698,-9.302549362182617,0.05898220709741381,-0.3145102114755523,0.032643853960280245,1.71702241897583,5.305355548858643,1.708425760269165
1730869726.7618482,-0.4513266086578369,3.026670455932617,-10.604637145996094,0.04204255742347894,-0.4083487572210736,0.006047153687942506,1.7154455184936523,5.280664443969727,1.7098580598831177
1730869726.8118236,-0.3088357150554657,3.0129990577697754,-8.956449508666992,0.0024616744520489526,-0.5680222858017583,-0.00607744299534418,1.71782648563385,5.320724964141846,1.7061030864715576
1730869726.8618417,-0.5199565887451172,2.6284914016723633,-10.569146156311035,-0.058300214708334804,-0.7510496479088874,-0.008982751825772873,1.7167317867279053,5.306136608123779,1.7064954042434692
1730869726.9117668,-0.48340314626693726,2.751997709274292,-8.935857772827148,-0.1278915714702956,-0.8759059675748668,-0.025095307216880604,1.7107447385787964,5.273189544677734,1.707290530204773
1730869726.9617393,-0.5987470149993896,2.261173963546753,-10.026375770568848,-0.18869333318624806,-0.8626301113978642,-0.08464301464931356,1.707499384880066,5.248957633972168,1.707728385925293
1730869727.0117338,-0.6422821879386902,2.339550018310547,-9.189854621887207,-0.22615026773609911,-0.6806092173494482,-0.19940699547849913,1.7037160396575928,5.222662448883057,1.7078114748001099
1730869727.0618167,-0.7232996225357056,1.9488252401351929,-9.53253173828125,-0.23513961982881199,-0.36671974266246266,-0.3481475507697725,1.6992416381835938,5.1943840980529785,1.7071802616119385
1730869727.1117148,-0.7376827001571655,2.047208786010742,-9.519953727722168,-0.22242439431647387,0.0018840901968205787,-0.49071150541904907,1.703780174255371,5.208917140960693,1.7066364288330078
1730869727.161765,-0.8506222367286682,1.9104790687561035,-9.35067367553711,-0.2021009933849324,0.3447097521369545,-0.5894739090425818,1.7015702724456787,5.197656154632568,1.7046282291412354
1730869727.2117326,-0.7867122888565063,1.478080153465271,-9.830164909362793,-0.18498338345624415,0.5964740291720801,-0.6189565427147021,1.6983826160430908,5.158567905426025,1.708082675933838
1730869727.2616456,-0.7941936254501343,1.6680092811584473,-9.556527137756348,-0.1714998074037159,0.7179009876170539,-0.5688067461371236,1.6940828561782837,5.118610858917236,1.7094223499298096
1730869727.311592,-0.6808833479881287,0.31757014989852905,-10.048752784729004,-0.15421587848873583,0.7094046943589917,-0.45090996727431787,1.688891887664795,5.0819172859191895,1.7079623937606812
1730869727.3616982,-0.7054457068443298,1.096888780593872,-10.128829002380371,-0.12488677166741943,0.6191778968059154,-0.30407004676939753,1.6833457946777344,5.046854019165039,1.7055542469024658
1730869727.4116406,-0.5878628492355347,1.1194791793823242,-9.991814613342285,-0.07967290261767959,0.5228120261303877,-0.18462649291780064,1.677534818649292,5.013177871704102,1.7025283575057983
1730869727.4616668,-0.45308494567871094,1.1154083013534546,-10.25223445892334,-0.019963373323555147,0.47463054415836625,-0.13933739505833972,1.6866134405136108,5.056182861328125,1.7103289365768433
1730869727.5116165,-0.5003347396850586,1.415399432182312,-10.130207061767578,0.04882810095316405,0.4775902731299291,-0.17799415058027604,1.6840260028839111,5.038651943206787,1.7094666957855225
1730869727.5616088,-0.2525976598262787,1.1824743747711182,-10.150303840637207,0.11560576802758427,0.4919608038828976,-0.2655293362985637,1.6816458702087402,5.022344589233398,1.7080464363098145
1730869727.6115985,-0.3712659180164337,1.4260820150375366,-10.18506908416748,0.16528991777253382,0.46501481637267106,-0.33935999146835727,1.6828514337539673,5.020874500274658,1.7113282680511475
1730869727.6616404,-0.27316802740097046,1.1278433799743652,-10.035561561584473,0.18797353367840236,0.36860818052694544,-0.34733505072349025,1.6818013191223145,5.008860111236572,1.7098487615585327
1730869727.7115405,-0.42119696736335754,1.2320753335952759,-10.169217109680176,0.18336421219127474,0.22170333653109756,-0.27697053751794704,1.6812446117401123,4.997973442077637,1.7076449394226074
1730869727.7615113,-0.39207369089126587,1.089863896369934,-9.87489128112793,0.1565004521100759,0.07830550286239678,-0.15279467580102493,1.6762834787368774,4.961730003356934,1.7124277353286743
1730869727.8114634,-0.4752522110939026,1.1609818935394287,-9.903238296508789,0.11384406702933973,-0.009831804845909169,-0.01435867141297064,1.6746857166290283,4.9424591064453125,1.7117969989776611
1730869727.8614473,-0.3571915626525879,1.2313427925109863,-9.731423377990723,0.06325084369266601,-0.02688150869645662,0.10266498994930978,1.6700093746185303,4.911649227142334,1.7139965295791626
1730869727.9124398,-0.252347856760025,1.3755061626434326,-9.827149391174316,0.015265589687542146,0.002037875223688628,0.17479146471158594,1.6632578372955322,4.86046838760376,1.7154568433761597
1730869727.9624128,-0.1946096122264862,1.5571537017822266,-9.853236198425293,-0.01784133565495661,0.03448624168482829,0.1932211461410829,1.6592339277267456,4.827632427215576,1.7167084217071533
1730869728.0124025,-0.15578433871269226,1.6932134628295898,-9.81539249420166,-0.027336525367055955,0.038206980094160334,0.1637565480956941,1.6549293994903564,4.7930779457092285,1.718488335609436
1730869728.062425,-0.19481894373893738,1.87412428855896,-9.832549095153809,-0.01323768236019749,0.0006585733244808892,0.10431156922244685,1.657848596572876,4.823297500610352,1.7165262699127197
1730869728.112429,-0.2652418911457062,1.9835649728775024,-9.763293266296387,0.015397988838568535,-0.07440760939676896,0.03887319520896643,1.6555790901184082,4.806187152862549,1.71741783618927
1730869728.1624389,0.3445160686969757,2.905773639678955,-9.815987586975098,0.046679957380423735,-0.17252938885751545,-0.011401455654483101,1.653403639793396,4.7889018058776855,1.7183369398117065
1730869728.212408,0.406881183385849,3.0105466842651367,-9.49428653717041,0.0789870797811049,-0.28281015548678035,-0.0337301452573255,1.651398777961731,4.771203994750977,1.719193696975708
1730869728.262364,0.4644564688205719,3.30531644821167,-9.968531608581543,0.12718621675403977,-0.4127040064258894,-0.02442746777437389,1.6530011892318726,4.787703514099121,1.7166651487350464
1730869728.3123493,-0.038722142577171326,2.6794979572296143,-9.646885871887207,0.20272030646476755,-0.5694365454254944,0.010233902263828228,1.6519641876220703,4.773667335510254,1.7168654203414917
1730869728.3623242,-0.7740069031715393,1.9077881574630737,-9.854520797729492,0.2782108417520164,-0.709752192745131,0.056764888066439555,1.6515039205551147,4.757852554321289,1.717151403427124
1730869728.4125338,-1.5277001857757568,1.3341655731201172,-9.875336647033691,0.2770202273440061,-0.7248769265728755,0.10234942154200195,1.6476049423217773,4.7500128746032715,1.717042326927185
1730869728.4623094,-1.6213312149047852,1.0997895002365112,-10.010009765625,0.12132318393725003,-0.5136859392157489,0.13653530544217232,1.641912579536438,4.71712589263916,1.7173601388931274
1730869728.5123165,-1.6848188638687134,1.47933828830719,-9.622096061706543,-0.1842158140603219,-0.09194244892649667,0.1503592038836746,1.639344334602356,4.696220874786377,1.7181673049926758
1730869728.5623097,-1.7357674837112427,1.5439350605010986,-10.009448051452637,-0.5261152029291871,0.381392320330177,0.14358340728936178,1.6329352855682373,4.67026948928833,1.7180583477020264
1730869728.6122713,-1.5075745582580566,1.6004478931427002,-9.466436386108398,-0.7586789380273435,0.7047305355663583,0.12882403084561433,1.6264393329620361,4.6466522216796875,1.7191212177276611
1730869728.662361,-1.697652816772461,1.7000735998153687,-9.855273246765137,-0.7976965805150006,0.765722786994535,0.12406936705275681,1.6187620162963867,4.627237796783447,1.7203760147094727
1730869728.7123666,-1.5314573049545288,1.6922564506530762,-9.460104942321777,-0.6491235328404243,0.5873548675455994,0.14237059077243433,1.627177357673645,4.640837669372559,1.7184152603149414
1730869728.7622511,-1.4757412672042847,1.8443236351013184,-9.812140464782715,-0.3846490824595866,0.28031246463935333,0.1830622523789456,1.6219710111618042,4.6295366287231445,1.719381332397461
1730869728.8123012,-1.375611662864685,1.8206543922424316,-9.768044471740723,-0.09893138836708895,-0.030531997578540304,0.22425437360733147,1.6212435960769653,4.604308605194092,1.7188109159469604
1730869728.8622973,-1.3806706666946411,1.9396734237670898,-9.798019409179688,0.1292404479818105,-0.2560728050831532,0.22974260236672006,1.6172523498535156,4.586850643157959,1.7200886011123657
1730869728.912311,-1.2604010105133057,2.0988569259643555,-9.835908889770508,0.25814950967441735,-0.36154511573394144,0.177885541767654,1.613541841506958,4.5674591064453125,1.7219966650009155
1730869728.962294,-1.0977044105529785,2.1354286670684814,-9.685287475585938,0.28705730822109515,-0.36240585589984065,0.08267282534935028,1.6108874082565308,4.54942512512207,1.7239989042282104
1730869729.0122685,-1.0100674629211426,2.295938730239868,-9.79007339477539,0.24878970655553675,-0.30580054833097814,-0.017987576992306083,1.6183310747146606,4.57098913192749,1.7189288139343262
1730869729.0622811,-0.7382301092147827,2.4294211864471436,-9.663272857666016,0.1919161644153292,-0.24419170551372027,-0.08823717923951044,1.6177802085876465,4.559586524963379,1.7191988229751587
1730869729.1121926,-0.5635040998458862,2.599029302597046,-9.872383117675781,0.1573287197741841,-0.21067941945288626,-0.11091426495109254,1.6122685670852661,4.532473564147949,1.718504548072815
1730869729.1621294,-0.4434177577495575,2.704349994659424,-9.715011596679688,0.16276213211337465,-0.2096717462808797,-0.0902796736620651,1.6072218418121338,4.49508810043335,1.7184604406356812
1730869729.2121239,-0.44066718220710754,2.782338857650757,-9.78747844696045,0.19966553315873864,-0.22560071833495512,-0.04430938226874533,1.6047251224517822,4.471090793609619,1.718213438987732
1730869729.2621307,-0.37833094596862793,2.7934627532958984,-9.746163368225098,0.2402204377232841,-0.23730194941186442,0.005500807544668106,1.6027735471725464,4.446477890014648,1.7179176807403564
1730869729.3121207,-0.3695206344127655,2.8757894039154053,-9.717188835144043,0.25552498968498855,-0.2302079627624751,0.04106432796622362,1.6014429330825806,4.421324729919434,1.7176804542541504
1730869729.3621264,-0.5894547700881958,4.2879228591918945,-9.676836013793945,0.23292243289051867,-0.21055246444908904,0.05335987157012546,1.600890040397644,4.457355499267578,1.7185543775558472
1730869729.4121175,-0.47203579545021057,3.7724449634552,-8.901843070983887,0.177726471377308,-0.2093397904257385,0.04898045728869875,1.5999791622161865,4.44356107711792,1.71873939037323
1730869729.4621127,-0.6819422841072083,3.556816577911377,-10.405576705932617,0.10595886941143631,-0.24324620768516264,0.04721645743017286,1.5952935218811035,4.419785499572754,1.7187161445617676
1730869729.512116,-0.5216213464736938,3.5409984588623047,-8.598732948303223,0.03751488115408174,-0.27317143486966766,0.06493522749197662,1.5932159423828125,4.400208473205566,1.7189738750457764
1730869729.5621085,-0.6819874048233032,3.1308469772338867,-10.381364822387695,-0.010520772238958363,-0.23991399443666478,0.11529545252171572,1.5908517837524414,4.376852989196777,1.719542145729065
1730869729.6120403,-0.6120976805686951,3.300917863845825,-8.784747123718262,-0.02953080250142415,-0.12717338844797643,0.21381806438820933,1.5889134407043457,4.357698440551758,1.7203601598739624
1730869729.662019,-0.653310239315033,2.7504522800445557,-9.89114761352539,-0.021785323748222944,0.03628494302703065,0.3653019039349003,1.5891472101211548,4.389947414398193,1.7192190885543823
1730869729.712002,-0.7002131342887878,2.928513526916504,-9.264039993286133,0.0017084591839581394,0.20881847687928703,0.5492988881950874,1.5874884128570557,4.3799262046813965,1.7209888696670532
1730869729.762011,-0.7545381188392639,2.4405548572540283,-9.484990119934082,0.02606838805364503,0.3500579517923089,0.7205152279764083,1.583133578300476,4.3519511222839355,1.7202792167663574
1730869729.8119745,-0.8898321986198425,2.6326231956481934,-9.431669235229492,0.03729895558275561,0.4250561803170613,0.8253989763493829,1.57688307762146,4.317285060882568,1.7207180261611938
1730869729.8620157,-0.9882324934005737,2.257028818130493,-9.486478805541992,0.027159730830296772,0.41811062778993124,0.8265106747532055,1.5732759237289429,4.296659469604492,1.7246941328048706
1730869729.9120176,-1.3852282762527466,2.4888224601745605,-9.631790161132812,-0.005165485205824577,0.34471249098145007,0.7158227164243833,1.5697298049926758,4.277177810668945,1.730557918548584
1730869729.9619808,-0.5015933513641357,1.5719932317733765,-9.324275970458984,-0.05426807493753183,0.2485483842761087,0.5171832492319124,1.5704946517944336,4.282176494598389,1.7216095924377441
1730869730.0119832,-0.14583025872707367,0.8687016367912292,-10.807062149047852,-0.10266369100124362,0.18694206139192626,0.27442212206691463,1.5679455995559692,4.270157337188721,1.7247079610824585
1730869730.0619764,0.28967347741127014,1.0888831615447998,-9.298419952392578,-0.11633822841153832,0.2042249473014719,0.024066289105176823,1.5637558698654175,4.244291305541992,1.7204641103744507
1730869730.1120071,-0.3430393934249878,1.1577223539352417,-10.644216537475586,-0.06675219272096823,0.29938452475337757,-0.21446693543232287,1.560473918914795,4.228997707366943,1.7211405038833618
1730869730.161931,-0.0895882323384285,1.3401048183441162,-9.6295747756958,0.03053096750218276,0.41754208021790346,-0.42627261384057513,1.5574424266815186,4.21826171875,1.7186633348464966
1730869730.2119827,-0.46785616874694824,1.282538652420044,-10.179332733154297,0.11287399135819826,0.4831117997476765,-0.5944763593466025,1.554461121559143,4.2057600021362305,1.7170504331588745
1730869730.2619448,-0.2778283953666687,1.4600255489349365,-9.960262298583984,0.12062805662724976,0.4502978247175143,-0.7005654258096867,1.5515846014022827,4.193638324737549,1.7137367725372314
1730869730.3119311,-0.29840272665023804,1.3630964756011963,-9.984851837158203,0.043388109181887624,0.3274013294296271,-0.7306674636229373,1.5534101724624634,4.183956623077393,1.7167507410049438
1730869730.3619578,-0.3184581995010376,1.606475830078125,-10.044766426086426,-0.08170422288735701,0.15989007797220917,-0.6862482377154895,1.545589804649353,4.152349948883057,1.7163846492767334
1730869730.4119701,-0.3920725882053375,1.4473985433578491,-9.935358047485352,-0.2001707848177139,-0.0009840623129670767,-0.5827333840954317,1.5413788557052612,4.135229587554932,1.712951898574829
1730869730.4618502,-0.46107715368270874,1.5946403741836548,-10.12761116027832,-0.2697147798798456,-0.11633347697996121,-0.4406358977521354,1.5356425046920776,4.116844654083252,1.7162102460861206
1730869730.5119631,-0.5703432559967041,1.450400710105896,-9.953489303588867,-0.27700502715133035,-0.1653729253630652,-0.2829662627752274,1.5296523571014404,4.097328186035156,1.713655948638916
1730869730.56182,-0.6756573915481567,1.451045274734497,-9.957559585571289,-0.236842978443656,-0.1479425410893446,-0.1332610736933193,1.5231068134307861,4.07769775390625,1.7106181383132935
1730869730.6118762,-0.6796707510948181,1.4189788103103638,-9.817117691040039,-0.17863258329074586,-0.08159977608690369,-0.007765590590373888,1.5293277502059937,4.085062503814697,1.7171053886413574
1730869730.6617863,-0.48333847522735596,1.4944201707839966,-9.842069625854492,-0.1291078743357705,0.0063939087903609575,0.08784939304692364,1.5256381034851074,4.072256565093994,1.7165454626083374
1730869730.7118201,-0.3675249516963959,1.6298530101776123,-9.890582084655762,-0.09615489385125134,0.08500743165565237,0.1508792071912005,1.5243725776672363,4.060319423675537,1.7184109687805176
1730869730.7617786,-0.7836851477622986,2.6824257373809814,-9.853602409362793,-0.06865878592959537,0.12104325970934807,0.17585862703415767,1.5208672285079956,4.047286510467529,1.718930959701538
1730869730.8118458,-0.5914504528045654,2.491330862045288,-9.417162895202637,-0.040221676323743766,0.08096062574120402,0.16356085783402224,1.5185151100158691,4.0319719314575195,1.719221591949463
1730869730.8617983,-0.7326177954673767,2.313325881958008,-10.449796676635742,-0.023726865674345912,-0.050465744165404725,0.126976996518968,1.5148186683654785,4.016592025756836,1.7200554609298706
1730869730.9117937,-1.225339412689209,2.511671543121338,-9.226225852966309,-0.03633213308519928,-0.2381184080636267,0.07465289542082629,1.5133461952209473,3.998704671859741,1.7194799184799194
1730869730.9618587,-1.2570909261703491,1.8582311868667603,-10.125167846679688,-0.08354161603458612,-0.3985319614551816,0.001388634694469374,1.5102169513702393,3.982226848602295,1.7199822664260864
1730869731.0117898,0.2052546739578247,1.5477280616760254,-9.80359172821045,-0.14723208205324542,-0.44576800648946324,-0.09843419051438568,1.5071519613265991,3.971072196960449,1.7191810607910156
1730869731.0618043,0.28273269534111023,2.0065314769744873,-9.82458782196045,-0.1752783417428496,-0.3399648385470205,-0.2200744010741707,1.503261923789978,3.9543323516845703,1.718766212463379
1730869731.1117687,0.14449723064899445,2.2542479038238525,-9.542288780212402,-0.11699028304966103,-0.12159674785763636,-0.3385005512997723,1.4994479417800903,3.9388606548309326,1.717746376991272
1730869731.16171,-0.1331927478313446,2.20176362991333,-10.008291244506836,0.015646422656398755,0.09477442050087057,-0.40893846611863427,1.4952037334442139,3.9221079349517822,1.7157062292099
1730869731.2117372,-0.1331927478313446,2.20176362991333,-10.008291244506836,0.1489910088621031,0.19049058314102202,-0.3999235631028216,1.4912787675857544,3.9061689376831055,1.7127145528793335
1730869731.2117372,-0.3626265823841095,2.605715751647949,-9.310108184814453,0.2064222566666018,0.11501713909617989,-0.31966610887569835,1.4911783933639526,3.9057466983795166,1.712620735168457
1730869731.2618423,-0.9676427841186523,2.0412421226501465,-10.208660125732422,0.14954201712597706,-0.10327703637630824,-0.20094574833415846,1.5071228742599487,3.936875104904175,1.7182000875473022
1730869731.3117206,-1.128572940826416,2.4328064918518066,-9.03083610534668,-0.017125192040218548,-0.38553316512949104,-0.07438658487828131,1.50710928440094,3.902984857559204,1.718235969543457
1730869731.3617823,0.042443182319402695,1.6904211044311523,-10.154295921325684,-0.24082661596701835,-0.6307650201284444,0.04064205624514361,1.506270170211792,3.8852005004882812,1.7177329063415527
1730869731.4117258,0.24684056639671326,1.4048186540603638,-9.662545204162598,-0.41277559448082646,-0.7396376252592842,0.12032985814996336,1.5062956809997559,3.869297981262207,1.7184902429580688
1730869731.4617317,1.1252081394195557,1.130199670791626,-9.995134353637695,-0.4109778672308607,-0.6475401098931591,0.12473820621853285,1.504245400428772,3.8502447605133057,1.718774676322937
1730869731.5116847,0.6637040376663208,1.2214137315750122,-10.199254989624023,-0.18884681478888254,-0.36746937628229714,0.03063874073057991,1.5014317035675049,3.829803705215454,1.7192553281784058
1730869731.5616884,0.7640705704689026,1.3848313093185425,-9.654289245605469,0.18146506623999228,0.000802842248546834,-0.1343063059032286,1.5101717710494995,3.832474946975708,1.7185165882110596
1730869731.6116362,0.4039057791233063,1.3081494569778442,-10.29463005065918,0.5547705496467279,0.3242002785810488,-0.308059724650624,1.5115935802459717,3.81784725189209,1.717873454093933
1730869731.6616778,0.4844745993614197,1.5924031734466553,-9.636068344116211,0.7914211802643478,0.5060385123883893,-0.4342196782257039,1.51652991771698,3.7956314086914062,1.7176798582077026
1730869731.7116752,0.3358357548713684,1.4071327447891235,-10.148226737976074,0.81377547294106,0.5189504692579168,-0.48651633788854054,1.5216217041015625,3.7785251140594482,1.7156635522842407
1730869731.7616298,0.6285037398338318,2.091763734817505,-9.803499221801758,0.6332849665242182,0.3971989566277652,-0.4702418717928871,1.528417706489563,3.762838125228882,1.7124989032745361
1730869731.8115861,0.948085606098175,2.6484010219573975,-9.720044136047363,0.3418223328151447,0.20027190342704865,-0.4098821410559224,1.5364947319030762,3.7477309703826904,1.7082072496414185
1730869731.8616261,0.8091719746589661,2.866464853286743,-10.16689682006836,0.06496792490391026,-0.030474217958484484,-0.33365819262613755,1.5211228132247925,3.7670271396636963,1.7166717052459717
1730869731.911561,0.5755482316017151,2.460569381713867,-9.493767738342285,-0.10099092685661709,-0.2759019779794667,-0.26205831380828104,1.5232951641082764,3.757777690887451,1.7146331071853638
1730869731.9616485,-0.16928425431251526,2.244330883026123,-10.260315895080566,-0.13797946942090594,-0.4952754620545282,-0.19829893421713538,1.5244150161743164,3.728196859359741,1.7168956995010376
1730869732.01161,-0.31542569398880005,2.0023467540740967,-9.325753211975098,-0.10663011857881231,-0.6095531193786429,-0.12702462751282512,1.52618408203125,3.709165573120117,1.7155877351760864
1730869732.06158,-0.8234435319900513,1.750822901725769,-9.957320213317871,-0.0893042136565731,-0.5568113490335689,-0.028767235336068588,1.5280723571777344,3.690504312515259,1.7174304723739624
1730869732.1116278,-1.172583818435669,1.3126329183578491,-9.332212448120117,-0.13001204512618542,-0.3469187969372488,0.10309383195923753,1.5297679901123047,3.6692488193511963,1.7170896530151367
1730869732.161606,-1.8781930208206177,0.38065236806869507,-9.94391918182373,-0.22632274332840496,-0.04662146793876118,0.2525199381500811,1.5327868461608887,3.6592752933502197,1.7182676792144775
1730869732.2115817,-2.238288402557373,-0.03474400192499161,-9.646418571472168,-0.35516003183793976,0.27108339193127307,0.38339727642132215,1.5337793827056885,3.64367413520813,1.7193037271499634
1730869732.2615502,-2.146651268005371,0.2604479491710663,-9.96215534210205,-0.48690178862139144,0.5477627066692334,0.4578221133142526,1.5387451648712158,3.622814416885376,1.7192459106445312
1730869732.311478,-1.9789769649505615,0.19809748232364655,-9.743666648864746,-0.5830503299548032,0.7296816380073687,0.45723293412472743,1.5393750667572021,3.6063435077667236,1.7213879823684692
1730869732.361576,-1.8472200632095337,0.42387279868125916,-9.987499237060547,-0.6021549459429891,0.7746322168335902,0.39043486178560427,1.5398499965667725,3.5951075553894043,1.7199478149414062
1730869732.4114926,-1.6553961038589478,0.5267756581306458,-9.933338165283203,-0.519971626186647,0.6764155015593831,0.285297072087932,1.5387365818023682,3.5797786712646484,1.7220758199691772
1730869732.4614766,-1.883270502090454,1.5778660774230957,-10.009347915649414,-0.34825189449984223,0.4667154244094308,0.17332909472668337,1.5365850925445557,3.5662693977355957,1.7247108221054077
1730869732.5114467,-1.6837530136108398,1.5066492557525635,-9.603277206420898,-0.13556674614062308,0.1875968340118228,0.08019823228737469,1.540753960609436,3.5677602291107178,1.7198617458343506
1730869732.5615098,-1.8048808574676514,1.3469172716140747,-10.572623252868652,0.055731944508954925,-0.12352097972863109,0.019711187061320544,1.5404071807861328,3.5569589138031006,1.7207356691360474
1730869732.6114469,-1.536630630493164,1.7291990518569946,-9.320711135864258,0.17923403364735252,-0.4133980887071942,-0.015907740133130857,1.5433498620986938,3.532649040222168,1.7193622589111328
1730869732.661431,-1.3730018138885498,0.6522009372711182,-10.52467155456543,0.22111487432841379,-0.604264248173423,-0.05230628618236997,1.5446722507476807,3.515284776687622,1.719565987586975
1730869732.7113974,-0.44645699858665466,0.8392044901847839,-9.61716365814209,0.20449683901103632,-0.6241450550507811,-0.1147053977707475,1.5460822582244873,3.5048041343688965,1.7190495729446411
1730869732.7614033,0.3246910572052002,0.2951759099960327,-10.340984344482422,0.1832384673918245,-0.4460607556377535,-0.2145169076331053,1.547999620437622,3.487414836883545,1.718612790107727
1730869732.8114371,0.04082341119647026,0.905331015586853,-9.590152740478516,0.21325558888453577,-0.11686589083611656,-0.3393472263907996,1.5476387739181519,3.473672866821289,1.7185633182525635
1730869732.861652,0.25187772512435913,1.007394552230835,-9.96746826171875,0.3101135676951105,0.24657609481841458,-0.4526526079302178,1.5495699644088745,3.4587526321411133,1.7169981002807617
1730869732.9113781,0.3001367151737213,1.0963890552520752,-9.679104804992676,0.4358530913668316,0.5111852889304135,-0.5143973151505153,1.5495814085006714,3.4473111629486084,1.7179467678070068
1730869732.9614334,0.40733081102371216,1.418959140777588,-9.865816116333008,0.5304924403048636,0.5941652582382778,-0.505649767810003,1.550700306892395,3.4222607612609863,1.7180336713790894
1730869733.011395,0.42064914107322693,1.2977609634399414,-9.781585693359375,0.5516185785619886,0.49350001350043043,-0.43456699148660116,1.554326057434082,3.4053587913513184,1.7154768705368042
1730869733.061487,0.44023486971855164,1.6807940006256104,-9.898393630981445,0.49062515087507247,0.27494849821354855,-0.32481680850113415,1.5586849451065063,3.3916573524475098,1.7123688459396362
1730869733.111444,0.44773197174072266,1.526185154914856,-9.952004432678223,0.3684607356172036,0.031192336932491627,-0.2036169757263597,1.564658284187317,3.3767004013061523,1.7082202434539795
1730869733.1613991,0.37290456891059875,1.7753621339797974,-9.987412452697754,0.22248136366232463,-0.1637590445863148,-0.09689327128712676,1.5521667003631592,3.386756420135498,1.7179594039916992
1730869733.2114084,0.3750748038291931,1.7805026769638062,-10.071456909179688,0.08985677875996681,-0.277175240517092,-0.025035718122273502,1.5522390604019165,3.3632051944732666,1.7188501358032227
1730869733.2614205,-0.07522124797105789,2.8762905597686768,-10.005767822265625,-0.007421422562112812,-0.31549051722921895,0.004358637140107685,1.5533744096755981,3.3500723838806152,1.7185214757919312
1730869733.3123488,0.047667305916547775,2.624798536300659,-9.511344909667969,-0.07058695467213011,-0.31749712870645674,0.0029986249493225235,1.5523937940597534,3.333519220352173,1.7194671630859375
1730869733.3623226,-0.4159085154533386,3.219597339630127,-10.564909934997559,-0.11871628481214656,-0.33661378287413335,-0.005810137343590904,1.5527352094650269,3.3175268173217773,1.7194095849990845
1730869733.412329,0.04754345118999481,3.594618320465088,-8.85888385772705,-0.16972943242582011,-0.40549250272276466,-0.011526033873513036,1.5524829626083374,3.2982208728790283,1.7197915315628052
1730869733.4623168,0.3667619824409485,2.619687080383301,-10.462403297424316,-0.22089453837902293,-0.5104439538571248,-0.026036773153635916,1.5521042346954346,3.280580759048462,1.719746708869934
1730869733.5122855,0.01585569605231285,1.757388949394226,-9.177589416503906,-0.24716165309745203,-0.5826677478291146,-0.0729369422331151,1.5511376857757568,3.261479377746582,1.719577670097351
1730869733.5622654,-0.03136906400322914,-0.06008023023605347,-10.072043418884277,-0.22525902454192476,-0.5043406550667933,-0.1745540739701449,1.5533580780029297,3.2692654132843018,1.7197442054748535
1730869733.6122196,-0.8553668856620789,0.5266550183296204,-9.746394157409668,-0.1632468066418155,-0.17411103389091526,-0.3289942877621743,1.5543371438980103,3.2418456077575684,1.7193639278411865
1730869733.6621418,-0.6477804780006409,0.6448523998260498,-9.167525291442871,-0.10110560001742493,0.3696608398649145,-0.4876109123221687,1.5541670322418213,3.2226994037628174,1.7178354263305664
1730869733.7122324,-1.1052759885787964,0.9945496320724487,-10.289843559265137,-0.07580663282082126,0.913944079628655,-0.5715138978187749,1.5537711381912231,3.204218864440918,1.7149244546890259
1730869733.7622356,-0.8463038206100464,1.3208507299423218,-9.181549072265625,-0.09068120538460686,1.211112808580258,-0.5307293423409327,1.5551282167434692,3.212482452392578,1.7184211015701294
1730869733.81222,-1.1553385257720947,1.188416838645935,-10.185104370117188,-0.12401735659264328,1.1440426766703795,-0.38464361520552515,1.554844856262207,3.2053701877593994,1.7158710956573486
1730869733.862199,-1.0488364696502686,1.527665615081787,-9.442432403564453,-0.1555304243611912,0.7719310202675782,-0.20667316795530605,1.5542044639587402,3.200592517852783,1.7125444412231445
1730869733.912182,-1.0180613994598389,1.4121062755584717,-10.114574432373047,-0.1777034159289311,0.2696825296228659,-0.08261211338781721,1.553156852722168,3.1971797943115234,1.708898901939392
1730869733.9621859,-1.0197046995162964,1.7061349153518677,-10.030753135681152,-0.19091334542641597,-0.17846070341297562,-0.07002799088321272,1.5575331449508667,3.1907100677490234,1.7184802293777466
1730869734.0121365,-1.0312080383300781,1.651388168334961,-10.151481628417969,-0.19573487884832919,-0.4603128220422545,-0.17451858742639728,1.5571327209472656,3.183306932449341,1.7174521684646606
1730869734.0621555,-0.8912953734397888,1.9181196689605713,-10.229095458984375,-0.1892128282327685,-0.5518578436133662,-0.3470131838474937,1.5608751773834229,3.1542158126831055,1.718891978263855
1730869734.112149,-0.7642882466316223,1.9018210172653198,-9.965656280517578,-0.16488282742348542,-0.49152774396039595,-0.5037343686136251,1.5609967708587646,3.139650344848633,1.7170888185501099
1730869734.1621723,-1.0879709720611572,2.8852906227111816,-10.02806568145752,-0.1193567837349075,-0.3510147012620301,-0.5676718617156578,1.5646811723709106,3.1116015911102295,1.7183858156204224
1730869734.2121572,-0.925801157951355,2.625372886657715,-9.378965377807617,-0.061074158222503824,-0.21088136591804812,-0.5025255291495212,1.568273901939392,3.0849905014038086,1.71845543384552
1730869734.2620738,-0.925801157951355,2.625372886657715,-9.378965377807617,-0.006460545580778203,-0.1261208775489496,-0.3209309609370417,1.5700405836105347,3.0639266967773438,1.7160944938659668
1730869734.2620738,-1.2119358777999878,3.10492205619812,-10.634418487548828,0.031161906075923534,-0.10234400971041795,-0.08404379081252261,1.5700874328613281,3.063361167907715,1.7160208225250244
1730869734.3121483,-0.5275838375091553,3.4840989112854004,-8.646272659301758,0.045320490465334456,-0.12034660134236963,0.112665025439361,1.5719023942947388,3.0420074462890625,1.7133989334106445
1730869734.3620994,0.22297342121601105,2.8921589851379395,-10.570478439331055,0.04563605426064626,-0.17232581892573137,0.1923076362433274,1.5738087892532349,3.020522117614746,1.7111749649047852
1730869734.4119866,0.3097994327545166,1.9127734899520874,-9.045135498046875,0.07147455987850049,-0.24997507008904615,0.14206674116126647,1.5728020668029785,3.0517492294311523,1.7193249464035034
1730869734.4620032,0.35786452889442444,0.41306567192077637,-10.362663269042969,0.16934981261019733,-0.3069281310731047,-0.00011813067297231777,1.5745106935501099,3.038834810256958,1.719401478767395
1730869734.5120022,-0.4988074004650116,0.25111156702041626,-9.549184799194336,0.33240568869821696,-0.25973364316372555,-0.18496339309791798,1.5768485069274902,3.0252013206481934,1.7192463874816895
1730869734.5619948,-0.06939475983381271,0.686484158039093,-9.653915405273438,0.475940456872322,-0.04270722773947021,-0.3743087000875913,1.5771615505218506,3.0221645832061768,1.719693660736084
1730869734.611948,-0.22038774192333221,1.0276902914047241,-9.750197410583496,0.4992153284295304,0.3254539088507857,-0.5362880745015458,1.580278754234314,3.0125324726104736,1.7180826663970947
1730869734.661942,0.025841686874628067,1.4255049228668213,-9.651701927185059,0.3716180115721699,0.7182186384284762,-0.6352000544847117,1.584559440612793,3.0038349628448486,1.7149919271469116
1730869734.711887,-0.26556360721588135,1.5282326936721802,-10.037785530090332,0.15034947826857123,0.955840727724325,-0.643038242269915,1.586816668510437,2.9874072074890137,1.7186896800994873
1730869734.761927,-0.16370870172977448,1.8221869468688965,-9.727279663085938,-0.07162164471041821,0.9144531133598965,-0.5599491976842109,1.5941352844238281,2.953230142593384,1.7187860012054443
1730869734.8119295,-0.3193873465061188,1.8315081596374512,-10.148324012756348,-0.22257988243897509,0.6055110674793874,-0.41583062645337177,1.5985960960388184,2.9366140365600586,1.7160691022872925
1730869734.8619466,-0.8513612747192383,2.8806047439575195,-9.879061698913574,-0.2794389243667218,0.15864145669530577,-0.2560332308506952,1.600164771080017,2.912065267562866,1.7188496589660645
1730869734.9119194,-0.7382680773735046,2.5121192932128906,-9.722570419311523,-0.267007601878431,-0.26855571069453665,-0.12473526288511408,1.602787971496582,2.892693519592285,1.717213749885559
1730869734.9619062,-1.019195795059204,2.406888961791992,-10.640345573425293,-0.22843135510645152,-0.5590177943644367,-0.048416457187625675,1.6047956943511963,2.8723134994506836,1.715364933013916
1730869735.011874,-1.1655322313308716,2.6415538787841797,-9.233288764953613,-0.1919279982843506,-0.6488205483380604,-0.03020453151422338,1.606287956237793,2.8503568172454834,1.713411569595337
1730869735.0619166,-0.8820679783821106,1.4217190742492676,-10.589665412902832,-0.16763496871791522,-0.5294225470420213,-0.05382852079608837,1.6041585206985474,2.8794806003570557,1.71945321559906
1730869735.1118996,0.027486687526106834,1.282096266746521,-9.457540512084961,-0.15197270447487798,-0.245700274534626,-0.08883903177374085,1.60508131980896,2.8657784461975098,1.7188292741775513
1730869735.1619146,-0.09257884323596954,1.0122230052947998,-10.255877494812012,-0.11821281438126965,0.11714484422468585,-0.0970528978482727,1.6056534051895142,2.8520591259002686,1.71797776222229
1730869735.211868,-0.08978405594825745,1.261863350868225,-9.298129081726074,-0.02600204215251644,0.45135669299192127,-0.040661737085527894,1.6085803508758545,2.850912094116211,1.72005033493042
1730869735.2618592,-0.10792949795722961,1.2758970260620117,-10.038225173950195,0.13851984233872758,0.6630979999342582,0.09405514072853532,1.6100386381149292,2.8420543670654297,1.719865083694458
1730869735.3118422,0.037378642708063126,1.3824002742767334,-9.522859573364258,0.335014480718641,0.7087236406582169,0.2651657365998048,1.6139832735061646,2.816265106201172,1.7208333015441895
1730869735.361883,-0.03698502480983734,1.5184977054595947,-9.921225547790527,0.48868273866918444,0.6006800427946315,0.3848244892019006,1.6175533533096313,2.804129123687744,1.7220181226730347
1730869735.4118176,-0.03687204048037529,1.569945216178894,-9.757182121276855,0.5390445289987172,0.391592626923283,0.381698041407691,1.621333122253418,2.776988983154297,1.721752405166626
1730869735.4618258,-0.07644163817167282,1.7154282331466675,-9.956694602966309,0.47242932340960353,0.1504782842009565,0.25107355125933695,1.6267032623291016,2.7443149089813232,1.7217847108840942
1730869735.511793,-0.10038008540868759,1.6987437009811401,-9.918835639953613,0.3208566791525781,-0.06022783485837119,0.04862992400706646,1.6322877407073975,2.7241530418395996,1.7229903936386108
1730869735.5618114,-0.1272401511669159,1.8375709056854248,-9.939505577087402,0.14037658554963445,-0.1992257252547124,-0.14670180891867957,1.638421654701233,2.703782558441162,1.7240660190582275
1730869735.6117365,-0.18302741646766663,1.912284255027771,-9.988285064697266,-0.015894727061745294,-0.25390962586884036,-0.2705700732021674,1.644690752029419,2.6829147338867188,1.7246166467666626
1730869735.661784,-0.2674126923084259,2.0569350719451904,-9.942256927490234,-0.1177210809852789,-0.24171469139435275,-0.29768510186135394,1.6311160326004028,2.707120656967163,1.7209699153900146
1730869735.7117732,-0.3275032043457031,2.1397225856781006,-9.973334312438965,-0.16238919195295742,-0.19899751947265526,-0.24337767002579513,1.6327155828475952,2.6948328018188477,1.7199429273605347
1730869735.7617607,-0.4157257080078125,2.1305503845214844,-9.823601722717285,-0.1651502537512179,-0.1588871656310143,-0.14585471532502997,1.6339263916015625,2.6818764209747314,1.7184041738510132
1730869735.8116932,-0.45945876836776733,2.143683910369873,-9.768885612487793,-0.1464643489404533,-0.13513326413370247,-0.04333765749126287,1.635373830795288,2.6724436283111572,1.7201201915740967
1730869735.8618426,-0.5534879565238953,2.1827938556671143,-9.734246253967285,-0.1246347431248458,-0.12435909568768096,0.0403323167187135,1.6368309259414673,2.658228874206543,1.719679355621338
1730869735.9116395,-0.6042891144752502,2.2208120822906494,-9.716845512390137,-0.1113808473123731,-0.11771625670039841,0.09570457842317943,1.63800847530365,2.6435258388519287,1.719405174255371
1730869735.961727,-0.6760774254798889,2.2957823276519775,-9.701216697692871,-0.1100232864889055,-0.10929627241300208,0.12131959693275292,1.6356894969940186,2.6381399631500244,1.7202963829040527
1730869736.0116763,-0.6917765736579895,2.3628461360931396,-9.652594566345215,-0.11816034442727791,-0.09908533951913334,0.12121837415478744,1.6375243663787842,2.6090009212493896,1.7203279733657837
1730869736.0616834,-0.7385008931159973,2.4330391883850098,-9.6781644821167,-0.12955249196689603,-0.09043510375519545,0.1038202507937248,1.6380800008773804,2.591965436935425,1.720750331878662
1730869736.111698,-0.7021799683570862,2.502588987350464,-9.63399887084961,-0.13500707136531204,-0.08549534686131674,0.07808461844892296,1.6425517797470093,2.5662245750427246,1.7202554941177368
1730869736.1616573,-0.753838062286377,2.5850610733032227,-9.663182258605957,-0.12727202087537176,-0.08449284017637038,0.05063832943015136,1.6439242362976074,2.5469038486480713,1.720585584640503
1730869736.2116876,-0.7110320925712585,2.6470487117767334,-9.704171180725098,-0.10597971930373953,-0.08719535978640829,0.025460779053667705,1.645001769065857,2.527400493621826,1.721010684967041
1730869736.2616484,-0.690792977809906,2.7065181732177734,-9.702543258666992,-0.07676350778199426,-0.09351245176712988,0.0037584224313079555,1.6458463668823242,2.5077757835388184,1.7214698791503906
1730869736.3117583,-0.6719648838043213,2.7425944805145264,-9.720444679260254,-0.04652591083542948,-0.1044418879112132,-0.015479712343616534,1.648413896560669,2.5322749614715576,1.720075011253357
1730869736.361663,-0.6643037796020508,2.7912864685058594,-9.691629409790039,-0.020009259296801293,-0.12117428180999446,-0.033020491512605325,1.6496950387954712,2.520383834838867,1.72005295753479
1730869736.4116611,-0.6631025671958923,2.8178951740264893,-9.690511703491211,0.00038906341230513734,-0.1406147822041276,-0.046692620423128994,1.6525242328643799,2.501558303833008,1.719655990600586
1730869736.4616594,-0.6842626333236694,2.892566204071045,-9.696789741516113,0.013466424809069644,-0.15425968710711382,-0.051877334807603495,1.654100775718689,2.4878454208374023,1.719399094581604
1730869736.511644,-0.6681435108184814,2.894381046295166,-9.668119430541992,0.01874099183346228,-0.15445451698322993,-0.045810491509289605,1.6557108163833618,2.4738056659698486,1.7190213203430176
1730869736.5616486,-0.6511549353599548,2.895744800567627,-9.641548156738281,0.016961370686592037,-0.14032382353076628,-0.030359485200282397,1.6586161851882935,2.4647369384765625,1.7191834449768066
1730869736.611507,-0.6482333540916443,2.874033212661743,-9.603012084960938,0.010686578693934662,-0.1168529361956881,-0.010094034844408586,1.6606345176696777,2.4509944915771484,1.7189139127731323
1730869736.6616478,-0.5959859490394592,2.9123282432556152,-9.602482795715332,0.0037847253212110136,-0.08992026700862725,0.010490794296752705,1.6635167598724365,2.428178548812866,1.7186611890792847
1730869736.711514,-0.5369359850883484,2.9533324241638184,-9.557381629943848,0.0002565307224882172,-0.06348463268052454,0.027920206769938852,1.6657594442367554,2.4113693237304688,1.7184629440307617
1730869736.7615561,-0.5221714973449707,3.0231082439422607,-9.581096649169922,0.0031491527496726995,-0.04106248516438033,0.040008790584227925,1.6715277433395386,2.3900985717773438,1.7181929349899292
1730869736.8114576,-0.5276427865028381,3.0941717624664307,-9.593632698059082,0.013043527170001252,-0.027218119297048607,0.04574749705809726,1.675062656402588,2.3709628582000732,1.718098521232605
1730869736.8614955,-0.5591202974319458,3.125765800476074,-9.564414978027344,0.026439544168256317,-0.02552592100618812,0.044816536663694534,1.6786348819732666,2.351825475692749,1.718117356300354
1730869736.9114535,-0.5145555734634399,3.2200310230255127,-9.560003280639648,0.036614164036448765,-0.03623668794263998,0.03798948639972915,1.6779741048812866,2.3608319759368896,1.7179583311080933
1730869736.9614327,-0.4979895055294037,3.253756523132324,-9.527029991149902,0.03815129956391507,-0.05664846676995439,0.02797336226213982,1.6803793907165527,2.3492510318756104,1.7180182933807373
1730869737.011366,-0.483076274394989,3.363166570663452,-9.524592399597168,0.031068621622090432,-0.0815645344567968,0.018749458667538278,1.682867407798767,2.3375158309936523,1.7181367874145508
1730869737.0614908,-0.5182732343673706,3.394237995147705,-9.505889892578125,0.02003507021713459,-0.10449301901975802,0.013751917305507563,1.6847866773605347,2.325582265853882,1.7175557613372803
1730869737.1113753,-0.5598955154418945,3.4238505363464355,-9.469316482543945,0.0099521252118602,-0.12106199087701786,0.014567157553095041,1.687423825263977,2.311894416809082,1.7175105810165405
1730869737.1613832,-0.6212718486785889,3.5558438301086426,-9.442750930786133,0.0021186742332179225,-0.12978939385236346,0.020647218626547982,1.6902073621749878,2.2971982955932617,1.7175096273422241
1730869737.2113993,-0.6743991374969482,3.5970544815063477,-9.387239456176758,-0.0065656862529871836,-0.1313297268031685,0.03027058988908954,1.6909176111221313,2.293104410171509,1.7170438766479492
1730869737.2615557,-0.69895339012146,3.64103364944458,-9.352405548095703,-0.02065188377698459,-0.1291721139014443,0.04198793064794373,1.6932114362716675,2.2803549766540527,1.7170370817184448
1730869737.3113396,-0.7493394017219543,3.7220664024353027,-9.266275405883789,-0.04091531988935072,-0.12696333739649096,0.05457657066437065,1.6982144117355347,2.255650520324707,1.7165248394012451
1730869737.3612897,-0.7846218943595886,3.7945876121520996,-9.30772590637207,-0.0623195956660198,-0.12485631334048261,0.06595365485033945,1.7042213678359985,2.2249205112457275,1.716098666191101
1730869737.411379,-0.8402454257011414,3.8987553119659424,-9.320833206176758,-0.0778855381570976,-0.12102958008698915,0.07248254712567306,1.7077463865280151,2.204784393310547,1.716148018836975
1730869737.461375,-0.8609811663627625,4.987800598144531,-9.288606643676758,-0.08365387529737972,-0.12005514414193137,0.06996650084874143,1.710916519165039,2.18526554107666,1.7163679599761963
1730869737.511265,-1.0545278787612915,4.938172817230225,-8.737696647644043,-0.08148047407411022,-0.1458632262369252,0.059918517644802854,1.7099003791809082,2.189227819442749,1.715530276298523
1730869737.561364,-0.9705072641372681,4.4388017654418945,-10.300934791564941,-0.07821774867599715,-0.22862669621021386,0.04772149652521339,1.7118641138076782,2.1746408939361572,1.7156343460083008
1730869737.611362,-0.9705072641372681,4.4388017654418945,-10.300934791564941,-0.07795366940148121,-0.35273267727250823,0.013733287093945154,1.7135833501815796,2.1597518920898438,1.7158108949661255
1730869737.611362,-0.9258396029472351,4.499187469482422,-8.48049259185791,-0.0748794664886703,-0.43972163701702627,-0.09088491688102282,1.7136023044586182,2.1595733165740967,1.715813159942627
1730869737.6612866,-0.9394956231117249,4.005349159240723,-9.942221641540527,-0.05848014113318078,-0.4079538476387867,-0.2815425879858741,1.7157691717147827,2.161360025405884,1.7146559953689575
1730869737.7112489,-0.9756703972816467,4.297055721282959,-8.728370666503906,-0.02506083257785313,-0.2369698354279559,-0.4989212650248125,1.7174805402755737,2.149691104888916,1.7132458686828613
1730869737.7623713,-0.8456646800041199,3.710808515548706,-9.291038513183594,0.01754755153661678,0.018506806978010118,-0.6400194755969222,1.719221830368042,2.1374752521514893,1.7103204727172852
1730869737.8122878,-1.0190296173095703,4.017605781555176,-9.006895065307617,0.05514405357186366,0.26163741789741124,-0.6117283675934788,1.7219823598861694,2.1303048133850098,1.7127164602279663
1730869737.8622193,-0.9002842903137207,3.5423312187194824,-9.148783683776855,0.07619789138533281,0.41310027456481585,-0.38811325739700336,1.7242064476013184,2.1203794479370117,1.7097772359848022
1730869737.9122043,-0.9685320854187012,3.69529390335083,-8.897008895874023,0.07802094110654823,0.45199057776170504,-0.04233761473376753,1.7288893461227417,2.0962347984313965,1.7124024629592896
1730869737.9621923,-1.0227665901184082,3.402968645095825,-9.281365394592285,0.06648897999458027,0.4101322619928646,0.28987783710274306,1.7322653532028198,2.0822877883911133,1.711590051651001
1730869738.0121813,-0.9973430037498474,3.3631324768066406,-8.93514633178711,0.04922126537306311,0.33825550130647697,0.4874877519409594,1.7323912382125854,2.0633130073547363,1.7135683298110962
1730869738.0622091,-1.0971345901489258,3.2446236610412598,-9.196626663208008,0.029723823247322027,0.27570770903860703,0.5007200253999529,1.7348480224609375,2.048767566680908,1.7151705026626587
1730869738.1121926,-1.1097893714904785,3.080141067504883,-9.359463691711426,0.00793252669769156,0.23889520922413235,0.3569951234350751,1.7369070053100586,2.033277988433838,1.7143831253051758
1730869738.1621714,-1.1506948471069336,3.05450701713562,-9.17719841003418,-0.01660451872662549,0.22481200382756186,0.12959561092385818,1.739147424697876,2.020339012145996,1.7159602642059326
1730869738.2122056,-1.0748900175094604,2.809647798538208,-9.646411895751953,-0.0415153559522703,0.2211719378144787,-0.09763649551391734,1.741283655166626,2.0081405639648438,1.7175564765930176
1730869738.262018,-1.13002610206604,2.844942808151245,-9.44367790222168,-0.06041154924260417,0.2172791631006505,-0.258665390314056,1.7410476207733154,2.0016732215881348,1.7135655879974365
1730869738.3120978,-0.9612874984741211,2.596423625946045,-9.763276100158691,-0.06597661544026186,0.21082116419749425,-0.32719764074338503,1.7424107789993286,1.9916131496429443,1.7127549648284912
1730869738.362043,-0.9467801451683044,2.6261298656463623,-9.703577041625977,-0.05318368340984607,0.20590219332838566,-0.3185246976320133,1.7436425685882568,1.981951117515564,1.7111363410949707
1730869738.4120722,-0.7462045550346375,2.3970706462860107,-9.910179138183594,-0.01923512955710178,0.20718444153331605,-0.27165371741691513,1.7447876930236816,1.9727760553359985,1.708775520324707
1730869738.4620447,-0.687781035900116,2.3819286823272705,-9.897425651550293,0.03722829026464546,0.21924378135418465,-0.2285280235483591,1.7464189529418945,1.9692246913909912,1.7122410535812378
1730869738.5120459,-0.49217504262924194,2.1968634128570557,-9.983604431152344,0.11393263749327638,0.24594631823483704,-0.21675591196197927,1.748167872428894,1.960536241531372,1.7109161615371704
1730869738.562041,-0.43617677688598633,2.0635874271392822,-9.984600067138672,0.19957848865683134,0.2835817257890054,-0.23708742019726342,1.7514094114303589,1.9326859712600708,1.7120543718338013
1730869738.611961,-0.3048571050167084,1.8946250677108765,-9.969574928283691,0.2736693908136197,0.318651211575981,-0.26544031086260167,1.7558314800262451,1.9026951789855957,1.7120579481124878
1730869738.662027,-0.26907089352607727,1.6812000274658203,-10.007122993469238,0.31572380959302876,0.336462550935382,-0.2723968364534514,1.7594977617263794,1.8868403434753418,1.710697889328003
1730869738.71199,-0.2165376842021942,1.5830658674240112,-9.866013526916504,0.31470058378666077,0.33044409307431755,-0.24254236851435537,1.7639797925949097,1.8716284036636353,1.70868980884552
1730869738.761845,-0.21396683156490326,1.422982931137085,-9.918045043945312,0.27326525098812704,0.3066159106638406,-0.17887998731994487,1.761649250984192,1.86319899559021,1.7119808197021484
1730869738.8119142,-0.21850892901420593,1.4125605821609497,-9.782505989074707,0.20660765124846403,0.28013711803179586,-0.0961737950005373,1.7650047540664673,1.850584626197815,1.7109609842300415
1730869738.8619246,-0.20889510214328766,1.218973994255066,-9.882740020751953,0.1344152542789978,0.26162407624796,-0.012623527851049265,1.7688202857971191,1.8384513854980469,1.7097957134246826
1730869738.9119296,-0.1917528212070465,1.0825519561767578,-9.794364929199219,0.0718995432702759,0.24963175502589258,0.056117663792509626,1.764236330986023,1.8312307596206665,1.712747573852539
1730869738.9619136,-0.1509404480457306,0.8049805164337158,-9.919472694396973,0.027152407092459575,0.24039826887719937,0.09993872364567383,1.7661681175231934,1.8205863237380981,1.7128162384033203
1730869739.0118482,-0.09633225202560425,0.5886869430541992,-9.88664436340332,0.002979233246235302,0.23699597482902174,0.11371367475770544,1.7681694030761719,1.810370922088623,1.7131563425064087
1730869739.0618176,-0.030780687928199768,0.3652345836162567,-9.940410614013672,-0.0008752762106795306,0.24812034090045748,0.09619005445345889,1.7701530456542969,1.8008681535720825,1.7137564420700073
1730869739.1117778,0.03785465657711029,0.22539570927619934,-9.974700927734375,0.014067148777253756,0.2855540606409463,0.05150107155013066,1.7662876844406128,1.7968226671218872,1.7138208150863647
1730869739.1617777,0.08456549048423767,0.14318619668483734,-10.00728988647461,0.04476589964811606,0.35595259753948155,-0.009595793155857457,1.7677534818649292,1.7636929750442505,1.7142378091812134
1730869739.2117984,0.10050998628139496,0.07231073081493378,-10.105474472045898,0.08323202239317772,0.4429058435102301,-0.07135558733701204,1.7691091299057007,1.7489889860153198,1.7143906354904175
1730869739.2617867,0.07933878898620605,0.060850340873003006,-10.082460403442383,0.11547370269276269,0.5046183138626901,-0.11796634377830811,1.770229458808899,1.7207897901535034,1.7144100666046143
1730869739.3118074,0.03858998045325279,0.013016964308917522,-10.153525352478027,0.1277688397121562,0.5023174232282068,-0.14031175557202702,1.7719316482543945,1.7041845321655273,1.7140815258026123
1730869739.3616948,-0.035012949258089066,0.03850258141756058,-10.089571952819824,0.11398256708864372,0.42816447794810136,-0.13858948238486074,1.7706431150436401,1.6847003698349,1.7149364948272705
1730869739.4116747,-0.09779970347881317,0.006708811968564987,-10.098392486572266,0.07690465549824525,0.3052966269363096,-0.11891535996430419,1.7717548608779907,1.6687583923339844,1.714557409286499
1730869739.4616776,-0.1644383668899536,-0.0037638170178979635,-10.027058601379395,0.02563060846124142,0.17064297111444524,-0.08876301045840637,1.7710586786270142,1.6455610990524292,1.7157052755355835
1730869739.5116904,-0.17473912239074707,-0.06502951681613922,-10.001859664916992,-0.027720180250873604,0.05802768039559374,-0.05443781357236065,1.7717084884643555,1.6266106367111206,1.7155845165252686
1730869739.5616667,-0.17473912239074707,-0.06502951681613922,-10.001859664916992,-0.07099969387618389,-0.01218933717584363,-0.02082878388815734,1.7701168060302734,1.6203596591949463,1.7165669202804565
1730869739.5616667,-0.24239404499530792,-0.0972222089767456,-9.962047576904297,-0.095092971298287,-0.03631327087021259,0.007852959502114884,1.770113229751587,1.619968056678772,1.7165712118148804
1730869739.611629,0.2218424677848816,-0.2083349972963333,-9.955595016479492,-0.09558338189743457,-0.024141824280426733,0.028532677751095,1.7698794603347778,1.6055350303649902,1.7167595624923706
1730869739.66163,-0.07394345104694366,-0.24420519173145294,-9.702268600463867,-0.07019631985206158,0.009134761709459246,0.04176838687590096,1.7694261074066162,1.5898597240447998,1.7170497179031372
1730869739.7116268,0.8205441832542419,-0.08230780065059662,-10.174250602722168,-0.01526873720851725,0.05010042614098355,0.0523102458344967,1.7694084644317627,1.592819094657898,1.7179750204086304
1730869739.7616484,0.5946159958839417,-0.2900872230529785,-9.619503021240234,0.071624614377649,0.08836167660750352,0.06502562404799,1.7692986726760864,1.5826324224472046,1.7185136079788208
1730869739.8115861,0.2907477021217346,-0.24161982536315918,-10.050477027893066,0.17467599897968766,0.11702742236289565,0.08405576939564663,1.7692866325378418,1.5542436838150024,1.7195820808410645
1730869739.8615878,0.29290327429771423,-0.3405432105064392,-9.683609008789062,0.2481480799499649,0.13472139293589488,0.11438076265323417,1.7699024677276611,1.5377274751663208,1.720593810081482
1730869739.91162,0.1713474839925766,-0.25013837218284607,-9.987545013427734,0.24676473268213567,0.14288267132370502,0.15614048751684392,1.7711443901062012,1.5214296579360962,1.7219533920288086
1730869739.9616125,0.2532183527946472,-0.4579877257347107,-9.972238540649414,0.1675678057872723,0.1418345773600986,0.199043453589493,1.7728973627090454,1.505580186843872,1.723749041557312
1730869740.0115645,0.11345438659191132,-0.40909096598625183,-10.102537155151367,0.047475827479069574,0.1335148696625995,0.2259688698477002,1.7693594694137573,1.5232841968536377,1.7216148376464844
1730869740.06157,0.1309656798839569,-0.5408389568328857,-10.08928394317627,-0.0682158577895217,0.12438301076508919,0.22240362231044541,1.7696672677993774,1.5136032104492188,1.7231776714324951
1730869740.1115491,0.07476542145013809,-0.3823542892932892,-10.1639986038208,-0.1472884749000316,0.1200675015525548,0.1850313569663163,1.769559383392334,1.4889758825302124,1.723423957824707
1730869740.1614933,0.10209408402442932,-0.3169277608394623,-10.114034652709961,-0.17618912939835008,0.11817486768285287,0.12363114286851332,1.7692312002182007,1.4733844995498657,1.7251447439193726
1730869740.2114427,0.02838842384517193,-0.22557063400745392,-10.02646255493164,-0.1588331732620462,0.10890405726154834,0.056857882874062945,1.7697248458862305,1.465217113494873,1.725368618965149
1730869740.261568,-0.05557743087410927,-0.143096923828125,-9.954689979553223,-0.11238656436102856,0.08272093580675144,0.0054412472134544,1.7692334651947021,1.452149748802185,1.7267497777938843
1730869740.3115234,-0.05557743087410927,-0.143096923828125,-9.954689979553223,-0.06001215271698769,0.038223140217030396,-0.016576902088198137,1.7718924283981323,1.436031699180603,1.7268203496932983
1730869740.3115234,-0.12504275143146515,-0.19113659858703613,-9.870962142944336,-0.02178902918475564,-0.01521947198532295,-0.008308451744888392,1.7718991041183472,1.4357328414916992,1.7268409729003906
1730869740.3616574,-0.18443062901496887,-0.19505974650382996,-9.884637832641602,-0.0077667740930403035,-0.06123158518882115,0.019836228406813934,1.7721670866012573,1.423217535018921,1.7277239561080933
1730869740.4114165,-0.18443062901496887,-0.19505974650382996,-9.884637832641602,-0.017362023433585415,-0.08440435464881559,0.05356984577211864,1.7748997211456299,1.3966209888458252,1.7289814949035645
1730869740.4114165,-0.29462239146232605,-0.3010716736316681,-9.911992073059082,-0.04339590563273983,-0.07797425972102104,0.08058675122257279,1.7749605178833008,1.3954765796661377,1.7290617227554321
1730869740.461599,-0.3148665428161621,-0.26512059569358826,-9.884812355041504,-0.0760672969892983,-0.04605496735337261,0.09272355108443023,1.7762324810028076,1.378111481666565,1.7305042743682861
1730869740.5114212,-0.3699936270713806,-0.2570043206214905,-9.765515327453613,-0.10576141833109898,-0.0006062253931433705,0.08748435496552248,1.777005910873413,1.3605444431304932,1.7320908308029175
1730869740.561416,-0.48021799325942993,-0.2591772675514221,-9.864351272583008,-0.12548425530285562,0.04285222113097976,0.06989413170174845,1.7774765491485596,1.3438748121261597,1.7337820529937744
1730869740.6113923,-0.48021799325942993,-0.2591772675514221,-9.864351272583008,-0.1333328685006679,0.07046502110214539,0.04968068876349657,1.7776579856872559,1.326612949371338,1.735689640045166
1730869740.6113923,-0.610386073589325,-0.315447062253952,-9.888551712036133,-0.13395019589668955,0.07593607267691523,0.03414740830732463,1.777658224105835,1.326262354850769,1.7357298135757446
1730869740.6616676,-0.6830800175666809,-0.4095812141895294,-9.987764358520508,-0.1371146133634239,0.06352683285844343,0.02426814579566433,1.7773650884628296,1.3448960781097412,1.7324573993682861
1730869740.711465,-0.5685425996780396,-0.4490022659301758,-9.987428665161133,-0.1511397183047289,0.04539113783116973,0.0161869898060453,1.7771950960159302,1.3342856168746948,1.7332960367202759
1730869740.761576,-0.48465827107429504,-0.46289387345314026,-10.041610717773438,-0.17112596050241805,0.03357996833442496,0.005697223991728241,1.7785438299179077,1.311783790588379,1.734255313873291
1730869740.8113859,-0.48465827107429504,-0.46289387345314026,-10.041610717773438,-0.17664696689067838,0.032504675985851106,-0.007794730221932513,1.7790511846542358,1.2898985147476196,1.7353237867355347
1730869740.8113859,-0.4431338310241699,-0.4216383099555969,-9.973958969116211,-0.14991542236175281,0.03808724279127179,-0.020850982129054497,1.7790446281433105,1.2895056009292603,1.7353461980819702
1730869740.8614423,-0.38934314250946045,-0.48069047927856445,-10.027274131774902,-0.09298492343005324,0.042451744029726596,-0.02805701095131815,1.7787941694259644,1.278866171836853,1.7359328269958496
1730869740.9112823,-0.27568483352661133,-0.5261887907981873,-9.970381736755371,-0.022657669656143638,0.04015767768499383,-0.025202126793454804,1.7782694101333618,1.2627341747283936,1.7367545366287231
1730869740.961376,-0.14056390523910522,-0.5388575196266174,-9.965524673461914,0.04572077968174311,0.03230680142354983,-0.011861319713235285,1.77971613407135,1.2578119039535522,1.7364060878753662
1730869741.0113504,-0.06559094786643982,-0.6047073006629944,-9.994100570678711,0.10587909120692224,0.025022718938299146,0.008523398636594084,1.7799997329711914,1.2334601879119873,1.7376993894577026
1730869741.0612972,-1.3889195919036865,-0.6763325333595276,-9.954845428466797,0.1481269736878979,0.02405482438184224,0.029604786115767834,1.780555009841919,1.2174546718597412,1.7385444641113281
1730869741.111316,-0.8327764868736267,-0.14067213237285614,-10.130107879638672,0.13903202313164306,0.028464938979033162,0.04372462764776826,1.7815083265304565,1.2008743286132812,1.7395199537277222
1730869741.161289,-0.6708199381828308,-0.1653388887643814,-10.26608657836914,0.03685112616729009,0.02475856901692108,0.043328013042014196,1.782619595527649,1.1853913068771362,1.7405402660369873
1730869741.2112925,-0.4035053849220276,0.12454555183649063,-9.974333763122559,-0.15870605910288513,-0.010249692490387135,0.022643574093069115,1.7836138010025024,1.1694072484970093,1.741675615310669
1730869741.2613,-0.42948922514915466,0.031154446303844452,-10.155668258666992,-0.3894371260649301,-0.09453159560306085,-0.01674489190400235,1.783921241760254,1.153350591659546,1.7428144216537476
1730869741.311268,-0.2564118206501007,0.26822203397750854,-9.787515640258789,-0.575823149883366,-0.22780600592130243,-0.06202453504260842,1.7786608934402466,1.2008872032165527,1.7396196126937866
1730869741.3613064,-0.30695149302482605,0.15871021151542664,-10.072458267211914,-0.6614546585145221,-0.3874084630958415,-0.09545341246811963,1.7761861085891724,1.1923781633377075,1.7397956848144531
1730869741.4112835,-0.20535282790660858,0.3213696777820587,-9.729714393615723,-0.6307698887603621,-0.5278071601408874,-0.10681968810013867,1.7745306491851807,1.170548439025879,1.7406182289123535
1730869741.4612765,-0.20235273241996765,0.2682110667228699,-10.018996238708496,-0.5042483229201004,-0.5942451447692153,-0.09983109246866267,1.7707587480545044,1.1567810773849487,1.7406418323516846
1730869741.5112739,-0.16360822319984436,0.3393157422542572,-9.78616714477539,-0.32510326902521025,-0.5553292682041208,-0.0871044540695334,1.7658356428146362,1.1412551403045654,1.740422010421753
1730869741.5612323,-0.2939422130584717,0.30664393305778503,-10.023720741271973,-0.14361328973970883,-0.4240849203834147,-0.08130075916963914,1.7705786228179932,1.1347061395645142,1.7430545091629028
1730869741.6111965,-0.5874108076095581,0.3319688141345978,-9.795198440551758,-0.0032410544264926677,-0.24726685775388452,-0.08786578121184904,1.7681890726089478,1.1206538677215576,1.7433393001556396
1730869741.6612236,-0.3937591314315796,0.4369097948074341,-10.044116973876953,0.06836138848976245,-0.07969241282996864,-0.0999136800875349,1.7659928798675537,1.106873869895935,1.743379831314087
1730869741.7112718,-0.8353624939918518,0.2598131000995636,-9.791267395019531,0.06439556519881529,0.0373067307529594,-0.10145311103196673,1.7638754844665527,1.0924766063690186,1.7431656122207642
1730869741.7611787,-0.5630979537963867,0.40303629636764526,-10.049406051635742,-0.002835728516887674,0.08773745709540469,-0.07986734656785735,1.767202615737915,1.1025105714797974,1.7455116510391235
1730869741.8122127,-0.6396613121032715,0.3557714521884918,-9.792349815368652,-0.10760153714315239,0.08093911603781535,-0.03521469610110871,1.7657480239868164,1.0926764011383057,1.7457681894302368
1730869741.862192,-0.5530292987823486,0.5020872354507446,-9.942365646362305,-0.2134445820434897,0.04096098849461953,0.02221388423598515,1.762371301651001,1.0600738525390625,1.7513474225997925
1730869741.912209,-0.6245362758636475,0.39179107546806335,-9.90634536743164,-0.2820010355917771,-0.00633681403537107,0.07920530526557143,1.7595008611679077,1.043855905532837,1.7532682418823242
1730869741.9622092,0.08149086683988571,0.6955564618110657,-9.880062103271484,-0.2880523706053518,-0.042099943344790586,0.12303177529820769,1.7566914558410645,1.0234050750732422,1.7576866149902344
1730869742.012178,-0.24078212678432465,0.5978680849075317,-10.076338768005371,-0.22650210261545844,-0.05881216949352767,0.1428757203266725,1.751999020576477,0.9912292957305908,1.7629441022872925
1730869742.0622067,-0.1784038096666336,0.6437297463417053,-9.978863716125488,-0.11645398040149445,-0.05858161195401018,0.13292201172484508,1.7479228973388672,0.969831645488739,1.7667549848556519
1730869742.112083,-0.3333815038204193,0.5860223174095154,-10.12255573272705,0.0005544319396736629,-0.04713468679537741,0.09661626028023534,1.7437256574630737,0.948424756526947,1.7708293199539185
1730869742.1621306,-0.2405247986316681,0.6326855421066284,-9.996304512023926,0.0827401141885817,-0.03058270315634674,0.0478146532629226,1.739628791809082,0.9269059896469116,1.7750858068466187
1730869742.2121162,-0.33002522587776184,0.5700603127479553,-10.064804077148438,0.11093571357385157,-0.014769369114565362,0.0043412090532459,1.7232199907302856,0.9632203578948975,1.7695139646530151
1730869742.2620668,-0.17897924780845642,0.614919900894165,-9.92991828918457,0.09133777710259183,-0.0036428118148972475,-0.02059664601829132,1.717113971710205,0.9531583189964294,1.7716144323349
1730869742.3120654,-0.281352162361145,0.6204559206962585,-10.024288177490234,0.04700594654319728,0.0012034037694714944,-0.02207120090804,1.6956838369369507,0.9488990306854248,1.774919033050537
1730869742.362051,-0.01905488222837448,0.8358615636825562,-9.835067749023438,0.006378846942705151,-0.0015068224490312008,-0.002810730959397315,1.6863247156143188,0.9402186274528503,1.7772566080093384
1730869742.4120243,0.15777023136615753,1.1783506870269775,-9.937971115112305,-0.007039468359285225,-0.01646807981128348,0.029775660858063286,1.677030324935913,0.9315764307975769,1.779611587524414
1730869742.462003,0.28255048394203186,1.259694218635559,-9.653003692626953,0.021474831208789243,-0.05485665737023489,0.06800613971684574,1.658561110496521,0.9230785369873047,1.7802823781967163
1730869742.512047,0.01801915653049946,0.9578726887702942,-9.935895919799805,0.09270671624938766,-0.12511957773916893,0.10555771296006206,1.6479082107543945,0.9140795469284058,1.7824686765670776
1730869742.5619974,-0.49049636721611023,0.12134172767400742,-9.60858154296875,0.17858558815155395,-0.20561312234453663,0.13276599792566882,1.6183562278747559,0.9026249051094055,1.7857774496078491
