Timestamp,IMU_Linear_Acc_X,IMU_Linear_Acc_Y,IMU_Linear_Acc_Z,Filtered_X,Filtered_Y,Filtered_Z,Pose_X,Pose_Y,Pose_Z
1730865946.8840554,-1.6525182723999023,1.072100281715393,-9.886634826660156,-0.07749874235677738,-0.24127456134554245,0.16943434631077608,-0.11761707812547684,-0.4964861273765564,-0.1171368956565857
1730865946.9339588,-1.6460669040679932,1.1705397367477417,-9.888028144836426,-0.03824946128254915,-0.2676478957989781,0.5016726522806727,-0.1507505178451538,-0.6363438367843628,-0.1501399725675583
1730865946.9839773,-1.5448205471038818,1.3515266180038452,-9.916738510131836,-0.04059553645770843,-0.2912228050393063,0.578041887179182,-0.0925801619887352,-0.39080095291137695,-0.09220180660486221
1730865947.0338826,-1.4505513906478882,1.3764179944992065,-9.885746955871582,-0.06582578253676756,-0.31184267567328894,0.47598241409291786,-0.06855206936597824,-0.289374977350235,-0.06827034056186676
1730865947.083904,-1.4505513906478882,1.3764179944992065,-9.885746955871582,-0.08987162040485593,-0.3375653708628841,0.29623179323639925,-0.26725783944129944,-1.128119707107544,-0.2661537230014801
1730865947.083904,-1.483825922012329,1.3574954271316528,-9.83907413482666,-0.09374177828925513,-0.3753200046248558,0.12532563499591093,-0.2720378339290619,-1.1482961177825928,-0.270913302898407
1730865947.1338828,-1.5220105648040771,1.4168083667755127,-9.791072845458984,-0.07195897142095525,-0.42386216263773785,0.015945284603451754,-0.9311649203300476,-3.9306321144104004,-0.9271107912063599
1730865947.1838188,-1.466209888458252,1.5062932968139648,-9.781386375427246,-0.03299755085576404,-0.4759333889477151,-0.015737379657535255,-1.677713394165039,-7.082551956176758,-1.670229196548462
1730865947.2339377,-1.466209888458252,1.5062932968139648,-9.781386375427246,0.00867025494711651,-0.5250679904909795,0.018204800683225393,-2.423293113708496,-10.231508255004883,-2.4123499393463135
1730865947.2339377,-1.6475468873977661,1.4503509998321533,-9.745635986328125,0.040788134759156075,-0.5684957905203694,0.09021351587903981,-2.4277150630950928,-10.250187873840332,-2.4167511463165283
1730865947.2838902,-1.7597566843032837,1.3032793998718262,-9.741059303283691,0.05433458428313464,-0.6037474517551202,0.17050878189706162,-2.5569674968719482,-10.797889709472656,-2.545217514038086
1730865947.3337905,-1.6816997528076172,1.2365984916687012,-9.753911018371582,0.041989121992121375,-0.6245013897230193,0.23698433203934377,-2.6402816772460938,-11.152355194091797,-2.6277318000793457
1730865947.3838024,-1.757475733757019,1.2633165121078491,-9.788309097290039,0.0018493507973905924,-0.6222066093960279,0.2786901428421788,-3.23287296295166,-13.66040325164795,-3.216468095779419
1730865947.4338114,-1.9410609006881714,1.2342725992202759,-9.715015411376953,-0.05955506371957459,-0.5931232938269408,0.29445921889761,-2.7189645767211914,-12.234097480773926,-2.7004544734954834
1730865947.4836771,-1.7980672121047974,1.2204742431640625,-9.816902160644531,-0.12978553578234373,-0.5410371283956522,0.28866103250643793,-3.1913797855377197,-14.33613109588623,-3.1674718856811523
1730865947.5337312,-1.6201061010360718,1.2407430410385132,-9.861479759216309,-0.18881060592532306,-0.47012819052629656,0.2634909563080668,-3.6620919704437256,-16.430082321166992,-3.6317269802093506
1730865947.5837328,-1.6201061010360718,1.2407430410385132,-9.861479759216309,-0.20758290362002363,-0.3804560639283468,0.21499359375052104,-3.36921763420105,-15.35498046875,-3.3383121490478516
1730865947.5837328,-1.6417081356048584,1.2559638023376465,-9.932706832885742,-0.16457170616872763,-0.2751337612717827,0.14102602549653687,-3.3716678619384766,-15.365923881530762,-3.340719223022461
1730865947.6336718,-1.4783844947814941,1.2720919847488403,-9.962823867797852,-0.06798256752233936,-0.1667013254349376,0.05105506138079192,-3.796527147293091,-17.263317108154297,-3.7579524517059326
1730865947.6836586,-1.4127205610275269,1.249739170074463,-9.95790958404541,0.04703221240020496,-0.07275110225403701,-0.03599905329817053,-4.224006175994873,-19.17259407043457,-4.1777143478393555
1730865947.7336457,-1.4345476627349854,1.2176520824432373,-9.960887908935547,0.14421401608539275,-0.006818710935441806,-0.10234618939983975,-3.8201918601989746,-17.639320373535156,-3.7755963802337646
1730865947.7836764,-1.6071974039077759,1.2252144813537598,-9.856568336486816,0.2034049952121207,0.0273988132658699,-0.13829421801968958,-4.206108570098877,-19.377466201782227,-4.15550422668457
1730865947.8337014,-1.532752275466919,1.1856809854507446,-9.923158645629883,0.21685444215150476,0.03556045913106912,-0.1414278022581718,-4.591991424560547,-21.117752075195312,-4.536247253417969
1730865947.8835726,-1.49844229221344,1.2116985321044922,-9.878271102905273,0.1838276997331073,0.028130013010263237,-0.11453653843127981,-4.1127119064331055,-19.245798110961914,-4.060389995574951
1730865947.9345996,-1.521494746208191,1.106750726699829,-9.946966171264648,0.11466158453718128,0.016054302092181387,-0.06692156528695245,-4.467002868652344,-20.858266830444336,-4.411254405975342
1730865947.9846032,-1.521494746208191,1.106750726699829,-9.946966171264648,0.031778326783097346,0.008603091421434212,-0.014815069379865231,-4.013730525970459,-19.15968132019043,-3.9617486000061035
1730865947.9846032,-1.521235466003418,1.066617727279663,-9.89339542388916,-0.03960142924872337,0.011765904072531141,0.024174836142267717,-4.01547908782959,-19.167728424072266,-3.963482141494751
1730865948.034629,-1.6524330377578735,0.9745575785636902,-9.893824577331543,-0.0829337831926513,0.026136909400731472,0.040821060087561645,-3.6458702087402344,-17.815690994262695,-3.596160888671875
1730865948.0845356,-1.6524330377578735,0.9745575785636902,-9.893824577331543,-0.0959204818583927,0.047014911012251484,0.03861964213686031,-3.9338529109954834,-19.153120040893555,-3.881122350692749
1730865948.0845356,-1.714928388595581,0.9513433575630188,-9.833707809448242,-0.08729573635978638,0.06693821663833345,0.02785331764545597,-3.9352240562438965,-19.15948486328125,-3.8824784755706787
1730865948.1347377,-1.6118273735046387,0.9223973155021667,-9.884674072265625,-0.06847201016066325,0.07862422906808364,0.01764426312146075,-4.223757743835449,-20.49835968017578,-4.167710781097412
1730865948.1846237,-1.3661701679229736,0.9260615110397339,-9.857068061828613,-0.0461439922957497,0.07864457819248499,0.012788251305249469,-4.512175559997559,-21.835834503173828,-4.452649116516113
1730865948.2345996,-1.2212275266647339,0.8862243294715881,-9.932165145874023,-0.017415830926776413,0.06952139132779989,0.013562011911305544,-4.036348342895508,-19.844886779785156,-3.9804704189300537
1730865948.2835228,-1.0323896408081055,0.8774198889732361,-9.941996574401855,0.027652414489989428,0.0573979985158131,0.01667641016770678,-4.293440341949463,-21.04094123840332,-4.234275817871094
1730865948.3344536,-1.2495695352554321,0.9381879568099976,-9.924843788146973,0.09169562639300466,0.04700835531220868,0.017803026529768444,-3.858912229537964,-19.214509963989258,-3.8029215335845947
1730865948.3844686,-1.4342632293701172,1.0002256631851196,-9.9284086227417,0.15729550096818157,0.038045393566316754,0.01477956941567935,-4.0979743003845215,-20.3326358795166,-4.039228439331055
1730865948.4344435,-1.6491162776947021,1.1198151111602783,-9.88106918334961,0.19237084819968672,0.02589957940604201,0.008850802256047025,-4.335758686065674,-21.446739196777344,-4.274672508239746
1730865948.4846096,-1.6491162776947021,1.1198151111602783,-9.88106918334961,0.16875215410222033,0.005018476823041793,0.0034703410909271088,-4.575833320617676,-22.573671340942383,-4.512820243835449
1730865948.4846096,-1.8150001764297485,1.2128596305847168,-9.911548614501953,0.07772458052095857,-0.028258505072164455,0.002136449498962337,-4.576997756958008,-22.579143524169922,-4.513976573944092
1730865948.5345068,-1.8747748136520386,1.2866096496582031,-9.855307579040527,-0.06700226109586302,-0.07442808515826684,0.006283930269685819,-4.060959339141846,-20.363420486450195,-4.0016021728515625
1730865948.5845046,-1.8972151279449463,1.2438414096832275,-9.890105247497559,-0.23486362302336317,-0.12937781509443483,0.014562476791919812,-3.6452128887176514,-18.582258224487305,-3.5882301330566406
1730865948.6345894,-1.8699368238449097,1.2726092338562012,-9.829380989074707,-0.3823547661789468,-0.18065589636121485,0.023670000975913496,-3.8439531326293945,-19.51871681213379,-3.7842037677764893
1730865948.6844258,-1.8699368238449097,1.2726092338562012,-9.829380989074707,-0.4625360589586738,-0.20939408459165976,0.03047961429306328,-3.4596540927886963,-17.865140914916992,-3.4017412662506104
1730865948.6844258,-1.9649289846420288,1.1705948114395142,-9.842905044555664,-0.44895991729378937,-0.2023816621397786,0.03415906031246614,-3.460477590560913,-17.86900520324707,-3.40254545211792
1730865948.7343395,-1.755480170249939,1.117276906967163,-9.814167976379395,-0.35283418198755323,-0.1597628130630928,0.03522016992589794,-3.6424312591552734,-18.72093963623047,-3.579740285873413
1730865948.7843802,-1.648979902267456,1.0715574026107788,-9.870731353759766,-0.21214943923782043,-0.09101429391203673,0.033288891026672936,-3.2866947650909424,-17.184553146362305,-3.225761890411377
1730865948.8343627,-1.619248390197754,1.0923936367034912,-9.766934394836426,-0.06705047474251903,-0.01007370080992041,0.027869651119992407,-3.4563357830047607,-17.97703742980957,-3.3896408081054688
1730865948.8843756,-1.5719029903411865,1.1600306034088135,-9.814069747924805,0.05313010403042231,0.06464252482202834,0.021059940174453902,-3.124162197113037,-16.540985107421875,-3.0602774620056152
1730865948.9342463,-1.4718180894851685,1.2043366432189941,-9.855443000793457,0.1310606122185325,0.11253335184632705,0.01709463034566747,-3.279898166656494,-17.27155113220215,-3.210655689239502
1730865948.9843962,-1.5622344017028809,1.2559999227523804,-9.844598770141602,0.1624928236443755,0.12018594460402318,0.017426965767536766,-2.9694883823394775,-15.927095413208008,-2.903486490249634
1730865949.0343103,-1.6065484285354614,1.3037285804748535,-9.91126537322998,0.15485516041058447,0.08927260417308466,0.018211461910175072,-3.112724542617798,-16.6042423248291,-3.042290687561035
1730865949.084335,-1.6464300155639648,1.3352413177490234,-9.848318099975586,0.12051616320925126,0.03463298868411534,0.014196244702574743,-3.2565879821777344,-17.285831451416016,-3.181997060775757
1730865949.1342292,-1.7890230417251587,1.2793657779693604,-9.847938537597656,0.07071690334678624,-0.02393207455153372,0.003867159669958739,-3.399508237838745,-17.964073181152344,-3.3209969997406006
1730865949.1843033,-1.9112098217010498,1.1769911050796509,-9.826825141906738,0.012258541329270282,-0.06896283732030482,-0.009265253183301313,-3.0486934185028076,-16.4246883392334,-2.97395396232605
1730865949.2342906,-1.7468112707138062,1.169215440750122,-9.872337341308594,-0.050848146919290516,-0.08910502152272082,-0.019709518038244143,-3.179680109024048,-17.0493106842041,-3.1013166904449463
1730865949.2843397,-1.7610691785812378,1.1731765270233154,-9.90518856048584,-0.1078383409229905,-0.0816638844883926,-0.02466802993458295,-2.8591697216033936,-15.637911796569824,-2.783853054046631
1730865949.3341703,-1.772855281829834,1.1963719129562378,-9.869773864746094,-0.13841383168230018,-0.05396526644548963,-0.025671872026762493,-2.9798648357391357,-16.21368408203125,-2.9007158279418945
1730865949.3842542,-1.7723252773284912,1.1582468748092651,-9.856871604919434,-0.1288083648340839,-0.01968983212392219,-0.02494345147174152,-3.1017165184020996,-16.79347038269043,-3.0184378623962402
1730865949.4341888,-1.5951693058013916,1.1924304962158203,-9.84045124053955,-0.08519814197190306,0.008422991920724526,-0.021484729899851063,-2.7799265384674072,-15.367551803588867,-2.7002811431884766
1730865949.4842129,-1.4303251504898071,1.1096744537353516,-9.871488571166992,-0.02542286200445968,0.023937909864623817,-0.012838972065543425,-2.8923542499542236,-15.902560234069824,-2.808467388153076
1730865949.5342839,-1.4494115114212036,1.127644419670105,-9.831385612487793,0.03540621760847682,0.028104681064187717,0.0002186218317174458,-2.599184513092041,-14.598089218139648,-2.5180089473724365
1730865949.5842733,-1.374488115310669,1.0864741802215576,-9.847817420959473,0.0880971304538389,0.027320026794711908,0.012921569287543452,-2.702768087387085,-15.0933198928833,-2.6176741123199463
1730865949.634126,-1.4525998830795288,1.0719263553619385,-9.802490234375,0.12560046468933764,0.027812110669863426,0.020395017008196417,-2.4317538738250732,-13.887929916381836,-2.3498752117156982
1730865949.684152,-1.5784028768539429,1.0320987701416016,-9.840079307556152,0.14096993190624374,0.031947009111194774,0.020988063666282808,-2.526665687561035,-14.346048355102539,-2.441539764404297
1730865949.734146,-1.5448294878005981,0.9901504516601562,-9.828018188476562,0.1288547688740236,0.038772127062427164,0.01583914996658045,-2.2765932083129883,-13.234004974365234,-2.1950833797454834
1730865949.7841535,-1.495914340019226,0.9905200004577637,-9.897010803222656,0.09019375346903863,0.04616226933106654,0.006618427617629727,-2.3633971214294434,-13.657419204711914,-2.2793357372283936
1730865949.8341901,-1.5989469289779663,0.96947181224823,-9.889765739440918,0.03625810875114653,0.05164292156905464,-0.005609552927970044,-2.1324119567871094,-12.62687873840332,-2.051478147506714
1730865949.8841543,-1.5671354532241821,0.9694827198982239,-9.91878890991211,-0.015171107585339254,0.05261352066705015,-0.01983721536737241,-1.9334907531738281,-11.741225242614746,-1.8557424545288086
1730865949.9341342,-1.4966825246810913,0.9941743016242981,-9.964380264282227,-0.048983222976488223,0.04745456410973949,-0.0340337040815299,-2.0080509185791016,-12.108123779296875,-1.9281885623931885
1730865949.984129,-1.4800490140914917,0.969645619392395,-9.981051445007324,-0.0577287363046967,0.03643294619329529,-0.045441262280536854,-2.0831305980682373,-12.476812362670898,-2.0011088848114014
1730865950.0342054,-1.459653377532959,1.016774296760559,-9.992463111877441,-0.041645647954096324,0.021485396055744826,-0.05252516017825895,-2.158129930496216,-12.84442138671875,-2.0739529132843018
1730865950.0840492,-1.5144121646881104,1.049118995666504,-9.973414421081543,-0.007552121578760352,0.005016455796662071,-0.055992895801696904,-1.941605567932129,-11.867804527282715,-1.8608911037445068
1730865950.1340241,-1.6105612516403198,1.0086636543273926,-9.94045639038086,0.03245182297472953,-0.011130613964921512,-0.05713054957743311,-2.010692596435547,-12.207687377929688,-1.9281888008117676
1730865950.1840804,-1.6105612516403198,1.0086636543273926,-9.94045639038086,0.06296660265619891,-0.024391731418080095,-0.0551946603605361,-1.8110758066177368,-11.304630279541016,-1.7318787574768066
1730865950.1840804,-1.5536221265792847,1.06661057472229,-9.94149398803711,0.07111770384981925,-0.030868426344691908,-0.047621223843339416,-1.811400055885315,-11.30623722076416,-1.7321964502334595
1730865950.2339597,-1.603241205215454,1.065562129020691,-9.964529037475586,0.05520114616180756,-0.02920521756744543,-0.033690679851010014,-1.8746275901794434,-11.619966506958008,-1.7942546606063843
1730865950.2839465,-1.879683494567871,1.0326447486877441,-9.866992950439453,0.024733984363249032,-0.023327595396180824,-0.01648750545055527,-1.9386653900146484,-11.938275337219238,-1.85726797580719
1730865950.3339956,-2.0737950801849365,0.9914940595626831,-9.809025764465332,-0.012501928668595563,-0.01862983646267758,0.0005042618521455457,-1.7388938665390015,-11.03207778930664,-1.6617635488510132
1730865950.3840535,-2.0737950801849365,0.9914940595626831,-9.809025764465332,-0.05827816912461392,-0.016921853990121694,0.016930796255039248,-1.7984213829040527,-11.32912540435791,-1.7202863693237305
1730865950.3840535,-1.8243703842163086,0.9407444000244141,-9.798154830932617,-0.11078256865760709,-0.01611312042848058,0.0330333873624023,-1.7987854480743408,-11.330940246582031,-1.7206437587738037
1730865950.4339852,-1.6435387134552002,1.0102969408035278,-9.805895805358887,-0.1488143106776504,-0.013196146783928896,0.045832181766611864,-1.6132408380508423,-10.485878944396973,-1.539353847503662
1730865950.4839067,-1.5730770826339722,1.1460793018341064,-9.76155948638916,-0.14176141617062463,-0.00780498439959879,0.051145942750948026,-1.6690560579299927,-10.762680053710938,-1.593446969985962
1730865950.5338778,-1.402429223060608,1.2469379901885986,-9.80485725402832,-0.0776789501746554,-0.005108238369452944,0.04796349116046568,-1.724215030670166,-11.034896850585938,-1.646518349647522
1730865950.5837739,-1.2801685333251953,1.27745521068573,-9.844583511352539,0.0257335850614119,-0.01484543571338522,0.03867643983118954,-1.7798452377319336,-11.309146881103516,-1.6998744010925293
1730865950.6338754,-1.3144124746322632,1.2810062170028687,-9.876189231872559,0.1381126504429516,-0.045137236296752425,0.025826255643535558,-1.8355460166931152,-11.584833145141602,-1.7534143924713135
1730865950.6837897,-1.3720238208770752,1.2254197597503662,-9.91110610961914,0.2355223837416426,-0.09574268566005657,0.009950578217156357,-1.8907322883605957,-11.860468864440918,-1.8068652153015137
1730865950.7338083,-1.4993278980255127,1.1518988609313965,-9.931300163269043,0.3038154826304268,-0.15608378475252346,-0.00979185809018566,-1.6710351705551147,-10.852341651916504,-1.5927677154541016
1730865950.78379,-1.6006672382354736,1.0863429307937622,-9.86929702758789,0.33399693404091757,-0.20827412432004178,-0.03294596647438016,-1.720070719718933,-11.106709480285645,-1.641713261604309
1730865950.8337855,-1.6006672382354736,1.0863429307937622,-9.86929702758789,0.3194596030859658,-0.23282567903312829,-0.05425617214021397,-1.5203325748443604,-10.193656921386719,-1.4486908912658691
1730865950.8337855,-1.81550133228302,1.01986563205719,-9.81452465057373,0.25855764341790166,-0.21670253553406504,-0.06418784961071403,-1.5205814838409424,-10.194999694824219,-1.448947787284851
1730865950.8837059,-1.9375649690628052,0.9927679896354675,-9.77560806274414,0.1587918205567025,-0.1609223844996971,-0.055562767293235595,-1.5638293027877808,-10.429479598999023,-1.493855357170105
1730865950.9336746,-2.0457820892333984,0.9714118242263794,-9.726194381713867,0.03498700124639423,-0.08052162103426863,-0.028596074970669686,-1.607008934020996,-10.665193557739258,-1.539046287536621
1730865950.9836621,-2.0869340896606445,1.0083929300308228,-9.737180709838867,-0.0970306121017273,0.0035552484060859223,0.010749511239881333,-1.4154587984085083,-9.78346061706543,-1.3537591695785522
1730865951.0336392,-2.0562994480133057,1.051559329032898,-9.758321762084961,-0.22150885009558363,0.07238588802985711,0.05373140675452471,-1.4553375244140625,-10.00102424621582,-1.3951762914657593
1730865951.083622,-1.9736506938934326,1.1039338111877441,-9.822582244873047,-0.3163478213585582,0.11215441759119812,0.08891282154710564,-1.2809569835662842,-9.198615074157715,-1.2272911071777344
1730865951.133597,-1.9302725791931152,1.1401413679122925,-9.887577056884766,-0.3541610059219773,0.11587977746927039,0.10370803153381497,-1.3189282417297363,-9.3993558883667,-1.264975666999817
1730865951.1835477,-1.8705997467041016,1.1601102352142334,-9.892549514770508,-0.3197414963881777,0.08653913064207995,0.09081430310757486,-1.160274624824524,-8.665130615234375,-1.111743688583374
1730865951.233644,-1.852792739868164,1.1702474355697632,-9.919771194458008,-0.2245780483480613,0.037399920079641255,0.05379873029281531,-1.1967759132385254,-8.85130786895752,-1.1461374759674072
1730865951.2836158,-1.850260853767395,1.1229956150054932,-9.914119720458984,-0.10169848446203872,-0.013234280476991836,0.0057294984621355845,-1.0518018007278442,-8.176758766174316,-1.005316972732544
1730865951.3335752,-1.8229795694351196,1.0839333534240723,-9.910886764526367,0.011074762423618496,-0.048992950711548376,-0.03741992556093335,-1.0859174728393555,-8.34916877746582,-1.0368987321853638
1730865951.3836124,-1.7985893487930298,1.0479875802993774,-9.888747215270996,0.08683445983753488,-0.060513368860675945,-0.06350450399082429,-0.9517098069190979,-7.7278242111206055,-0.9076354503631592
1730865951.4335694,-1.7535266876220703,0.9978740811347961,-9.872357368469238,0.11743455952190608,-0.04749657941235248,-0.0678088497066894,-0.833005428314209,-7.182260990142822,-0.7943784594535828
1730865951.4836032,-1.7225205898284912,0.9698752164840698,-9.863229751586914,0.11120460193101522,-0.017501690894756526,-0.053211281084385435,-0.8617106676101685,-7.332690715789795,-0.8219156861305237
1730865951.533507,-1.668954610824585,0.9353963732719421,-9.8529052734375,0.08470412411147571,0.0177231824061227,-0.027890583157407854,-0.8900280594825745,-7.482368469238281,-0.8494165539741516
1730865951.583536,-1.6359572410583496,0.9215210676193237,-9.852986335754395,0.055180124504154056,0.04745337539280491,-0.0014012958278470794,-0.918267011642456,-7.632474422454834,-0.8770476579666138
1730865951.6334298,-1.6144894361495972,0.9229671359062195,-9.850465774536133,0.0362277867593119,0.06629695068330124,0.019101681491124123,-0.7963476777076721,-7.064724445343018,-0.7601199150085449
1730865951.6834772,-1.6067534685134888,0.9610587358474731,-9.857247352600098,0.03455824072361737,0.07406900247345288,0.030429592474844065,-0.8222044706344604,-7.204044818878174,-0.7855713963508606
1730865951.7344527,-1.5976148843765259,1.0084751844406128,-9.867647171020508,0.04731233407119452,0.07161906095078928,0.03253804401875293,-0.709699809551239,-6.678926467895508,-0.6779544949531555
1730865951.7843916,-1.6114647388458252,1.0301212072372437,-9.874835968017578,0.06374138503216109,0.058293544017857135,0.027047416612732245,-0.7331888675689697,-6.807552337646484,-0.7012090086936951
1730865951.8344188,-1.5975745916366577,1.018343448638916,-9.889068603515625,0.07225631237628605,0.03478282768477811,0.016545666644061884,-0.7565552592277527,-6.936321258544922,-0.7244559526443481
1730865951.8845086,-1.6075562238693237,0.9683912396430969,-9.893061637878418,0.06705349583524278,0.006725443390314658,0.004124286122460954,-0.6467167735099792,-6.420650959014893,-0.6192123889923096
1730865951.934418,-1.626556634902954,0.905511736869812,-9.897462844848633,0.04957613631350134,-0.016529805491255753,-0.007438264182404952,-0.6678078174591064,-6.5397868156433105,-0.6405460834503174
1730865951.9844997,-1.6508206129074097,0.8503293991088867,-9.890620231628418,0.025643510166091617,-0.026320563859650377,-0.016043463850254583,-0.5657199025154114,-6.059662818908691,-0.5432223677635193
1730865952.034278,-1.668717384338379,0.7852784395217896,-9.882685661315918,0.001560813457530951,-0.018403503718969146,-0.020189498436400295,-0.5849016308784485,-6.17011022567749,-0.5629106760025024
1730865952.0843859,-1.668717384338379,0.7852784395217896,-9.882685661315918,-0.01801728464541922,0.0049978681264161,-0.019278051528674206,-0.49006786942481995,-5.723575115203857,-0.4726279079914093
1730865952.0843859,-1.666137456893921,0.7490000128746033,-9.847501754760742,-0.03032563160397639,0.03566090329084226,-0.013909626566136273,-0.49017271399497986,-5.724184989929199,-0.47273626923561096
1730865952.134316,-1.6244356632232666,0.7482098340988159,-9.854060173034668,-0.034132830487879545,0.06304312296071646,-0.00542517736880005,-0.50785231590271,-5.826735496520996,-0.4909727871417999
1730865952.1843207,-1.6244356632232666,0.7482098340988159,-9.854060173034668,-0.029288567859526875,0.07909551735239925,0.004683217163893356,-0.5256235599517822,-5.929183483123779,-0.509223461151123
1730865952.1843207,-1.5937052965164185,0.7874472141265869,-9.882034301757812,-0.01656236112625391,0.0810023844888448,0.014694421423958569,-0.525734007358551,-5.929818153381348,-0.5093366503715515
1730865952.2342668,-1.5707736015319824,0.8576775789260864,-9.910017013549805,0.0022811619545578202,0.07028957821200307,0.02229778910042818,-0.4339579939842224,-5.490038871765137,-0.42095449566841125
1730865952.2842512,-1.587791085243225,0.9232023358345032,-9.935588836669922,0.02428392293405801,0.04983796189608369,0.024846534134388896,-0.3527412712574005,-5.09957218170166,-0.34264636039733887
1730865952.3342435,-1.5839658975601196,0.9715844392776489,-9.951668739318848,0.04446913098807533,0.022595406752199225,0.020686009005422997,-0.3676040768623352,-5.187386989593506,-0.3579862713813782
1730865952.3842833,-1.6285433769226074,0.9795622229576111,-9.949352264404297,0.05632334312740597,-0.007340362037526239,0.010643264998728617,-0.2921144664287567,-4.821351051330566,-0.2847731113433838
1730865952.4342704,-1.6731714010238647,0.9589577913284302,-9.931402206420898,0.054994943421721156,-0.034289444163846085,-0.0018909741592911533,-0.3055081069469452,-4.903025150299072,-0.2988714575767517
1730865952.4843504,-1.7608195543289185,0.9085907340049744,-9.892904281616211,0.03964216549972254,-0.051912945293254534,-0.012161343360149438,-0.3188140094280243,-4.984994888305664,-0.3130198121070862
1730865952.5342863,-1.8198007345199585,0.8613375425338745,-9.845653533935547,0.012209605608528556,-0.05442323710979095,-0.015325832880301857,-0.24473980069160461,-4.6244707107543945,-0.24131745100021362
1730865952.5842535,-1.8743910789489746,0.8098325729370117,-9.812735557556152,-0.024194075603159955,-0.03890911107469245,-0.0080883704158505,-0.25680890679359436,-4.700544834136963,-0.2543516159057617
1730865952.634168,-1.8814746141433716,0.8248398900032043,-9.78154468536377,-0.063731783688829,-0.008525460791493127,0.008948560782203335,-0.18795368075370789,-4.361059188842773,-0.1873186230659485
1730865952.6841817,-1.8814746141433716,0.8248398900032043,-9.78154468536377,-0.09667878959943928,0.0269821493013754,0.030498702885248398,-0.19924937188625336,-4.431480884552002,-0.19922171533107758
1730865952.6841817,-1.8178749084472656,0.9012826681137085,-9.799697875976562,-0.11286605509149539,0.05507602046921492,0.04880505965719946,-0.1993257999420166,-4.431951999664307,-0.19930115342140198
1730865952.7341259,-1.7743693590164185,0.9895063042640686,-9.821540832519531,-0.1061157071169818,0.06504946125294679,0.0568765867415778,-0.13517935574054718,-4.112321853637695,-0.1362212598323822
1730865952.7841399,-1.7426655292510986,1.0704177618026733,-9.879551887512207,-0.07653032481487682,0.0511402932452412,0.05105675347226023,-0.1460140347480774,-4.177567481994629,-0.14693975448608398
1730865952.834016,-1.7173658609390259,1.144403100013733,-9.899643898010254,-0.03149499700425713,0.015134519670410027,0.03212175849730132,-0.08574159443378448,-3.8758556842803955,-0.08761016279459
1730865952.884022,-1.7238008975982666,1.201750636100769,-9.902915954589844,0.016055049550860553,-0.033345554093891616,0.004747330853367896,-0.09574218094348907,-3.9358370304107666,-0.09720820188522339
1730865952.9340377,-1.7238008975982666,1.201750636100769,-9.902915954589844,0.05271504389099783,-0.08050962315149561,-0.023542348926187843,-0.03896497189998627,-3.6520097255706787,-0.04149273410439491
1730865952.9340377,-1.7645459175109863,1.1820310354232788,-9.86949348449707,0.06962726485626686,-0.11327911515918175,-0.04424211472018802,-0.03901676833629608,-3.6523308753967285,-0.04154350236058235
1730865952.9839852,-1.83077871799469,1.1543887853622437,-9.82955265045166,0.06449711738571692,-0.1230271935934961,-0.050903412405375534,0.012668655253946781,-3.3944106101989746,0.008927431888878345
1730865953.0339887,-1.8594506978988647,1.0799541473388672,-9.79504680633545,0.04076107413906789,-0.1075898754677487,-0.04148870202034091,0.004704552236944437,-3.4463095664978027,0.0007329520303755999
1730865953.0839276,-1.8404059410095215,1.018115758895874,-9.759230613708496,0.006380420303650101,-0.07106918822882616,-0.019009498229002372,-0.003186197718605399,-3.498335599899292,-0.007521813735365868
1730865953.1339393,-1.7897979021072388,0.9865586757659912,-9.764646530151367,-0.02730498183501465,-0.021360918039648232,0.009811048183692361,-0.011124598793685436,-3.5506186485290527,-0.015810469165444374
1730865953.1840162,-1.698754072189331,1.0258070230484009,-9.786855697631836,-0.04848017808087422,0.03288821137288875,0.037530572007558376,0.04158620163798332,-3.284745216369629,0.03572330251336098
1730865953.2339149,-1.6195176839828491,1.096706748008728,-9.849236488342285,-0.048807459738991685,0.08254995934146626,0.05787726626190174,0.03423124551773071,-3.3326003551483154,0.028401795774698257
1730865953.2839737,-1.6195176839828491,1.096706748008728,-9.849236488342285,-0.026983231825999883,0.11619636994100244,0.06552794174896312,0.026739228516817093,-3.3804781436920166,0.021193718537688255
1730865953.2839737,-1.5690386295318604,1.1863417625427246,-9.894932746887207,0.010182666212833886,0.12209385669318149,0.05669199757632046,0.02668631076812744,-3.3808138370513916,0.02114362083375454
1730865953.3338645,-1.5596836805343628,1.2637195587158203,-9.941064834594727,0.051809156002478804,0.09428014353439579,0.031077178837998865,0.07808364927768707,-3.1169893741607666,0.07191425561904907
1730865953.384044,-1.5596836805343628,1.2637195587158203,-9.941064834594727,0.08823689528030058,0.03700622039787853,-0.00689077342646394,0.07154800742864609,-3.1604132652282715,0.06559592485427856
1730865953.384044,-1.59630286693573,1.3051685094833374,-9.960204124450684,0.111722401678502,-0.03400762712974826,-0.047670143865990645,0.07150766998529434,-3.1606857776641846,0.06555619090795517
1730865953.4338489,-1.6284863948822021,1.3273265361785889,-9.94701862335205,0.11555273536829072,-0.09612963866012145,-0.07875204160586952,0.06533512473106384,-3.20344614982605,0.05923943966627121
1730865953.4840422,-1.6553434133529663,1.316172480583191,-9.920696258544922,0.09645352905805366,-0.1315522130659621,-0.09070110499668718,0.11568967998027802,-2.945330858230591,0.10828585177659988
1730865953.5338588,-1.6599690914154053,1.2806527614593506,-9.860176086425781,0.057889649193402636,-0.13555455608068812,-0.08152764481225527,0.16193431615829468,-2.710482597351074,0.15251265466213226
1730865953.583919,-1.6765570640563965,1.1801283359527588,-9.819402694702148,0.010470276517191823,-0.11357557472666609,-0.05567720701621391,0.15756316483020782,-2.747525215148926,0.14682409167289734
1730865953.6338382,-1.6720153093338013,1.0732054710388184,-9.787087440490723,-0.03176255772826916,-0.07352822987313984,-0.020921059285270417,0.20114043354988098,-2.5266430377960205,0.18833009898662567
1730865953.6838663,-1.6663193702697754,0.9791675806045532,-9.763050079345703,-0.05774499167145566,-0.021929015656331444,0.01424758808034872,0.19728584587574005,-2.5603182315826416,0.1831984668970108
1730865953.7339408,-1.6707918643951416,0.9239218235015869,-9.750232696533203,-0.06370930464479899,0.03444917682259911,0.0425627943150075,0.1932622790336609,-2.5941247940063477,0.17811571061611176
1730865953.7837968,-1.6707918643951416,0.9239218235015869,-9.750232696533203,-0.0529176701072324,0.08691647034572558,0.059444300638013974,0.23534315824508667,-2.3769519329071045,0.21875429153442383
1730865953.7837968,-1.6994575262069702,0.9047927856445312,-9.781537055969238,-0.03294397616425577,0.12699434118636954,0.06375428544020488,0.23532144725322723,-2.3771321773529053,0.218728706240654
1730865953.8338177,-1.7137017250061035,0.9450106620788574,-9.824131965637207,-0.0126557584299493,0.14815546795008988,0.05666634306794138,0.2316804975271225,-2.407052755355835,0.21452699601650238
1730865953.8838098,-1.7199853658676147,1.0237822532653809,-9.900525093078613,0.000505755770272784,0.14567156735356177,0.03929514966579585,0.2714776396751404,-2.2003109455108643,0.2529696524143219
1730865953.933771,-1.7121604681015015,1.109671950340271,-9.941783905029297,0.0029535909851392483,0.11812830312851624,0.012421223519865831,0.3080418109893799,-2.011566162109375,0.28802022337913513
1730865953.9838536,-1.7125602960586548,1.1412822008132935,-9.991416931152344,-0.003587533391487892,0.07026735875406925,-0.020641575286671106,0.3054152727127075,-2.0349833965301514,0.28497976064682007
1730865954.033785,-1.7383090257644653,1.1559922695159912,-9.991555213928223,-0.01349413220829847,0.01367694995428094,-0.05247686899881003,0.30278322100639343,-2.0581557750701904,0.2818666100502014
1730865954.0837812,-1.7700742483139038,1.0934906005859375,-9.966474533081055,-0.021534623363024127,-0.036770167711823086,-0.07488062903935967,0.33807316422462463,-1.8728227615356445,0.31580376625061035
1730865954.1337168,-1.7931220531463623,1.0574482679367065,-9.924484252929688,-0.026094032037138948,-0.06868097224746172,-0.08296860129865426,0.33580532670021057,-1.893561840057373,0.3127917945384979
1730865954.1838078,-1.8051255941390991,0.9757516384124756,-9.861323356628418,-0.02835560856627354,-0.07571120838634086,-0.07539701354885923,0.3692229092121124,-1.7169657945632935,0.34451988339424133
1730865954.233678,-1.8243852853775024,0.909440279006958,-9.807530403137207,-0.029671185033565268,-0.05809068534297803,-0.05301920986735475,0.3672633469104767,-1.7355194091796875,0.3415887653827667
1730865954.2837088,-1.831785798072815,0.8526820540428162,-9.77783489227295,-0.030416071118543192,-0.021942214762914882,-0.019459172826722132,0.39881715178489685,-1.5689661502838135,0.37141674757003784
1730865954.3335953,-1.7967559099197388,0.8678164482116699,-9.767488479614258,-0.030119247991228178,0.022115515094619387,0.018054900585987174,0.39712604880332947,-1.585280179977417,0.3688032627105713
1730865954.3836603,-1.7605763673782349,0.9291214346885681,-9.799591064453125,-0.027258372039851937,0.060846726946633733,0.050076659433671886,0.4269947111606598,-1.426497220993042,0.3970937132835388
1730865954.433618,-1.710945725440979,1.0032237768173218,-9.818702697753906,-0.019392302393804135,0.08116954652357372,0.06794833490292124,0.4255625009536743,-1.4403735399246216,0.39508751034736633
1730865954.4836576,-1.7012803554534912,1.053971767425537,-9.838756561279297,-0.00508873193528754,0.07502642035686573,0.06723071059703936,0.4540103077888489,-1.1761932373046875,0.42209580540657043
1730865954.5335536,-1.6881037950515747,1.0379717350006104,-9.849413871765137,0.013898602212979947,0.043954475155615666,0.04977305117592938,0.4529317617416382,-1.1849913597106934,0.42075952887535095
1730865954.5836434,-1.7113316059112549,0.9963055849075317,-9.854170799255371,0.032586902934049325,-7.999851598438495e-05,0.02275875386596848,0.4797876179218292,-0.887768030166626,0.4464626908302307
1730865954.6335702,-1.745736837387085,0.9328804016113281,-9.85682487487793,0.04472585278434744,-0.03886629215684786,-0.004540058208431949,0.4792068600654602,-0.8912734389305115,0.4455684721469879
1730865954.683587,-1.7479357719421387,0.8603179454803467,-9.831171989440918,0.045593544592226545,-0.05635458032119964,-0.024306010850868323,0.4787375032901764,-0.8949066996574402,0.44463589787483215
1730865954.733575,-1.7491909265518188,0.843873918056488,-9.839099884033203,0.03428805696432592,-0.045531808593915035,-0.03232051542120595,0.5049521923065186,-0.6341037750244141,0.4695616066455841
1730865954.7836032,-1.719849944114685,0.8954249024391174,-9.856204986572266,0.014446753210645796,-0.01032903200214153,-0.02864436740088931,0.5049669146537781,-0.6340879201889038,0.46879735589027405
1730865954.8335345,-1.69038987159729,1.013269066810608,-9.893735885620117,-0.0065235150112796115,0.03426328802160055,-0.017594308217972438,0.5299509167671204,-0.31502512097358704,0.4922361671924591
1730865954.8834958,-1.6407148838043213,1.1782209873199463,-9.94733715057373,-0.019951556511152404,0.0656681541066537,-0.006346353735594746,0.5532947182655334,0.09568246454000473,0.5137794017791748
1730865954.9335127,-1.5968351364135742,1.3148117065429688,-9.980710983276367,-0.020112618215352766,0.06494991084520838,-0.001513007670817675,0.5538232922554016,0.1086929440498352,0.5134801268577576
1730865954.9834745,-1.5788203477859497,1.3853707313537598,-9.986942291259766,-0.007217074304591684,0.028088571193408258,-0.005611937295447977,0.5543171167373657,0.1218046098947525,0.5131723284721375
1730865955.0333755,-1.59587824344635,1.345052719116211,-9.986001014709473,0.013542698979550908,-0.03365583539623924,-0.016407733763781317,0.57652348279953,0.42222100496292114,0.5340890884399414
1730865955.0834413,-1.6471034288406372,1.241713523864746,-9.92891788482666,0.03481237512947799,-0.10069767559249988,-0.02881867440488688,0.5773476362228394,0.4392455816268921,0.5339530110359192
1730865955.1334794,-1.7504501342773438,1.1041513681411743,-9.85863208770752,0.04827753835713615,-0.14960063787569886,-0.036282550175644836,0.5782754421234131,0.4559458792209625,0.5337353944778442
1730865955.1834555,-1.8304283618927002,0.9711137413978577,-9.74976921081543,0.045040850982994735,-0.157001009965412,-0.03122630214023458,0.6001530289649963,0.7848842144012451,0.553852915763855
1730865955.2333221,-1.9156988859176636,0.9128645658493042,-9.670672416687012,0.019004974566719002,-0.11007821337333579,-0.007811215681167302,0.6015206575393677,0.8052552938461304,0.5537488460540771
1730865955.2834413,-1.9156988859176636,0.9128645658493042,-9.670672416687012,-0.026874081155721284,-0.019066741067811928,0.03236180712969689,0.6028879880905151,0.825610876083374,0.5536749958992004
1730865955.2834413,-1.9563443660736084,0.903839647769928,-9.61693286895752,-0.07919208306427447,0.08350230162940434,0.07825196456153408,0.6028965711593628,0.8257420063018799,0.5536747574806213
1730865955.3332965,-1.9563443660736084,0.903839647769928,-9.61693286895752,-0.12213880438199962,0.16154001062347945,0.11630695567043842,0.6040602326393127,0.8459780216217041,0.553785502910614
1730865955.3332965,-1.9662718772888184,0.9583784937858582,-9.625625610351562,-0.14685107671325134,0.19477720793116338,0.13902658802290438,0.6040667295455933,0.8461093306541443,0.553787112236023
1730865955.3834836,-1.923431158065796,1.0500279664993286,-9.705564498901367,-0.15337935197963265,0.18275671455207354,0.1461570371539716,0.6253394484519958,1.1874713897705078,0.5741941928863525
1730865955.4342368,-1.8367159366607666,1.1513241529464722,-9.823517799377441,-0.14594508920744287,0.13703612873697296,0.1396988922139335,0.6260496973991394,1.2135416269302368,0.5752474069595337
1730865955.4842105,-1.7143102884292603,1.2665013074874878,-9.948857307434082,-0.12613188970880024,0.07225442942450325,0.11851177496187673,0.645923912525177,1.6066211462020874,0.5948030352592468
1730865955.5342638,-1.5934988260269165,1.3747628927230835,-10.055098533630371,-0.09072460596420526,0.0012645447496241122,0.07847982013347247,0.6462507247924805,1.6383187770843506,0.5966281890869141
1730865955.5842412,-1.4835880994796753,1.4298890829086304,-10.111140251159668,-0.03756614323793585,-0.06539606638196747,0.019734454098937367,0.6647463440895081,2.0376901626586914,0.6151211857795715
1730865955.6342456,-1.443881630897522,1.4316983222961426,-10.103753089904785,0.027837131396953332,-0.11831796906331826,-0.047462007831782546,0.6651249527931213,2.074556827545166,0.6172192096710205
1730865955.6842623,-1.4952565431594849,1.3775787353515625,-10.049909591674805,0.09156714236185763,-0.1488810422559999,-0.10504727390739367,0.6826254725456238,2.364879846572876,0.6339302659034729
1730865955.7341847,-1.6399167776107788,1.2702287435531616,-9.953142166137695,0.13519640730598734,-0.15039734596264298,-0.13475852777895514,0.6836395263671875,2.4038126468658447,0.6356984376907349
1730865955.7842758,-1.8158236742019653,1.1555479764938354,-9.814238548278809,0.1420657930675952,-0.12055769607523081,-0.1258519336589073,0.7009705901145935,2.6736202239990234,0.650538444519043
1730865955.8341494,-1.987913966178894,1.0372942686080933,-9.684324264526367,0.10390313136795272,-0.06353144653176844,-0.07908159253045607,0.7174651026725769,2.92238187789917,0.6639469861984253
1730865955.8841746,-2.1046435832977295,0.9711049795150757,-9.589987754821777,0.0268793461706642,0.009061056738442836,-0.00665977901685277,0.7196714282035828,2.9656336307525635,0.6653072237968445
1730865955.9341092,-2.1483964920043945,0.9394667744636536,-9.553539276123047,-0.06713296673516508,0.07948938538119485,0.07095933637344778,0.7218205332756042,3.0088531970977783,0.6667429208755493
1730865955.9841945,-2.121264934539795,0.9565346837043762,-9.586009979248047,-0.15029461263120558,0.1305160567014997,0.1330999149581707,0.7237083315849304,3.0525686740875244,0.6684423685073853
1730865956.0340698,-2.039263963699341,0.9619608521461487,-9.645097732543945,-0.20244991972811574,0.1533842290261786,0.16729668545356768,0.7387753129005432,3.29056978225708,0.6820715665817261
1730865956.0840585,-1.9312196969985962,0.9948458671569824,-9.719782829284668,-0.2157568791423702,0.14941002516679439,0.17072766655130425,0.7398531436920166,3.337024211883545,0.684691846370697
1730865956.1340225,-1.9312196969985962,0.9948458671569824,-9.719782829284668,-0.1909308633266887,0.1252735222236361,0.14636046604162503,0.7404218316078186,3.3837459087371826,0.687703549861908
1730865956.1340225,-1.8107657432556152,1.0069457292556763,-9.799466133117676,-0.13382851465900597,0.0884570213473591,0.10012649700324476,0.740423858165741,3.3840367794036865,0.6877233386039734
1730865956.184022,-1.7375962734222412,1.0039891004562378,-9.883305549621582,-0.0540834934566033,0.04626120902030355,0.03974528579012469,0.7406839728355408,3.430724859237671,0.6909511089324951
1730865956.2339506,-1.6901278495788574,0.9899908900260925,-9.963652610778809,0.03731241224228409,0.00601165011489309,-0.027547618627689396,0.7549619674682617,3.6558427810668945,0.7043702006340027
1730865956.2840056,-1.6511867046356201,1.0167818069458008,-10.022025108337402,0.1287810715856315,-0.02589779271713178,-0.09573283916673878,0.7555857300758362,3.7049713134765625,0.7075960636138916
1730865956.3338845,-1.626352071762085,1.0566904544830322,-10.058816909790039,0.20493366508970973,-0.045739172773417755,-0.1560869726531415,0.7698370814323425,3.913026809692383,0.7194117903709412
1730865956.3839247,-1.6089198589324951,1.1275053024291992,-10.08283519744873,0.2477160805400061,-0.05392841281778481,-0.19576481914930874,0.7716068029403687,3.9635872840881348,0.7219688892364502
1730865956.433835,-1.548673152923584,1.161179542541504,-10.08017635345459,0.24657472596095492,-0.05483766802308106,-0.2044725145172035,0.7861590385437012,4.155575752258301,0.732008159160614
1730865956.4838657,-1.5168516635894775,1.1840696334838867,-10.051786422729492,0.20663107645302392,-0.05412863360376536,-0.18127240202987152,0.8002400398254395,4.333441257476807,0.7412418127059937
1730865956.533793,-1.4813148975372314,1.1318827867507935,-9.987784385681152,0.14557926222541454,-0.054573442282325704,-0.13428341750119693,0.8038953542709351,4.3860602378845215,0.7425740361213684
1730865956.5838237,-1.4938756227493286,1.0512200593948364,-9.905617713928223,0.0837477738444557,-0.05316236008465663,-0.07545787908224574,0.8078502416610718,4.438728332519531,0.7436487078666687
1730865956.6337664,-1.5253958702087402,0.9455553293228149,-9.82075309753418,0.03571594177131994,-0.04221961699554221,-0.014703260257687395,0.8119443655014038,4.491145610809326,0.7446080446243286
1730865956.683823,-1.6069215536117554,0.8572342395782471,-9.72569751739502,0.006561936725275421,-0.01351539514686466,0.04374629061038526,0.8253342509269714,4.654898643493652,0.7530237436294556
1730865956.7337284,-1.7038275003433228,0.803158164024353,-9.66273307800293,-0.007888491588448631,0.03611565253181347,0.0996730883832475,0.8295634388923645,4.708220481872559,0.7542788982391357
1730865956.7837372,-1.8090814352035522,0.8006678223609924,-9.635173797607422,-0.017406899923096242,0.09830557334328627,0.149834768137826,0.8426026701927185,4.858817100524902,0.7624941468238831
1730865956.8336544,-1.8927173614501953,0.8072279691696167,-9.634767532348633,-0.03165280602323885,0.15310496762723044,0.18426449497195999,0.8549439907073975,4.9987711906433105,0.7708423733711243
1730865956.883653,-1.9440635442733765,0.8602471947669983,-9.668485641479492,-0.054289618114567215,0.179803982434598,0.19207949083611078,0.8591786623001099,5.054922103881836,0.7734466791152954
1730865956.9336395,-1.9826576709747314,0.9154075980186462,-9.733817100524902,-0.08049038571778507,0.1682944555745066,0.1690316710536035,0.8632485270500183,5.111562728881836,0.7765058875083923
1730865956.9837236,-1.9989776611328125,0.9727869033813477,-9.810914993286133,-0.10154265200122092,0.12149094237879203,0.11902181093675528,0.8743919730186462,5.240061283111572,0.7851409912109375
1730865957.033659,-1.9968469142913818,1.0430967807769775,-9.891023635864258,-0.11171712780495774,0.05166705100383206,0.0516371466314976,0.878029465675354,5.297631740570068,0.7888103127479553
1730865957.083661,-1.9968469142913818,1.0430967807769775,-9.891023635864258,-0.10947207450752591,-0.023731761845228627,-0.01988529973106313,0.881411075592041,5.355574131011963,0.7925407290458679
1730865957.083661,-1.9078164100646973,1.1033395528793335,-9.982389450073242,-0.0948364996057401,-0.08693088036452025,-0.08132011769212089,0.8814311027526855,5.355931758880615,0.7925636172294617
1730865957.1336153,-1.9078164100646973,1.1033395528793335,-9.982389450073242,-0.06840726236011457,-0.1266821466604645,-0.12336782781916031,0.8912562131881714,5.471308708190918,0.8004224300384521
1730865957.1336153,-1.811535358428955,1.1505705118179321,-10.037453651428223,-0.03225042590798532,-0.14195051968660094,-0.145266465690652,0.8912761807441711,5.471677303314209,0.8004442453384399
1730865957.1835968,-1.684177279472351,1.158101201057434,-10.068291664123535,0.009712949865019662,-0.1382618593336247,-0.1509144776347232,0.894400954246521,5.528957366943359,0.8036574125289917
1730865957.2335598,-1.607757568359375,1.1402833461761475,-10.083259582519531,0.05401487267500845,-0.12221091923826892,-0.1441974261669793,0.8976286053657532,5.586340427398682,0.8065269589424133
1730865957.2836456,-1.5794684886932373,1.0847864151000977,-10.054425239562988,0.10046364643469317,-0.09936649791737763,-0.12922466990112938,0.9010481834411621,5.643426895141602,0.8090537190437317
1730865957.3335211,-1.6266781091690063,1.0333889722824097,-10.00820255279541,0.15050533014342654,-0.07353544088573852,-0.11083044628760175,0.9107882380485535,5.742406845092773,0.8152719140052795
1730865957.3835816,-1.7076492309570312,0.985153317451477,-9.948284149169922,0.2007084699426718,-0.04615194952145073,-0.09204671466213347,0.9205942153930664,5.833332538604736,0.8211086988449097
1730865957.4335127,-1.7534598112106323,0.9991579055786133,-9.872818946838379,0.23728614250014496,-0.018028224787657463,-0.07201825085091729,0.9254348874092102,5.890353202819824,0.8229582905769348
1730865957.4836228,-1.761965274810791,1.019677996635437,-9.80775260925293,0.24124290079845903,0.007539712369426915,-0.04730513156101499,0.9308903813362122,5.947524547576904,0.8246634006500244
1730865957.5335631,-1.761965274810791,1.019677996635437,-9.80775260925293,0.20318701992186872,0.024716833710086948,-0.015145840528516034,0.9368667602539062,6.00438928604126,0.8262802362442017
1730865957.5335631,-1.7332777976989746,1.0601274967193604,-9.740081787109375,0.13185115383776655,0.02868939910512968,0.02439727997769915,0.936906635761261,6.004753589630127,0.826290488243103
1730865957.5835302,-1.7332777976989746,1.0601274967193604,-9.740081787109375,0.04875899547886363,0.018573772989527393,0.06862662173577597,0.943183183670044,6.061538219451904,0.827970027923584
1730865957.5835302,-1.7360866069793701,1.0578792095184326,-9.706241607666016,-0.023160417807883155,-0.002521599519526958,0.11364882227796638,0.9432231187820435,6.061896324157715,0.827981173992157
1730865957.633568,-1.7078824043273926,1.0534155368804932,-9.675688743591309,-0.0687692327306685,-0.028844479198506183,0.15576839049083854,0.9525322318077087,6.134571075439453,0.833263099193573
1730865957.683474,-1.7078824043273926,1.0534155368804932,-9.675688743591309,-0.08408428414510198,-0.05353002128850205,0.191208494955942,0.9586317539215088,6.191397666931152,0.8356953859329224
1730865957.683474,-1.7233083248138428,1.0290294885635376,-9.678693771362305,-0.07442410150091841,-0.06985747448765174,0.21317831539715618,0.958670973777771,6.191769123077393,0.8357128500938416
1730865957.733404,-1.7296462059020996,1.0342074632644653,-9.693284034729004,-0.0505119277254492,-0.07271400687630175,0.21194782006553692,0.967397153377533,6.253787040710449,0.8414776921272278
1730865957.7834828,-1.7782323360443115,1.0552161931991577,-9.738544464111328,-0.02436902779423908,-0.061052924552858386,0.18206436282248975,0.9732624292373657,6.310163974761963,0.8449369668960571
1730865957.833414,-1.8271551132202148,1.1032934188842773,-9.756502151489258,-0.005931224725479366,-0.03976428578856034,0.12821662276362522,0.9790749549865723,6.366271495819092,0.8487745523452759
1730865957.8834038,-1.8970963954925537,1.1459044218063354,-9.80887222290039,-0.001582382742087093,-0.018537171668462853,0.06266318626240774,0.9848944544792175,6.422463893890381,0.8528615832328796
1730865957.933347,-1.9201931953430176,1.1988476514816284,-9.833016395568848,-0.014276654792352213,-0.00793751842925663,-0.0016011083721872415,0.9918516278266907,6.470273971557617,0.8580970168113708
1730865957.983341,-1.93211030960083,1.2210768461227417,-9.855461120605469,-0.042553939265386614,-0.014363285438883377,-0.05527409224527492,0.9975630044937134,6.525950908660889,0.8621771335601807
1730865958.0332818,-1.8952357769012451,1.1917591094970703,-9.863088607788086,-0.07768050902295977,-0.03541537257633613,-0.09236264379754851,1.0043660402297974,6.564514636993408,0.8666046261787415
1730865958.0833924,-1.8952357769012451,1.1917591094970703,-9.863088607788086,-0.10470447643658626,-0.059801295191086234,-0.10886541215162508,1.009743332862854,6.619956970214844,0.8702661395072937
1730865958.0833924,-1.8420480489730835,1.143674373626709,-9.883455276489258,-0.11072205453061262,-0.0741964002907175,-0.10430354950554453,1.009777307510376,6.6203155517578125,0.8702889680862427
1730865958.1332362,-1.8420480489730835,1.143674373626709,-9.883455276489258,-0.09231851333796362,-0.07090037913922681,-0.08346964344546995,1.0153950452804565,6.65155553817749,0.8737771511077881
1730865958.1332362,-1.7618697881698608,1.129366159439087,-9.8805570602417,-0.05533965230927605,-0.05032100459028652,-0.05504857421070947,1.015428066253662,6.651916027069092,0.8737989068031311
1730865958.1833367,-1.7618697881698608,1.129366159439087,-9.8805570602417,-0.01015930867836996,-0.0195555478453379,-0.027809372516432916,1.0203648805618286,6.705924034118652,0.8770266175270081
1730865958.1833367,-1.694387674331665,1.115341305732727,-9.905627250671387,0.033228018533015255,0.011218655530981803,-0.007459530497649265,1.0203955173492432,6.706259727478027,0.8770464658737183
1730865958.2332082,-1.6100733280181885,1.094612956047058,-9.931663513183594,0.06926977755452854,0.03375321324929662,0.0036389139757298013,1.0253746509552002,6.759950160980225,0.8802241683006287
1730865958.2832747,-1.5418109893798828,1.0807050466537476,-9.972339630126953,0.09903440641376124,0.04523921492266335,0.0049381295512402595,1.0304559469223022,6.781820297241211,0.8830500841140747
1730865958.3331993,-1.5418109893798828,1.0807050466537476,-9.972339630126953,0.1270667449135149,0.047837659194089235,-0.002900397191238611,1.0357030630111694,6.8013081550598145,0.8856766819953918
1730865958.3331993,-1.499990701675415,1.0729589462280273,-10.015694618225098,0.1528333271741299,0.04510866557609762,-0.01688297247558779,1.0357418060302734,6.801672458648682,0.8856984376907349
1730865958.383289,-1.499990701675415,1.0729589462280273,-10.015694618225098,0.16749969726126102,0.03921603665687348,-0.03176032522424202,1.0415748357772827,6.854654788970947,0.8888235688209534
1730865958.383289,-1.4388550519943237,1.0682786703109741,-10.016959190368652,0.1626567419680292,0.031255235780471693,-0.042909416019932034,1.0416128635406494,6.854988098144531,0.8888429403305054
1730865958.4332135,-1.4234479665756226,1.0768064260482788,-10.036955833435059,0.13977858510104307,0.022557289224111772,-0.048708171403966716,1.0470925569534302,6.867619514465332,0.8909509778022766
1730865958.4831707,-1.4234479665756226,1.0768064260482788,-10.036955833435059,0.1091127053589907,0.014654672113459322,-0.05004002786325076,1.0536233186721802,6.920176029205322,0.8938402533531189
1730865958.4831707,-1.4432932138442993,1.1116139888763428,-10.005428314208984,0.08077931611985464,0.008364757497212978,-0.04795268022484783,1.0536619424819946,6.920480728149414,0.8938566446304321
1730865958.5341525,-1.4432932138442993,1.1116139888763428,-10.005428314208984,0.058165293449387444,0.0031390266558560627,-0.04186461875532456,1.060457468032837,6.97347354888916,0.8966513872146606
1730865958.5341525,-1.5085569620132446,1.1484904289245605,-9.962830543518066,0.03898979911048883,-0.002695241442451677,-0.030318515187228286,1.0605010986328125,6.973810195922852,0.8966687917709351
1730865958.5831633,-1.5824558734893799,1.1850098371505737,-9.87814998626709,0.019175796182530017,-0.01115860535558217,-0.012445878140236908,1.06480073928833,6.9795732498168945,0.898045539855957
1730865958.6341417,-1.7026240825653076,1.1562330722808838,-9.797066688537598,-0.005166548563622331,-0.02332426451922727,0.011860048887879289,1.0717209577560425,7.032198905944824,0.9007683992385864
1730865958.6841717,-1.8434793949127197,1.0966352224349976,-9.701960563659668,-0.03631153577155445,-0.03657866536809174,0.04136485934219019,1.0784525871276855,7.083711624145508,0.9035043120384216
1730865958.7341104,-1.9647480249404907,1.0394996404647827,-9.635427474975586,-0.07500596585497003,-0.0431586143899716,0.07346554081200254,1.0850309133529663,7.135011196136475,0.9063771367073059
1730865958.7841659,-2.0362460613250732,0.9632866978645325,-9.589738845825195,-0.12295338579690211,-0.03366165575049305,0.10670635439733182,1.0875900983810425,7.129049777984619,0.9075077176094055
1730865958.8331368,-2.0580220222473145,0.9396564364433289,-9.595098495483398,-0.18064979239192225,-0.0036521130215089763,0.1406041884735031,1.0933607816696167,7.178300857543945,0.9108083248138428
1730865958.8841126,-2.0580220222473145,0.9396564364433289,-9.595098495483398,-0.2381386959830042,0.0407974741821351,0.16972981118349514,1.0950723886489868,7.169353008270264,0.9122257232666016
1730865958.8841126,-2.0260348320007324,0.9472898840904236,-9.640368461608887,-0.27336881096372023,0.08379019232847995,0.18185368543736943,1.0951040983200073,7.169666767120361,0.9122506976127625
1730865958.9341154,-1.9630955457687378,1.0134309530258179,-9.721592903137207,-0.2663514735383278,0.10829926911907908,0.16609662994395782,1.0997403860092163,7.218916893005371,0.9163631796836853
1730865958.984118,-1.895137906074524,1.0919886827468872,-9.815616607666016,-0.21283932751832607,0.10462949508947998,0.12047808659632844,1.1002082824707031,7.205746173858643,0.9178891181945801
1730865959.0339692,-1.895137906074524,1.0919886827468872,-9.815616607666016,-0.12527845391121267,0.07293530388493698,0.05230323768664033,1.1037871837615967,7.254646301269531,0.9225311875343323
1730865959.0339692,-1.8222602605819702,1.1473636627197266,-9.905097961425781,-0.026976574908325668,0.023091593663609893,-0.02322520318133,1.1038089990615845,7.2549591064453125,0.9225612282752991
1730865959.0840662,-1.7455374002456665,1.1361726522445679,-9.956357955932617,0.05713533882952682,-0.02857684596367414,-0.08739195168098574,1.1041133403778076,7.238886833190918,0.9237062931060791
1730865959.1339521,-1.700907826423645,1.1482601165771484,-10.000899314880371,0.11155881885720112,-0.06707870742391196,-0.12733103135294777,1.107770562171936,7.286673069000244,0.9279722571372986
1730865959.1839936,-1.7207727432250977,1.1174755096435547,-10.020934104919434,0.13387031215658107,-0.08462065286268045,-0.14075567515526705,1.111760139465332,7.334583759307861,0.9319296479225159
1730865959.233999,-1.7523990869522095,1.134559988975525,-9.988039016723633,0.12935027743912939,-0.08085736890836508,-0.1325331275379621,1.111885905265808,7.311756134033203,0.9319467544555664
1730865959.2839696,-1.8286563158035278,1.1376848220825195,-9.950651168823242,0.10547354311736079,-0.06106141575228142,-0.11008687269396959,1.1164007186889648,7.3578643798828125,0.9351751208305359
1730865959.3339097,-1.8731988668441772,1.1633003950119019,-9.883402824401855,0.06933067978223548,-0.034109887784950665,-0.07991485894886596,1.116901159286499,7.331943511962891,0.93485027551651
1730865959.3839538,-1.8731988668441772,1.1633003950119019,-9.883402824401855,0.027000698342586883,-0.009473453335954691,-0.04584439174649908,1.1217180490493774,7.377062797546387,0.937653124332428
1730865959.3839538,-1.87714421749115,1.2097761631011963,-9.829784393310547,-0.014470554792050349,0.006125406546422656,-0.011121524728149845,1.1172443628311157,7.305910110473633,0.9344724416732788
1730865959.43391,-1.87714421749115,1.2097761631011963,-9.829784393310547,-0.04618552480520294,0.01043628032370517,0.019309649417897725,1.1219314336776733,7.34960412979126,0.9371732473373413
1730865959.43391,-1.8527741432189941,1.2444229125976562,-9.779115676879883,-0.061046363104048595,0.005303860360634182,0.04041474304162797,1.1219600439071655,7.3498735427856445,0.937190055847168
1730865959.483997,-1.7791498899459839,1.2536530494689941,-9.761033058166504,-0.05723145099310643,-0.005123609068141265,0.050285913818401556,1.1265290975570679,7.393685340881348,0.9399851560592651
1730865959.5338774,-1.7433054447174072,1.2289862632751465,-9.7857084274292,-0.03712577939960173,-0.016721008240890966,0.05134773581604037,1.1262677907943726,7.3631415367126465,0.939522922039032
1730865959.583923,-1.7001326084136963,1.2023404836654663,-9.813427925109863,-0.005168524291968228,-0.02630723170747387,0.047998580411967647,1.1306029558181763,7.4058451652526855,0.9425247311592102
1730865959.6338441,-1.658395528793335,1.1724835634231567,-9.855494499206543,0.03186600774619741,-0.030823767474284388,0.042352518062762974,1.1303735971450806,7.372342586517334,0.9422394037246704
1730865959.6838272,-1.589672565460205,1.1396898031234741,-9.88569164276123,0.06531081031287603,-0.027400227495227435,0.0329063059823287,1.130433440208435,7.341214656829834,0.9422601461410522
1730865959.733828,-1.5081108808517456,1.1046420335769653,-9.922158241271973,0.08817905606517318,-0.015352543894214407,0.01786865286129473,1.1349786520004272,7.381428241729736,0.9454347491264343
1730865959.7838185,-1.5081108808517456,1.1046420335769653,-9.922158241271973,0.09819289918747134,0.0024599956325247214,-0.0013651609649937783,1.1397452354431152,7.4215192794799805,0.9486216306686401
1730865959.7838185,-1.4295170307159424,1.1049782037734985,-9.95274543762207,0.09797732189999549,0.020995977481022658,-0.02081563512644795,1.1397768259048462,7.421778202056885,0.9486421942710876
1730865959.833836,-1.4295170307159424,1.1049782037734985,-9.95274543762207,0.09383238636232225,0.03568662059859662,-0.037006876377486515,1.1447538137435913,7.461673736572266,0.9517620205879211
1730865959.833836,-1.4276865720748901,1.1359474658966064,-9.951932907104492,0.09313171615192412,0.04398476065242907,-0.04874325641963641,1.144792079925537,7.461974143981934,0.951785147190094
1730865959.8838398,-1.4276865720748901,1.1359474658966064,-9.951932907104492,0.10051102895839875,0.04526077505842725,-0.05657070971712242,1.1442948579788208,7.421812057495117,0.9508436322212219
1730865959.8838398,-1.4848183393478394,1.1582427024841309,-9.916403770446777,0.11466167299969543,0.04007928394107968,-0.06102490494714852,1.1443266868591309,7.4220476150512695,0.9508610367774963
1730865959.9337692,-1.4848183393478394,1.1582427024841309,-9.916403770446777,0.12696079285131817,0.02974794458660011,-0.06083100855358186,1.144418716430664,7.384139060974121,0.9500964879989624
1730865959.9337692,-1.5948827266693115,1.1681678295135498,-9.850994110107422,0.12468415786094567,0.016205065124180733,-0.053026873662962486,1.1444523334503174,7.384370803833008,0.9501128792762756
1730865959.9839382,-1.7093874216079712,1.1369863748550415,-9.79179573059082,0.09856881589507643,0.0022044811730192342,-0.03538841956773862,1.1500818729400635,7.42232084274292,0.9527486562728882
1730865960.0338023,-1.8193243741989136,1.1080282926559448,-9.737626075744629,0.04694689256300463,-0.008583343826640447,-0.007853825179870167,1.150241732597351,7.3833112716674805,0.951831579208374
1730865960.083812,-1.884267807006836,1.1029753684997559,-9.714607238769531,-0.02480397068291568,-0.012613140467635186,0.027353068154611304,1.1560019254684448,7.420156002044678,0.9543924331665039
1730865960.1337838,-1.9105286598205566,1.1115912199020386,-9.716594696044922,-0.10305448273564372,-0.008840611294917936,0.06404106016743571,1.1615920066833496,7.456906318664551,0.9570627212524414
1730865960.1837988,-1.9105286598205566,1.1115912199020386,-9.716594696044922,-0.1673676943743847,-9.504054145220969e-05,0.0920240581547981,1.1605457067489624,7.412625789642334,0.956104576587677
1730865960.1837988,-1.9257912635803223,1.116139531135559,-9.744019508361816,-0.20041047398122513,0.00868350127181989,0.10237091933521167,1.160576343536377,7.412845611572266,0.9561226963996887
1730865960.2337227,-1.9447674751281738,1.1083884239196777,-9.78177261352539,-0.19680158685043914,0.01361531900602739,0.09232511643811504,1.1652476787567139,7.448208808898926,0.9591455459594727
1730865960.28374,-1.942165493965149,1.0875669717788696,-9.824285507202148,-0.16323816796265603,0.013684574587051947,0.06487122492985947,1.1634790897369385,7.402658462524414,0.9581931829452515
1730865960.3336928,-1.9253342151641846,1.0885087251663208,-9.844911575317383,-0.11365800631414118,0.010542894711075498,0.026305542153991113,1.1672897338867188,7.437051773071289,0.9614739418029785
1730865960.383695,-1.9253342151641846,1.0885087251663208,-9.844911575317383,-0.06283402107842408,0.006760628543614139,-0.014594873313812455,1.1708829402923584,7.471495151519775,0.9647720456123352
1730865960.383695,-1.8715403079986572,1.0781447887420654,-9.8873929977417,-0.020790756426472393,0.003983755606440456,-0.04802797361615648,1.1709043979644775,7.471704959869385,0.964792013168335
1730865960.4336674,-1.8715403079986572,1.0781447887420654,-9.8873929977417,0.00921251917647212,0.002648309328605223,-0.06747940314861547,1.1743985414505005,7.5058512687683105,0.9679588079452515
1730865960.4336674,-1.8378441333770752,1.0401469469070435,-9.917705535888672,0.02928354756992607,0.0028721301049008455,-0.07307172458088565,1.174420714378357,7.506066799163818,0.967978298664093
1730865960.48365,-1.7672381401062012,1.032460331916809,-9.951805114746094,0.0442620388354029,0.005243069016520639,-0.07047849590261893,1.1714478731155396,7.4525580406188965,0.9658787250518799
1730865960.5337403,-1.7021394968032837,1.0370874404907227,-9.975760459899902,0.05914256338689396,0.010465043344702009,-0.06688408854090352,1.1750880479812622,7.485897064208984,0.9686610698699951
1730865960.5838394,-1.7021394968032837,1.0370874404907227,-9.975760459899902,0.07586293271846269,0.017641596854515846,-0.06619450620658444,1.1727955341339111,7.333686351776123,0.9660407304763794
1730865960.5838394,-1.65043306350708,1.073177456855774,-10.0149564743042,0.09136645643408606,0.023472355043603926,-0.0669750932123801,1.1728179454803467,7.333859920501709,0.9660550951957703
1730865960.6337297,-1.6014059782028198,1.14634108543396,-10.020565032958984,0.10049813992281702,0.023669381555413118,-0.06560256291242485,1.1767154932022095,7.36318302154541,0.9683918356895447
1730865960.6836996,-1.5850491523742676,1.22859787940979,-9.987622261047363,0.10121440022792672,0.014226699148884175,-0.06038113579571561,1.1748160123825073,7.189808368682861,0.9654228687286377
1730865960.733647,-1.6096011400222778,1.2526041269302368,-9.945744514465332,0.09579197336958473,-0.007303209314907794,-0.05169887079864966,1.1791598796844482,7.215525150299072,0.9674044251441956
1730865960.7837098,-1.665219783782959,1.2559261322021484,-9.857342720031738,0.08636517522765264,-0.03808141663685829,-0.03937930707307336,1.183730125427246,7.241176605224609,0.9692713618278503
1730865960.8336103,-1.7471556663513184,1.2027697563171387,-9.769553184509277,0.07060361132803805,-0.06808599118045033,-0.0207352778369026,1.188488483428955,7.266651630401611,0.971060037612915
1730865960.8836133,-1.8258168697357178,1.1118991374969482,-9.667461395263672,0.042991833207474954,-0.0846957238369314,0.009054636705091207,1.185990333557129,7.096426010131836,0.9674671292304993
1730865960.9335773,-1.8258168697357178,1.1118991374969482,-9.667461395263672,0.0006266213142998404,-0.0795756818623859,0.05279817739356342,1.1908293962478638,7.11830472946167,0.9692395925521851
1730865960.9335773,-1.8815194368362427,1.0185134410858154,-9.608986854553223,-0.05047069862299672,-0.05304788499588183,0.1040499085920906,1.1908619403839111,7.118451118469238,0.9692519307136536
1730865960.9835758,-1.8734042644500732,0.954424262046814,-9.58102798461914,-0.09566137416702072,-0.013189784632492232,0.14658391232964296,1.188366174697876,6.915583610534668,0.9658703804016113
1730865961.033538,-1.8734042644500732,0.954424262046814,-9.58102798461914,-0.12096939827419467,0.02974834223304141,0.1654550731874312,1.1927071809768677,6.9336113929748535,0.968199610710144
1730865961.033538,-1.824157476425171,0.9195178747177124,-9.613903045654297,-0.12084116439738557,0.06650195067447708,0.15617072771937565,1.192733645439148,6.933725357055664,0.9682155847549438
1730865961.0836797,-1.7324042320251465,0.9404146075248718,-9.695297241210938,-0.09740296666994877,0.08899975916654701,0.12305197315536218,1.1968053579330444,6.951920986175537,0.970909059047699
1730865961.133535,-1.6441199779510498,0.9858413338661194,-9.814929962158203,-0.05580680290091978,0.09273628421841301,0.07336078016240696,1.193418264389038,6.729642391204834,0.9681333303451538
1730865961.1836119,-1.5686087608337402,1.074684739112854,-9.920032501220703,-0.001804814599157054,0.07840274546431085,0.013830667225697126,1.197137713432312,6.74446964263916,0.9711061716079712
1730865961.2334654,-1.542607307434082,1.151999592781067,-10.003628730773926,0.05631767092971929,0.04960280388634088,-0.04854137035423628,1.1940094232559204,6.478992462158203,0.9683088660240173
1730865961.283573,-1.5542049407958984,1.2301385402679443,-10.041191101074219,0.10620913413839388,0.010546732261606616,-0.10463962817254083,1.1979029178619385,6.489241123199463,0.9709603190422058
1730865961.3333614,-1.5542049407958984,1.2301385402679443,-10.041191101074219,0.1351210129592758,-0.03303839235969764,-0.14430515204605165,1.202064037322998,6.499378681182861,0.973281741142273
1730865961.3333614,-1.6225168704986572,1.2406723499298096,-10.066964149475098,0.13551697548699948,-0.07289913006057955,-0.15985066583010238,1.2020913362503052,6.4994425773620605,0.973295271396637
1730865961.3834236,-1.7253564596176147,1.2138913869857788,-10.027120590209961,0.10740963353779376,-0.101037288480124,-0.15016994588746435,1.206561803817749,6.509429931640625,0.9752533435821533
1730865961.4334004,-1.7253564596176147,1.2138913869857788,-10.027120590209961,0.056528811728134315,-0.11348662656236408,-0.1218294263226592,1.2031036615371704,6.2630438804626465,0.9710664749145508
1730865961.4334004,-1.8377536535263062,1.1672279834747314,-9.96264362335205,-0.007949418679040181,-0.11065126902028519,-0.08495972650443055,1.2031266689300537,6.263072967529297,0.9710733890533447
1730865961.4834306,-1.8791604042053223,1.118408203125,-9.90227222442627,-0.07386807511907834,-0.09453614872994606,-0.04741993858100316,1.2076663970947266,6.2688422203063965,0.972404420375824
1730865961.5334456,-1.8703622817993164,1.049418330192566,-9.87574577331543,-0.1284731317845965,-0.06622314824295829,-0.011677631765717346,1.204235315322876,5.963581085205078,0.9682248830795288
1730865961.5833516,-1.7904411554336548,0.9940613508224487,-9.860814094543457,-0.1623805017975297,-0.02678934239825117,0.02302108328072755,1.2012646198272705,5.617130279541016,0.9644389748573303
1730865961.6333067,-1.6464136838912964,0.9628157019615173,-9.86606502532959,-0.1693644142629283,0.018839201454230396,0.054843021546823426,1.2045789957046509,5.611289024353027,0.9656689167022705
1730865961.683353,-1.5627888441085815,0.9482263922691345,-9.848698616027832,-0.14456859591266508,0.060561823515797926,0.07716304376471868,1.2075059413909912,5.605536937713623,0.96706622838974
1730865961.7333167,-1.562458872795105,0.9341247081756592,-9.841981887817383,-0.0873290493702957,0.0880032083729678,0.08359149071760677,1.2101420164108276,5.599972248077393,0.9686647057533264
1730865961.783527,-1.5797141790390015,0.9555282592773438,-9.840194702148438,-0.005422640183767931,0.0968134945062277,0.07382838283019971,1.2052828073501587,5.31082820892334,0.965356707572937
1730865961.8334281,-1.5797141790390015,0.9555282592773438,-9.840194702148438,0.08424690878110126,0.08961856124064278,0.053763790608334486,1.207787036895752,5.301681041717529,0.9672346711158752
1730865961.8334281,-1.656130313873291,1.0449622869491577,-9.828990936279297,0.15838712576823097,0.0718546017094575,0.031331022493101116,1.2078038454055786,5.3016228675842285,0.9672472476959229
1730865961.883437,-1.656130313873291,1.0449622869491577,-9.828990936279297,0.19432163934165408,0.047375388029278404,0.012790394202609936,1.210655927658081,5.292647838592529,0.9692080616950989
1730865961.883437,-1.7408385276794434,1.130565881729126,-9.812065124511719,0.18036279316786316,0.01738946578716699,0.0014519574199432913,1.2106772661209106,5.292586326599121,0.9692217111587524
1730865961.933372,-1.8037424087524414,1.1793253421783447,-9.80042552947998,0.12109659904776622,-0.018203696402254478,-0.0019116830032882377,1.2139008045196533,5.283708572387695,0.9711827039718628
1730865961.9834905,-1.8700915575027466,1.1633671522140503,-9.820185661315918,0.032617124156025856,-0.05941714761461224,0.0016776903857125473,1.209139108657837,5.042552947998047,0.967693030834198
1730865962.0333447,-1.9134926795959473,1.100498914718628,-9.80792236328125,-0.06489449058329916,-0.10319838712631423,0.009726916136309638,1.212416410446167,5.030535697937012,0.969605565071106
1730865962.083408,-1.9134926795959473,1.100498914718628,-9.80792236328125,-0.14987654800740366,-0.13915933229301372,0.018655787232916332,1.207544207572937,4.806883811950684,0.9664844274520874
1730865962.083408,-1.9817607402801514,0.9967160820960999,-9.799867630004883,-0.2023676749024219,-0.15175094149829593,0.025033235942607566,1.2075610160827637,4.806791305541992,0.9664961695671082
1730865962.1332574,-2.009242534637451,0.8998187184333801,-9.762540817260742,-0.21252802041537755,-0.13026778122913224,0.027154105284545524,1.2099926471710205,4.791720867156982,0.9684211015701294
1730865962.1833553,-2.009242534637451,0.8998187184333801,-9.762540817260742,-0.18655381907325336,-0.07558920902209557,0.025892021926147302,1.2046564817428589,4.583705425262451,0.9655887484550476
1730865962.1833553,-2.0146119594573975,0.8520634174346924,-9.732019424438477,-0.14177270025396907,0.0005755830207328991,0.023974378544549577,1.2046663761138916,4.583596706390381,0.965600848197937
1730865962.2332752,-1.9653370380401611,0.8578269481658936,-9.763777732849121,-0.09531573097336918,0.07862881774134123,0.023652779274913,1.1996241807937622,4.393866062164307,0.9632540941238403
1730865962.2832632,-1.8760980367660522,0.9307280778884888,-9.811843872070312,-0.05590723942705989,0.1363500103070694,0.02451082939425274,1.20085608959198,4.374383449554443,0.9652645587921143
1730865962.3331802,-1.7786275148391724,1.0387083292007446,-9.875558853149414,-0.02315166202017415,0.15673362891811765,0.0230850799079245,1.2019861936569214,4.355316638946533,0.9673291444778442
1730865962.3832405,-1.7020138502120972,1.1243410110473633,-9.926508903503418,0.008827471710376752,0.13284349720080105,0.014225981076878077,1.2031041383743286,4.336519241333008,0.9694505333900452
1730865962.4332123,-1.6601722240447998,1.1989141702651978,-9.964488983154297,0.0472783329934801,0.06793623986819816,-0.006569006924387381,1.1977449655532837,4.155026912689209,0.9664551019668579
1730865962.4832904,-1.6342209577560425,1.2611186504364014,-9.975395202636719,0.09532833984273123,-0.025109119783944783,-0.03975510547609534,1.19902503490448,4.134660720825195,0.9684522151947021
1730865962.5331616,-1.6342209577560425,1.2611186504364014,-9.975395202636719,0.14556990701450523,-0.12335255021584833,-0.07807408539336894,1.1943879127502441,3.966519355773926,0.9653751850128174
1730865962.5331616,-1.622498869895935,1.2675787210464478,-9.962905883789062,0.18101761966532723,-0.19832537115716903,-0.10772264054852318,1.1943984031677246,3.966378688812256,0.9653857350349426
1730865962.5832772,-1.639206886291504,1.2061913013458252,-9.937066078186035,0.18668338791305966,-0.22821590625597293,-0.11635363570694138,1.1963096857070923,3.943751096725464,0.9669172167778015
1730865962.6331246,-1.6860491037368774,1.1449236869812012,-9.880510330200195,0.1597600555705307,-0.20729563497655742,-0.10002940804893878,1.1986455917358398,3.920644998550415,0.9681761264801025
1730865962.6834114,-1.7109571695327759,1.0855287313461304,-9.83228588104248,0.10904327036070954,-0.14489937432780486,-0.06294256823465635,1.1947509050369263,3.7615652084350586,0.9645330309867859
1730865962.7330935,-1.709753394126892,1.0741137266159058,-9.788422584533691,0.04865116670283434,-0.059354900025043886,-0.013685790498952976,1.1975876092910767,3.735698938369751,0.9654492139816284
1730865962.7832174,-1.6724727153778076,1.0828081369400024,-9.795247077941895,-0.006569046572608497,0.026611998508442248,0.03670797104198674,1.193865418434143,3.6872942447662354,0.9622911214828491
1730865962.8330767,-1.6206578016281128,1.0981696844100952,-9.837224006652832,-0.043778648249708854,0.09068442002441457,0.07601018727675346,1.1965999603271484,3.6625070571899414,0.9633288979530334
1730865962.8830912,-1.5427521467208862,1.13316011428833,-9.84755802154541,-0.05526243947270867,0.11845645145651665,0.09407209633342196,1.1928527355194092,3.6507179737091064,0.9606881141662598
1730865962.933006,-1.5629488229751587,1.1618047952651978,-9.863628387451172,-0.04103203690724094,0.10858311171589853,0.08692173053181183,1.1952056884765625,3.6283910274505615,0.9620925784111023
1730865962.9830446,-1.629149079322815,1.215698003768921,-9.845447540283203,-0.010156319612067286,0.0711456551426641,0.05912193765122499,1.1975045204162598,3.606194257736206,0.9636858701705933
1730865963.0340078,-1.629149079322815,1.215698003768921,-9.845447540283203,0.020886546971399005,0.021394137075479103,0.02229991794017035,1.1998568773269653,3.5837361812591553,0.9654108881950378
1730865963.0340078,-1.6967530250549316,1.2590280771255493,-9.838217735290527,0.03539756460219427,-0.026998817602927716,-0.010336976785215276,1.1998717784881592,3.5835957527160645,0.9654218554496765
1730865963.084012,-1.7413307428359985,1.2730633020401,-9.82457160949707,0.02432546116988067,-0.06601518697487131,-0.0297134148413735,1.195608139038086,3.565342664718628,0.9624959826469421
1730865963.1339903,-1.7413307428359985,1.2730633020401,-9.82457160949707,-0.010712459539126841,-0.09305057483048244,-0.03328111479669317,1.1978977918624878,3.5437886714935303,0.9640359282493591
1730865963.1339903,-1.7646113634109497,1.2583575248718262,-9.81188678741455,-0.05750227388980658,-0.10701552359118248,-0.024267149147902616,1.1979120969772339,3.543652296066284,0.9640453457832336
1730865963.1839724,-1.7786732912063599,1.2127102613449097,-9.802888870239258,-0.09764584051252745,-0.10555367989932742,-0.00905195790303748,1.19377863407135,3.5828452110290527,0.9611322283744812
1730865963.233917,-1.8130278587341309,1.14822256565094,-9.807696342468262,-0.11668789156648157,-0.08701896652540636,0.006045711118769065,1.19557523727417,3.5627198219299316,0.9625504016876221
1730865963.2838762,-1.809478998184204,1.100132703781128,-9.810400009155273,-0.1115222416925723,-0.053554060257635545,0.016657398262784184,1.1970925331115723,3.542360544204712,0.9640010595321655
1730865963.333905,-1.797210454940796,1.1131501197814941,-9.829365730285645,-0.08895917127824708,-0.01105243308408709,0.020548375353371888,1.1924020051956177,3.585362672805786,0.9610715508460999
1730865963.383851,-1.7991148233413696,1.125964879989624,-9.836786270141602,-0.059600308657453055,0.03239100245097479,0.017464652155257276,1.193406105041504,3.566425323486328,0.9625557065010071
1730865963.4338167,-1.7826963663101196,1.1695894002914429,-9.845488548278809,-0.032390460992449854,0.06699592092608597,0.009113639493072482,1.1889361143112183,3.6706480979919434,0.9597751498222351
1730865963.4838102,-1.7767739295959473,1.2048052549362183,-9.856528282165527,-0.012013178532448928,0.0830080174166677,-0.0013940626940496456,1.1897037029266357,3.6547563076019287,0.9612435102462769
1730865963.5337822,-1.8129676580429077,1.1983704566955566,-9.851751327514648,0.0005587044180492143,0.07567436427077066,-0.01080395969207551,1.1854851245880127,3.779468059539795,0.9585829973220825
1730865963.5838563,-1.865580439567566,1.1427628993988037,-9.82577133178711,0.005733339348888944,0.04936322861758759,-0.016696958299318106,1.1861661672592163,3.7671825885772705,0.9599087238311768
1730865963.633715,-1.881205439567566,1.0834192037582397,-9.824111938476562,0.0036553937452596503,0.016691922777825805,-0.0175788162317322,1.1869064569473267,3.7541348934173584,0.9612808227539062
1730865963.68373,-1.881205439567566,1.0834192037582397,-9.824111938476562,-0.005489638017786809,-0.006759927941773242,-0.012905396048103458,1.1827304363250732,3.8671391010284424,0.9583719372749329
1730865963.68373,-1.863053321838379,1.0553536415100098,-9.826824188232422,-0.01989002297268925,-0.010145516379807765,-0.0036961244315056635,1.1827342510223389,3.8670778274536133,0.9583790898323059
1730865963.7337158,-1.8265241384506226,1.0528087615966797,-9.850543975830078,-0.034577559700521454,0.006460378708314285,0.006972719165238252,1.1833430528640747,3.856497049331665,0.9596190452575684
1730865963.7837036,-1.7715882062911987,1.0776413679122925,-9.877630233764648,-0.0419179153683384,0.032731156996620527,0.0145777138133245,1.1838326454162598,3.846423387527466,0.9608311057090759
1730865963.8336518,-1.7715882062911987,1.0776413679122925,-9.877630233764648,-0.03501359692623441,0.055295786444109485,0.014952269218454911,1.179681420326233,3.9975199699401855,0.9579477906227112
1730865963.8336518,-1.7354477643966675,1.0973707437515259,-9.941924095153809,-0.01210293330495377,0.06490882718132564,0.006328163429029763,1.1796832084655762,3.9974770545959473,0.957955002784729
1730865963.8837056,-1.689695954322815,1.1317925453186035,-9.966397285461426,0.021257355131014358,0.05894282650225617,-0.009915015242476278,1.1800169944763184,3.9902031421661377,0.9591812491416931
1730865963.9335935,-1.689695954322815,1.1317925453186035,-9.966397285461426,0.05496821618890739,0.0399149897121335,-0.03039219879484512,1.1804444789886475,3.9830679893493652,0.9603548645973206
1730865963.9335935,-1.6389662027359009,1.1293141841888428,-9.971222877502441,0.08067173897325416,0.013067290828142324,-0.05143197722241352,1.1804476976394653,3.983022689819336,0.9603621363639832
1730865963.9836588,-1.6623183488845825,1.1505361795425415,-9.938908576965332,0.09585568692053914,-0.015453770466133054,-0.0698786577297471,1.1766918897628784,4.14935302734375,0.9575347304344177
1730865964.0335605,-1.685981035232544,1.114296793937683,-9.907242774963379,0.10225644175964854,-0.03983697877198856,-0.08264121549292604,1.1775306463241577,4.144845485687256,0.9583683013916016
1730865964.0836053,-1.685981035232544,1.114296793937683,-9.907242774963379,0.10081727562464608,-0.05482627938512766,-0.08591395102154302,1.174353003501892,4.253329277038574,0.9552366137504578
1730865964.0836053,-1.7127622365951538,1.098321795463562,-9.828071594238281,0.08972473624165016,-0.056306958756863146,-0.07612913251914841,1.1743606328964233,4.253307819366455,0.9552395939826965
1730865964.1335196,-1.7381293773651123,1.0863145589828491,-9.812661170959473,0.06781606124061615,-0.043831745374497084,-0.05243395687642831,1.1755832433700562,4.250034332275391,0.955620288848877
1730865964.1835907,-1.7394286394119263,1.1070185899734497,-9.751754760742188,0.03762660131361734,-0.0220133222636118,-0.017575383837228585,1.1728122234344482,4.350594520568848,0.9529314637184143
1730865964.2335656,-1.7783422470092773,1.099996566772461,-9.74980354309082,0.004610042847322665,0.001621025510986464,0.022922469165343552,1.174167513847351,4.348437309265137,0.9532000422477722
1730865964.2834716,-1.775434136390686,1.1180026531219482,-9.734968185424805,-0.025040543405196694,0.02001280109365054,0.06077560969971726,1.1754953861236572,4.346310615539551,0.9535727500915527
1730865964.3334875,-1.775434136390686,1.1180026531219482,-9.734968185424805,-0.04630323333939838,0.028879790562264324,0.08617337400532621,1.1725740432739258,4.4430832862854,0.9514316320419312
1730865964.3334875,-1.7961090803146362,1.0978853702545166,-9.74190616607666,-0.056806538926837916,0.02769389710880394,0.092587827376492,1.172581434249878,4.443077564239502,0.9514357447624207
1730865964.3834748,-1.8024729490280151,1.096219539642334,-9.761283874511719,-0.05718608778111546,0.019593878366681104,0.0803450192831967,1.1736303567886353,4.442256927490234,0.9521674513816833
1730865964.4334664,-1.8024729490280151,1.096219539642334,-9.761283874511719,-0.050315035110971504,0.00989592782997427,0.055196696177202034,1.1707416772842407,4.531490325927734,0.9507504105567932
1730865964.4334664,-1.8615046739578247,1.0873790979385376,-9.789366722106934,-0.040291710101972675,0.0033335982589306505,0.024915960132561293,1.1707466840744019,4.531492233276367,0.9507562518119812
1730865964.4834557,-1.8615046739578247,1.0873790979385376,-9.789366722106934,-0.03153926564365225,0.0018368508844853052,-0.003278208463876154,1.1715131998062134,4.531774997711182,0.9516985416412354
1730865964.4834557,-1.8906596899032593,1.113863468170166,-9.796687126159668,-0.027773735433708674,0.0042707550598928366,-0.024424353660713792,1.1715184450149536,4.5317769050598145,0.951705276966095
1730865964.533443,-1.8906596899032593,1.113863468170166,-9.796687126159668,-0.031000552324911227,0.00763667546066373,-0.036688571111763345,1.1722030639648438,4.532069683074951,0.9525927305221558
1730865964.533443,-1.8843986988067627,1.1354656219482422,-9.818350791931152,-0.040975257833542174,0.00869804560098016,-0.041203219404972194,1.1722071170806885,4.532071590423584,0.9525980353355408
1730865964.5834439,-1.8520234823226929,1.1645499467849731,-9.829914093017578,-0.05509789491597791,0.0052034330607701,-0.04115568072615726,1.1727867126464844,4.532381057739258,0.9533911347389221
1730865964.6334517,-1.8085271120071411,1.176212191581726,-9.861815452575684,-0.06871393419488182,-0.003809819628385217,-0.040607923652302945,1.169439673423767,4.619772911071777,0.9516975283622742
1730865964.6834452,-1.7181299924850464,1.1627516746520996,-9.876137733459473,-0.07585039985375255,-0.017624602230461937,-0.04283586368246067,1.1696408987045288,4.62108039855957,0.952262282371521
1730865964.7333987,-1.6924563646316528,1.1392431259155273,-9.905946731567383,-0.07037946725521106,-0.03247310226465118,-0.048217678995432625,1.1663298606872559,4.700615406036377,0.9507189393043518
1730865964.7834475,-1.6924563646316528,1.1392431259155273,-9.905946731567383,-0.04889348754136427,-0.04192567706369246,-0.05378404950806199,1.1661609411239624,4.702630996704102,0.9510161280632019
1730865964.7834475,-1.6710063219070435,1.1597439050674438,-9.915834426879883,-0.014939200676751833,-0.04123018431033508,-0.05552177530624794,1.1661595106124878,4.702643394470215,0.9510176181793213
1730865964.8333828,-1.6623401641845703,1.1732234954833984,-9.910504341125488,0.02096154108870221,-0.03140689572101927,-0.051064364317783786,1.1659504175186157,4.704634666442871,0.9511908888816833
1730865964.8834436,-1.6623401641845703,1.1732234954833984,-9.910504341125488,0.04776649433559729,-0.018380377078037885,-0.040819154471777044,1.165832757949829,4.706483840942383,0.951245129108429
1730865964.8834436,-1.664509892463684,1.188157320022583,-9.918722152709961,0.060086006916293996,-0.008776306477367286,-0.02751035213725609,1.1658324003219604,4.706495761871338,0.9512451887130737
1730865964.933397,-1.664509892463684,1.188157320022583,-9.918722152709961,0.05898068070118945,-0.006579794995736873,-0.014759004596170747,1.1626825332641602,4.783661365509033,0.9493198990821838
1730865964.933397,-1.6572636365890503,1.1673773527145386,-9.908549308776855,0.04927671908657655,-0.011861981819359246,-0.005472342952448665,1.1626828908920288,4.7836785316467285,0.94931960105896
1730865964.9834638,-1.6572636365890503,1.1673773527145386,-9.908549308776855,0.03636970321849095,-0.020715985087531627,-0.0005730976150417838,1.1627767086029053,4.786377429962158,0.949267566204071
1730865964.9834638,-1.6591688394546509,1.130024790763855,-9.90406608581543,0.024148194077562527,-0.02683023600990037,0.0011473539129094501,1.1627775430679321,4.7863945960998535,0.9492672085762024
1730865965.0333724,-1.6591688394546509,1.130024790763855,-9.90406608581543,0.01459231201928105,-0.02474677243720753,0.0018215246473661719,1.1600102186203003,4.856080532073975,0.9478261470794678
1730865965.0333724,-1.6374982595443726,1.1253414154052734,-9.897210121154785,0.008359462194906731,-0.012850329070458327,0.0030676622764368765,1.1600110530853271,4.8561015129089355,0.9478257894515991
1730865965.0834715,-1.6374982595443726,1.1253414154052734,-9.897210121154785,0.0055101025868151375,0.0054172854185095595,0.0052928538751526154,1.1575871706008911,4.918153285980225,0.9467592239379883
1730865965.0834715,-1.6542800664901733,1.1127800941467285,-9.890379905700684,0.005671028762911161,0.023188510702019233,0.007866295648172358,1.157588005065918,4.918178558349609,0.9467589259147644
1730865965.1333466,-1.6542800664901733,1.1127800941467285,-9.890379905700684,0.00743582270149525,0.03430357618518035,0.009851945923976452,1.1577218770980835,4.922201633453369,0.9467229247093201
1730865965.1333466,-1.6624219417572021,1.1077226400375366,-9.87459659576416,0.008334385755512356,0.03655010785798148,0.010753155993500435,1.1577228307724,4.922229766845703,0.9467227458953857
1730865965.183495,-1.6624219417572021,1.1077226400375366,-9.87459659576416,0.006184317823906348,0.03172250056554749,0.010895057515771954,1.157874345779419,4.926359176635742,0.9467124342918396
1730865965.183495,-1.6803877353668213,1.1172305345535278,-9.872438430786133,0.00033369636199920174,0.023616215844911075,0.011225043944289432,1.157875418663025,4.926386833190918,0.9467124342918396
1730865965.2333581,-1.6803877353668213,1.1172305345535278,-9.872438430786133,-0.008441007268140698,0.01578001820366214,0.012603220884712893,1.1555144786834717,4.9858622550964355,0.945378303527832
1730865965.2333581,-1.6642932891845703,1.1443051099777222,-9.851571083068848,-0.018405245382543293,0.010036866610788005,0.015205813230155775,1.1555150747299194,4.9858903884887695,0.9453784227371216
1730865965.2835011,-1.676072597503662,1.1518168449401855,-9.866317749023438,-0.02674392936915795,0.006017737834149973,0.018400200384691808,1.1555901765823364,4.990715503692627,0.9454208612442017
1730865965.3333554,-1.676072597503662,1.1518168449401855,-9.866317749023438,-0.030210138583433202,0.0018290246825270102,0.020951481087190506,1.1533863544464111,5.044064998626709,0.944318950176239
1730865965.3333554,-1.688549518585205,1.173169493675232,-9.839729309082031,-0.02727622644484809,-0.00421730705145041,0.02168816310222369,1.1533859968185425,5.044101238250732,0.9443196654319763
1730865965.3832452,-1.688549518585205,1.173169493675232,-9.839729309082031,-0.019497736809474878,-0.01207355085531389,0.020503010087383644,1.1533042192459106,5.04940938949585,0.9444491863250732
1730865965.3832452,-1.7406500577926636,1.1670211553573608,-9.839791297912598,-0.010742977981530667,-0.019985984827682372,0.018603304733441683,1.1533035039901733,5.049444675445557,0.9444501996040344
1730865965.4331973,-1.7592371702194214,1.1434805393218994,-9.807424545288086,-0.005673122607956884,-0.02565973116312127,0.01769317996586839,1.1512517929077148,5.098084449768066,0.943108081817627
1730865965.4832108,-1.7919294834136963,1.1425443887710571,-9.786770820617676,-0.007968798832492999,-0.027286831283664874,0.01908160677944127,1.151100516319275,5.1037702560424805,0.9433094263076782
1730865965.5332005,-1.8289555311203003,1.1339582204818726,-9.734051704406738,-0.01811227983336527,-0.02418748037149298,0.023148147551090972,1.1509170532226562,5.109382629394531,0.9435631036758423
1730865965.5832748,-1.8289555311203003,1.1339582204818726,-9.734051704406738,-0.032992248755074165,-0.017144294448129878,0.029501906428584367,1.1488906145095825,5.154568195343018,0.9423377513885498
1730865965.5832748,-1.906752586364746,1.1017496585845947,-9.722082138061523,-0.04837620953883835,-0.007951391966018235,0.037430163996533206,1.1488888263702393,5.154603004455566,0.9423397183418274
1730865965.6332035,-1.906752586364746,1.1017496585845947,-9.722082138061523,-0.061291352428328005,0.001674897305117775,0.04519036433653814,1.1485079526901245,5.1605048179626465,0.9427264332771301
1730865965.6332035,-1.9440362453460693,1.0649313926696777,-9.711519241333008,-0.0706806945268608,0.010935418782050557,0.0496993784425644,1.1485050916671753,5.160541534423828,0.9427291750907898
1730865965.6832056,-1.954621434211731,1.0486096143722534,-9.747272491455078,-0.07740654281984331,0.0202059332454021,0.048444055498096314,1.1461999416351318,5.200567245483398,0.9415760040283203
1730865965.733109,-1.9300211668014526,1.0519165992736816,-9.785317420959473,-0.08295273482622623,0.03023620372617273,0.04093438677265716,1.1454050540924072,5.207065105438232,0.9421806931495667
1730865965.7832572,-1.8917458057403564,1.0662336349487305,-9.863221168518066,-0.08595503558908607,0.039917236137437674,0.027660375849881146,1.1444309949874878,5.213418006896973,0.9428484439849854
1730865965.8331983,-1.8917458057403564,1.0662336349487305,-9.863221168518066,-0.08086525958500215,0.04533877791261615,0.008554994673432615,1.1432360410690308,5.219974040985107,0.9435710906982422
1730865965.8331983,-1.8261340856552124,1.0515388250350952,-9.917787551879883,-0.06217364057246039,0.04264926267124386,-0.016854293314833645,1.14322829246521,5.220013618469238,0.9435754418373108
1730865965.8832433,-1.7325536012649536,1.0188775062561035,-9.973783493041992,-0.02860732122292137,0.03179897390935279,-0.048391012633223894,1.1407121419906616,5.258662223815918,0.9424301981925964
1730865965.9331484,-1.7325536012649536,1.0188775062561035,-9.973783493041992,0.016425279863466383,0.01705959260584373,-0.08392651238621328,1.1393555402755737,5.265716552734375,0.942911684513092
1730865965.9331484,-1.6438817977905273,1.0134690999984741,-9.997303009033203,0.06433560162431831,0.0040707830959354,-0.11678732713334052,1.1393471956253052,5.265760898590088,0.9429140090942383
1730865965.9832146,-1.6068297624588013,1.0392526388168335,-10.010113716125488,0.10313791158358453,-0.0037185541389401083,-0.13622511638296736,1.137148380279541,5.298610687255859,0.9415146112442017
1730865966.0331244,-1.6068297624588013,1.0392526388168335,-10.010113716125488,0.12426255671847769,-0.006290417341519989,-0.1344642111566808,1.13621985912323,5.305880546569824,0.9413614273071289
1730865966.0331244,-1.5930547714233398,1.1113393306732178,-9.983500480651855,0.12597338274624154,-0.006037020942231612,-0.112213893078697,1.136215090751648,5.305924892425537,0.9413594603538513
1730865966.0831685,-1.6152253150939941,1.2080261707305908,-9.939994812011719,0.11075350860203037,-0.0070058582901319656,-0.07649472094395987,1.1345911026000977,5.335878372192383,0.9396386742591858
1730865966.1329873,-1.6628810167312622,1.2549554109573364,-9.904179573059082,0.08327376842820083,-0.014236591591384152,-0.0357615718852481,1.1341888904571533,5.343285083770752,0.9390685558319092
1730865966.183079,-1.7237470149993896,1.2498868703842163,-9.840123176574707,0.04919108289412633,-0.030094630051249023,0.0028342994887345548,1.1339492797851562,5.350695610046387,0.9384528398513794
1730865966.232996,-1.7540323734283447,1.1959750652313232,-9.810408592224121,0.012828602666668772,-0.05033666812342186,0.034888659725156604,1.132728934288025,5.376950263977051,0.9368503093719482
1730865966.282932,-1.7761001586914062,1.1373709440231323,-9.77637004852295,-0.023243511233020625,-0.06575310484608653,0.05931284146721606,1.1314927339553833,5.398880958557129,0.9354500770568848
1730865966.3329697,-1.7739691734313965,1.080772876739502,-9.734260559082031,-0.055242281576345795,-0.06767790842538134,0.07621187864875203,1.131192684173584,5.406113147735596,0.935150146484375
1730865966.3838212,-1.7863746881484985,1.0190056562423706,-9.72805404663086,-0.07664898420220105,-0.05227079596026042,0.08461404864351692,1.1297451257705688,5.425204277038574,0.9340654015541077
1730865966.4338863,-1.7863746881484985,1.0190056562423706,-9.72805404663086,-0.08194080077207791,-0.022054426103541393,0.08359176594100509,1.129064917564392,5.432240009307861,0.9341692924499512
1730865966.4338863,-1.763444423675537,0.9958710074424744,-9.702902793884277,-0.07095382164584316,0.01455174006661656,0.07403658257627958,1.129042387008667,5.432440757751465,0.9341753125190735
1730865966.4838243,-1.7485802173614502,0.980993390083313,-9.72205638885498,-0.04856686444598224,0.04625448559378672,0.05860904475960345,1.128222107887268,5.439279556274414,0.934451699256897
1730865966.5338418,-1.7485802173614502,0.980993390083313,-9.72205638885498,-0.021425335452578603,0.06462009513034944,0.04096730230399768,1.12675142288208,5.457140922546387,0.9337543845176697
1730865966.5338418,-1.7739217281341553,0.9647471904754639,-9.749009132385254,0.0042806079307832375,0.06792423360907744,0.024517016301076888,1.126745581626892,5.457185745239258,0.9337571263313293
1730865966.5839176,-1.776928424835205,1.0090956687927246,-9.792386054992676,0.023102605888275195,0.0595968973910881,0.010786795110179525,1.1258187294006348,5.464555740356445,0.9342111945152283
1730865966.6337254,-1.776928424835205,1.0090956687927246,-9.792386054992676,0.030834845481532452,0.04423448013627625,-0.001279951121881636,1.1244938373565674,5.47867488861084,0.933524489402771
1730865966.6337254,-1.7719019651412964,1.0469619035720825,-9.85647201538086,0.026483626066865464,0.025394967806629098,-0.014005862757376008,1.1244882345199585,5.478725910186768,0.9335275292396545
1730865966.6840096,-1.742720127105713,1.0767850875854492,-9.918389320373535,0.013737401343342094,0.00560816050261591,-0.028810355930945587,1.123677372932434,5.486318588256836,0.9339404106140137
1730865966.733826,-1.7308605909347534,1.0838773250579834,-9.983128547668457,-0.0001962963445846979,-0.013430666360821748,-0.04613150102241789,1.1225330829620361,5.498830318450928,0.9331614971160889
1730865966.7839155,-1.7244657278060913,1.1198302507400513,-10.016728401184082,-0.008229497116778532,-0.030748972177544354,-0.06624023381799728,1.1217259168624878,5.506353855133057,0.9333246350288391
1730865966.8337839,-1.7244657278060913,1.1198302507400513,-10.016728401184082,-0.007347682407257248,-0.045146234800050915,-0.08704264556176983,1.1208477020263672,5.516394138336182,0.9323326349258423
1730865966.8337839,-1.6922295093536377,1.1217204332351685,-10.01152515411377,0.000369447202758139,-0.05455079668281861,-0.1021089577729439,1.120842456817627,5.516439914703369,0.9323316812515259
1730865966.8839517,-1.6949405670166016,1.091368556022644,-10.003122329711914,0.010530548970042254,-0.056698635325717284,-0.10412514626069291,1.1200276613235474,5.523670196533203,0.9320505261421204
1730865966.9338105,-1.6541407108306885,1.079060673713684,-9.937772750854492,0.019886465431625377,-0.050146724862026454,-0.08985215090639474,1.1193594932556152,5.531572341918945,0.9308173656463623
1730865966.9837117,-1.6971153020858765,1.0559735298156738,-9.882655143737793,0.02717744474780715,-0.03518463596326616,-0.06122053998757213,1.1186481714248657,5.5385003089904785,0.9300994277000427
1730865967.0336804,-1.7184339761734009,1.0200108289718628,-9.829143524169922,0.031038676381538618,-0.014457267209823354,-0.02366928613772151,1.118395447731018,5.543445587158203,0.928796112537384
1730865967.0837424,-1.7796587944030762,0.9819168448448181,-9.78043270111084,0.02837813517613625,0.00781192481821045,0.015841871814468354,1.1178396940231323,5.5502424240112305,0.9279534816741943
1730865967.1336548,-1.7767276763916016,0.9837790727615356,-9.749464988708496,0.016542249433218918,0.02751423207769254,0.05049054989323468,1.1173487901687622,5.556973457336426,0.9272064566612244
1730865967.1838517,-1.7815088033676147,1.03798508644104,-9.75819206237793,-0.0034761209276785374,0.04142994861340331,0.07514043539984212,1.1171729564666748,5.561412811279297,0.9262574315071106
1730865967.2337184,-1.7815088033676147,1.03798508644104,-9.75819206237793,-0.02679806367539185,0.04717105131627924,0.08749431670750821,1.116666555404663,5.568273067474365,0.9258658289909363
1730865967.2337184,-1.7619465589523315,1.1153185367584229,-9.77953052520752,-0.04647727684811194,0.04344810192369975,0.08745042431894977,1.1166630983352661,5.56831693649292,0.925864040851593
1730865967.283684,-1.7306779623031616,1.2181533575057983,-9.794438362121582,-0.05575960790067796,0.029803119536787305,0.07570813949531247,1.1160558462142944,5.5752482414245605,0.9256767630577087
1730865967.3336196,-1.7306779623031616,1.2181533575057983,-9.794438362121582,-0.050698790531914346,0.0053958474566485936,0.054079911782609014,1.1153130531311035,5.582260608673096,0.9256497025489807
1730865967.3336196,-1.73723566532135,1.2622041702270508,-9.825244903564453,-0.03205758236277637,-0.030460198523217144,0.026307685167100657,1.1153079271316528,5.582304954528809,0.9256499409675598
1730865967.3837023,-1.7728885412216187,1.2536513805389404,-9.841352462768555,-0.005300713756672336,-0.07580303600161342,-0.0028902756391703715,1.1151275634765625,5.584640979766846,0.9251867532730103
1730865967.4336104,-1.7957485914230347,1.2329119443893433,-9.852080345153809,0.021162434272439256,-0.12392337901480231,-0.029345935884957326,1.1143488883972168,5.591196537017822,0.9251773953437805
1730865967.4835632,-1.8130037784576416,1.187165379524231,-9.869086265563965,0.03881477874384073,-0.1620848547511075,-0.04945196500917853,1.114431619644165,5.590096473693848,0.9246126413345337
1730865967.5335834,-1.8130037784576416,1.187165379524231,-9.869086265563965,0.04236305959709605,-0.17490430418469669,-0.060022695802016246,1.1138442754745483,5.595718860626221,0.9243625998497009
1730865967.5335834,-1.8403993844985962,1.1168467998504639,-9.861696243286133,0.032182509101408234,-0.15424579700421784,-0.05957719592326489,1.1138410568237305,5.59575080871582,0.9243606925010681
1730865967.5836523,-1.8365612030029297,1.1099493503570557,-9.855596542358398,0.013673727210041613,-0.10537293818124556,-0.04931282562366665,1.114349365234375,5.591804027557373,0.9236695766448975
1730865967.6335382,-1.8365612030029297,1.1099493503570557,-9.855596542358398,-0.006105239776843163,-0.04300743786067141,-0.032683586468074836,1.1149821281433105,5.5867791175842285,0.9229618906974792
1730865967.6335382,-1.8015090227127075,1.1125519275665283,-9.858222961425781,-0.02114493510271444,0.01560035634610189,-0.01440144972031164,1.1149793863296509,5.586806297302246,0.9229587316513062
1730865967.683565,-1.8015090227127075,1.1125519275665283,-9.858222961425781,-0.027326123274531978,0.05601979564119709,0.0008926459657008197,1.114477276802063,5.591470241546631,0.9224311709403992
1730865967.683565,-1.7416749000549316,1.0947171449661255,-9.853496551513672,-0.02278647840193386,0.0713473061100691,0.01015839093441884,1.1144740581512451,5.591498851776123,0.9224280118942261
1730865967.7336876,-1.7416749000549316,1.0947171449661255,-9.853496551513672,-0.007937501066903933,0.06418294947930352,0.012864337965578083,1.1139216423034668,5.596369743347168,0.9219116568565369
1730865967.7336876,-1.707353949546814,1.0896289348602295,-9.870576858520508,0.015108345290562302,0.04391455546646808,0.010581483207695641,1.1139179468154907,5.596401691436768,0.921908438205719
1730865967.7836096,-1.707353949546814,1.0896289348602295,-9.870576858520508,0.0431183963881774,0.021500545041944884,0.005578762112021682,1.113417148590088,5.601302146911621,0.9214231371879578
1730865967.7836096,-1.6856294870376587,1.0882185697555542,-9.87708854675293,0.07235774459669721,0.005103153333931797,-0.0003781133882389551,1.1134144067764282,5.601332187652588,0.9214202165603638
1730865967.833548,-1.6856732368469238,1.1131680011749268,-9.89499282836914,0.09943040803839887,-0.0019137988396968615,-0.0063730955773858,1.1141661405563354,5.596051216125488,0.9208335280418396
1730865967.8835711,-1.6620116233825684,1.1451038122177124,-9.884458541870117,0.12132262190298343,-0.0009932120178013917,-0.01201809203526766,1.1141310930252075,5.600840091705322,0.9203202724456787
1730865967.9334772,-1.6620116233825684,1.1451038122177124,-9.884458541870117,0.13410272199261072,0.0030823034142917656,-0.01654715640397107,1.1155195236206055,5.592896938323975,0.919740617275238
1730865967.9334772,-1.6606212854385376,1.1801331043243408,-9.870457649230957,0.13311456956464282,0.004960234152070287,-0.018337783724351492,1.1155226230621338,5.5929274559021,0.9197368025779724
1730865967.9834714,-1.653437852859497,1.1797866821289062,-9.851520538330078,0.11636575740184463,0.0015325087914601976,-0.01589533371510045,1.1161346435546875,5.59745454788208,0.9191531538963318
1730865968.0334425,-1.653437852859497,1.1797866821289062,-9.851520538330078,0.08722255201538681,-0.007030635451511755,-0.008976653398435662,1.1170039176940918,5.602005481719971,0.9185346364974976
1730865968.0334425,-1.6758476495742798,1.1824043989181519,-9.821070671081543,0.053157048629482256,-0.01823477704058164,0.001487541432084937,1.1170097589492798,5.602032661437988,0.9185308814048767
1730865968.0835173,-1.7237505912780762,1.1566532850265503,-9.81063461303711,0.02176382825278719,-0.02886963058753257,0.014204445651123972,1.1180118322372437,5.606521129608154,0.9179211854934692
1730865968.1334534,-1.7996176481246948,1.1426687240600586,-9.782665252685547,-0.003298011882158323,-0.036041473269661777,0.028271602867734193,1.1195857524871826,5.5982666015625,0.9174923896789551
1730865968.1835039,-1.8628112077713013,1.1092867851257324,-9.77823543548584,-0.023429784039420764,-0.03752434104666396,0.04287665691403488,1.1205850839614868,5.6023969650268555,0.9170265793800354
1730865968.2334023,-1.8774480819702148,1.0935637950897217,-9.79169750213623,-0.04172885316516585,-0.031997096347146016,0.05559767406042497,1.1222425699234009,5.591184616088867,0.9167304635047913
1730865968.2834685,-1.8534674644470215,1.108945369720459,-9.822172164916992,-0.05838592727764373,-0.01975782590659561,0.061806186127561544,1.123818039894104,5.5785675048828125,0.9165066480636597
1730865968.3333826,-1.7973651885986328,1.1064001321792603,-9.855999946594238,-0.0692815275273737,-0.003804925871389362,0.057285040280157226,1.1244733333587646,5.5819549560546875,0.916460394859314
1730865968.3833833,-1.749116063117981,1.0848197937011719,-9.900351524353027,-0.06820543059036577,0.010817532833482385,0.0412565861322697,1.1249545812606812,5.585334777832031,0.9165369272232056
1730865968.4334073,-1.749116063117981,1.0848197937011719,-9.900351524353027,-0.05082713228432381,0.020190243289745793,0.016471423389868255,1.1252903938293457,5.588780403137207,0.9166863560676575
1730865968.4334073,-1.6887575387954712,1.0780417919158936,-9.944061279296875,-0.0177102753792305,0.02378658664058115,-0.012762155129004141,1.1252920627593994,5.588802337646484,0.9166874289512634
1730865968.4834383,-1.660573959350586,1.0784896612167358,-9.943114280700684,0.02611067667757715,0.02368394651961066,-0.0424473666987703,1.1262649297714233,5.5770440101623535,0.9166848063468933
1730865968.5333052,-1.6808581352233887,1.0688133239746094,-9.9386625289917,0.0729349594530324,0.02245538504513389,-0.06913332452936105,1.1274243593215942,5.56396484375,0.9165415167808533
1730865968.5834394,-1.6925055980682373,1.0484857559204102,-9.91047477722168,0.11206385950941719,0.0215867173819691,-0.08814401449130901,1.1281044483184814,5.5670647621154785,0.9163166284561157
1730865968.6333168,-1.7340891361236572,1.0040960311889648,-9.874168395996094,0.1310709295840697,0.021431410925756927,-0.09319902793383929,1.1297340393066406,5.554593086242676,0.9158928394317627
1730865968.6832635,-1.7513102293014526,0.9668171405792236,-9.831408500671387,0.12238087926089788,0.022426404560732575,-0.08006161939724438,1.1310384273529053,5.55753755569458,0.9152286052703857
1730865968.7332773,-1.7513102293014526,0.9668171405792236,-9.831408500671387,0.0889309795551208,0.02531819825868977,-0.050590133738732224,1.132612705230713,5.560553550720215,0.9143980741500854
1730865968.7332773,-1.7555934190750122,0.9132131338119507,-9.825553894042969,0.04275472351057318,0.030239272238967503,-0.012711758156075947,1.132623553276062,5.560573101043701,0.914392352104187
1730865968.783267,-1.7511773109436035,0.8991687297821045,-9.808719635009766,-0.0015515321402787153,0.03707356428518908,0.023597578792435972,1.134315013885498,5.547011375427246,0.9138461947441101
1730865968.833155,-1.7511773109436035,0.8991687297821045,-9.808719635009766,-0.033117173327160965,0.04592770068896449,0.0506775022183058,1.1359447240829468,5.549938201904297,0.9130846261978149
1730865968.833155,-1.7669599056243896,0.9138646125793457,-9.811017036437988,-0.04752209217985507,0.05508667049784008,0.06457719968152564,1.13595449924469,5.549956798553467,0.9130803346633911
1730865968.8833268,-1.7647291421890259,0.9623916149139404,-9.817171096801758,-0.046422608059319394,0.05956107199089795,0.06443125007742732,1.137479305267334,5.553005695343018,0.9124651551246643
1730865968.9331322,-1.7647291421890259,0.9623916149139404,-9.817171096801758,-0.0355363912275371,0.05370812180807578,0.05231128214734578,1.1388084888458252,5.53896951675415,0.912307620048523
1730865968.9331322,-1.774051547050476,0.9942019581794739,-9.836055755615234,-0.02170031551184926,0.035443414120903495,0.03292734371028765,1.1388171911239624,5.5389885902404785,0.9123051166534424
1730865968.9830694,-1.7563841342926025,1.0308074951171875,-9.850176811218262,-0.010113601807321546,0.008133644152047568,0.011884569799309814,1.1401666402816772,5.541971206665039,0.9119241237640381
1730865969.0331802,-1.7418923377990723,1.052126407623291,-9.863423347473145,-0.0028559211010727435,-0.021458286257110062,-0.006545605025471845,1.1415258646011353,5.544993877410889,0.9115422964096069
1730865969.0830772,-1.7634446620941162,1.1164103746414185,-9.859697341918945,0.0008509996963425811,-0.04772362494111249,-0.020543674871688733,1.1428662538528442,5.54789400100708,0.9111314415931702
1730865969.1331055,-1.7613576650619507,1.1499154567718506,-9.857751846313477,0.002842901360236679,-0.06943863652735409,-0.03025098535447596,1.143891453742981,5.531869888305664,0.9110234379768372
1730865969.1830616,-1.7668864727020264,1.152148723602295,-9.854114532470703,0.004206646649158,-0.088408662976142,-0.03632092479965741,1.1451011896133423,5.514092922210693,0.9108262658119202
1730865969.2330203,-1.7668864727020264,1.152148723602295,-9.854114532470703,0.004947783318862423,-0.10399313147724012,-0.038650908944201985,1.146464228630066,5.515830039978027,0.9101840853691101
1730865969.2330203,-1.7597706317901611,1.146106243133545,-9.849930763244629,0.004774104634429996,-0.1105258052529232,-0.03645562991474026,1.1464725732803345,5.51584005355835,0.910179853439331
1730865969.2830868,-1.7832831144332886,1.1196283102035522,-9.831854820251465,0.0037348807412816492,-0.10215789565904296,-0.029519802994776724,1.1476277112960815,5.498499870300293,0.9099278450012207
1730865969.3329446,-1.7911642789840698,1.0579688549041748,-9.824539184570312,0.002057511402216025,-0.07833186062762751,-0.01894413361644476,1.14899742603302,5.499460697174072,0.9091521501541138
1730865969.3830001,-1.793712854385376,1.0126854181289673,-9.833224296569824,-0.00019890441969945506,-0.04353400209918133,-0.0069263604557779045,1.1502336263656616,5.481664657592773,0.9086160659790039
1730865969.432937,-1.7517714500427246,1.0202561616897583,-9.849518775939941,-0.0026970223198813517,-0.004458794542389738,0.0036783862272799462,1.1516019105911255,5.4821343421936035,0.9078062772750854
1730865969.4829564,-1.7155946493148804,1.0792349576950073,-9.881749153137207,-0.003807081603528955,0.030675573140280507,0.009955564071883109,1.1528302431106567,5.463679790496826,0.9072391390800476
1730865969.532836,-1.6973638534545898,1.1483683586120605,-9.885079383850098,-0.0008051858538237748,0.05229203228834051,0.009907581235845066,1.1541786193847656,5.46399450302124,0.9064760208129883
1730865969.5827827,-1.6990910768508911,1.1914793252944946,-9.90003490447998,0.00754614077249824,0.05294646105244577,0.0037382749535245807,1.155538558959961,5.464441299438477,0.9057279825210571
1730865969.6338701,-1.7048535346984863,1.1952179670333862,-9.894710540771484,0.018841858909937247,0.03159466561910527,-0.005784408845368124,1.156970500946045,5.465009689331055,0.9049565196037292
1730865969.6838133,-1.7279154062271118,1.140415906906128,-9.889106750488281,0.028402739457038216,-0.0056884106307832135,-0.014886124333567504,1.1584162712097168,5.465593338012695,0.9041838049888611
1730865969.7338028,-1.727390170097351,1.0967813730239868,-9.850716590881348,0.0322330225765922,-0.047668184270037474,-0.020538043276546937,1.1592326164245605,5.448063850402832,0.9037344455718994
1730865969.7837937,-1.7448590993881226,1.0502889156341553,-9.854978561401367,0.028729179109275315,-0.08105167091522372,-0.020992958610857725,1.1608227491378784,5.448179244995117,0.9028679132461548
1730865969.8337355,-1.7205950021743774,1.0371060371398926,-9.837763786315918,0.019080436056067795,-0.0947319211180159,-0.01616029319451878,1.1619975566864014,5.42854642868042,0.9019796848297119
1730865969.8838043,-1.7044275999069214,1.004769206047058,-9.838481903076172,0.006821723923736049,-0.0841043881813873,-0.00789949646541019,1.163679599761963,5.427929878234863,0.9010301828384399
1730865969.9337204,-1.6762114763259888,1.0011883974075317,-9.852025985717773,-0.0033990874569143356,-0.05329103387342997,0.0007443685548748466,1.1653575897216797,5.427145004272461,0.9000763893127441
1730865969.9836867,-1.6579885482788086,0.9812003374099731,-9.872231483459473,-0.007425999346950631,-0.0131055560851705,0.0067001822732860065,1.167022943496704,5.426276683807373,0.8991314172744751
1730865970.0337353,-1.6788157224655151,1.0039273500442505,-9.869159698486328,-0.003072002699102996,0.02450036287663806,0.007669686568642593,1.1677014827728271,5.40692663192749,0.8985675573348999
1730865970.0836577,-1.7302862405776978,0.9892690777778625,-9.866273880004883,0.008345986644676518,0.051113609039131896,0.00306621340587302,1.1693438291549683,5.405919075012207,0.8976593613624573
1730865970.1336935,-1.7302862405776978,0.9892690777778625,-9.866273880004883,0.021079527004575056,0.06315056301959845,-0.00512828109521149,1.1703392267227173,5.385836601257324,0.8967224359512329
1730865970.1336935,-1.7561147212982178,1.0005706548690796,-9.84821891784668,0.027287787445467636,0.061217791456225884,-0.012959052230308224,1.170350432395935,5.385829448699951,0.8967163562774658
1730865970.1836424,-1.7561147212982178,1.0005706548690796,-9.84821891784668,0.022354255489484078,0.04883818892109598,-0.01661989873422401,1.1710683107376099,5.3647847175598145,0.8953437209129333
1730865970.1836424,-1.7367112636566162,1.0267400741577148,-9.844929695129395,0.008099053394651985,0.030772641317964963,-0.014420623076775881,1.1710809469223022,5.364775657653809,0.8953365683555603
1730865970.2335315,-1.7292639017105103,1.0034098625183105,-9.847564697265625,-0.008697454203970539,0.011643128241269044,-0.007466545113640479,1.1727925539016724,5.363549709320068,0.8943586349487305
1730865970.283596,-1.7082710266113281,1.0320013761520386,-9.856908798217773,-0.020199167350991025,-0.00481853889318379,0.0010783358417609293,1.1744763851165771,5.362326145172119,0.8933681845664978
1730865970.3336132,-1.7297741174697876,1.0265306234359741,-9.872505187988281,-0.021305929612582583,-0.016429567031472605,0.007622582221071301,1.1761209964752197,5.3610663414001465,0.8923810124397278
1730865970.3835676,-1.73284912109375,1.026072382926941,-9.879054069519043,-0.011817347287164255,-0.02298141031004673,0.009553507970850795,1.176276683807373,5.343186855316162,0.8916582465171814
1730865970.4335475,-1.7507237195968628,1.0402652025222778,-9.899032592773438,0.003804661388745129,-0.02563280651959712,0.005976007184316935,1.1778353452682495,5.341609954833984,0.8907217979431152
1730865970.4835615,-1.7441734075546265,1.067531943321228,-9.886956214904785,0.01868768347578745,-0.025848017512182228,-0.0019360602901109807,1.1794353723526,5.339954853057861,0.889782726764679
1730865970.5335526,-1.7646288871765137,1.0706843137741089,-9.89332103729248,0.02669250999877041,-0.025135797164299034,-0.01128031433460204,1.1810716390609741,5.338257312774658,0.8888391256332397
1730865970.583584,-1.8092890977859497,1.0768513679504395,-9.85693645477295,0.02468961612187293,-0.02517824707096948,-0.018667914287020426,1.1813218593597412,5.320090293884277,0.8881561756134033
1730865970.6335008,-1.8451093435287476,1.0780317783355713,-9.835271835327148,0.012859984266942235,-0.027099655143572023,-0.02142354302264901,1.1830588579177856,5.318042278289795,0.8871228694915771
1730865970.6835158,-1.8778879642486572,1.068177342414856,-9.794242858886719,-0.005912322988150304,-0.030128972794543865,-0.018052899948554774,1.1834871768951416,5.299167633056641,0.8862131237983704
1730865970.7335863,-1.8792659044265747,1.0619271993637085,-9.761591911315918,-0.0267252136578224,-0.03155915193899187,-0.00842502510891762,1.185171365737915,5.296746730804443,0.885100245475769
1730865970.7835293,-1.8781741857528687,1.0342954397201538,-9.767451286315918,-0.043781689418151824,-0.02865751460411874,0.005813144441587389,1.1856483221054077,5.277183532714844,0.8842825293540955
1730865970.8334446,-1.8452465534210205,1.0448501110076904,-9.792409896850586,-0.05192780978938924,-0.020629386757138865,0.02090034908537903,1.1861445903778076,5.258591651916504,0.8834772109985352
1730865970.8834481,-1.7909832000732422,1.0523160696029663,-9.833215713500977,-0.04828022711388554,-0.009303727998278836,0.03159880735915383,1.1874665021896362,5.255537986755371,0.8824717402458191
1730865970.9334626,-1.7380390167236328,1.0403714179992676,-9.891928672790527,-0.03290225176214323,0.0016363078206752192,0.03290473377145837,1.188690423965454,5.252466201782227,0.881544291973114
1730865970.9834626,-1.6841381788253784,1.027842402458191,-9.939653396606445,-0.007754288915454963,0.008930849895171527,0.021638175939079927,1.1898670196533203,5.249398231506348,0.880682647228241
1730865971.0333781,-1.598343849182129,1.0370818376541138,-9.97574520111084,0.025181604343804113,0.01172890029415436,-0.0029737769209131695,1.1897810697555542,5.232738971710205,0.8805378675460815
1730865971.083417,-1.598343849182129,1.0370818376541138,-9.97574520111084,0.06371596679018211,0.011287605790058806,-0.03825169689334677,1.1910637617111206,5.229578018188477,0.8796663284301758
1730865971.083417,-1.5712602138519287,1.0332560539245605,-9.993497848510742,0.10159659405155601,0.009311165903709534,-0.07581524985121689,1.1910721063613892,5.229558944702148,0.8796607255935669
1730865971.133399,-1.5712602138519287,1.0332560539245605,-9.993497848510742,0.1275027233940342,0.00696438973485621,-0.10299859465100104,1.1915547847747803,5.212117671966553,0.8793957233428955
1730865971.133399,-1.550557255744934,1.039259433746338,-9.944525718688965,0.13210415885234414,0.00485625739237727,-0.10991107932874453,1.1915651559829712,5.21209716796875,0.8793884515762329
1730865971.1834455,-1.5575945377349854,1.0153611898422241,-9.915091514587402,0.11496609374117403,0.0032515970712147886,-0.09442347120187919,1.1933735609054565,5.2087860107421875,0.8781099319458008
1730865971.233443,-1.6128383874893188,0.9890211224555969,-9.859123229980469,0.0834774518444287,0.0025449962477107502,-0.06067687912920226,1.1954354047775269,5.205470561981201,0.8766338229179382
1730865971.283348,-1.6128383874893188,0.9890211224555969,-9.859123229980469,0.04712779373685392,0.0038106023548006218,-0.015529135072571297,1.1976559162139893,5.202169418334961,0.8750655651092529
1730865971.283348,-1.700724482536316,0.9786924719810486,-9.800239562988281,0.012734351409448626,0.008373203854197458,0.033783353437696936,1.197670340538025,5.2021484375,0.8750554919242859
1730865971.3333108,-1.7688379287719727,1.0146944522857666,-9.755945205688477,-0.01777191407460257,0.01646041993816469,0.08141991566651624,1.197991967201233,5.18637228012085,0.8748780488967896
1730865971.3833656,-1.7688379287719727,1.0146944522857666,-9.755945205688477,-0.046078980413646484,0.026174326183286835,0.1231623765322808,1.198732852935791,5.169507026672363,0.8748570680618286
1730865971.3833656,-1.8208271265029907,1.02140212059021,-9.763900756835938,-0.07212986023115478,0.03381934847544061,0.15318556662517546,1.1987459659576416,5.169484615325928,0.8748505115509033
1730865971.433279,-1.8217395544052124,1.0340009927749634,-9.765320777893066,-0.09111177607248055,0.03575840920296225,0.16283707519193744,1.2006908655166626,5.166020393371582,0.8740235567092896
1730865971.48329,-1.782911777496338,1.0537012815475464,-9.80487060546875,-0.09779751663023233,0.030327885493067863,0.14651241346760463,1.201496958732605,5.149707794189453,0.8745823502540588
1730865971.5332751,-1.7525897026062012,1.0612386465072632,-9.85537052154541,-0.09099935864902413,0.01840395862611553,0.10722871043682733,1.202978253364563,5.14617919921875,0.8744661808013916
1730865971.5832372,-1.7406247854232788,1.1116029024124146,-9.87990665435791,-0.0727885404858593,0.0028473402008245352,0.055114575882474766,1.204251766204834,5.142685413360596,0.8745527863502502
1730865971.633259,-1.770524501800537,1.115897536277771,-9.90289306640625,-0.04674642201206157,-0.01303581133877519,0.002105927361182494,1.205381989479065,5.139161109924316,0.8747114539146423
1730865971.683197,-1.7900440692901611,1.1545110940933228,-9.899785995483398,-0.01803712771345369,-0.027446265044282235,-0.042639505144678395,1.2053059339523315,5.124687671661377,0.8755866885185242
1730865971.7331789,-1.8505797386169434,1.163799524307251,-9.896068572998047,0.006606523709575824,-0.04025932256865796,-0.07421565360537022,1.2053126096725464,5.109377384185791,0.876285195350647
1730865971.783353,-1.8505797386169434,1.163799524307251,-9.896068572998047,0.020797611732194722,-0.050743452430574036,-0.09022319396468689,1.2063572406768799,5.105313301086426,0.8760570883750916
1730865971.783353,-1.8653908967971802,1.1624170541763306,-9.862640380859375,0.021827381135234344,-0.05608926175459106,-0.08945152555970567,1.2063645124435425,5.105285167694092,0.8760547637939453
1730865971.8332534,-1.84821355342865,1.119704008102417,-9.858514785766602,0.012465301559194005,-0.053227895327690705,-0.07302396065418373,1.2074368000030518,5.101145267486572,0.875626266002655
1730865971.8832345,-1.8270213603973389,1.114829421043396,-9.805334091186523,-0.0008364729862695977,-0.041225498155799734,-0.04514224845983799,1.208532691001892,5.096852779388428,0.8750474452972412
1730865971.9334147,-1.8270213603973389,1.114829421043396,-9.805334091186523,-0.011352115340046924,-0.021678430183435203,-0.011503217232474378,1.2083642482757568,5.0827765464782715,0.8753957748413086
1730865971.9334147,-1.793975830078125,1.0453251600265503,-9.822367668151855,-0.01463651034047421,0.0019557558786180507,0.02212827908388648,1.2083709239959717,5.082747936248779,0.8753916621208191
1730865971.9832606,-1.7209333181381226,1.0137131214141846,-9.828447341918945,-0.009333229830058635,0.025696821804883523,0.049243087161417134,1.209397315979004,5.078315734863281,0.8748098611831665
1730865972.0332992,-1.7209333181381226,1.0137131214141846,-9.828447341918945,0.004021392570477891,0.04685689583842002,0.06294232568270836,1.209485411643982,5.063349723815918,0.875322699546814
1730865972.0332992,-1.6012029647827148,0.9719731211662292,-9.870986938476562,0.02426327758867396,0.06434770138209725,0.059476866475423516,1.2094916105270386,5.063323020935059,0.875320553779602
1730865972.0832047,-1.5673483610153198,0.9927900433540344,-9.874567985534668,0.04941474558830107,0.07690140414560614,0.04083134843845206,1.2105686664581299,5.058986186981201,0.8750188946723938
1730865972.133241,-1.5673483610153198,0.9927900433540344,-9.874567985534668,0.07666349923567224,0.08207433940683417,0.013376185951757338,1.2108935117721558,5.04473876953125,0.875634491443634
1730865972.133241,-1.5617990493774414,1.0194441080093384,-9.915316581726074,0.10240464677377292,0.07778663466158223,-0.015208140309792527,1.2109014987945557,5.044713497161865,0.8756332397460938
