Timestamp,IMU_Linear_Acc_X,IMU_Linear_Acc_Y,IMU_Linear_Acc_Z,Filtered_X,Filtered_Y,Filtered_Z,Pose_X,Pose_Y,Pose_Z
1730865946.8840554,-1.6525182723999023,1.072100281715393,-9.886634826660156,-0.07749874235677738,-0.24127456134554245,0.16943434631077608,-0.019002633169293404,-0.08020397275686264,-0.01893497072160244
1730865946.9339588,-1.6460669040679932,1.1705397367477417,-9.888028144836426,-0.03824946128254915,-0.2676478957989781,0.5016726522806727,-0.021093076094985008,-0.08902343362569809,-0.0210200697183609
1730865946.9839773,-1.5448205471038818,1.3515266180038452,-9.916738510131836,-0.04059553645770843,-0.2912228050393063,0.578041887179182,-0.004202332813292742,-0.017736393958330154,-0.004187420941889286
1730865947.0338826,-1.4505513906478882,1.3764179944992065,-9.885746955871582,-0.06582578253676756,-0.31184267567328894,0.47598241409291786,-0.0015915475087240338,-0.006717217620462179,-0.001585394493304193
1730865947.083904,-1.4505513906478882,1.3764179944992065,-9.885746955871582,-0.08987162040485593,-0.3375653708628841,0.29623179323639925,-0.0017950210021808743,-0.007575746160000563,-0.0017857487546280026
1730865947.083904,-1.483825922012329,1.3574954271316528,-9.83907413482666,-0.09374177828925513,-0.3753200046248558,0.12532563499591093,-0.001828275970183313,-0.007716045249253511,-0.0018183509819209576
1730865947.1338828,-1.5220105648040771,1.4168083667755127,-9.791072845458984,-0.07195897142095525,-0.42386216263773785,0.015945284603451754,-0.0015226226532831788,-0.006571595557034016,-0.0013920690398663282
1730865947.1838188,-1.466209888458252,1.5062932968139648,-9.781386375427246,-0.03299755085576404,-0.4759333889477151,-0.015737379657535255,-0.002820777939632535,-0.012769612483680248,-0.0024289756547659636
1730865947.2339377,-1.466209888458252,1.5062932968139648,-9.781386375427246,0.00867025494711651,-0.5250679904909795,0.018204800683225393,-0.0041471743024885654,-0.020210742950439453,-0.003461005399003625
1730865947.2339377,-1.6475468873977661,1.4503509998321533,-9.745635986328125,0.040788134759156075,-0.5684957905203694,0.09021351587903981,-0.004157261457294226,-0.02027289755642414,-0.0034687393344938755
1730865947.2838902,-1.7597566843032837,1.3032793998718262,-9.741059303283691,0.05433458428313464,-0.6037474517551202,0.17050878189706162,-0.0006633270531892776,-0.004332340322434902,-0.0003971841651946306
1730865947.3337905,-1.6816997528076172,1.2365984916687012,-9.753911018371582,0.041989121992121375,-0.6245013897230193,0.23698433203934377,-0.00020315335132181644,-0.002962232567369938,0.00020946565200574696
1730865947.3838024,-1.757475733757019,1.2633165121078491,-9.788309097290039,0.0018493507973905924,-0.6222066093960279,0.2786901428421788,-0.00012821877317037433,-0.006328147370368242,0.00123969791457057
1730865947.4338114,-1.9410609006881714,1.2342725992202759,-9.715015411376953,-0.05955506371957459,-0.5931232938269408,0.29445921889761,1.2593270540237427,3.2880969047546387,1.2640881538391113
1730865947.4836771,-1.7980672121047974,1.2204742431640625,-9.816902160644531,-0.12978553578234373,-0.5410371283956522,0.28866103250643793,1.7498780488967896,4.567401885986328,1.7578895092010498
1730865947.5337312,-1.6201061010360718,1.2407430410385132,-9.861479759216309,-0.18881060592532306,-0.47012819052629656,0.2634909563080668,2.240732431411743,5.847273826599121,2.253086566925049
1730865947.5837328,-1.6417081356048584,1.2559638023376465,-9.932706832885742,-0.20768711925200872,-0.38052949410701964,0.21464996989077437,1.1564503908157349,2.705493927001953,1.1634225845336914
1730865947.6336718,-1.4783844947814941,1.2720919847488403,-9.962823867797852,-0.164343364038459,-0.27560585346097377,0.13903563779471656,1.2582156658172607,2.9056107997894287,1.2680407762527466
1730865947.6836586,-1.4127205610275269,1.249739170074463,-9.95790958404541,-0.0638360670918464,-0.1679268615195197,0.046232858125467194,1.3598982095718384,3.1055715084075928,1.3730984926223755
1730865947.7336457,-1.4345476627349854,1.2176520824432373,-9.960887908935547,0.06283803081070313,-0.07400674070742479,-0.04156793892919123,0.9759025573730469,1.8854279518127441,0.9850782155990601
1730865947.7836764,-1.6071974039077759,1.2252144813537598,-9.856568336486816,0.17658941455427252,-0.005680525399957021,-0.10146446056619149,0.9960485100746155,1.8358757495880127,1.0061596632003784
1730865947.8337014,-1.532752275466919,1.1856809854507446,-9.923158645629883,0.24389113222258113,0.03348648474119609,-0.12077812141000217,1.0167416334152222,1.7863086462020874,1.0269838571548462
1730865947.8835726,-1.49844229221344,1.2116985321044922,-9.878271102905273,0.24541351504814846,0.0471011558067967,-0.10042021943960311,0.9045892953872681,1.3976973295211792,0.9150020480155945
1730865947.9345996,-1.521494746208191,1.106750726699829,-9.946966171264648,0.18509832858079694,0.04358127937001326,-0.05345778883406074,0.9087321758270264,1.3058781623840332,0.9186198711395264
1730865947.9846032,-1.521235466003418,1.066617727279663,-9.89339542388916,0.0897108473020195,0.03413427350483216,-0.00044166809329913674,0.8840044736862183,1.006032943725586,0.8940430879592896
1730865948.034629,-1.6524330377578735,0.9745575785636902,-9.893824577331543,-0.006062259925275371,0.0299870697634307,0.038869701960176646,0.8772151470184326,0.7302519679069519,0.8887419104576111
1730865948.0845356,-1.6524330377578735,0.9745575785636902,-9.893824577331543,-0.07666776363943774,0.037236291190570495,0.05418775482819814,0.8767415285110474,0.5713544487953186,0.8889123797416687
1730865948.0845356,-1.714928388595581,0.9513433575630188,-9.833707809448242,-0.11235618078247867,0.052758898406614865,0.04765996452553699,0.876737117767334,0.5701256990432739,0.8889142274856567
1730865948.1347377,-1.6118273735046387,0.9223973155021667,-9.884674072265625,-0.11567657492067558,0.06725486306489475,0.029741352972681805,0.876023530960083,0.411681592464447,0.8891895413398743
1730865948.1846237,-1.6118273735046387,0.9223973155021667,-9.884674072265625,-0.09529160113624971,0.07330494450778939,0.012013281481191001,0.8750463724136353,0.25314366817474365,0.8895172476768494
1730865948.1846237,-1.3661701679229736,0.9260615110397339,-9.857068061828613,-0.06011865363985112,0.0699340385765941,0.0015349959130514948,0.8750411868095398,0.25239190459251404,0.8895188570022583
1730865948.2345996,-1.2212275266647339,0.8862243294715881,-9.932165145874023,-0.013633245895982618,0.061118643799621314,-0.00046891338774696057,0.872490406036377,0.7648099064826965,0.8858292698860168
1730865948.2835228,-1.0323896408081055,0.8774198889732361,-9.941996574401855,0.046482190384950085,0.05211391389552217,0.0029313933810022003,0.8719905018806458,0.7460225224494934,0.8858028650283813
1730865948.3344536,-1.2495695352554321,0.9381879568099976,-9.924843788146973,0.11784701682467245,0.045741528544100615,0.006888140370899296,0.8706980347633362,0.8130840063095093,0.8852778077125549
1730865948.3844686,-1.4342632293701172,1.0002256631851196,-9.9284086227417,0.18229760401037526,0.040041031012761664,0.008033112048216435,0.8705778121948242,0.81003338098526,0.8852328062057495
1730865948.4344435,-1.6491162776947021,1.1198151111602783,-9.88106918334961,0.21024997645927623,0.029561252073059055,0.00625461783957088,0.8709461688995361,0.8070799708366394,0.8852056860923767
1730865948.4846096,-1.6491162776947021,1.1198151111602783,-9.88106918334961,0.1773150572500247,0.008731026631349711,0.003993853960926214,0.8718080520629883,0.8041409254074097,0.8851912021636963
1730865948.4846096,-1.8150001764297485,1.2128596305847168,-9.911548614501953,0.07811101414538034,-0.025592531006260584,0.00431443134527297,0.8718165159225464,0.8041180968284607,0.8851911425590515
1730865948.5345068,-1.8747748136520386,1.2866096496582031,-9.855307579040527,-0.07172944358769616,-0.07321392421877584,0.008759325733410052,0.8678353428840637,0.8360480070114136,0.884977400302887
1730865948.5845046,-1.8972151279449463,1.2438414096832275,-9.890105247497559,-0.24127813060832728,-0.12944050257227394,0.016426736413536633,0.8656139373779297,0.8434488773345947,0.8847886323928833
1730865948.6345894,-1.8699368238449097,1.2726092338562012,-9.829380989074707,-0.38781233408694327,-0.18149793458075458,0.024558298506050038,0.8635826706886292,0.8447759747505188,0.8847769498825073
1730865948.6844258,-1.8699368238449097,1.2726092338562012,-9.829380989074707,-0.4656827464462502,-0.21046326233504056,0.0304731765077947,0.8634764552116394,0.8499618768692017,0.8849555850028992
1730865948.6844258,-1.9649289846420288,1.1705948114395142,-9.842905044555664,-0.449666667505103,-0.2032602491999524,0.03359062748833697,0.8634581565856934,0.8499746918678284,0.8849565386772156
1730865948.7343395,-1.755480170249939,1.117276906967163,-9.814167976379395,-0.35178139831378463,-0.16024689385178276,0.03447569056956197,0.8607664108276367,0.8513545393943787,0.8851184248924255
1730865948.7843802,-1.648979902267456,1.0715574026107788,-9.870731353759766,-0.21031550896030365,-0.09109813344361375,0.032666946027982806,0.8625710010528564,0.8573977947235107,0.885120153427124
1730865948.8343627,-1.619248390197754,1.0923936367034912,-9.766934394836426,-0.0652968426140713,-0.009878475729450126,0.02752036083493825,0.8608973026275635,0.8597514629364014,0.8853161931037903
1730865948.8843756,-1.5719029903411865,1.1600306034088135,-9.814069747924805,0.05428442976999577,0.06495320283012503,0.020992801853621068,0.8640075922012329,0.8648849129676819,0.8851268887519836
1730865948.9342463,-1.4718180894851685,1.2043366432189941,-9.855443000793457,0.13147483039472727,0.11282004301199647,0.0172273551834482,0.8640797138214111,0.8683328628540039,0.8852609395980835
1730865948.9843962,-1.5622344017028809,1.2559999227523804,-9.844598770141602,0.16230907682891654,0.12036796468637065,0.01764497165148426,0.8656464219093323,0.8705183863639832,0.8851040005683899
1730865949.0343103,-1.6065484285354614,1.3037285804748535,-9.91126537322998,0.1543501066071852,0.08933158326093174,0.01841554732281245,0.8666067123413086,0.8742321729660034,0.885212779045105
1730865949.084335,-1.6464300155639648,1.3352413177490234,-9.848318099975586,0.11996518426473776,0.034595696605333036,0.014327925292050427,0.8679136633872986,0.8781129717826843,0.885362982749939
1730865949.1342292,-1.7890230417251587,1.2793657779693604,-9.847938537597656,0.07030863281951066,-0.024018665304306717,0.0039119806104699825,0.8694477081298828,0.8819794058799744,0.8855347633361816
1730865949.1843033,-1.9112098217010498,1.1769911050796509,-9.826825141906738,0.012067865509085441,-0.0690536254240589,-0.009289364747530232,0.8652814030647278,0.8754866719245911,0.8868569135665894
1730865949.2342906,-1.7468112707138062,1.169215440750122,-9.872337341308594,-0.05084168419215674,-0.08917015725369733,-0.01976972829904836,0.8653995394706726,0.8771583437919617,0.8871899843215942
1730865949.2843397,-1.7610691785812378,1.1731765270233154,-9.90518856048584,-0.10770915241459705,-0.08169247833054713,-0.024732308197039744,0.8641587495803833,0.8803232312202454,0.8885156512260437
1730865949.3341703,-1.772855281829834,1.1963719129562378,-9.869773864746094,-0.1382472701741332,-0.05396182234055228,-0.025718682517557337,0.8635616898536682,0.8821557760238647,0.8889629244804382
1730865949.3842542,-1.7723252773284912,1.1582468748092651,-9.856871604919434,-0.12867009113255579,-0.019667190026358868,-0.02496461405041238,0.8626261353492737,0.8839132189750671,0.8893510103225708
1730865949.4341888,-1.5951693058013916,1.1924304962158203,-9.84045124053955,-0.08512088236965705,0.008450721210551522,-0.021483065863563112,0.8643713593482971,0.888218104839325,0.8903588056564331
1730865949.4842129,-1.4303251504898071,1.1096744537353516,-9.871488571166992,-0.025408298731870324,0.02396021150406862,-0.012823384125135218,0.8640338182449341,0.8907200694084167,0.8908368945121765
1730865949.5342839,-1.4494115114212036,1.127644419670105,-9.831385612487793,0.0353765699265008,0.028116594315915743,0.00023815898495769053,0.8636643886566162,0.8968760371208191,0.8923147320747375
1730865949.5842733,-1.374488115310669,1.0864741802215576,-9.847817420959473,0.08804875401547681,0.027321652122304106,0.012937512947515896,0.8634806871414185,0.9006943106651306,0.893143892288208
1730865949.634126,-1.4525998830795288,1.0719263553619385,-9.802490234375,0.12555532299675123,0.027806719645622684,0.020403715226857133,0.8644958138465881,0.9033759236335754,0.8941600918769836
1730865949.684152,-1.5784028768539429,1.0320987701416016,-9.840079307556152,0.140940913353225,0.03193885964450726,0.020989465063370148,0.8651171922683716,0.9069154858589172,0.8951106667518616
1730865949.734146,-1.5448294878005981,0.9901504516601562,-9.828018188476562,0.12884500080044667,0.03876477344046787,0.01583549738275972,0.8663477301597595,0.9096930027008057,0.8957410454750061
1730865949.7841535,-1.495914340019226,0.9905200004577637,-9.897010803222656,0.09019921185806055,0.04615771231985455,0.006612716151534685,0.8673993945121765,0.9128209948539734,0.8965398073196411
1730865949.8341901,-1.5989469289779663,0.96947181224823,-9.889765739440918,0.03627149944746443,0.051641555074525655,-0.00561478614729771,0.8671088814735413,0.9174156785011292,0.8975787162780762
1730865949.8841543,-1.5671354532241821,0.9694827198982239,-9.91878890991211,-0.015156873372746644,0.052614599043880966,-0.01984051412913812,0.867529034614563,0.9218490123748779,0.8974559307098389
1730865949.9341342,-1.4966825246810913,0.9941743016242981,-9.964380264282227,-0.0489728936300021,0.04745685318604552,-0.034034750197952164,0.8679603338241577,0.9257394075393677,0.8977869749069214
1730865949.984129,-1.4800490140914917,0.969645619392395,-9.981051445007324,-0.05772409867286673,0.03643528753382453,-0.04544055685426736,0.868259608745575,0.9297544360160828,0.8980197310447693
1730865950.0342054,-1.459653377532959,1.016774296760559,-9.992463111877441,-0.04164605782352723,0.02148704037632038,-0.052523566452191986,0.868433952331543,0.933851420879364,0.8981291651725769
1730865950.0840492,-1.5144121646881104,1.049118995666504,-9.973414421081543,-0.007555597391158615,0.005017146344683199,-0.055991236977762156,0.8667721748352051,0.9295413494110107,0.8972728848457336
1730865950.1340241,-1.6105612516403198,1.0086636543273926,-9.94045639038086,0.03244749106731106,-0.011130742236261426,-0.057129366826750835,0.8667165040969849,0.9321164488792419,0.8971193432807922
1730865950.1840804,-1.5536221265792847,1.06661057472229,-9.94149398803711,0.06323777375241979,-0.024671893630488814,-0.055199153378804655,0.866219162940979,0.937122642993927,0.8973879218101501
1730865950.2339597,-1.603241205215454,1.065562129020691,-9.964529037475586,0.07235138445200998,-0.032365166807031824,-0.04775930227714311,0.8663105368614197,0.9405612945556641,0.8972464203834534
1730865950.2839465,-1.879683494567871,1.0326447486877441,-9.866992950439453,0.05547648768110966,-0.032204254972665866,-0.03398549923180165,0.8665624260902405,0.9439573884010315,0.897001326084137
1730865950.3339956,-2.0737950801849365,0.9914940595626831,-9.809025764465332,0.013188288447437739,-0.02444488351539153,-0.01534142209801759,0.8678776025772095,0.9447591304779053,0.8959237933158875
1730865950.3840535,-2.0737950801849365,0.9914940595626831,-9.809025764465332,-0.05328793235565733,-0.010545036277582322,0.006685737160651672,0.8682276606559753,0.9471824169158936,0.8955588936805725
1730865950.3840535,-1.8243703842163086,0.9407444000244141,-9.798154830932617,-0.132217183487939,0.006758101749996602,0.02966102127421511,0.868229866027832,0.947201132774353,0.8955561518669128
1730865950.4339852,-1.6435387134552002,1.0102969408035278,-9.805895805358887,-0.19119066024356662,0.023169783558314602,0.04814016363936546,0.8695294260978699,0.9543985724449158,0.8943443894386292
1730865950.4839067,-1.5730770826339722,1.1460793018341064,-9.76155948638916,-0.19239876092355257,0.033535402866446254,0.05658740441014918,0.8695239424705505,0.9586637020111084,0.8938988447189331
1730865950.5338778,-1.402429223060608,1.2469379901885986,-9.80485725402832,-0.12314783005755862,0.03162460744387954,0.053879458149010837,0.8691258430480957,0.9630076289176941,0.8935909271240234
1730865950.5837739,-1.2801685333251953,1.27745521068573,-9.844583511352539,-0.0055077508166408995,0.010600633733935293,0.04316898220799939,0.8685680031776428,0.9674015641212463,0.8934038877487183
1730865950.6338754,-1.3144124746322632,1.2810062170028687,-9.876189231872559,0.12383536309728638,-0.033055776652151064,0.028088367066805217,0.8681559562683105,0.9717894792556763,0.8933050036430359
1730865950.6837897,-1.3720238208770752,1.2254197597503662,-9.91110610961914,0.23551820023963319,-0.09500289882137289,0.010134737048774644,0.8681946992874146,0.9760133624076843,0.8932541608810425
1730865950.7338083,-1.4993278980255127,1.1518988609313965,-9.931300163269043,0.31241382672214885,-0.16233310070262946,-0.01096039283075819,0.871812641620636,0.9610131978988647,0.8929537534713745
1730865950.78379,-1.6006672382354736,1.0863429307937622,-9.86929702758789,0.3451767273861338,-0.21681999195978505,-0.03459700579193189,0.8734291195869446,0.962056577205658,0.8926347494125366
1730865950.8337855,-1.81550133228302,1.01986563205719,-9.81452465057373,0.32768822544940834,-0.2397772597307758,-0.055429762015037576,0.8755545616149902,0.967087984085083,0.8913724422454834
1730865950.8837059,-1.9375649690628052,0.9927679896354675,-9.77560806274414,0.2575565416275309,-0.21903605965837092,-0.06343465174477433,0.8780374526977539,0.9685615301132202,0.8906256556510925
1730865950.9336746,-2.0457820892333984,0.9714118242263794,-9.726194381713867,0.14364453040146916,-0.15726120826681034,-0.0513310991396603,0.8810198903083801,0.9695636034011841,0.889735996723175
1730865950.9836621,-2.0869340896606445,1.0083929300308228,-9.737180709838867,0.0094303525985698,-0.07340382674628221,-0.021062998051024153,0.878734290599823,0.9784096479415894,0.8897761702537537
1730865951.0336392,-2.0562994480133057,1.051559329032898,-9.758321762084961,-0.11544921950652069,0.006464455438713344,0.017616298379725434,0.8800233006477356,0.9812511801719666,0.8891726732254028
1730865951.083622,-1.9736506938934326,1.1039338111877441,-9.822582244873047,-0.20389596447399305,0.0604620544758838,0.05154191836396496,0.8847289681434631,0.9902761578559875,0.8883551955223083
1730865951.133597,-1.9302725791931152,1.1401413679122925,-9.887577056884766,-0.23602295370859705,0.0775452860687329,0.06811445321416433,0.8865192532539368,0.9952956438064575,0.887852668762207
1730865951.1835477,-1.8705997467041016,1.1601102352142334,-9.892549514770508,-0.2070788837812536,0.059895372668156255,0.06055810896525249,0.8908184170722961,1.0018035173416138,0.8869584202766418
1730865951.233644,-1.852792739868164,1.1702474355697632,-9.919771194458008,-0.13226692293384104,0.02080693542286463,0.031822844484429416,0.8929705023765564,1.0076227188110352,0.8864398002624512
1730865951.2836158,-1.850260853767395,1.1229956150054932,-9.914119720458984,-0.04014110746723987,-0.02164219935327273,-0.00686694095289777,0.8962220549583435,1.0141535997390747,0.887358546257019
1730865951.3335752,-1.8229795694351196,1.0839333534240723,-9.910886764526367,0.04001360496991784,-0.05143680187473907,-0.04165606208025388,0.8985496759414673,1.0197134017944336,0.8871936202049255
1730865951.3836124,-1.7985893487930298,1.0479875802993774,-9.888747215270996,0.08920905386892604,-0.05935583216425221,-0.06190188593053513,0.9031108617782593,1.024232029914856,0.8875940442085266
1730865951.4335694,-1.7535266876220703,0.9978740811347961,-9.872357368469238,0.10372226876030932,-0.04485709400809289,-0.06337625310086209,0.9093488454818726,1.033433437347412,0.8876041769981384
1730865951.4836032,-1.7225205898284912,0.9698752164840698,-9.863229751586914,0.09220457360251572,-0.014927896109904928,-0.04852401761380006,0.9137036204338074,1.0396729707717896,0.8873210549354553
1730865951.533507,-1.668954610824585,0.9353963732719421,-9.8529052734375,0.06849524835957133,0.019392825481304464,-0.024557037649814376,0.9182259440422058,1.0458711385726929,0.8869489431381226
1730865951.583536,-1.6359572410583496,0.9215210676193237,-9.852986335754395,0.045831999078153496,0.048020760370189486,2.5918785963359274e-05,0.9229170083999634,1.0521889925003052,0.8865441083908081
1730865951.6334298,-1.6144894361495972,0.9229671359062195,-9.850465774536133,0.034115162163579404,0.06599774892136363,0.01888261632788068,0.9134909510612488,1.0451610088348389,0.8876403570175171
1730865951.6834772,-1.6067534685134888,0.9610587358474731,-9.857247352600098,0.0376490783364662,0.07332575617390195,0.029245434715942403,0.9153779745101929,1.0490965843200684,0.8876527547836304
1730865951.7344527,-1.5976148843765259,1.0084751844406128,-9.867647171020508,0.052702769250096516,0.07083582302275898,0.03111967687117846,0.915129542350769,1.0576716661453247,0.8878052234649658
1730865951.7843916,-1.6114647388458252,1.0301212072372437,-9.874835968017578,0.06888546379615883,0.05773564082915617,0.025928233343391723,0.9168727993965149,1.0637465715408325,0.8879296779632568
1730865951.8344188,-1.5975745916366577,1.018343448638916,-9.889068603515625,0.07562753139468142,0.03454546042767998,0.01596799057248225,0.9187968373298645,1.0699372291564941,0.8881065249443054
1730865951.8845086,-1.6075562238693237,0.9683912396430969,-9.893061637878418,0.06824425040958726,0.006767195269210048,0.004071236392142634,0.9161741137504578,1.0697771310806274,0.887971043586731
1730865951.934418,-1.626556634902954,0.905511736869812,-9.897462844848633,0.049011907924783424,-0.01632324725584652,-0.0071418214324084715,0.9172184467315674,1.0739556550979614,0.8880354166030884
1730865951.9844997,-1.6508206129074097,0.8503293991088867,-9.890620231628418,0.02414278457739898,-0.02607353821641195,-0.015617825412531504,0.9182937145233154,1.084388017654419,0.8880448341369629
1730865952.034278,-1.668717384338379,0.7852784395217896,-9.882685661315918,-6.540704238549178e-05,-0.018207634589406073,-0.019814612777200345,0.9195268154144287,1.090732216835022,0.8880362510681152
1730865952.0843859,-1.668717384338379,0.7852784395217896,-9.882685661315918,-0.019216168797336248,0.005100394479416485,-0.019052089151833068,0.9204742312431335,1.0946648120880127,0.8879830241203308
1730865952.0843859,-1.666137456893921,0.7490000128746033,-9.847501754760742,-0.030880386333009137,0.035672426544297954,-0.01384832800352862,0.9204844832420349,1.0947152376174927,0.8879825472831726
1730865952.134316,-1.6244356632232666,0.7482098340988159,-9.854060173034668,-0.03410703830095482,0.06299347152204736,-0.00548718092795869,0.9215959310531616,1.1004592180252075,0.8879193067550659
1730865952.1843207,-1.5937052965164185,0.7874472141265869,-9.882034301757812,-0.02875520434972839,0.07883333749357578,0.004427566775554969,0.9226416945457458,1.1064454317092896,0.8878541588783264
1730865952.2342668,-1.5707736015319824,0.8576775789260864,-9.910017013549805,-0.015015020759231487,0.07939298682900899,0.013579613360852645,0.9183703660964966,1.1054857969284058,0.8879945874214172
1730865952.2842512,-1.587791085243225,0.9232023358345032,-9.935588836669922,0.005621991787228401,0.06457038104654876,0.01882968474968692,0.9169759750366211,1.1152621507644653,0.8880268931388855
1730865952.3342435,-1.5839658975601196,0.9715844392776489,-9.951668739318848,0.028316121408062063,0.0371684578291841,0.017680391389114557,0.9165610074996948,1.1212233304977417,0.8881042003631592
1730865952.3842833,-1.6285433769226074,0.9795622229576111,-9.949352264404297,0.04527507249857009,0.0031075098820520387,0.010173374387091687,0.9137125611305237,1.126137137413025,0.8879176378250122
1730865952.4342704,-1.6731714010238647,0.9589577913284302,-9.931402206420898,0.04975265623529498,-0.029422966370443553,-0.000761577287184215,0.9126306772232056,1.1319334506988525,0.8879213333129883
1730865952.4843504,-1.7608195543289185,0.9085907340049744,-9.892904281616211,0.03924691083859731,-0.051948877832601964,-0.01044038808990912,0.9116563200950623,1.137648344039917,0.8879109621047974
1730865952.5342863,-1.8198007345199585,0.8613375425338745,-9.845653533935547,0.014778150270577878,-0.057481034796533104,-0.013793804529465778,0.911159098148346,1.138474464416504,0.8877755999565125
1730865952.5842535,-1.8743910789489746,0.8098325729370117,-9.812735557556152,-0.020651900511545043,-0.0428966661464491,-0.0071612961934410585,0.9103504419326782,1.1427356004714966,0.8877032399177551
1730865952.634168,-1.8814746141433716,0.8248398900032043,-9.78154468536377,-0.060716700631183375,-0.011848090924870136,0.009203585532443584,0.9091033935546875,1.1529549360275269,0.887780487537384
1730865952.6841817,-1.8178749084472656,0.9012826681137085,-9.799697875976562,-0.0946412185664402,0.024749283593950955,0.030163476691108793,0.9078759551048279,1.1593433618545532,0.8878197073936462
1730865952.7341259,-1.7743693590164185,0.9895063042640686,-9.821540832519531,-0.11032316137451778,0.051940410007947746,0.0476556081082483,0.9068887233734131,1.1629993915557861,0.8878714442253113
1730865952.7841399,-1.7426655292510986,1.0704177618026733,-9.879551887512207,-0.09997228894198515,0.05651820080835823,0.053990021821666914,0.9053581357002258,1.1688098907470703,0.8880781531333923
1730865952.834016,-1.7173658609390259,1.144403100013733,-9.899643898010254,-0.06512002484732132,0.03367924195171468,0.04504833244399326,0.9069986939430237,1.175481915473938,0.8879512548446655
1730865952.884022,-1.7238008975982666,1.201750636100769,-9.902915954589844,-0.017227874957654515,-0.009991063519733414,0.02235747016166245,0.9063007831573486,1.1815983057022095,0.8881649374961853
1730865952.9340377,-1.7645459175109863,1.1820310354232788,-9.86949348449707,0.0275270402803314,-0.059859731912322495,-0.006744156706312055,0.9080119729042053,1.1848021745681763,0.8881521224975586
1730865952.9839852,-1.83077871799469,1.1543887853622437,-9.82955265045166,0.05498042041728987,-0.09942142434260594,-0.031428249357675575,0.909015953540802,1.193098545074463,0.8882739543914795
1730865953.0339887,-1.8594506978988647,1.0799541473388672,-9.79504680633545,0.05798078831802848,-0.11596425191470505,-0.042355209675835996,0.9094892144203186,1.1985830068588257,0.8882725238800049
1730865953.0839276,-1.8404059410095215,1.018115758895874,-9.759230613708496,0.038963730239353934,-0.10408747666584935,-0.03621147767015619,0.9100852608680725,1.2038073539733887,0.8881726861000061
1730865953.1339393,-1.7897979021072388,0.9865586757659912,-9.764646530151367,0.00866239044214768,-0.0659906813001848,-0.01609149618359914,0.9107372760772705,1.2087903022766113,0.8880082368850708
1730865953.1840162,-1.698754072189331,1.0258070230484009,-9.786855697631836,-0.01851158467371191,-0.009809192591440925,0.011234974056565627,0.9098948240280151,1.207741141319275,0.888421893119812
1730865953.2339149,-1.6195176839828491,1.096706748008728,-9.849236488342285,-0.029886702103479892,0.0513966002297684,0.03752772559060147,0.9100624918937683,1.211834192276001,0.8885084390640259
1730865953.2839737,-1.5690386295318604,1.1863417625427246,-9.894932746887207,-0.019425600946733585,0.09986443106328645,0.053841475712482996,0.9101695418357849,1.216141700744629,0.8887099027633667
1730865953.3338645,-1.5596836805343628,1.2637195587158203,-9.941064834594727,0.010194692344688842,0.11671183724186249,0.05210553897930327,0.909127414226532,1.2210625410079956,0.8887576460838318
1730865953.384044,-1.59630286693573,1.3051685094833374,-9.960204124450684,0.049483059336427646,0.09132358257674766,0.029155820321158626,0.9090762138366699,1.2264156341552734,0.8890432715415955
1730865953.4338489,-1.6284863948822021,1.3273265361785889,-9.94701862335205,0.0846453872890489,0.030582177653576244,-0.008982060004980568,0.9091920852661133,1.231863260269165,0.8893511891365051
1730865953.4840422,-1.6553434133529663,1.316172480583191,-9.920696258544922,0.1009173656234658,-0.04252329758304832,-0.0479520840331293,0.908668041229248,1.235477328300476,0.8889139294624329
1730865953.5338588,-1.6599690914154053,1.2806527614593506,-9.860176086425781,0.0896387638095525,-0.10170953637803305,-0.07245318288761489,0.9112816452980042,1.2489417791366577,0.8890773057937622
1730865953.583919,-1.6765570640563965,1.1801283359527588,-9.819402694702148,0.05443641603722641,-0.12923716855896292,-0.07390751489673755,0.9124984741210938,1.255739450454712,0.8889133930206299
1730865953.6338382,-1.6720153093338013,1.0732054710388184,-9.787087440490723,0.00944795554687149,-0.11880304218478559,-0.05310376088325027,0.9142690896987915,1.2599492073059082,0.8893258571624756
1730865953.6838663,-1.6663193702697754,0.9791675806045532,-9.763050079345703,-0.02918502048602866,-0.07395454719488904,-0.01826478951406439,0.915514349937439,1.2651578187942505,0.8892200589179993
1730865953.7339408,-1.6707918643951416,0.9239218235015869,-9.750232696533203,-0.050976298305095265,-0.006920209536490061,0.019067448223903362,0.9166676998138428,1.270302414894104,0.8891147375106812
1730865953.7837968,-1.6994575262069702,0.9047927856445312,-9.781537055969238,-0.05374743159392151,0.06455481674873471,0.04832801836023864,0.9167747497558594,1.27274751663208,0.8896376490592957
1730865953.8338177,-1.7137017250061035,0.9450106620788574,-9.824131965637207,-0.04245852529748424,0.1234332661796255,0.06286420561072517,0.9175620079040527,1.2779606580734253,0.8898796439170837
1730865953.8838098,-1.7199853658676147,1.0237822532653809,-9.900525093078613,-0.025646522554796224,0.15651588325105908,0.06025112029102299,0.9193276762962341,1.2865668535232544,0.8900205492973328
1730865953.933771,-1.7121604681015015,1.109671950340271,-9.941783905029297,-0.010949234226313049,0.15471913406169174,0.04125255979599496,0.9220390915870667,1.2955294847488403,0.8902426362037659
1730865953.9838536,-1.7125602960586548,1.1412822008132935,-9.991416931152344,-0.002159363538523683,0.1172997677792889,0.010298044827625592,0.9236444234848022,1.302950143814087,0.8905648589134216
1730865954.033785,-1.7383090257644653,1.1559922695159912,-9.991555213928223,0.000754900369945167,0.05605822925728339,-0.024185114995240176,0.9252451062202454,1.3105746507644653,0.890869140625
1730865954.0837812,-1.7700742483139038,1.0934906005859375,-9.966474533081055,-0.0007002589852082024,-0.008712828625877928,-0.05280515560645716,0.9241098165512085,1.3088903427124023,0.8901156187057495
1730865954.1337168,-1.7931220531463623,1.0574482679367065,-9.924484252929688,-0.005587485281978654,-0.05752144820322729,-0.06889872499759908,0.9249453544616699,1.3136937618255615,0.8899577260017395
1730865954.1838078,-1.8051255941390991,0.9757516384124756,-9.861323356628418,-0.013215205104073304,-0.0783077683840261,-0.06909976450243845,0.9261785745620728,1.323194980621338,0.8898847103118896
1730865954.233678,-1.8243852853775024,0.909440279006958,-9.807530403137207,-0.02194440683551415,-0.06841655506693559,-0.052674383450623086,0.9271894693374634,1.3296841382980347,0.8895806074142456
1730865954.2837088,-1.831785798072815,0.8526820540428162,-9.77783489227295,-0.0294184750399939,-0.033888893631922455,-0.02251134268909665,0.9284680485725403,1.3312886953353882,0.889832079410553
1730865954.3335953,-1.7967559099197388,0.8678164482116699,-9.767488479614258,-0.033509552896823024,0.01287207907755869,0.014029904506147054,0.9294777512550354,1.3362256288528442,0.8896949887275696
1730865954.3836603,-1.7605763673782349,0.9291214346885681,-9.799591064453125,-0.03228800483061712,0.0561849660775869,0.04678576573212356,0.9312393665313721,1.34340500831604,0.88996821641922
1730865954.433618,-1.710945725440979,1.0032237768173218,-9.818702697753906,-0.023860666143294046,0.08084775466972034,0.06618068240303454,0.9323309659957886,1.3491840362548828,0.890136182308197
1730865954.4836576,-1.7012803554534912,1.053971767425537,-9.838756561279297,-0.007800632300026094,0.07754102143862104,0.06698421482006596,0.9345629215240479,2.0113847255706787,0.8901388049125671
1730865954.5335536,-1.6881037950515747,1.0379717350006104,-9.849413871765137,0.013143154875757006,0.04747291017793157,0.05056271361240425,0.9360606670379639,2.2319915294647217,0.8904369473457336
1730865954.5836434,-1.7113316059112549,0.9963055849075317,-9.854170799255371,0.03330198803897685,0.0029723569132897275,0.023952621702586153,0.9361301064491272,2.7121503353118896,0.8901745676994324
1730865954.6335702,-1.745736837387085,0.9328804016113281,-9.85682487487793,0.04614548485996714,-0.03706295417841881,-0.003467191310569246,0.9373964667320251,3.030730962753296,0.8903266191482544
1730865954.683587,-1.7479357719421387,0.8603179454803467,-9.831171989440918,0.04701409295386231,-0.05590507559832599,-0.02364741721605264,0.9387800693511963,3.3493762016296387,0.8904448747634888
1730865954.733575,-1.7491909265518188,0.843873918056488,-9.839099884033203,0.03526478346982167,-0.046079673386348094,-0.032131406248944644,0.9371621012687683,3.179704427719116,0.890051007270813
1730865954.7836032,-1.719849944114685,0.8954249024391174,-9.856204986572266,0.014837231474205133,-0.01133738410485215,-0.028812439545102313,0.9378975629806519,3.3630549907684326,0.8899527192115784
1730865954.8335345,-1.69038987159729,1.013269066810608,-9.893735885620117,-0.006626212227808476,0.0332779059067924,-0.017936591115030792,0.93881756067276,3.746014356613159,0.8899564743041992
1730865954.8834958,-1.6407148838043213,1.1782209873199463,-9.94733715057373,-0.020334523054013214,0.06500455144142835,-0.0066924405568658885,0.9409785270690918,4.454336166381836,0.889956533908844
1730865954.9335127,-1.5968351364135742,1.3148117065429688,-9.980710983276367,-0.020553616851195215,0.0646968430428136,-0.0017537212940819788,0.9424629211425781,4.942825794219971,0.8899083733558655
1730865954.9834745,-1.5788203477859497,1.3853707313537598,-9.986942291259766,-0.007557324985440662,0.028174188700116565,-0.005710971119462693,0.9439176917076111,5.433328151702881,0.8898506164550781
1730865955.0333755,-1.59587824344635,1.345052719116211,-9.986001014709473,0.013372278087625939,-0.03338260601144881,-0.016386256164837545,0.9421219825744629,4.891092300415039,0.8899489641189575
1730865955.0834413,-1.6471034288406372,1.241713523864746,-9.92891788482666,0.034802550813980454,-0.10039092925587219,-0.02872764259171666,0.9428451061248779,5.115540027618408,0.8898575901985168
1730865955.1334794,-1.7504501342773438,1.1041513681411743,-9.85863208770752,0.048372394961368054,-0.1493683305332268,-0.03617589077706282,0.943665623664856,5.337662696838379,0.8896859884262085
1730865955.1834555,-1.8304283618927002,0.9711137413978577,-9.74976921081543,0.04517236727348337,-0.15688823954981848,-0.031143009280696927,0.944549560546875,5.326889514923096,0.8899031281471252
1730865955.2333221,-1.9156988859176636,0.9128645658493042,-9.670672416687012,0.019118679058990878,-0.1100762417396266,-0.007768677137097164,0.9455651640892029,5.519896030426025,0.8897703289985657
1730865955.2834413,-1.9563443660736084,0.903839647769928,-9.61693286895752,-0.02700318895276395,-0.019091950842880935,0.032624554564294514,0.9465723037719727,5.713021755218506,0.8896684646606445
1730865955.3332965,-1.9662718772888184,0.9583784937858582,-9.625625610351562,-0.08047242977857655,0.08342445292098313,0.07983906999215801,0.9474447965621948,5.90615701675415,0.8897072076797485
1730865955.3834836,-1.923431158065796,1.0500279664993286,-9.705564498901367,-0.12598788867792599,0.15989834747340617,0.1204490963583946,0.9480856657028198,5.806962013244629,0.8900876045227051
1730865955.4342368,-1.8367159366607666,1.1513241529464722,-9.823517799377441,-0.15252917108833225,0.1862647445596867,0.1433451357291614,0.9485218524932861,5.96090030670166,0.8906005024909973
1730865955.4842105,-1.7143102884292603,1.2665013074874878,-9.948857307434082,-0.1529356868142023,0.15820309822102027,0.1398968116705949,0.951627254486084,6.378843784332275,0.8903716206550598
1730865955.5342638,-1.5934988260269165,1.3747628927230835,-10.055098533630371,-0.12255023106138416,0.08776388045632472,0.10469182879313374,0.9525314569473267,6.633522033691406,0.8910341858863831
1730865955.5842412,-1.4835880994796753,1.4298890829086304,-10.111140251159668,-0.06303030178108757,-0.00311608183487401,0.041022130169567336,0.9548378586769104,6.950678825378418,0.8903868794441223
1730865955.6342456,-1.443881630897522,1.4316983222961426,-10.103753089904785,0.014108288635720955,-0.0894805416537063,-0.035804039685577785,0.9561232924461365,7.232637882232666,0.8906559348106384
1730865955.6842623,-1.4952565431594849,1.3775787353515625,-10.049909591674805,0.08941733480195752,-0.14954270653470964,-0.10304522111574396,0.9574803709983826,6.836527347564697,0.8877117037773132
1730865955.7341847,-1.6399167776107788,1.2702287435531616,-9.953142166137695,0.14097809579243503,-0.16921829743926992,-0.1394512582273786,0.9589841365814209,6.909999370574951,0.8867469429969788
1730865955.7842758,-1.8158236742019653,1.1555479764938354,-9.814238548278809,0.1510323345049207,-0.14487925673715385,-0.13329776468974883,0.9612861275672913,6.727732181549072,0.8842175006866455
1730865955.8341494,-1.987913966178894,1.0372942686080933,-9.684324264526367,0.1120758836844101,-0.08371161414424208,-0.085938630450871,0.9647358655929565,6.682708740234375,0.8820629715919495
1730865955.8841746,-2.1046435832977295,0.9711049795150757,-9.589987754821777,0.031996892769122084,-0.0022021274256790145,-0.011002456917809648,0.9674040079116821,6.686339378356934,0.8802582621574402
1730865955.9341092,-2.1483964920043945,0.9394667744636536,-9.553539276123047,-0.06554519646872949,0.07737334974472529,0.0695628719491795,0.9700302481651306,6.690064430236816,0.8785268068313599
1730865955.9841945,-2.121264934539795,0.9565346837043762,-9.586009979248047,-0.1514349407153773,0.13483899742716088,0.13400319604851338,0.9723827838897705,6.694051265716553,0.8770515322685242
1730865956.0340698,-2.039263963699341,0.9619608521461487,-9.645097732543945,-0.20496013077724531,0.16042643411738292,0.16937322037884114,0.9668511748313904,6.654125213623047,0.8802451491355896
1730865956.0840585,-1.9312196969985962,0.9948458671569824,-9.719782829284668,-0.21835050780994564,0.15597216712199194,0.1728987871503775,0.9670224785804749,6.653961658477783,0.8801709413528442
1730865956.1340225,-1.8107657432556152,1.0069457292556763,-9.799466133117676,-0.19218696984148348,0.12942440577753228,0.14752979527720794,0.9666805267333984,6.6541547775268555,0.8804973363876343
1730865956.184022,-1.7375962734222412,1.0039891004562378,-9.883305549621582,-0.13055956778119698,0.08950578134874693,0.09795193451929579,0.9659366607666016,6.654621124267578,0.881129264831543
1730865956.2339506,-1.6901278495788574,0.9899908900260925,-9.963652610778809,-0.04056846379831744,0.04451680633264486,0.02947550307863779,0.9705435633659363,6.642047882080078,0.8789653778076172
1730865956.2840056,-1.6511867046356201,1.0167818069458008,-10.022025108337402,0.06479530800652669,0.002727823060406651,-0.05028343969831861,0.9713793992996216,6.6408162117004395,0.8786564469337463
1730865956.3338845,-1.626352071762085,1.0566904544830322,-10.058816909790039,0.16381251861699442,-0.029078782504451586,-0.12783873958674577,0.9753907918930054,6.639793395996094,0.8767644762992859
1730865956.3839247,-1.6089198589324951,1.1275053024291992,-10.08283519744873,0.23053308695798608,-0.04818383443525494,-0.1847660657731166,0.9775949120521545,6.638916492462158,0.8755532503128052
1730865956.433835,-1.548673152923584,1.161179542541504,-10.08017635345459,0.2481229633934654,-0.05680239483003306,-0.20652796363417053,0.9808921217918396,6.6379265785217285,0.8739848136901855
1730865956.4838657,-1.5168516635894775,1.1840696334838867,-10.051786422729492,0.21868146252474546,-0.0598696832392827,-0.1903176545421607,0.9843010306358337,6.6382880210876465,0.8741627335548401
1730865956.533793,-1.4813148975372314,1.1318827867507935,-9.987784385681152,0.16013315593359495,-0.06069378637962512,-0.1446531104178485,0.9877645373344421,6.63775110244751,0.8728837966918945
1730865956.5838237,-1.4938756227493286,1.0512200593948364,-9.905617713928223,0.09520157360685157,-0.05752841826494599,-0.08332714371135433,0.9915644526481628,6.637063980102539,0.8713135123252869
1730865956.6337664,-1.5253958702087402,0.9455553293228149,-9.82075309753418,0.041597345237762304,-0.044089380242745,-0.01850880178315726,0.9955211877822876,6.636252403259277,0.869621753692627
1730865956.683823,-1.6069215536117554,0.8572342395782471,-9.72569751739502,0.007085531778164487,-0.013221975660738313,0.043696736083461356,0.9872161746025085,6.637928485870361,0.8745145797729492
1730865956.7337284,-1.7038275003433228,0.803158164024353,-9.66273307800293,-0.01090450062174513,0.037679620759744646,0.10200527390836381,0.988663375377655,6.637670516967773,0.8744487762451172
1730865956.7837372,-1.8090814352035522,0.8006678223609924,-9.635173797607422,-0.02170825985459511,0.10017858226219302,0.15293654648990052,0.9917924404144287,6.63770866394043,0.8752713799476624
1730865956.8336544,-1.8927173614501953,0.8072279691696167,-9.634767532348633,-0.035415761175658506,0.15458389693273836,0.18687836583118578,0.996069610118866,6.639188289642334,0.8779471516609192
1730865956.883653,-1.9440635442733765,0.8602471947669983,-9.668485641479492,-0.056531683612399145,0.18056868611378477,0.19356457356088458,0.9984354376792908,6.640186309814453,0.879572331905365
1730865956.9336395,-1.9826576709747314,0.9154075980186462,-9.733817100524902,-0.08106691172753334,0.16836654774933746,0.16933646158649984,1.000641107559204,6.64162540435791,0.8816593885421753
1730865956.9837236,-1.9989776611328125,0.9727869033813477,-9.810914993286133,-0.10088329627662598,0.12110106238650378,0.11848310136695255,1.0022245645523071,6.640391826629639,0.8810842633247375
1730865957.033659,-1.9968469142913818,1.0430967807769775,-9.891023635864258,-0.11048022962401578,0.05110579032720818,0.05073186511677991,1.0039567947387695,6.641294002532959,0.8825966119766235
1730865957.083661,-1.9078164100646973,1.1033395528793335,-9.982389450073242,-0.1078253809084462,-0.024517387015572947,-0.02118141042699891,1.0054138898849487,6.642228126525879,0.8841437101364136
1730865957.1336153,-1.811535358428955,1.1505705118179321,-10.037453651428223,-0.0908108292017138,-0.08930876588948367,-0.08495049660012693,1.0065027475357056,6.64068603515625,0.8829670548439026
1730865957.1835968,-1.684177279472351,1.158101201057434,-10.068291664123535,-0.05688817024031443,-0.13307926068344486,-0.13285349501363566,1.0077422857284546,6.6406426429748535,0.8834841847419739
1730865957.2335598,-1.607757568359375,1.1402833461761475,-10.083259582519531,-0.0070440836753756664,-0.1522077575237856,-0.1611379875448661,1.0089037418365479,6.640242576599121,0.8836346864700317
1730865957.2836456,-1.5794684886932373,1.0847864151000977,-10.054425239562988,0.05217214233688907,-0.14607389504428764,-0.16707979984108207,1.010116696357727,6.6394734382629395,0.8833766579627991
1730865957.3335211,-1.6266781091690063,1.0333889722824097,-10.00820255279541,0.1115712223096836,-0.11640692260468152,-0.15042461085579353,1.0121642351150513,6.6312761306762695,0.8843991160392761
1730865957.3835816,-1.7076492309570312,0.985153317451477,-9.948284149169922,0.1613150983203236,-0.0688459721566388,-0.11553542309351886,1.016205906867981,6.623188018798828,0.886163592338562
1730865957.4335127,-1.7534598112106323,0.9991579055786133,-9.872818946838379,0.18943650660154274,-0.013731336224962252,-0.0698826603484021,1.0190004110336304,6.61942720413208,0.8865163326263428
1730865957.4836228,-1.761965274810791,1.019677996635437,-9.80775260925293,0.1846822883095737,0.03491118267438688,-0.02122930045025296,1.0222355127334595,6.615726947784424,0.8867519497871399
1730865957.5335631,-1.7332777976989746,1.0601274967193604,-9.740081787109375,0.14531194851706283,0.06376229024526427,0.024937970922313937,1.0258870124816895,6.612143039703369,0.8869926333427429
1730865957.5835302,-1.7360866069793701,1.0578792095184326,-9.706241607666016,0.08305221797338361,0.06588530262776393,0.06715998295788678,1.0298503637313843,6.608697891235352,0.8873510360717773
1730865957.633568,-1.7078824043273926,1.0534155368804932,-9.675688743591309,0.017263748976803845,0.04332672335759666,0.10722352292390894,1.0210367441177368,6.607954025268555,0.8884910941123962
1730865957.683474,-1.7233083248138428,1.0290294885635376,-9.678693771362305,-0.03428405353546218,0.005993523070253229,0.14588704768001115,1.0224517583847046,6.604964733123779,0.8893922567367554
1730865957.733404,-1.7296462059020996,1.0342074632644653,-9.693284034729004,-0.06190263680339296,-0.03169439031845022,0.1771486267398661,1.0250862836837769,6.592525482177734,0.8911504149436951
1730865957.7834828,-1.7782323360443115,1.0552161931991577,-9.738544464111328,-0.06594359532895991,-0.05631251549577297,0.1884587671240453,1.0269153118133545,6.586098670959473,0.8929327726364136
1730865957.833414,-1.8271551132202148,1.1032934188842773,-9.756502151489258,-0.054742082356448916,-0.06193160725048729,0.1699755601971422,1.0285720825195312,6.579600811004639,0.8951411843299866
1730865957.8834038,-1.8970963954925537,1.1459044218063354,-9.80887222290039,-0.040572085805021516,-0.052983130716623035,0.12272245243892135,1.0301114320755005,6.5729570388793945,0.8977138996124268
1730865957.933347,-1.9201931953430176,1.1988476514816284,-9.833016395568848,-0.03542837714886765,-0.04094943088272693,0.05734501880363242,1.028585433959961,6.577427864074707,0.891234815120697
1730865957.983341,-1.93211030960083,1.2210768461227417,-9.855461120605469,-0.04614040095887212,-0.0371452537580675,-0.011733396824580208,1.0294402837753296,6.573338031768799,0.8918535709381104
1730865958.0332818,-1.8952357769012451,1.1917591094970703,-9.863088607788086,-0.06920877345852344,-0.04518361982051658,-0.07007539317529832,1.033976674079895,6.560532569885254,0.8906324505805969
1730865958.0833924,-1.8952357769012451,1.1917591094970703,-9.863088607788086,-0.09133367709242214,-0.05859212907134766,-0.10589358033228072,1.0359002351760864,6.5530877113342285,0.890522837638855
1730865958.0833924,-1.8420480489730835,1.143674373626709,-9.883455276489258,-0.09846238759404645,-0.0665692529564005,-0.11395862526269415,1.0359150171279907,6.55302619934082,0.8905208706855774
1730865958.1332362,-1.7618697881698608,1.129366159439087,-9.8805570602417,-0.0842152645829011,-0.06159008176268026,-0.09786331462847081,1.037463665008545,6.544229984283447,0.8898739218711853
1730865958.1833367,-1.694387674331665,1.115341305732727,-9.905627250671387,-0.050507356964365376,-0.042528885612037284,-0.06793371858927422,1.0390359163284302,6.536126613616943,0.889411211013794
1730865958.2332082,-1.6100733280181885,1.094612956047058,-9.931663513183594,-0.004614159475643569,-0.014311093368318583,-0.03649019800558794,1.0405384302139282,6.5279541015625,0.888817548751831
1730865958.2832747,-1.5418109893798828,1.0807050466537476,-9.972339630126953,0.04434549662250222,0.014765175998786354,-0.013715749367385259,1.041610598564148,6.525936603546143,0.889517605304718
1730865958.3331993,-1.499990701675415,1.0729589462280273,-10.015694618225098,0.08905404660266214,0.03734297236663774,-0.005399230751206785,1.044571042060852,6.511131286621094,0.8894269466400146
1730865958.383289,-1.4388550519943237,1.0682786703109741,-10.016959190368652,0.12372403104835286,0.04951275085433585,-0.011417675576556485,1.0467660427093506,6.502558708190918,0.8892456293106079
1730865958.4332135,-1.4234479665756226,1.0768064260482788,-10.036955833435059,0.14246836235114319,0.05056649511084006,-0.025588232998862637,1.049382209777832,6.487691879272461,0.8891700506210327
1730865958.4831707,-1.4432932138442993,1.1116139888763428,-10.005428314208984,0.1419170793932426,0.0421412289419444,-0.038909832095306775,1.0524418354034424,6.475964069366455,0.8888930678367615
1730865958.5341525,-1.5085569620132446,1.1484904289245605,-9.962830543518066,0.12320834637783659,0.027064779259582103,-0.04389958740324154,1.05589759349823,6.464114665985107,0.8885044455528259
1730865958.5831633,-1.5824558734893799,1.1850098371505737,-9.87814998626709,0.0894104914645216,0.007704557736126839,-0.036138560112189175,1.0519272089004517,6.480339527130127,0.8889647722244263
1730865958.6341417,-1.7026240825653076,1.1562330722808838,-9.797066688537598,0.04361059067748229,-0.014116201930177891,-0.014182623933055584,1.053721308708191,6.475164890289307,0.888713002204895
1730865958.6841717,-1.8434793949127197,1.0966352224349976,-9.701960563659668,-0.010126719858053673,-0.034330530698788275,0.019603845475358248,1.0555098056793213,6.4700703620910645,0.8884743452072144
1730865958.7341104,-1.9647480249404907,1.0394996404647827,-9.635427474975586,-0.06753716427813146,-0.044821072213179554,0.059721940962493524,1.0572106838226318,6.46484899520874,0.8883336186408997
1730865958.7841659,-2.0362460613250732,0.9632866978645325,-9.589738845825195,-0.1275643041632335,-0.03662617362203845,0.10146866638209881,1.0534814596176147,6.472331523895264,0.8890726566314697
1730865958.8331368,-2.0580220222473145,0.9396564364433289,-9.595098495483398,-0.19038175984127712,-0.006184040765961081,0.14192522370888472,1.0537638664245605,6.468898773193359,0.889458179473877
1730865958.8841126,-2.0260348320007324,0.9472898840904236,-9.640368461608887,-0.2474042014385796,0.03944648100706388,0.17434424130013926,1.0551873445510864,6.461545944213867,0.8893476724624634
1730865958.9341154,-1.9630955457687378,1.0134309530258179,-9.721592903137207,-0.27829977077604223,0.08320321760915446,0.18573498962032736,1.0549821853637695,6.457334995269775,0.890142560005188
1730865958.984118,-1.895137906074524,1.0919886827468872,-9.815616607666016,-0.26429842144439075,0.10622759595305607,0.16475095947076301,1.056785225868225,6.448420524597168,0.8894662261009216
1730865959.0339692,-1.8222602605819702,1.1473636627197266,-9.905097961425781,-0.20273972388749772,0.09738670901884398,0.1107043702645158,1.0564489364624023,6.443117141723633,0.8902537226676941
1730865959.0840662,-1.7455374002456665,1.1361726522445679,-9.956357955932617,-0.10878474765578486,0.05864035588340659,0.035013210501998855,1.059768795967102,6.436708450317383,0.8891003727912903
1730865959.1339521,-1.700907826423645,1.1482601165771484,-10.000899314880371,-0.007186900975147074,0.0044161334286764616,-0.04354480036480979,1.0605684518814087,6.430419921875,0.8892777562141418
1730865959.1839936,-1.7207727432250977,1.1174755096435547,-10.020934104919434,0.07774761211646242,-0.0456121736127209,-0.1061322044800827,1.0614566802978516,6.424077033996582,0.8892678618431091
1730865959.233999,-1.7523990869522095,1.134559988975525,-9.988039016723633,0.12908726392573278,-0.07580091877364727,-0.14037189664347188,1.0616025924682617,6.424617290496826,0.8898619413375854
1730865959.2839696,-1.8286563158035278,1.1376848220825195,-9.950651168823242,0.1405706256308519,-0.08028484009814955,-0.14334902589996926,1.0627120733261108,6.419749736785889,0.889569103717804
1730865959.3339097,-1.8731988668441772,1.1633003950119019,-9.883402824401855,0.11616212602119577,-0.06361638222991164,-0.11977478740136595,1.0641359090805054,6.410183906555176,0.891286313533783
1730865959.3839538,-1.8731988668441772,1.1633003950119019,-9.883402824401855,0.06699302882492437,-0.03688322050417063,-0.07807978048222554,1.0656766891479492,6.403352737426758,0.8913150429725647
1730865959.3839538,-1.87714421749115,1.2097761631011963,-9.829784393310547,0.008989330558947694,-0.011766462686369362,-0.028879902726111108,1.0645924806594849,6.405222415924072,0.892420768737793
1730865959.43391,-1.87714421749115,1.2097761631011963,-9.829784393310547,-0.04032377797012263,0.003949743678551321,0.016017015597102856,1.065596342086792,6.398933410644531,0.8929991722106934
1730865959.43391,-1.8527741432189941,1.2444229125976562,-9.779115676879883,-0.068039505802192,0.007956284260461834,0.04717686913611053,1.065601110458374,6.39890193939209,0.8930022120475769
1730865959.483997,-1.7791498899459839,1.2536530494689941,-9.761033058166504,-0.07011722092087817,0.002437207241212511,0.06123907990834297,1.0664682388305664,6.392609119415283,0.8936786651611328
1730865959.5338774,-1.7433054447174072,1.2289862632751465,-9.7857084274292,-0.04969044747025963,-0.008431790254532947,0.06150885276605204,1.066500186920166,6.3780717849731445,0.8945457339286804
1730865959.583923,-1.7001326084136963,1.2023404836654663,-9.813427925109863,-0.013596943221076904,-0.020148599540132216,0.05447873227515521,1.0669633150100708,6.370342254638672,0.8953359127044678
1730865959.6338441,-1.658395528793335,1.1724835634231567,-9.855494499206543,0.028689451568083755,-0.02793484127453587,0.04447945689623863,1.068618893623352,6.353937149047852,0.896212637424469
1730865959.6838272,-1.589672565460205,1.1396898031234741,-9.88569164276123,0.06645019116196145,-0.02748027324194951,0.03161529870916436,1.0700702667236328,6.336930751800537,0.8976107835769653
1730865959.733828,-1.5081108808517456,1.1046420335769653,-9.922158241271973,0.091694547255183,-0.017285088252549326,0.014818289575287823,1.0713456869125366,6.3249921798706055,0.8986821174621582
1730865959.7838185,-1.4295170307159424,1.1049782037734985,-9.95274543762207,0.102494659872819,-4.274107761054798e-05,-0.004724262470837843,1.0728648900985718,6.313028812408447,0.8997663855552673
1730865959.833836,-1.4295170307159424,1.1049782037734985,-9.95274543762207,0.10334913583827213,0.01890536134176458,-0.02406694251224063,1.074639916419983,6.301103115081787,0.9008133411407471
1730865959.833836,-1.4276865720748901,1.1359474658966064,-9.951932907104492,0.10238472838555153,0.0343418563097664,-0.04079463279577469,1.0746545791625977,6.301011562347412,0.9008211493492126
1730865959.8838398,-1.4848183393478394,1.1582427024841309,-9.916403770446777,0.10612082848228968,0.042646882561901266,-0.05356922761826557,1.0716955661773682,6.315709114074707,0.8986921906471252
1730865959.9337692,-1.5948827266693115,1.1681678295135498,-9.850994110107422,0.11437547460290157,0.042072249549483354,-0.060843996763226924,1.0731436014175415,6.301802635192871,0.8995212316513062
1730865959.9839382,-1.7093874216079712,1.1369863748550415,-9.79179573059082,0.11832523232918617,0.03334458697500087,-0.059670046235013846,1.0744987726211548,6.293298244476318,0.8998321294784546
1730865960.0338023,-1.8193243741989136,1.1080282926559448,-9.737626075744629,0.10477335557339656,0.020463559353196777,-0.046779763178679414,1.0752151012420654,6.2820844650268555,0.9007819890975952
1730865960.083812,-1.884267807006836,1.1029753684997559,-9.714607238769531,0.06562459718284053,0.009517135023154558,-0.02177536079930143,1.0766220092773438,6.2731170654296875,0.9011632204055786
1730865960.1337838,-1.9105286598205566,1.1115912199020386,-9.716594696044922,0.005485348342431435,0.004857401544956832,0.010404968598223364,1.078114628791809,6.264187335968018,0.9015294313430786
1730865960.1837988,-1.9257912635803223,1.116139531135559,-9.744019508361816,-0.05956487847377802,0.006170593164076112,0.04040119561193921,1.0766620635986328,6.258493900299072,0.9021114706993103
1730865960.2337227,-1.9447674751281738,1.1083884239196777,-9.78177261352539,-0.11137527765183883,0.009749649211315794,0.05874842486103077,1.0771888494491577,6.2496819496154785,0.9027408361434937
1730865960.28374,-1.942165493965149,1.0875669717788696,-9.824285507202148,-0.13818452246175283,0.012171110326433959,0.05998734473674246,1.077873706817627,6.239412307739258,0.9018966555595398
1730865960.3336928,-1.9253342151641846,1.0885087251663208,-9.844911575317383,-0.1368363781882333,0.012474244258340508,0.04409453705975426,1.0781112909317017,6.229549407958984,0.902246356010437
1730865960.383695,-1.8715403079986572,1.0781447887420654,-9.8873929977417,-0.1114688833723062,0.011485240978878186,0.016276888747849723,1.0780383348464966,6.219769477844238,0.9026694297790527
1730865960.4336674,-1.8378441333770752,1.0401469469070435,-9.917705535888672,-0.07041233326779082,0.010330839056920978,-0.01520422044425001,1.0777387619018555,6.210000991821289,0.903094470500946
1730865960.48365,-1.7672381401062012,1.032460331916809,-9.951805114746094,-0.02218172020816612,0.010351221194884415,-0.0434564779172516,1.0798512697219849,6.219801425933838,0.899770200252533
1730865960.5337403,-1.7021394968032837,1.0370874404907227,-9.975760459899902,0.026604874327998494,0.012988573736782912,-0.0654818603177731,1.0801849365234375,6.214172840118408,0.899331271648407
1730865960.5838394,-1.65043306350708,1.073177456855774,-10.0149564743042,0.07023141681458668,0.017837401889525043,-0.08025299649761367,1.0833321809768677,5.63789701461792,0.8972404599189758
1730865960.6337297,-1.6014059782028198,1.14634108543396,-10.020565032958984,0.10290424346404378,0.02121138146581092,-0.08646994737246175,1.0848264694213867,5.451655864715576,0.8960924744606018
1730865960.6836996,-1.5850491523742676,1.22859787940979,-9.987622261047363,0.12027661622993946,0.017580390403926484,-0.08298757841466936,1.0867739915847778,5.08931303024292,0.8949987888336182
1730865960.733647,-1.6096011400222778,1.2526041269302368,-9.945744514465332,0.12109373820089411,0.002911895685635282,-0.06968685015680362,1.0887762308120728,4.855417728424072,0.8936506509780884
1730865960.7837098,-1.665219783782959,1.2559261322021484,-9.857342720031738,0.10652575860850526,-0.02145470463186494,-0.047435732040464224,1.0910600423812866,4.6218743324279785,0.8921580910682678
1730865960.8336103,-1.7471556663513184,1.2027697563171387,-9.769553184509277,0.07823254257386993,-0.04745826132987301,-0.017187743669315456,1.0935699939727783,4.388671398162842,0.8905876874923706
1730865960.8836133,-1.8258168697357178,1.1118991374969482,-9.667461395263672,0.03728090678357615,-0.06397285306944417,0.02155681831799257,1.0891587734222412,4.633883953094482,0.8931748867034912
1730865960.9335773,-1.8815194368362427,1.0185134410858154,-9.608986854553223,-0.014305841953011733,-0.06213285648273939,0.06936915337471289,1.0902433395385742,4.485962390899658,0.8925982117652893
1730865960.9835758,-1.8734042644500732,0.954424262046814,-9.58102798461914,-0.06940581985502049,-0.038918231164297205,0.12089950693411047,1.0912206172943115,4.225427150726318,0.8918260931968689
1730865961.033538,-1.8734042644500732,0.954424262046814,-9.58102798461914,-0.1146536554325818,0.0010987873626261985,0.16250024750029213,1.0919337272644043,4.058138370513916,0.8916742205619812
1730865961.033538,-1.824157476425171,0.9195178747177124,-9.613903045654297,-0.13651896238016925,0.04620952447565797,0.17942460950937306,1.0919381380081177,4.056841850280762,0.8916746377944946
1730865961.0836797,-1.7324042320251465,0.9404146075248718,-9.695297241210938,-0.12825199631740672,0.08177876423077211,0.16439978939724126,1.0923458337783813,3.889863967895508,0.8919326066970825
1730865961.133535,-1.6441199779510498,0.9858413338661194,-9.814929962158203,-0.09088449396515519,0.09718777075266032,0.1192221339260284,1.0937278270721436,3.7460579872131348,0.8921381235122681
1730865961.1836119,-1.5686087608337402,1.074684739112854,-9.920032501220703,-0.03125583449797048,0.08962651846539882,0.0519001121640625,1.0942864418029785,3.5844779014587402,0.8925239443778992
1730865961.2334654,-1.542607307434082,1.151999592781067,-10.003628730773926,0.038104760385172784,0.06208364270016831,-0.025207155841492926,1.0961800813674927,3.2373414039611816,0.8919580578804016
1730865961.283573,-1.5542049407958984,1.2301385402679443,-10.041191101074219,0.09998797277488078,0.02019645669882547,-0.09682050743952622,1.097440481185913,3.0068254470825195,0.8918092250823975
1730865961.3333614,-1.6225168704986572,1.2406723499298096,-10.066964149475098,0.13770666206715693,-0.02810137210143729,-0.14834003443134292,1.0989866256713867,2.777966022491455,0.8913573622703552
1730865961.3834236,-1.7253564596176147,1.2138913869857788,-10.027120590209961,0.14053501616025083,-0.07254421714405233,-0.17033350448791892,1.1008917093276978,2.5473268032073975,0.8905037045478821
1730865961.4334004,-1.8377536535263062,1.1672279834747314,-9.96264362335205,0.10566412852569805,-0.10334493785291111,-0.16146438761539098,1.0984671115875244,2.8245344161987305,0.8913500905036926
1730865961.4834306,-1.8791604042053223,1.118408203125,-9.90227222442627,0.03889171154406911,-0.11437063185830836,-0.12775039625966725,1.0995503664016724,2.6990373134613037,0.8905621767044067
1730865961.5334456,-1.8703622817993164,1.049418330192566,-9.87574577331543,-0.04334890786684972,-0.10366045738136005,-0.0789167687338843,1.1006146669387817,2.3366503715515137,0.8909944891929626
1730865961.5833516,-1.7904411554336548,0.9940613508224487,-9.860814094543457,-0.11562330009022699,-0.07301235423048746,-0.02558124933367406,1.1026906967163086,1.8328579664230347,0.8909037113189697
1730865961.6333067,-1.6464136838912964,0.9628157019615173,-9.86606502532959,-0.15337330530322457,-0.02889491659843568,0.021659472924067176,1.103720784187317,1.5090378522872925,0.8905676007270813
1730865961.683353,-1.5627888441085815,0.9482263922691345,-9.848698616027832,-0.143513162411467,0.017521862901484823,0.05358162182809496,1.1043803691864014,1.1848344802856445,0.8903253078460693
1730865961.7333167,-1.562458872795105,0.9341247081756592,-9.841981887817383,-0.08792651492111285,0.05451571018121175,0.06553032924536334,1.1047500371932983,0.8607683181762695,0.890232264995575
1730865961.783527,-1.5797141790390015,0.9555282592773438,-9.840194702148438,-0.001176674770768011,0.07537612368389562,0.05970890259018943,1.1030371189117432,1.3873344659805298,0.8927783370018005
1730865961.8334281,-1.656130313873291,1.0449622869491577,-9.828990936279297,0.09343837306798829,0.0794322919025456,0.04350227429402237,1.1033810377120972,1.2258727550506592,0.8933074474334717
1730865961.883437,-1.7408385276794434,1.130565881729126,-9.812065124511719,0.16763012013737233,0.06793180887249789,0.025356591664311832,1.1040538549423218,1.0638281106948853,0.8939251899719238
1730865961.933372,-1.8037424087524414,1.1793253421783447,-9.80042552947998,0.19498539498154993,0.04042790483202144,0.011660634340631481,1.1051744222640991,0.9028007984161377,0.8945857286453247
1730865961.9834905,-1.8700915575027466,1.1633671522140503,-9.820185661315918,0.16204701501908284,-0.0036763983385971616,0.0056411751075294055,1.103386402130127,1.5266320705413818,0.8945516347885132
1730865962.0333447,-1.9134926795959473,1.100498914718628,-9.80792236328125,0.07628824704213347,-0.059494348252014204,0.0071688739243302504,1.1042108535766602,1.4993449449539185,0.895012378692627
1730865962.083408,-1.9134926795959473,1.100498914718628,-9.80792236328125,-0.03452768398827169,-0.11221936882689966,0.013258030561992816,1.103549599647522,1.5971734523773193,0.8960999250411987
1730865962.083408,-1.9817607402801514,0.9967160820960999,-9.799867630004883,-0.13308227712004872,-0.14124550698748983,0.01979943763202264,1.1035517454147339,1.5971163511276245,0.8961053490638733
1730865962.1332574,-2.009242534637451,0.8998187184333801,-9.762540817260742,-0.19062326208498187,-0.1320653162607188,0.02380234412806536,1.1035817861557007,1.589715600013733,0.8968207240104675
1730865962.1833553,-2.0146119594573975,0.8520634174346924,-9.732019424438477,-0.1998020142148086,-0.08370415055290933,0.024994672022677113,1.1033201217651367,1.6245155334472656,0.8977379202842712
1730865962.2332752,-1.9653370380401611,0.8578269481658936,-9.763777732849121,-0.1722329200792858,-0.0077983209215757715,0.02538407969763054,1.103287696838379,1.6306723356246948,0.8992075324058533
1730865962.2832632,-1.8760980367660522,0.9307280778884888,-9.811843872070312,-0.12559814675778722,0.07349559525032334,0.02597098087032073,1.102634310722351,1.6302709579467773,0.9002336263656616
1730865962.3331802,-1.7786275148391724,1.0387083292007446,-9.875558853149414,-0.07243096577262673,0.13197649020084867,0.0239986202711699,1.101736307144165,1.6301265954971313,0.9013186693191528
1730865962.3832405,-1.7020138502120972,1.1243410110473633,-9.926508903503418,-0.017283236818786744,0.14431270193822487,0.01427656728547084,1.100721836090088,1.6303274631500244,0.9024567604064941
1730865962.4332123,-1.6601722240447998,1.1989141702651978,-9.964488983154297,0.040378426192556514,0.10207431007464535,-0.007494748685718472,1.103466272354126,1.6343085765838623,0.8989654779434204
1730865962.4832904,-1.6342209577560425,1.2611186504364014,-9.975395202636719,0.10048426790308951,0.01490900535815471,-0.04137584154585148,1.1035561561584473,1.634744644165039,0.8990755677223206
1730865962.5331616,-1.622498869895935,1.2675787210464478,-9.962905883789062,0.155505671304917,-0.0908201931607476,-0.07982985932428444,1.104491114616394,1.6352136135101318,0.8984805345535278
1730865962.5832772,-1.639206886291504,1.2061913013458252,-9.937066078186035,0.19033435181557065,-0.17978320080338603,-0.10881301347399597,1.105318307876587,1.6349931955337524,0.8981589078903198
1730865962.6331246,-1.6860491037368774,1.1449236869812012,-9.880510330200195,0.19200709006975492,-0.2223015054390793,-0.11557857975792174,1.1066142320632935,1.6342746019363403,0.8975608348846436
1730865962.6834114,-1.7109571695327759,1.0855287313461304,-9.83228588104248,0.1584250308081221,-0.20591164827761002,-0.095567633983276,1.1055244207382202,1.6354286670684814,0.8981223702430725
1730865962.7330935,-1.709753394126892,1.0741137266159058,-9.788422584533691,0.09900706597449238,-0.13812861046273378,-0.05318056076224417,1.1065187454223633,1.6346611976623535,0.8976548910140991
1730865962.7832174,-1.6724727153778076,1.0828081369400024,-9.795247077941895,0.031184741003186987,-0.04342028457816137,0.0001437115049585172,1.105850338935852,2.171865224838257,0.9000018239021301
1730865962.8330767,-1.6206578016281128,1.0981696844100952,-9.837224006652832,-0.02508748044369145,0.04564355335607259,0.048964943404924466,1.1063461303710938,2.341844081878662,0.9005045294761658
1730865962.8830912,-1.5427521467208862,1.13316011428833,-9.84755802154541,-0.05453635692550366,0.10216913095697654,0.07899655973330666,1.1059705018997192,2.705345630645752,0.9020658135414124
1730865962.933006,-1.5629488229751587,1.1618047952651978,-9.863628387451172,-0.05218076976856535,0.11511408919352645,0.08261988182991856,1.1060564517974854,2.9305737018585205,0.9031293988227844
1730865962.9830446,-1.629149079322815,1.215698003768921,-9.845447540283203,-0.025614891213166326,0.08992913189159396,0.062140977516628615,1.1060447692871094,3.155122756958008,0.9043692350387573
1730865963.0340078,-1.6967530250549316,1.2590280771255493,-9.838217735290527,0.006992587129203321,0.04184224542935554,0.02861095642936965,1.1060093641281128,3.3847131729125977,0.9057521820068359
1730865963.084012,-1.7413307428359985,1.2730633020401,-9.82457160949707,0.0248327289730033,-0.012975467956595757,-0.0038757270362313606,1.1062648296356201,3.1309218406677246,0.901892364025116
1730865963.1339903,-1.7413307428359985,1.2730633020401,-9.82457160949707,0.015368741630246919,-0.06236698839775514,-0.02465519992322758,1.106451392173767,3.265901803970337,0.9020712375640869
1730865963.1339903,-1.7646113634109497,1.2583575248718262,-9.81188678741455,-0.018120671509585243,-0.0972814265980488,-0.030004401619730066,1.1064530611038208,3.266970634460449,0.9020724296569824
1730865963.1839724,-1.7786732912063599,1.2127102613449097,-9.802888870239258,-0.05882471070581442,-0.11045032063796556,-0.02265464780002187,1.1069737672805786,3.561081886291504,0.9013208746910095
1730865963.233917,-1.8130278587341309,1.14822256565094,-9.807696342468262,-0.0884174021512835,-0.09872384660013186,-0.008654102588209173,1.1070218086242676,3.7512614727020264,0.9012470245361328
1730865963.2838762,-1.809478998184204,1.100132703781128,-9.810400009155273,-0.09771926248811252,-0.06544141539711308,0.0056352640504314,1.1068378686904907,3.941790819168091,0.9011692404747009
1730865963.333905,-1.797210454940796,1.1131501197814941,-9.829365730285645,-0.08810641953044161,-0.01912300656832268,0.015175240576831015,1.10779869556427,3.970106601715088,0.9011054039001465
1730865963.383851,-1.7991148233413696,1.125964879989624,-9.836786270141602,-0.06697801266554972,0.02934767363660326,0.017283510420552012,1.1076613664627075,4.109628677368164,0.9011270403862
1730865963.4338167,-1.7826963663101196,1.1695894002914429,-9.845488548278809,-0.04258506955818363,0.06811599950914672,0.01224757339615685,1.1089516878128052,4.450774192810059,0.9009997248649597
1730865963.4838102,-1.7767739295959473,1.2048052549362183,-9.856528282165527,-0.02078454200064663,0.08641997771822137,0.0028494568720166574,1.1091721057891846,4.6660943031311035,0.9010041952133179
1730865963.5337822,-1.8129676580429077,1.1983704566955566,-9.851751327514648,-0.004575746681724828,0.07946976606421803,-0.007185000281632701,1.1099092960357666,4.923664569854736,0.9008674621582031
1730865963.5838563,-1.865580439567566,1.1427628993988037,-9.82577133178711,0.004494553578401559,0.052212811468167114,-0.014602048097845714,1.110274076461792,5.153780460357666,0.9007939100265503
1730865963.633715,-1.881205439567566,1.0834192037582397,-9.824111938476562,0.005260542073884149,0.01805012736919967,-0.017100871066847437,1.1106692552566528,5.395158290863037,0.900675356388092
1730865963.68373,-1.863053321838379,1.0553536415100098,-9.826824188232422,-0.0025036645242673275,-0.006636600705772004,-0.013611938769403392,1.1108757257461548,5.287246227264404,0.9008423686027527
1730865963.7337158,-1.8265241384506226,1.0528087615966797,-9.850543975830078,-0.016434482764287515,-0.010283513485562484,-0.005098622505365516,1.1111581325531006,5.434979438781738,0.900772213935852
1730865963.7837036,-1.8265241384506226,1.0528087615966797,-9.850543975830078,-0.030581613495745726,0.00693102039144804,0.00492512800619263,1.111368179321289,5.574430465698242,0.9007053971290588
1730865963.7837036,-1.7715882062911987,1.0776413679122925,-9.877630233764648,-0.03715274620115028,0.03316712045836333,0.01154156030462084,1.111369252204895,5.575254440307617,0.9007050395011902
1730865963.8336518,-1.7354477643966675,1.0973707437515259,-9.941924095153809,-0.0302308487932334,0.053129455858187374,0.010564673898625039,1.1117846965789795,5.717950820922852,0.9007581472396851
1730865963.8837056,-1.689695954322815,1.1317925453186035,-9.966397285461426,-0.008623374045776896,0.05681879391265298,9.384500743141394e-05,1.1120185852050781,5.881211280822754,0.9007415771484375
1730865963.9335935,-1.689695954322815,1.1317925453186035,-9.966397285461426,0.02280584411885601,0.042909049663647794,-0.017991429467253336,1.112268328666687,6.043399810791016,0.900702953338623
1730865963.9335935,-1.6389662027359009,1.1293141841888428,-9.971222877502441,0.05464776003311629,0.017281406021382256,-0.037656787837205205,1.112270474433899,6.044665813446045,0.9007024765014648
1730865963.9836588,-1.6623183488845825,1.1505361795425415,-9.938908576965332,0.07832346552085254,-0.011109325211724436,-0.05176371124362013,1.1127750873565674,6.1298651695251465,0.9024614095687866
1730865964.0335605,-1.685981035232544,1.114296793937683,-9.907242774963379,0.08999598703225567,-0.03431072211521789,-0.055737400603098175,1.1134041547775269,6.281256675720215,0.9026743769645691
1730865964.0836053,-1.685981035232544,1.114296793937683,-9.907242774963379,0.08899741160355133,-0.04685428814868526,-0.04846628985703187,1.113550066947937,6.048777103424072,0.9023484587669373
1730865964.0836053,-1.7127622365951538,1.098321795463562,-9.828071594238281,0.07560192795595663,-0.04593671193955041,-0.031576630550287386,1.1135551929473877,6.049038410186768,0.9023478031158447
1730865964.1335196,-1.7381293773651123,1.0863145589828491,-9.812661170959473,0.05188305909835087,-0.032596932957347474,-0.00822934900360951,1.1142668724060059,6.082223892211914,0.9022550582885742
1730865964.1835907,-1.7394286394119263,1.1070185899734497,-9.751754760742188,0.022384516343956586,-0.012016642891819434,0.018527565690060664,1.114101767539978,5.975155353546143,0.9046209454536438
1730865964.2335656,-1.7783422470092773,1.099996566772461,-9.74980354309082,-0.0073175305934395805,0.00875441443725084,0.04615098601890492,1.114560604095459,5.977283000946045,0.9054475426673889
1730865964.2834716,-1.775434136390686,1.1180026531219482,-9.734968185424805,-0.032190737309714265,0.023689055104306352,0.07054692109062113,1.1149694919586182,5.979448318481445,0.9064188003540039
1730865964.3334875,-1.775434136390686,1.1180026531219482,-9.734968185424805,-0.04873522592365209,0.029522121386832127,0.08536959949316243,1.1144596338272095,5.9455766677856445,0.9084314107894897
1730865964.3334875,-1.7961090803146362,1.0978853702545166,-9.74190616607666,-0.055747256072516835,0.02635926498457819,0.08580593266277783,1.1144603490829468,5.945560932159424,0.9084412455558777
1730865964.3834748,-1.8024729490280151,1.096219539642334,-9.761283874511719,-0.0543545801155125,0.017485671234645877,0.07208807285222898,1.1144791841506958,5.943637847900391,0.9097309708595276
1730865964.4334664,-1.8024729490280151,1.096219539642334,-9.761283874511719,-0.04728204786168103,0.007977416371216423,0.04864632346443652,1.115051507949829,5.927645206451416,0.9123141169548035
1730865964.4334664,-1.8615046739578247,1.0873790979385376,-9.789366722106934,-0.038084188780323235,0.0021380773268595164,0.02149922628668762,1.1150524616241455,5.927610397338867,0.912326991558075
1730865964.4834557,-1.8906596899032593,1.113863468170166,-9.796687126159668,-0.030679661023947508,0.0013423216378155426,-0.0036895610991591176,1.115133285522461,5.92327880859375,0.9139315485954285
1730865964.533443,-1.8906596899032593,1.113863468170166,-9.796687126159668,-0.028739464839959074,0.003725951496914383,-0.022995310181750245,1.1151405572891235,5.91893196105957,0.9155109524726868
1730865964.533443,-1.8843986988067627,1.1354656219482422,-9.818350791931152,-0.034331816760176825,0.005717872032643124,-0.0350430840609174,1.1151403188705444,5.918895244598389,0.9155240654945374
1730865964.5834439,-1.8520234823226929,1.1645499467849731,-9.829914093017578,-0.04642669994149529,0.00404628188948646,-0.04101972178304803,1.1150540113449097,5.914591312408447,0.9170116782188416
1730865964.6334517,-1.8085271120071411,1.176212191581726,-9.861815452575684,-0.06061106897865309,-0.003231394178381277,-0.04398371529352984,1.1154637336730957,5.913147449493408,0.9157065153121948
1730865964.6834452,-1.7181299924850464,1.1627516746520996,-9.876137733459473,-0.07013267398760882,-0.015986677693833676,-0.047218407944101655,1.115342617034912,5.909204959869385,0.9166511297225952
1730865964.7333987,-1.6924563646316528,1.1392431259155273,-9.905946731567383,-0.0676808129264993,-0.030592472459560947,-0.05180152372043212,1.115900993347168,5.89967679977417,0.9179431796073914
1730865964.7834475,-1.6710063219070435,1.1597439050674438,-9.915834426879883,-0.04870525252800591,-0.04053166976694453,-0.055768367768969734,1.115808367729187,5.89394998550415,0.9188684821128845
1730865964.8333828,-1.6623401641845703,1.1732234954833984,-9.910504341125488,-0.01577011530996017,-0.0411203855537474,-0.05608532414656456,1.1156294345855713,5.887824058532715,0.9196979999542236
1730865964.8834436,-1.664509892463684,1.188157320022583,-9.918722152709961,0.021109558004393916,-0.033621504518466266,-0.05098956800404726,1.1154649257659912,5.881916046142578,0.9203552603721619
1730865964.933397,-1.664509892463684,1.188157320022583,-9.918722152709961,0.05034524469197725,-0.023910196378807903,-0.0409938802544215,1.1164404153823853,5.885226726531982,0.9198856949806213
1730865964.933397,-1.6572636365890503,1.1673773527145386,-9.908549308776855,0.06500844805966192,-0.01764336746278889,-0.02855056999244769,1.1164419651031494,5.885195255279541,0.9198892712593079
1730865964.9834638,-1.6591688394546509,1.130024790763855,-9.90406608581543,0.06441769252244192,-0.016074863598952265,-0.0164305794430627,1.116716980934143,5.881222248077393,0.9203199148178101
1730865965.0333724,-1.6374982595443726,1.1253414154052734,-9.897210121154785,0.05246890347104797,-0.015333872541255242,-0.006174307822650511,1.1170740127563477,5.871867656707764,0.9223458170890808
1730865965.0834715,-1.6542800664901733,1.1127800941467285,-9.890379905700684,0.03526200182489575,-0.010143821446465773,0.0019671703150686017,1.117617130279541,5.859974384307861,0.9245613813400269
1730865965.1333466,-1.6624219417572021,1.1077226400375366,-9.87459659576416,0.018455982141753008,0.0011060164237618282,0.008132078764318009,1.1180874109268188,5.85235071182251,0.9259267449378967
1730865965.183495,-1.6803877353668213,1.1172305345535278,-9.872438430786133,0.005180593185620111,0.014865759619732343,0.012358653552438146,1.118589162826538,5.844717979431152,0.927323043346405
1730865965.2333581,-1.6642932891845703,1.1443051099777222,-9.851571083068848,-0.004054752220135766,0.025294087338635547,0.014924001152833453,1.1181098222732544,5.84617280960083,0.9250476956367493
1730865965.2835011,-1.676072597503662,1.1518168449401855,-9.866317749023438,-0.009981959328589968,0.027987478595994666,0.016507476593443746,1.1183151006698608,5.841350555419922,0.9255495071411133
1730865965.3333554,-1.676072597503662,1.1518168449401855,-9.866317749023438,-0.01338128207880365,0.022102423260579526,0.017281189375928225,1.1186771392822266,5.831614971160889,0.9253573417663574
1730865965.3333554,-1.688549518585205,1.173169493675232,-9.839729309082031,-0.014803776002575746,0.010405313733133534,0.01642626906377189,1.118679404258728,5.831557273864746,0.9253609776496887
1730865965.3832452,-1.7406500577926636,1.1670211553573608,-9.839791297912598,-0.015050355017046393,-0.002711273131279945,0.0136640559931235,1.1189168691635132,5.824858665466309,0.925796627998352
1730865965.4331973,-1.7592371702194214,1.1434805393218994,-9.807424545288086,-0.01594129130671451,-0.01348824776355276,0.010709599674936681,1.1194185018539429,5.816774368286133,0.9234698414802551
1730865965.4832108,-1.7919294834136963,1.1425443887710571,-9.786770820617676,-0.019981841586144675,-0.01957714931938471,0.010290050834207,1.1197032928466797,5.809325695037842,0.9230855107307434
1730865965.5332005,-1.8289555311203003,1.1339582204818726,-9.734051704406738,-0.028239311030411038,-0.02007699766162605,0.014031008155926901,1.1199287176132202,5.801810264587402,0.9227306842803955
1730865965.5832748,-1.906752586364746,1.1017496585845947,-9.722082138061523,-0.039588027039449705,-0.015489266012556426,0.021860203322924713,1.120039463043213,5.800939559936523,0.9219282865524292
1730865965.6332035,-1.9440362453460693,1.0649313926696777,-9.711519241333008,-0.05262268377976864,-0.00704716201012495,0.032680628768563466,1.1201190948486328,5.794652462005615,0.9215735197067261
1730865965.6832056,-1.954621434211731,1.0486096143722534,-9.747272491455078,-0.06584623761267777,0.004000559751828724,0.043790971604690504,1.1190505027770996,5.784163951873779,0.9206387400627136
1730865965.733109,-1.9300211668014526,1.0519165992736816,-9.785317420959473,-0.07578317404993715,0.016138942529269867,0.0502037223567254,1.1185392141342163,5.775863170623779,0.9202329516410828
1730865965.7832572,-1.8917458057403564,1.0662336349487305,-9.863221168518066,-0.07732182749464644,0.026755332539749904,0.046590399298655175,1.1178576946258545,5.767902851104736,0.9199603199958801
1730865965.8331983,-1.8917458057403564,1.0662336349487305,-9.863221168518066,-0.06631388965428352,0.03227376946228744,0.029953587882865132,1.1169887781143188,5.759897232055664,0.9197779297828674
1730865965.8331983,-1.8261340856552124,1.0515388250350952,-9.917787551879883,-0.04190048044760522,0.03016132344115909,0.0006362914612265489,1.1169809103012085,5.759831428527832,0.9197767376899719
1730865965.8832433,-1.7325536012649536,1.0188775062561035,-9.973783493041992,-0.006479788783762975,0.021201050905941706,-0.038234983806995304,1.118270754814148,5.770252227783203,0.9195758104324341
1730865965.9331484,-1.6438817977905273,1.0134690999984741,-9.997303009033203,0.036101821692315954,0.009557773281958875,-0.08142688892695248,1.1180497407913208,5.766168594360352,0.9191407561302185
1730865965.9832146,-1.6068297624588013,1.0392526388168335,-10.010113716125488,0.08030122670593333,7.609222273238922e-05,-0.12044398084767499,1.117917537689209,5.7523956298828125,0.9192653894424438
1730865966.0331244,-1.5930547714233398,1.1113393306732178,-9.983500480651855,0.1177173732213524,-0.005252659014082884,-0.14386421874637198,1.118014931678772,5.744643211364746,0.9185653328895569
1730865966.0831685,-1.6152253150939941,1.2080261707305908,-9.939994812011719,0.13905325301602878,-0.009061988855572294,-0.14264223766207962,1.1176621913909912,5.73842716217041,0.9187855124473572
1730865966.1329873,-1.6628810167312622,1.2549554109573364,-9.904179573059082,0.13787877396659176,-0.01696559612162548,-0.11538117302016104,1.1180535554885864,5.731168270111084,0.9179387092590332
1730865966.183079,-1.7237470149993896,1.2498868703842163,-9.840123176574707,0.11322973210139532,-0.03226719004979134,-0.06894367037406858,1.1187626123428345,5.723787784576416,0.9168543219566345
1730865966.232996,-1.7540323734283447,1.1959750652313232,-9.810408592224121,0.06960743304311878,-0.05148519555025327,-0.014784214517752177,1.1173079013824463,5.719601631164551,0.9186403751373291
1730865966.282932,-1.7761001586914062,1.1373709440231323,-9.77637004852295,0.015397192122801225,-0.06594018682575509,0.03612835967455944,1.1164900064468384,5.703604698181152,0.918752908706665
1730865966.3329697,-1.7739691734313965,1.080772876739502,-9.734260559082031,-0.03776069830369912,-0.06724348683939965,0.07543574170982943,1.1163028478622437,5.6942362785339355,0.9187426567077637
1730865966.3838212,-1.7863746881484985,1.0190056562423706,-9.72805404663086,-0.07675714653789475,-0.05161274178329267,0.09748506181538716,1.1152386665344238,5.684945583343506,0.9186294674873352
1730865966.4338863,-1.7863746881484985,1.0190056562423706,-9.72805404663086,-0.09253544931693947,-0.02148250309452874,0.10074157801219859,1.1144630908966064,5.674546718597412,0.9188563823699951
1730865966.4338863,-1.763444423675537,0.9958710074424744,-9.702902793884277,-0.08461094704966113,0.014877414078700711,0.08841564163761942,1.1144366264343262,5.674238204956055,0.9188669323921204
1730865966.4838243,-1.7485802173614502,0.980993390083313,-9.72205638885498,-0.05980147201652329,0.04631537646411487,0.06671599027093801,1.1134979724884033,5.664212226867676,0.9192933440208435
1730865966.5338418,-1.7739217281341553,0.9647471904754639,-9.749009132385254,-0.027719252316224206,0.06456902974873847,0.04244935936865358,1.114852786064148,5.6707682609558105,0.9185110330581665
1730865966.5839176,-1.776928424835205,1.0090956687927246,-9.792386054992676,0.0025640901892261102,0.06791982267439092,0.020621611848479136,1.1145093441009521,5.664947509765625,0.9186627268791199
1730865966.6337254,-1.7719019651412964,1.0469619035720825,-9.85647201538086,0.024153630617707277,0.05874769356855515,0.002706632264517209,1.114490032196045,5.652553081512451,0.9181167483329773
1730865966.6840096,-1.742720127105713,1.0767850875854492,-9.918389320373535,0.0337854701300004,0.039674222590205796,-0.013039604197086586,1.11431086063385,5.644322872161865,0.9180375933647156
1730865966.733826,-1.7308605909347534,1.0838773250579834,-9.983128547668457,0.03288381685329468,0.013873438021391354,-0.029220524469307146,1.1143277883529663,5.6385698318481445,0.9177918434143066
1730865966.7839155,-1.7244657278060913,1.1198302507400513,-10.016728401184082,0.026424997786132734,-0.013249585308339456,-0.04675590972737593,1.1142851114273071,5.630876064300537,0.9175527691841125
1730865966.8337839,-1.7244657278060913,1.1198302507400513,-10.016728401184082,0.019543194291872006,-0.035571065930674356,-0.06362234096350002,1.1152305603027344,5.621099948883057,0.9174879789352417
1730865966.8337839,-1.6922295093536377,1.1217204332351685,-10.01152515411377,0.0149082368260607,-0.04902887647492836,-0.07527457172095801,1.1152329444885254,5.621026515960693,0.9174851179122925
1730865966.8839517,-1.6949405670166016,1.091368556022644,-10.003122329711914,0.013081335702227664,-0.05224875494374438,-0.07704518792260126,1.1154958009719849,5.613394260406494,0.9170937538146973
1730865966.9338105,-1.6541407108306885,1.079060673713684,-9.937772750854492,0.014155332749268435,-0.04556076166925371,-0.06673067352490122,1.1161890029907227,5.605579853057861,0.9174668788909912
1730865966.9837117,-1.6971153020858765,1.0559735298156738,-9.882655143737793,0.017989719998978724,-0.03058552024175467,-0.04518379457377895,1.116594910621643,5.597777843475342,0.917138934135437
1730865967.0336804,-1.7184339761734009,1.0200108289718628,-9.829143524169922,0.022495973216183223,-0.010513028089467835,-0.015640758456441382,1.1178832054138184,5.587303638458252,0.9175060987472534
1730865967.0837424,-1.7796587944030762,0.9819168448448181,-9.78043270111084,0.022873985033364203,0.010518390626170184,0.017067922971650013,1.1187758445739746,5.576777458190918,0.9173868298530579
1730865967.1336548,-1.7767276763916016,0.9837790727615356,-9.749464988708496,0.014651731510255,0.0287915271789875,0.047398683934610525,1.1196985244750977,5.566494464874268,0.9173493981361389
1730865967.1838517,-1.7815088033676147,1.03798508644104,-9.75819206237793,-0.0025072903766078757,0.041491858029812596,0.07043960381192953,1.1189327239990234,5.570948123931885,0.9177148342132568
1730865967.2337184,-1.7815088033676147,1.03798508644104,-9.75819206237793,-0.02433207987365738,0.04647744675323876,0.08329886942249495,1.1193757057189941,5.5644307136535645,0.9179995059967041
1730865967.2337184,-1.7619465589523315,1.1153185367584229,-9.77953052520752,-0.043838457817984094,0.0425013219846468,0.08489630632908965,1.1193792819976807,5.564373970031738,0.9180029034614563
1730865967.283684,-1.7306779623031616,1.2181533575057983,-9.794438362121582,-0.05383711347745093,0.028990659891423964,0.07498588792643933,1.1197223663330078,5.5579962730407715,0.9184821248054504
1730865967.3336196,-1.73723566532135,1.2622041702270508,-9.825244903564453,-0.049861999434000756,0.004705914030347882,0.05458615172267063,1.1199396848678589,5.551605701446533,0.919126033782959
1730865967.3837023,-1.7728885412216187,1.2536513805389404,-9.841352462768555,-0.032500976602633416,-0.03189235471104065,0.026598716217991668,1.1199913024902344,5.558818340301514,0.917872428894043
1730865967.4336104,-1.7957485914230347,1.2329119443893433,-9.852080345153809,-0.0077842376522163,-0.07824906538266228,-0.004508373795855169,1.1202305555343628,5.554251670837402,0.9180378913879395
1730865967.4835632,-1.8130037784576416,1.187165379524231,-9.869086265563965,0.014976710801926843,-0.12280048388820707,-0.03292925487247529,1.1212382316589355,5.538846492767334,0.9176450967788696
1730865967.5335834,-1.8130037784576416,1.187165379524231,-9.869086265563965,0.027509717390470513,-0.14778764084038346,-0.05254353527786672,1.1217467784881592,5.531225681304932,0.9175097346305847
1730865967.5335834,-1.8403993844985962,1.1168467998504639,-9.861696243286133,0.02671605253243724,-0.1409529321875624,-0.05941890243248078,1.1217514276504517,5.531158447265625,0.9175080060958862
1730865967.5836523,-1.8365612030029297,1.1099493503570557,-9.855596542358398,0.015374176137825893,-0.10374952967367525,-0.05347255692411926,1.1236565113067627,5.515030384063721,0.9174966812133789
1730865967.6335382,-1.8015090227127075,1.1125519275665283,-9.858222961425781,-0.00045612411975634246,-0.048694919910415364,-0.0381270891101427,1.1254749298095703,5.498762607574463,0.9174733757972717
1730865967.683565,-1.7416749000549316,1.0947171449661255,-9.853496551513672,-0.013880200494074537,0.007354037164461971,-0.01892403505052197,1.1266348361968994,5.487212657928467,0.9172921180725098
1730865967.7336876,-1.7416749000549316,1.0947171449661255,-9.853496551513672,-0.018754116278083873,0.049279795029111284,-0.0015429240330775387,1.1277648210525513,5.475620746612549,0.9170833230018616
1730865967.7336876,-1.707353949546814,1.0896289348602295,-9.870576858520508,-0.011777757144336964,0.06912893851761907,0.010125172824467649,1.1277750730514526,5.4755144119262695,0.917081356048584
1730865967.7836096,-1.6856294870376587,1.0882185697555542,-9.87708854675293,0.00636745561018117,0.06805712363986433,0.014633682208368647,1.1288639307022095,5.464327335357666,0.9168933033943176
1730865967.833548,-1.6856732368469238,1.1131680011749268,-9.89499282836914,0.03212663218603441,0.05345470978304024,0.012378840970239637,1.1271862983703613,5.47910737991333,0.9174047708511353
1730865967.8835711,-1.6620116233825684,1.1451038122177124,-9.884458541870117,0.06029213823266074,0.03391890311179494,0.005017014283818244,1.1279367208480835,5.4726080894470215,0.9173910021781921
1730865967.9334772,-1.6606212854385376,1.1801331043243408,-9.870457649230957,0.08406565931676793,0.015124836952305282,-0.0043865736221570095,1.1291377544403076,5.4588775634765625,0.9173404574394226
1730865967.9834714,-1.653437852859497,1.1797866821289062,-9.851520538330078,0.09636645260974494,-0.001134618409932989,-0.011620698974735421,1.1304106712341309,5.449227809906006,0.9172726273536682
1730865968.0334425,-1.6758476495742798,1.1824043989181519,-9.821070671081543,0.09318851967515386,-0.014492311016679426,-0.013073399754867307,1.1319199800491333,5.439558506011963,0.9171739816665649
1730865968.0835173,-1.7237505912780762,1.1566532850265503,-9.81063461303711,0.07539132145966258,-0.023485137818566832,-0.0073397949041026245,1.1336438655853271,5.429819583892822,0.9170495867729187
1730865968.1334534,-1.7996176481246948,1.1426687240600586,-9.782665252685547,0.046815686604798984,-0.025892309568825274,0.004917290015795328,1.1308698654174805,5.441938877105713,0.9171438217163086
1730865968.1835039,-1.8628112077713013,1.1092867851257324,-9.77823543548584,0.011627694580831844,-0.02055826277206279,0.021516774149637197,1.131652593612671,5.436572074890137,0.9171223640441895
1730865968.2334023,-1.8774480819702148,1.0935637950897217,-9.79169750213623,-0.02563801625570913,-0.008444296886787075,0.03829022369535809,1.1328824758529663,5.421409606933594,0.9167266488075256
1730865968.2834685,-1.8534674644470215,1.108945369720459,-9.822172164916992,-0.0586101249275241,0.0073315252004372755,0.04929071606513784,1.1343553066253662,5.401308059692383,0.9163337349891663
1730865968.3333826,-1.7973651885986328,1.1064001321792603,-9.855999946594238,-0.07946985389437881,0.02204352287464056,0.049459755552255714,1.13523530960083,5.388650894165039,0.9163015484809875
1730865968.3833833,-1.749116063117981,1.0848197937011719,-9.900351524353027,-0.08142661518157111,0.031042551404822743,0.037423959735461684,1.1359059810638428,5.376204013824463,0.9163774251937866
1730865968.4334073,-1.749116063117981,1.0848197937011719,-9.900351524353027,-0.06183077832528325,0.03245756680965327,0.015541011441278703,1.136406421661377,5.363649368286133,0.9165210127830505
1730865968.4334073,-1.6887575387954712,1.0780417919158936,-9.944061279296875,-0.023893155152064173,0.0282391864579281,-0.012006039930847888,1.1364099979400635,5.3635430335998535,0.9165223836898804
1730865968.4834383,-1.660573959350586,1.0784896612167358,-9.943114280700684,0.024887729498770127,0.0223351534175414,-0.04107862002656044,1.1357951164245605,5.381495475769043,0.916013777256012
1730865968.5333052,-1.6808581352233887,1.0688133239746094,-9.9386625289917,0.07521649640708952,0.01810430588054432,-0.06790282100124267,1.137020468711853,5.365551948547363,0.9156373739242554
1730865968.5834394,-1.6925055980682373,1.0484857559204102,-9.91047477722168,0.11584086480586425,0.016795228457528164,-0.08742379565683861,1.13800847530365,5.356637477874756,0.9152034521102905
1730865968.6333168,-1.7340891361236572,1.0040960311889648,-9.874168395996094,0.1346098874739491,0.017889411054658834,-0.09303794166291922,1.139384388923645,5.349514961242676,0.9152259230613708
1730865968.6832635,-1.7513102293014526,0.9668171405792236,-9.831408500671387,0.12466195283490628,0.020784843147330676,-0.08030520697553081,1.1408894062042236,5.341705322265625,0.9146687984466553
1730865968.7332773,-1.7555934190750122,0.9132131338119507,-9.825553894042969,0.08968220551236475,0.02564513333098046,-0.05098280604297849,1.1426798105239868,5.333868503570557,0.9139408469200134
1730865968.783267,-1.7511773109436035,0.8991687297821045,-9.808719635009766,0.04221971899850156,0.03307687683137761,-0.012849410800644587,1.1405296325683594,5.329737186431885,0.9150192141532898
1730865968.833155,-1.7669599056243896,0.9138646125793457,-9.811017036437988,-0.0028473828125603062,0.043218723009073846,0.02406045459749182,1.141370177268982,5.322279453277588,0.9147891998291016
1730865968.8833268,-1.7647291421890259,0.9623916149139404,-9.817171096801758,-0.03457985828766857,0.053402476657153565,0.05097649276218443,1.1421644687652588,5.314937114715576,0.9146528840065002
1730865968.9331322,-1.774051547050476,0.9942019581794739,-9.836055755615234,-0.04888775501670914,0.056969279554634475,0.062251204399718145,1.1415821313858032,5.311799049377441,0.9150997400283813
1730865968.9830694,-1.7563841342926025,1.0308074951171875,-9.850176811218262,-0.0478723785967677,0.047182170862854325,0.0567606068777934,1.1419395208358765,5.305569171905518,0.9152583479881287
1730865969.0331802,-1.7418923377990723,1.052126407623291,-9.863423347473145,-0.036748856873602735,0.023168347737611734,0.03833116078678901,1.1421962976455688,5.299330711364746,0.9155386686325073
1730865969.0830772,-1.7634446620941162,1.1164103746414185,-9.859697341918945,-0.02070506245838796,-0.009110147818033522,0.013965824996739937,1.142378568649292,5.293186187744141,0.9158806800842285
1730865969.1331055,-1.7613576650619507,1.1499154567718506,-9.857751846313477,-0.003925876083238505,-0.04206243836754698,-0.009164260560490205,1.1428412199020386,5.290505409240723,0.9150394201278687
1730865969.1830616,-1.7668864727020264,1.152148723602295,-9.854114532470703,0.010052549334465886,-0.07084030983656614,-0.02592252444698404,1.1443710327148438,5.270320892333984,0.9147646427154541
1730865969.2330203,-1.7597706317901611,1.146106243133545,-9.849930763244629,0.01860805497426442,-0.09163345787128081,-0.03379686003685905,1.1451232433319092,5.260128021240234,0.9145824909210205
1730865969.2830868,-1.7832831144332886,1.1196283102035522,-9.831854820251465,0.0207640706519705,-0.0992433453695817,-0.03261913853539975,1.146354079246521,5.250098705291748,0.9145581722259521
1730865969.3329446,-1.7911642789840698,1.0579688549041748,-9.824539184570312,0.017285706734427125,-0.08964520423820202,-0.024156853783615716,1.14726984500885,5.240344047546387,0.9143466353416443
1730865969.3830001,-1.793712854385376,1.0126854181289673,-9.833224296569824,0.01008614185465054,-0.06338318025854643,-0.011669520123785724,1.148916244506836,5.230146408081055,0.9128327369689941
1730865969.432937,-1.7517714500427246,1.0202561616897583,-9.849518775939941,0.001803559932276657,-0.025778897427731012,0.0007346208472735287,1.1500107049942017,5.220546722412109,0.9122300744056702
1730865969.4829564,-1.7155946493148804,1.0792349576950073,-9.881749153137207,-0.004072641487786787,0.01361016125084155,0.009038966522800361,1.1513428688049316,5.208830833435059,0.9110469818115234
1730865969.532836,-1.6973638534545898,1.1483683586120605,-9.885079383850098,-0.003854897650993917,0.04237543495716372,0.010521840847411305,1.1525238752365112,5.198177337646484,0.9103072881698608
1730865969.5827827,-1.6990910768508911,1.1914793252944946,-9.90003490447998,0.0037537131542444346,0.05017187405311863,0.005098850543673651,1.153665542602539,5.187989711761475,0.9096113443374634
1730865969.6338701,-1.7048535346984863,1.1952179670333862,-9.894710540771484,0.015789256464761123,0.03396378746844464,-0.00439699937543742,1.1548856496810913,5.177438259124756,0.908883810043335
1730865969.6838133,-1.7279154062271118,1.140415906906128,-9.889106750488281,0.02677852677451829,-0.0009153673542653396,-0.013927405754820796,1.1561214923858643,5.1672539710998535,0.9081558585166931
1730865969.7338028,-1.727390170097351,1.0967813730239868,-9.850716590881348,0.032019827426038615,-0.042908610604051566,-0.020156944220634583,1.1532989740371704,5.193340301513672,0.9082335829734802
1730865969.7837937,-1.7448590993881226,1.0502889156341553,-9.854978561401367,0.02947356872199281,-0.07780003448812242,-0.021100094316440186,1.1539710760116577,5.188570976257324,0.9075769186019897
1730865969.8337355,-1.7205950021743774,1.0371060371398926,-9.837763786315918,0.02019660220273973,-0.09345068585500564,-0.016544856205761283,1.1559531688690186,5.174837589263916,0.9050474166870117
1730865969.8838043,-1.7044275999069214,1.004769206047058,-9.838481903076172,0.007823479784770253,-0.08446734631458856,-0.008340524951268061,1.1571669578552246,5.166139125823975,0.9037325978279114
1730865969.9337204,-1.6762114763259888,1.0011883974075317,-9.852025985717773,-0.002783179074020437,-0.054578289491122804,0.00040481770367378983,1.1583819389343262,5.157303810119629,0.9024134278297424
1730865969.9836867,-1.6579885482788086,0.9812003374099731,-9.872231483459473,-0.0072469494046049215,-0.014573859574103561,0.006530636651256451,1.1595885753631592,5.148351669311523,0.901098370552063
1730865970.0337353,-1.6788157224655151,1.0039273500442505,-9.869159698486328,-0.003225575788330809,0.023377016646796648,0.007660584482505989,1.1582911014556885,5.153993606567383,0.9023466110229492
1730865970.0836577,-1.7302862405776978,0.9892690777778625,-9.866273880004883,0.008029642479919646,0.050559849740437965,0.003161499656972749,1.158982515335083,5.14833927154541,0.9016035795211792
1730865970.1336935,-1.7302862405776978,0.9892690777778625,-9.866273880004883,0.02075874092066133,0.06313046972880886,-0.004996625998099446,1.161020040512085,5.13657283782959,0.8992909789085388
1730865970.1336935,-1.7561147212982178,1.0005706548690796,-9.84821891784668,0.027064178867538768,0.061541948298856494,-0.012845415329117775,1.1610302925109863,5.136507034301758,0.8992798924446106
1730865970.1836424,-1.7367112636566162,1.0267400741577148,-9.844929695129395,0.022355455479816648,0.04915298942483584,-0.01653721399143475,1.1612032651901245,5.1166887283325195,0.8958142995834351
1730865970.2335315,-1.7292639017105103,1.0034098625183105,-9.847564697265625,0.008657034326766792,0.030584843624735923,-0.014331764724724073,1.1619389057159424,5.103671073913574,0.8935232758522034
1730865970.283596,-1.7082710266113281,1.0320013761520386,-9.856908798217773,-0.0072152110852457575,0.01100136278778759,-0.007432205618076099,1.162674069404602,5.090746879577637,0.8912124633789062
1730865970.3336132,-1.7297741174697876,1.0265306234359741,-9.872505187988281,-0.018073290914116236,-0.0045996587077876605,0.0005770877854020132,1.1633833646774292,5.077723026275635,0.888873815536499
1730865970.3835676,-1.73284912109375,1.026072382926941,-9.879054069519043,-0.02009921050072888,-0.013185054951711326,0.005557585945782536,1.1613909006118774,5.104180335998535,0.8933471441268921
1730865970.4335475,-1.7507237195968628,1.0402652025222778,-9.899032592773438,-0.014261889591869317,-0.014765317903662548,0.0048834130744155844,1.161557674407959,5.098541259765625,0.8923332095146179
1730865970.4835615,-1.7441734075546265,1.067531943321228,-9.886956214904785,-0.005010381832649427,-0.011864991861276571,-0.0012889490217132282,1.1616990566253662,5.092917442321777,0.8913325071334839
1730865970.5335526,-1.7646288871765137,1.0706843137741089,-9.89332103729248,0.0025370561271322724,-0.008403632551509738,-0.010192246907498806,1.1618385314941406,5.08721923828125,0.8903085589408875
1730865970.583584,-1.8092890977859497,1.0768513679504395,-9.85693645477295,0.004694078606469398,-0.008135546275307468,-0.018006568053266267,1.164104700088501,5.0934624671936035,0.8912377953529358
1730865970.6335008,-1.8451093435287476,1.0780317783355713,-9.835271835327148,-0.000232490072942878,-0.012723720069481031,-0.021487034341726764,1.16475248336792,5.0892181396484375,0.8903782963752747
1730865970.6835158,-1.8778879642486572,1.068177342414856,-9.794242858886719,-0.011701059196152542,-0.02047491690326257,-0.018707399284126378,1.1668850183486938,5.07680082321167,0.8887620568275452
1730865970.7335863,-1.8792659044265747,1.0619271993637085,-9.761591911315918,-0.02670823046435051,-0.027110405699821406,-0.009335334149089006,1.167750358581543,5.0706000328063965,0.8877132534980774
1730865970.7835293,-1.8781741857528687,1.0342954397201538,-9.767451286315918,-0.04040780509525415,-0.02848717723317435,0.00497977439073611,1.1696139574050903,5.057751178741455,0.8873576521873474
1730865970.8334446,-1.8452465534210205,1.0448501110076904,-9.792409896850586,-0.047624564541174856,-0.023032074038742193,0.02035373164632629,1.1714661121368408,5.0446038246154785,0.8864632844924927
1730865970.8834481,-1.7909832000732422,1.0523160696029663,-9.833215713500977,-0.04478815872116691,-0.012508118801353064,0.0313945671698843,1.172620177268982,5.034965991973877,0.885720431804657
1730865970.9334626,-1.7380390167236328,1.0403714179992676,-9.891928672790527,-0.031030273155760776,-0.00105070221371645,0.032977297090398,1.1736817359924316,5.025291442871094,0.8850566744804382
1730865970.9834626,-1.6841381788253784,1.027842402458191,-9.939653396606445,-0.00749292989699454,0.007412918974676036,0.021862383052743968,1.1746972799301147,5.0156025886535645,0.8844603896141052
1730865971.0333781,-1.598343849182129,1.0370818376541138,-9.97574520111084,0.024345784949003135,0.011420507519266525,-0.0027234060919847005,1.173531174659729,5.030522346496582,0.8868802785873413
1730865971.083417,-1.5712602138519287,1.0332560539245605,-9.993497848510742,0.06258132995198744,0.011854337150382904,-0.03814809704238777,1.1743208169937134,5.025615692138672,0.886748731136322
1730865971.133399,-1.550557255744934,1.039259433746338,-9.944525718688965,0.10138953081869674,0.010315107099355864,-0.0760325783426532,1.176119089126587,5.016237735748291,0.8871761560440063
1730865971.1834455,-1.5575945377349854,1.0153611898422241,-9.915091514587402,0.12972600397728248,0.008082737932335674,-0.10287243070528196,1.1777069568634033,5.009090423583984,0.886850118637085
1730865971.233443,-1.6128383874893188,0.9890211224555969,-9.859123229980469,0.13687447049668433,0.006397316511654574,-0.1068855821835715,1.1796146631240845,5.002016544342041,0.886265218257904
1730865971.283348,-1.6128383874893188,0.9890211224555969,-9.859123229980469,0.11869372786155029,0.006992919022946083,-0.08483305545651171,1.181841492652893,4.994953632354736,0.8854416608810425
1730865971.283348,-1.700724482536316,0.9786924719810486,-9.800239562988281,0.07870522687228007,0.011524773160926842,-0.04239526587349003,1.1818610429763794,4.9948954582214355,0.8854339718818665
1730865971.3333108,-1.7688379287719727,1.0146944522857666,-9.755945205688477,0.02489642400565316,0.020185310544107642,0.010350462454854506,1.1779344081878662,5.00386381149292,0.8871731162071228
1730865971.3833656,-1.8208271265029907,1.02140212059021,-9.763900756835938,-0.033908017553012135,0.03074431693481995,0.06302268539821415,1.1799317598342896,4.990458011627197,0.8873742818832397
1730865971.433279,-1.8217395544052124,1.0340009927749634,-9.765320777893066,-0.08771293671445636,0.03891692198779295,0.10506002288974847,1.1809418201446533,4.983515739440918,0.8876233100891113
1730865971.48329,-1.782911777496338,1.0537012815475464,-9.80487060546875,-0.12414080816632539,0.04037452973258725,0.12584746238169675,1.184548020362854,4.973010063171387,0.8876534104347229
1730865971.5332751,-1.7525897026062012,1.0612386465072632,-9.85537052154541,-0.1328180090294282,0.033222051017125734,0.11929881740949166,1.1860662698745728,4.964898109436035,0.8882217407226562
1730865971.5832372,-1.7406247854232788,1.1116029024124146,-9.87990665435791,-0.11198951887281962,0.01894215745652933,0.08787632845090114,1.1872755289077759,4.9568705558776855,0.8890470862388611
1730865971.633259,-1.770524501800537,1.115897536277771,-9.90289306640625,-0.07003194005736815,0.0009779814577753152,0.04102876577275326,1.1882621049880981,4.9488325119018555,0.8900376558303833
1730865971.683197,-1.7900440692901611,1.1545110940933228,-9.899785995483398,-0.021419533320242136,-0.017705666971407238,-0.00958115650736637,1.1886216402053833,4.960784435272217,0.8878520727157593
1730865971.7331789,-1.8505797386169434,1.163799524307251,-9.896068572998047,0.01896633030771876,-0.03540856256705405,-0.053659467101351846,1.1898581981658936,4.949227809906006,0.8877038359642029
1730865971.783353,-1.8653908967971802,1.1624170541763306,-9.862640380859375,0.04062675659726448,-0.05001845131103682,-0.08293871872919048,1.1909373998641968,4.942651748657227,0.8875642418861389
1730865971.8332534,-1.84821355342865,1.119704008102417,-9.858514785766602,0.040805323862556156,-0.05771604973430346,-0.09152050957931414,1.192114233970642,4.935964107513428,0.8872079253196716
1730865971.8832345,-1.8270213603973389,1.114829421043396,-9.805334091186523,0.025223617453284886,-0.05458171100722309,-0.07799340476393585,1.1933749914169312,4.929127216339111,0.8866400122642517
1730865971.9334147,-1.793975830078125,1.0453251600265503,-9.822367668151855,0.004856698316653365,-0.03912088123688525,-0.0465903616974187,1.1920925378799438,4.93449068069458,0.8875449299812317
1730865971.9832606,-1.7209333181381226,1.0137131214141846,-9.828447341918945,-0.009334988100021372,-0.013180838950662112,-0.005997865645523988,1.192788004875183,4.930207252502441,0.8873236179351807
1730865972.0332992,-1.6012029647827148,0.9719731211662292,-9.870986938476562,-0.009957302119853746,0.018093455402524078,0.03220323984211967,1.194321632385254,4.919257164001465,0.8876277804374695
1730865972.0832047,-1.5673483610153198,0.9927900433540344,-9.874567985534668,0.005606490101813064,0.0470936500768116,0.05639059431650655,1.195371150970459,4.912354946136475,0.887718677520752
1730865972.133241,-1.5673483610153198,0.9927900433540344,-9.874567985534668,0.03364964972341951,0.06595274919360807,0.06024917914273851,1.1966010332107544,4.904393672943115,0.8877928853034973
1730865972.133241,-1.5617990493774414,1.0194441080093384,-9.915316581726074,0.06373991905450879,0.06928923765246417,0.04602464988457831,1.1966116428375244,4.904330253601074,0.887794554233551
1730865972.1831715,-1.576568603515625,1.0584110021591187,-9.886327743530273,0.08357230338626805,0.05636421756916859,0.021828694298872568,1.19792640209198,4.8971333503723145,0.8880136013031006
1730865972.2332606,-1.631142258644104,1.0728533267974854,-9.91388988494873,0.08546237764353068,0.031028717273488424,-0.003483374607347498,1.199475884437561,4.889917373657227,0.8882591724395752
1730865972.283102,-1.7173388004302979,1.079965353012085,-9.86382007598877,0.06808677059845586,-0.0006642523240326242,-0.023365075214144247,1.1984593868255615,4.892545700073242,0.8877561688423157
1730865972.3331964,-1.82231605052948,1.1077828407287598,-9.826631546020508,0.03437219591423951,-0.032440911326476723,-0.03408038301323717,1.1994539499282837,4.887930393218994,0.8876965045928955
1730865972.383157,-1.8533849716186523,1.1184059381484985,-9.800682067871094,-0.009931442816131869,-0.05827589885159964,-0.03393363431398568,1.2014307975769043,4.877073764801025,0.8876505494117737
1730865972.4330823,-1.8954871892929077,1.0949914455413818,-9.761144638061523,-0.05634399375327907,-0.07303487333106462,-0.023030894642635164,1.2026944160461426,4.869898319244385,0.8875104188919067
1730865972.4830406,-1.8989217281341553,1.0262970924377441,-9.779446601867676,-0.0947530194133825,-0.07347103585987945,-0.00415272794800242,1.2037630081176758,4.862584114074707,0.887337327003479
1730865972.5331557,-1.8536771535873413,1.0082930326461792,-9.78778076171875,-0.11628477976842876,-0.05836110227449829,0.01706490497789905,1.2045800685882568,4.8549957275390625,0.8871781826019287
1730865972.5831227,-1.783974289894104,1.004658818244934,-9.84261703491211,-0.11630170410758678,-0.028777690325579197,0.03384236169394758,1.2037841081619263,4.863113880157471,0.8877782821655273
1730865972.6330674,-1.783974289894104,1.004658818244934,-9.84261703491211,-0.09562265923466826,0.010328454385951666,0.04080244077511996,1.2072582244873047,4.842534065246582,0.8880247473716736
1730865972.6330674,-1.7528783082962036,1.0574264526367188,-9.855023384094238,-0.060411240563159094,0.0488873951467153,0.0362246861902467,1.2072746753692627,4.842421531677246,0.8880265355110168
1730865972.6830595,-1.7219197750091553,1.080628514289856,-9.910914421081543,-0.020508018318606193,0.07386569663954312,0.022597350392569188,1.2098805904388428,4.827987194061279,0.8903020024299622
1730865972.7331333,-1.7219197750091553,1.080628514289856,-9.910914421081543,0.014571994432270413,0.07574159998275902,0.004533385954550938,1.2120462656021118,4.815020561218262,0.8914887309074402
1730865972.7331333,-1.704637885093689,1.1132997274398804,-9.919187545776367,0.03866760519797392,0.054795926715151634,-0.013244969890326667,1.2120649814605713,4.814909934997559,0.8914989829063416
1730865972.7830756,-1.6880874633789062,1.1303209066390991,-9.951221466064453,0.04943891791853065,0.02072678933972856,-0.026561367852678534,1.2142846584320068,4.802220821380615,0.8926441073417664
1730865972.8330402,-1.6892642974853516,1.1353075504302979,-9.929433822631836,0.04849116001131274,-0.014178543986506973,-0.0331780029047485,1.2166365385055542,4.789477825164795,0.8937206864356995
1730865972.8830557,-1.6928538084030151,1.1137971878051758,-9.93874454498291,0.040633440064275286,-0.04124289549284701,-0.033789504662983166,1.2191014289855957,4.7766547203063965,0.8947148323059082
1730865972.9329422,-1.7044410705566406,1.0738990306854248,-9.894899368286133,0.031296198513087875,-0.05663129145662406,-0.030636258926908154,1.21127450466156,4.818506240844727,0.8916124701499939
1730865972.9829872,-1.7288248538970947,1.0470776557922363,-9.854463577270508,0.0238639357110995,-0.05958613496659791,-0.02527240665303285,1.2120459079742432,4.814327239990234,0.8918678164482117
1730865973.0330038,-1.782965898513794,1.0143132209777832,-9.822835922241211,0.01827030387905415,-0.05089067846103465,-0.01744594857446961,1.2128630876541138,4.8100481033325195,0.8920676112174988
1730865973.082945,-1.8363450765609741,1.0109021663665771,-9.767317771911621,0.011084026150348678,-0.032503504209235215,-0.0054865122191346104,1.2140629291534424,4.805627346038818,0.8930138945579529
1730865973.132889,-1.8869452476501465,0.9894759058952332,-9.760782241821289,-0.0021580432708838354,-0.007895064704611985,0.011893073303719477,1.2151745557785034,4.800137042999268,0.8935242891311646
1730865973.1829495,-1.8473352193832397,1.0347927808761597,-9.739604949951172,-0.022444904983651304,0.017398825514289167,0.03275092055883101,1.2162485122680664,4.794693946838379,0.8940867781639099
1730865973.232936,-1.816389560699463,1.0465000867843628,-9.774761199951172,-0.04442806432326407,0.03624195920505216,0.051063578160105365,1.2162569761276245,4.7923383712768555,0.8944790363311768
1730865973.2828844,-1.783855676651001,1.0769073963165283,-9.79489803314209,-0.05907743725724958,0.042571159798927775,0.0600848421616544,1.21821129322052,4.77970027923584,0.8958290219306946
1730865973.3328242,-1.7646828889846802,1.053520679473877,-9.82564926147461,-0.05960446697150765,0.0349767220747567,0.056337945586842936,1.2190914154052734,4.7730536460876465,0.8967844247817993
1730865973.3828576,-1.7351040840148926,1.0145779848098755,-9.854711532592773,-0.04530110654934923,0.01840121085285846,0.04070120151679424,1.2198337316513062,4.766525745391846,0.8978534936904907
1730865973.432912,-1.683071255683899,0.9749651551246643,-9.900102615356445,-0.020693472617008456,0.0023865422364028684,0.016901399103640777,1.220499873161316,4.759963035583496,0.8990049362182617
1730865973.4828544,-1.6453770399093628,0.9578630328178406,-9.910890579223633,0.008550962740798487,-0.003363143200966099,-0.010986698787139319,1.2211427688598633,4.753478050231934,0.9001500606536865
1730865973.532847,-1.649688720703125,0.9565423130989075,-9.945751190185547,0.03880734530497193,0.006506129194072965,-0.04008716880983789,1.2218502759933472,4.746944427490234,0.9012404680252075
1730865973.5828483,-1.6442580223083496,0.9954084157943726,-9.940225601196289,0.06828250625742385,0.03069731645184554,-0.06865366371946229,1.220585823059082,4.762871742248535,0.897302508354187
1730865973.632834,-1.6689367294311523,1.0497392416000366,-9.937795639038086,0.09450938319690518,0.061272151731152184,-0.0945739881413472,1.2213319540023804,4.759675025939941,0.8973665237426758
1730865973.682793,-1.6859419345855713,1.0834542512893677,-9.915569305419922,0.11188338263715274,0.08542680899393006,-0.1129618564855697,1.223469614982605,4.751837253570557,0.8982911109924316
1730865973.7328548,-1.71327543258667,1.1262437105178833,-9.893120765686035,0.11284953717518609,0.09046841935989118,-0.11659437489883381,1.2249174118041992,4.747713565826416,0.8982603549957275
1730865973.782775,-1.7269731760025024,1.1472166776657104,-9.872698783874512,0.09364786487394365,0.0712218420900618,-0.10105958125004402,1.2266072034835815,4.743834495544434,0.8979588150978088
1730865973.8327966,-1.735066294670105,1.1401067972183228,-9.833118438720703,0.05831429160723724,0.03333025357944272,-0.0687173146456901,1.2253084182739258,4.7345499992370605,0.8998417258262634
1730865973.8827624,-1.717958927154541,1.1496965885162354,-9.815305709838867,0.016748555288345804,-0.010659036265915505,-0.02730708822307313,1.2262969017028809,4.729370594024658,0.8999888896942139
1730865973.9327734,-1.6673269271850586,1.18075430393219,-9.812365531921387,-0.019319893961890478,-0.04767716091893466,0.013335993434301313,1.2271820306777954,4.720578670501709,0.9018089175224304
1730865973.9827108,-1.718985915184021,1.200554609298706,-9.816550254821777,-0.04017308414482056,-0.06905837114795135,0.04394461783177735,1.228126049041748,4.7138991355896,0.9025800228118896
1730865974.032757,-1.777178168296814,1.1863377094268799,-9.796299934387207,-0.04322033572561011,-0.07284141794060521,0.05868336035622125,1.2287358045578003,4.7074408531188965,0.9036161303520203
1730865974.0837018,-1.8267006874084473,1.1075407266616821,-9.833602905273438,-0.03542981053507213,-0.0622159807366514,0.057040789954989624,1.2294890880584717,4.700437068939209,0.9046517610549927
1730865974.1328225,-1.8129234313964844,1.0744457244873047,-9.833734512329102,-0.02766699835482636,-0.04144656008244338,0.04279820840013594,1.2301421165466309,4.693515777587891,0.9057791233062744
1730865974.1827915,-1.7848941087722778,1.034195899963379,-9.854951858520508,-0.02615807914527453,-0.013153506274629108,0.02128088947560291,1.2307411432266235,4.686389446258545,0.9070083498954773
1730865974.2327878,-1.7069191932678223,1.0519814491271973,-9.866008758544922,-0.029559029213600325,0.02108798968770955,-0.0026403786937376833,1.2304688692092896,4.692075252532959,0.9033975005149841
1730865974.2827125,-1.7330290079116821,1.0380792617797852,-9.891645431518555,-0.03197381668881723,0.05795413570296147,-0.025119598603969475,1.2309061288833618,4.687310218811035,0.9035770893096924
1730865974.333654,-1.723747968673706,1.0607243776321411,-9.90710735321045,-0.028639579367995487,0.09001032577162124,-0.04300991388912157,1.2324154376983643,4.680088043212891,0.9029564261436462
1730865974.383695,-1.6333900690078735,1.1029419898986816,-9.92292594909668,-0.0194742329650657,0.10723764263742451,-0.05379805276386615,1.2330865859985352,4.674943923950195,0.9028186798095703
1730865974.4336932,-1.7185343503952026,1.0912126302719116,-9.885492324829102,-0.006938917682975963,0.10269051159629909,-0.05617040335964769,1.2337270975112915,4.670043468475342,0.9025431871414185
1730865974.4835937,-1.7632367610931396,1.0811116695404053,-9.884361267089844,0.006482250666720225,0.077240821856173,-0.05011041408518256,1.2338500022888184,4.664114952087402,0.9026942253112793
1730865974.533778,-1.7660847902297974,1.066494345664978,-9.817702293395996,0.017281648632540392,0.0395699358071908,-0.036556720362795225,1.2343876361846924,4.659326076507568,0.9024483561515808
1730865974.583637,-1.76335608959198,1.0730304718017578,-9.786660194396973,0.021618020278999794,0.002176020944237954,-0.01707014106292323,1.235482096672058,4.650118827819824,0.9027890563011169
1730865974.6336203,-1.755035638809204,1.0663394927978516,-9.755593299865723,0.018589982999590096,-0.024116303863943523,0.006327351712293278,1.2362796068191528,4.64387845993042,0.902716338634491
1730865974.683558,-1.7797462940216064,1.05051851272583,-9.727736473083496,0.010869643989451342,-0.03426412328851773,0.03043532336250932,1.2367478609085083,4.636096954345703,0.9030067324638367
1730865974.7336075,-1.7905184030532837,1.0506978034973145,-9.733460426330566,0.002156854538604191,-0.029650359463103557,0.050537851278047725,1.2374773025512695,4.6290998458862305,0.9031689167022705
1730865974.7834837,-1.7196898460388184,1.0897799730300903,-9.776664733886719,-0.004718682240660078,-0.01618563449026129,0.06162490221138186,1.2377595901489258,4.619844913482666,0.9032486081123352
1730865974.8335426,-1.7713710069656372,1.1019127368927002,-9.835098266601562,-0.00786981270935371,-0.001714432072691791,0.05988564590456859,1.238282561302185,4.612948894500732,0.9035685658454895
1730865974.8835092,-1.8028919696807861,1.1387075185775757,-9.852670669555664,-0.007437890151587653,0.007038694458397113,0.04416131333397093,1.2370338439941406,4.601040363311768,0.9033100605010986
1730865974.9336016,-1.8285831212997437,1.182466745376587,-9.922863006591797,-0.006912831284667815,0.006865908175605971,0.017121442484333643,1.236989974975586,4.592655181884766,0.9035481810569763
1730865974.9834633,-1.8077365159988403,1.2220063209533691,-9.935257911682129,-0.010219781851983058,-0.0018799960054833149,-0.015323900371015126,1.2369251251220703,4.584357738494873,0.9037864208221436
1730865975.0335941,-1.8268399238586426,1.19771409034729,-9.958266258239746,-0.017397126359054667,-0.01675906900742192,-0.04645848946240938,1.2368251085281372,4.575973987579346,0.903948962688446
1730865975.0834959,-1.7553056478500366,1.1827597618103027,-9.942646980285645,-0.02474123407107942,-0.0342810627482995,-0.07142577441396507,1.2366738319396973,4.5676045417785645,0.9039638638496399
1730865975.1334362,-1.7702215909957886,1.131227731704712,-9.93575382232666,-0.027685779395248925,-0.050059002635734554,-0.08823574313284004,1.236334204673767,4.585747241973877,0.9029077291488647
1730865975.1834197,-1.7350672483444214,1.0756663084030151,-9.8892240524292,-0.02309207390783538,-0.05901569859073876,-0.0963435210008962,1.2361351251602173,4.581282138824463,0.9025185704231262
1730865975.2334309,-1.6980245113372803,1.014807939529419,-9.849322319030762,-0.010711129095556009,-0.0563016700217101,-0.09407145220143542,1.2375693321228027,4.568299293518066,0.9024003148078918
1730865975.2833824,-1.74787175655365,0.9247363805770874,-9.83838939666748,0.006521736642359578,-0.038996593106316445,-0.07861106324533475,1.2379026412963867,4.5601911544799805,0.9018511772155762
1730865975.3333728,-1.7218077182769775,0.9190731048583984,-9.835184097290039,0.022921265574810754,-0.008305136540969893,-0.05038817976627877,1.238831639289856,4.550624370574951,0.9022377133369446
1730865975.3833628,-1.710154414176941,0.9689270853996277,-9.809120178222656,0.03196853304251731,0.028966222053868878,-0.016044050579964286,1.2394229173660278,4.541851043701172,0.901879608631134
1730865975.4333987,-1.6837084293365479,0.9878154993057251,-9.841340065002441,0.030702242506638423,0.06105250236191576,0.01481023412981609,1.2395217418670654,4.5364089012146,0.9022877216339111
1730865975.483403,-1.650559425354004,1.0081390142440796,-9.836055755615234,0.022259796014820397,0.07559951323739314,0.03479294243315302,1.2399909496307373,4.52977180480957,0.902239203453064
1730865975.5333564,-1.6746716499328613,1.0141290426254272,-9.857386589050293,0.013017622855273933,0.06695598074919981,0.04110976704508123,1.2423611879348755,4.518957614898682,0.902357280254364
1730865975.5833364,-1.6851810216903687,1.004333734512329,-9.852632522583008,0.007601516252356269,0.04006308332225665,0.03539901639124378,1.2446463108062744,4.5066022872924805,0.9023220539093018
1730865975.6333683,-1.5812643766403198,1.044628381729126,-9.859695434570312,0.006996527572579183,0.006795965448802038,0.02233614194152031,1.2461079359054565,4.49756383895874,0.9024124145507812
1730865975.683324,-1.7228114604949951,1.0327458381652832,-9.875347137451172,0.01040062928781209,-0.02138896883341499,0.007458000603179362,1.247583270072937,4.488555908203125,0.9025393128395081
1730865975.7333395,-1.8088876008987427,1.0366780757904053,-9.752493858337402,0.015558162366875012,-0.03850886713873779,-0.004528099055638343,1.2491099834442139,4.479358673095703,0.9026713967323303
1730865975.7832942,-1.8492463827133179,1.0879586935043335,-9.823813438415527,0.016439604609898354,-0.04467330579115798,-0.00976242276904127,1.2472009658813477,4.4893903732299805,0.9021117687225342
1730865975.8332365,-1.8476037979125977,1.0733569860458374,-9.768607139587402,0.005646864332275174,-0.04379875063386345,-0.00572517843363699,1.2481111288070679,4.483442306518555,0.90205317735672
