Timestamp,IMU_Linear_Acc_X,IMU_Linear_Acc_Y,IMU_Linear_Acc_Z,Filtered_X,Filtered_Y,Filtered_Z,Pose_X,Pose_Y,Pose_Z
1731474084.8498507,-0.3481234610080719,0.4358399212360382,-9.982903480529785,-0.001827653625580936,0.00021237041097213098,-0.0032887014698796666,1.597077488899231,8.031960487365723,0.8820000290870667
1731474085.2505078,-0.28651881217956543,0.44970303773880005,-9.99592399597168,0.002768569691268128,-0.004778725588994386,0.0002289587924266606,1.5965919494628906,8.051304817199707,0.8820000290870667
1731474085.6499898,-0.28173714876174927,0.5166304111480713,-10.008161544799805,0.10271575007621792,-0.0699669276964189,0.011540993986816853,1.59715735912323,8.066969871520996,0.8820000290870667
1731474085.8497832,-0.30569878220558167,0.5142993330955505,-9.978017807006836,0.06642906819719646,0.01928306050896166,0.028821043743446476,1.5983681678771973,8.07522964477539,0.8820001482963562
1731474085.9497209,-0.3019082248210907,0.49759045243263245,-9.997750282287598,-0.01974763153871418,0.07595210905891961,0.01802123884933631,1.59872567653656,8.077790260314941,0.8820003271102905
1731474086.0995848,-0.34021297097206116,0.42454829812049866,-9.989469528198242,-0.053168981037227496,0.0701140097772287,-0.009713168678006983,1.5988351106643677,8.082137107849121,0.8820000290870667
1731474086.149524,-0.31748059391975403,0.4646833539009094,-9.978229522705078,-0.04183495365417325,0.06030841006019244,-0.013364442509819774,1.5994369983673096,8.08739948272705,0.8819999694824219
1731474086.2004988,-0.365811288356781,0.4319896697998047,-9.973200798034668,-0.027932276539190844,0.05042068766688153,-0.0128886399300851,1.5997340679168701,8.089997291564941,0.8819999098777771
1731474086.250445,-0.3342243432998657,0.4579506814479828,-9.977978706359863,-0.015103435790736693,0.038738673135491564,-0.008913641141051608,1.6001613140106201,8.093733787536621,0.8819998502731323
1731474086.300412,-0.35349932312965393,0.4441351890563965,-9.9948091506958,-0.005661406709671078,0.024099668811313847,-0.0027182093824286956,1.6005741357803345,8.085987091064453,0.8820000290870667
1731474086.3504183,-0.35349932312965393,0.4441351890563965,-9.9948091506958,-0.0005531508140902409,0.007657966488607252,0.003693992370736,1.6046836376190186,8.10118293762207,0.8820000886917114
1731474086.3504183,-0.3437603712081909,0.4631411135196686,-9.981367111206055,0.0007490622581781275,-0.00755130007669144,0.008267542445618798,1.6048766374588013,8.101923942565918,0.8820000886917114
1731474086.4002655,-0.3437603712081909,0.4631411135196686,-9.981367111206055,-7.849859756313817e-05,-0.018452671046285098,0.010122266014407936,1.6420776844024658,8.244756698608398,0.8820132613182068
1731474086.4002655,-0.35033443570137024,0.4430669844150543,-9.980335235595703,-0.001020871288581253,-0.02369566609901132,0.009951663308777054,1.642273187637329,8.24550724029541,0.8820133805274963
1731474086.450162,-0.35033443570137024,0.4430669844150543,-9.980335235595703,-0.0007974807839988636,-0.023738106977406862,0.009182727782185953,1.6132137775421143,8.132954597473145,0.8820160031318665
1731474086.450162,-0.3323572278022766,0.45563459396362305,-9.995468139648438,0.0007238280827853993,-0.01993024357854343,0.008806505314743541,1.6132513284683228,8.133097648620605,0.882016122341156
1731474086.5001366,-0.3323572278022766,0.45563459396362305,-9.995468139648438,0.0031318229494883836,-0.014171923604187748,0.008615461895622883,1.6202739477157593,8.159729957580566,0.8820541501045227
1731474086.5001366,-0.34467893838882446,0.43940046429634094,-9.981351852416992,0.006067089180790679,-0.008620732079502688,0.007470433379964758,1.6203142404556274,8.159882545471191,0.8820544481277466
1731474086.5501473,-0.3427395224571228,0.45260101556777954,-9.98160171508789,0.00907020014336038,-0.004781366244005995,0.004646507601878377,1.6273390054702759,8.186441421508789,0.8821088671684265
1731474086.6000502,-0.3427395224571228,0.45260101556777954,-9.98160171508789,0.011400725756576191,-0.003020352192765477,0.0007347266932482993,1.6344369649887085,8.213171005249023,0.8821703791618347
1731474086.6000502,-0.3447035253047943,0.43827593326568604,-9.993645668029785,0.01242717420713979,-0.0029559147386608157,-0.0029645113007622736,1.6344774961471558,8.213322639465332,0.8821707367897034
1731474086.6500845,-0.33967331051826477,0.44478127360343933,-9.976994514465332,0.012048165297091675,-0.003800493072514208,-0.005530635758967039,1.6070756912231445,8.098670959472656,0.882007896900177
1731474086.6999671,-0.34498903155326843,0.4385203421115875,-9.97912883758545,0.010642610671431772,-0.004549067841383252,-0.00670250177589586,1.6082499027252197,8.100749015808105,0.8819928765296936
1731474086.749951,-0.33579617738723755,0.4506503939628601,-9.992788314819336,0.008678763016414003,-0.004446985212245659,-0.00663172544556514,1.6058316230773926,8.086368560791016,0.8819884657859802
1731474086.799937,-0.33929914236068726,0.4439178705215454,-9.987909317016602,0.006452696567745561,-0.003374586693312041,-0.0058246979323516145,1.6064509153366089,8.08537483215332,0.8819586038589478
1731474086.8498423,-0.3342280089855194,0.4438656270503998,-9.982778549194336,0.0041750541462918745,-0.0016861514554748285,-0.004828326650465553,1.607082486152649,8.084376335144043,0.8819155097007751
1731474086.8997476,-0.33903130888938904,0.44966939091682434,-9.995729446411133,0.0020827948736373814,0.000223204445715513,-0.003695713947103889,1.6077221632003784,8.083374977111816,0.8818618059158325
1731474086.9497159,-0.3342907130718231,0.4409579634666443,-9.983031272888184,0.0003947284877414282,0.0020685227904529424,-0.002186792789358826,1.6061220169067383,8.091442108154297,0.8819793462753296
1731474086.9996917,-0.3366844058036804,0.4396289885044098,-9.985634803771973,-0.0007528455268432053,0.003624156129523019,-0.00032334391786063843,1.6064605712890625,8.092707633972168,0.881963312625885
1731474087.0495937,-0.34973016381263733,0.4501350224018097,-9.997247695922852,-0.0014149063329165464,0.004665896474237681,0.0014561694473762103,1.6067959070205688,8.09398078918457,0.881948709487915
1731474087.099547,-0.31287696957588196,0.40202927589416504,-9.980897903442383,-0.0018350071454184813,0.005050374540253,0.0024194795986816286,1.6069856882095337,8.09907341003418,0.8819929361343384
1731474087.149557,-0.29854410886764526,0.12742522358894348,-9.991578102111816,-0.0019454253236523972,0.006487542420812086,0.0020071336853015615,1.6073241233825684,8.101094245910645,0.8819988369941711
1731474087.2005286,-0.29854410886764526,0.12742522358894348,-9.991578102111816,-0.0010586224114401258,0.015507746647984672,0.0002708691363100739,1.6076651811599731,8.103182792663574,0.8820077776908875
1731474087.2005286,-0.3859766721725464,0.29941046237945557,-10.049227714538574,0.00100063010307968,0.04063573028294749,-0.0025960834157055207,1.6076675653457642,8.103198051452637,0.8820078372955322
1731474087.2503803,-0.23469145596027374,-0.5422440767288208,-9.958247184753418,0.0028740511280979752,0.0862694154821725,-0.0068290162459365466,1.6080020666122437,8.108718872070312,0.8819930553436279
1731474087.3003395,-0.5879776477813721,-0.5047346353530884,-10.1781005859375,0.0017768814190189223,0.1531611131370297,-0.013123607725665443,1.6083240509033203,8.111592292785645,0.8819612860679626
1731474087.3502915,-0.30301183462142944,0.09848308563232422,-9.939139366149902,-0.007411902868590224,0.2300652166393386,-0.02294792168884429,1.6097171306610107,8.118168830871582,0.8819581270217896
1731474087.4002826,-0.4103066921234131,-0.18961116671562195,-9.960381507873535,-0.029736775995655187,0.2807573751958733,-0.036713582636781185,1.6103302240371704,8.12297248840332,0.8818422555923462
1731474087.45023,-0.38644301891326904,0.1643524020910263,-9.907769203186035,-0.06286606023549987,0.268785439168551,-0.050292283522104984,1.6108382940292358,8.127408027648926,0.8818830251693726
1731474087.500184,-0.33028003573417664,0.03732357174158096,-9.953001022338867,-0.09576901534350613,0.19629946395038828,-0.0568763452552506,1.6111643314361572,8.13292121887207,0.881643533706665
1731474087.5502074,-0.36062315106391907,0.27280718088150024,-9.943227767944336,-0.11503485483316708,0.09865314552155495,-0.05326766593065586,1.6116092205047607,8.130897521972656,0.881814181804657
1731474087.6000185,-0.3793759346008301,0.26145875453948975,-9.958783149719238,-0.1117929368830635,0.012153357325165273,-0.04233508470780992,1.6115554571151733,8.134023666381836,0.8815456032752991
1731474087.64997,-0.3685840964317322,0.30501291155815125,-9.967114448547363,-0.08690155867458824,-0.04376149150154696,-0.02977785942179994,1.6139113903045654,8.134819984436035,0.8818164467811584
1731474087.699997,-0.3531811535358429,0.28362226486206055,-9.976856231689453,-0.05045787554990454,-0.06622244514623377,-0.019978919406698773,1.6144182682037354,8.137309074401855,0.8816306591033936
1731474087.7499354,-0.3571905195713043,0.30206790566444397,-9.976372718811035,-0.014935913605857318,-0.062128677872556076,-0.014498092287598442,1.616852879524231,8.140079498291016,0.8818671703338623
1731474087.7998757,-0.33508116006851196,0.32425111532211304,-9.988493919372559,0.011192022545997129,-0.04240551151993972,-0.012650499797659073,1.61818528175354,8.143223762512207,0.8817588090896606
1731474087.84982,-0.36722999811172485,0.35228854417800903,-10.018153190612793,0.025115416039127765,-0.01868558742063331,-0.012925110695353632,1.619559407234192,8.146284103393555,0.8816189169883728
1731474087.8998291,-0.36722999811172485,0.35228854417800903,-10.018153190612793,0.02800745878595725,-0.0009596170231471386,-0.01448444026801771,1.6180721521377563,8.151022911071777,0.8819059729576111
1731474087.8998291,-0.3284244239330292,0.3357509970664978,-10.001602172851562,0.023034270655667974,0.00512551869843169,-0.0172522705751431,1.6180763244628906,8.151041984558105,0.8819055557250977
1731474087.9497256,-0.3306746482849121,0.3094998002052307,-9.999159812927246,0.014709799169892936,0.0006001298359999991,-0.020286963952714978,1.6188057661056519,8.154367446899414,0.8818119168281555
1731474087.9997003,-0.310319721698761,0.32174572348594666,-10.003804206848145,0.008247484991086466,-0.007708806185960572,-0.02109599134830683,1.6200830936431885,8.164375305175781,0.8820585012435913
1731474088.0495806,-0.3012869954109192,0.3330242335796356,-9.991573333740234,0.007449984054076135,-0.012218890219743423,-0.017521197321614904,1.6210942268371582,8.169821739196777,0.8820006847381592
1731474088.0996323,0.3261852562427521,1.1438943147659302,-9.999652862548828,0.015551004160654188,-0.0138365972354805,-0.00974629487538917,1.6217292547225952,8.16461181640625,0.8821812272071838
1731474088.1495252,0.3261852562427521,1.1438943147659302,-9.999652862548828,0.03937006275248138,-0.028150242951909432,-0.00019530223743120583,1.62274169921875,8.16662883758545,0.8821766376495361
1731474088.1495252,0.5558750629425049,1.314638614654541,-9.965165138244629,0.08359613970500156,-0.07081899802345415,0.008155791534085842,1.622747778892517,8.166640281677246,0.8821766376495361
1731474088.200485,0.5558750629425049,1.314638614654541,-9.965165138244629,0.13985236687129768,-0.13500897734314354,0.013752233348819119,1.6240075826644897,8.16848087310791,0.8821894526481628
1731474088.200485,0.6997058391571045,1.419152021408081,-9.96511173248291,0.19250354260485014,-0.1966591358709301,0.017184437968670068,1.6240156888961792,8.168490409851074,0.8821896314620972
1731474088.2504606,0.6997058391571045,1.419152021408081,-9.96511173248291,0.23340268834942177,-0.23786971980697968,0.020031465062736065,1.6235179901123047,8.162583351135254,0.8823362588882446
1731474088.2504606,-0.13178732991218567,0.27608996629714966,-10.012941360473633,0.2589820090318868,-0.24957120178935144,0.022943542624630817,1.6235249042510986,8.162582397460938,0.8823366761207581
1731474088.3004391,-0.13178732991218567,0.27608996629714966,-10.012941360473633,0.24946245886557233,-0.2095765936484243,0.024238420939331984,1.6250518560409546,8.162114143371582,0.8824447989463806
1731474088.3004391,-0.596436619758606,-0.15325812995433807,-10.141721725463867,0.16455653357405378,-0.07702127431967401,0.019922342467251716,1.6250624656677246,8.162110328674316,0.8824455738067627
1731474088.3504534,-0.596436619758606,-0.15325812995433807,-10.141721725463867,-0.027507179755872108,0.17555922580969494,0.005162135869681272,1.6254408359527588,8.159782409667969,0.8824743032455444
1731474088.3504534,-0.8940691351890564,-0.3408080041408539,-10.098763465881348,-0.31541231119122126,0.5242834362725374,-0.022070806693149536,1.6254470348358154,8.15977954864502,0.8824747800827026
1731474088.4003024,-0.6995694041252136,-0.052603576332330704,-10.043685913085938,-0.6296971892889816,0.8785997056771075,-0.055221642757815166,1.6257390975952148,8.160440444946289,0.8824887275695801
1731474088.4502778,-0.5341400504112244,0.1667778491973877,-9.960689544677734,-0.8636307591914765,1.1081278130575747,-0.07831699089104388,1.624162197113037,8.16360092163086,0.882335364818573
1731474088.5002172,-0.5993884205818176,0.038385916501283646,-9.910284042358398,-0.9305664186998264,1.1138922344948043,-0.07461079643399163,1.620347261428833,8.169528007507324,0.8819913268089294
1731474088.5501723,-0.49319523572921753,0.3242334723472595,-9.95226764678955,-0.81275742819415,0.887272813783532,-0.03695200437921157,1.6254799365997314,8.159300804138184,0.8824609518051147
1731474088.6000571,-0.6005683541297913,0.3175050914287567,-9.948896408081055,-0.5632750796258869,0.5075525907658726,0.027177289151452254,1.6224466562271118,8.16274642944336,0.8823608756065369
1731474088.6500113,-0.5134211778640747,0.5018535852432251,-9.93878173828125,-0.27252345834983793,0.09686588148329964,0.09684258891769665,1.6273113489151,8.156947135925293,0.8827067613601685
1731474088.6999745,-0.541845440864563,0.4098358750343323,-9.962154388427734,-0.026811368340689895,-0.2308182747325066,0.14660794427720417,1.6264845132827759,8.157098770141602,0.8831581473350525
1731474088.7498984,-0.4706742763519287,0.4399073123931885,-9.942717552185059,0.12281187659130871,-0.4072725976982952,0.15978318968115027,1.625784158706665,8.15645694732666,0.8839854598045349
1731474088.7999935,-0.4706742763519287,0.4399073123931885,-9.942717552185059,0.1704707152830378,-0.42310809774950825,0.13590834536218327,1.6254448890686035,8.154769897460938,0.8851898908615112
1731474088.7999935,-0.5162457227706909,0.4058684706687927,-9.984197616577148,0.14393814245470657,-0.31735243182984335,0.08798120521256328,1.6254441738128662,8.154756546020508,0.8851983547210693
1731474088.8498592,-0.47040194272994995,0.48853403329849243,-10.013127326965332,0.0832235410379312,-0.15384024262944324,0.03349104329379622,1.625425100326538,8.15236759185791,0.8866016268730164
1731474088.8999286,-0.4641639292240143,0.5157215595245361,-9.986618041992188,0.022922369322825726,0.004363223418759117,-0.01390729226211234,1.6302495002746582,8.152146339416504,0.8831430077552795
1731474088.9497535,-0.4418763518333435,0.5076544880867004,-9.998381614685059,-0.015944578915241658,0.11321236509574142,-0.0471543726282128,1.6306613683700562,8.15139389038086,0.8832709193229675
1731474088.9997962,-0.42215695977211,0.4610317647457123,-9.991588592529297,-0.02714596785560632,0.1561152688108278,-0.06400504952012083,1.6331183910369873,8.14826774597168,0.8830975294113159
1731474089.0496893,-0.40921276807785034,0.5084498524665833,-9.970244407653809,-0.01616982393145296,0.14223006703913116,-0.06510443978133869,1.6350793838500977,8.145435333251953,0.8831474184989929
1731474089.0996022,-0.40921276807785034,0.5084498524665833,-9.970244407653809,0.005522920015040845,0.09510743587814449,-0.05347479397398878,1.6360746622085571,8.144397735595703,0.8829625844955444
1731474089.0996022,-0.38681620359420776,0.5194522142410278,-9.977415084838867,0.026262069121141113,0.039343918650698514,-0.03429588345441725,1.6360803842544556,8.144392967224121,0.8829611539840698
1731474089.1495774,-0.38658422231674194,0.5067710280418396,-9.956591606140137,0.03847499289426789,-0.006954665845491696,-0.013879257306800055,1.6371145248413086,8.143481254577637,0.8826954364776611
1731474089.1995323,-0.38658422231674194,0.5067710280418396,-9.956591606140137,0.04050817740857321,-0.034371758450621445,0.0024991556784074226,1.638057827949524,8.151968002319336,0.8833649754524231
1731474089.1995323,-0.36391356587409973,0.5088326930999756,-9.967288970947266,0.035250023948440685,-0.041819096267848285,0.012356295428236196,1.638065218925476,8.151978492736816,0.8833651542663574
1731474089.2495732,-0.3517875075340271,0.4898000657558441,-9.992910385131836,0.027252290737922454,-0.034192128586314166,0.015526177053891583,1.6391993761062622,8.153436660766602,0.883407711982727
1731474089.3003733,-0.3536577522754669,0.47579285502433777,-9.97509479522705,0.020552058438553903,-0.018739568598252813,0.012663174909731411,1.6400700807571411,8.158639907836914,0.8835542798042297
1731474089.3502307,-0.29776617884635925,0.48857569694519043,-9.99306869506836,0.01768237818180528,-0.0019523680636887794,0.005006004632531948,1.6418063640594482,8.163817405700684,0.883662223815918
1731474089.4003174,-0.3155147135257721,0.44179055094718933,-10.001805305480957,0.01920520001037792,0.011705046172672512,-0.005058098172127514,1.6431162357330322,8.167023658752441,0.8837443590164185
1731474089.4502988,-0.31174740195274353,0.4712088406085968,-10.001213073730469,0.02317033384024476,0.020192217534065315,-0.01438337650982883,1.6444687843322754,8.170243263244629,0.8838015794754028
1731474089.5002325,-0.31174740195274353,0.4712088406085968,-10.001213073730469,0.025646163283998016,0.02388863476112204,-0.0203558381773094,1.6435729265213013,8.166172981262207,0.8837268352508545
1731474089.5002325,-0.3007141649723053,0.4656451642513275,-10.000551223754883,0.02340064439237456,0.024296453844350824,-0.021868106195261788,1.6435774564743042,8.166180610656738,0.8837267160415649
1731474089.550132,-0.3202763795852661,0.4701738953590393,-9.987771034240723,0.0163531340098962,0.02257138869031903,-0.019292894340258764,1.6443859338760376,8.167556762695312,0.8836845755577087
1731474089.600011,-0.3202763795852661,0.4701738953590393,-9.987771034240723,0.007083003601144779,0.019277325146289874,-0.013738721625370862,1.645398736000061,8.168212890625,0.8839409947395325
1731474089.600011,-0.33547884225845337,0.4700106978416443,-9.976987838745117,-0.0015227552092810482,0.014838194502978115,-0.0064858214174270045,1.6454049348831177,8.168221473693848,0.8839412331581116
1731474089.6500144,-0.3184829354286194,0.46854257583618164,-9.991050720214844,-0.007778847148082146,0.009892183181499991,0.0010170390069310946,1.646364688873291,8.169655799865723,0.8839811682701111
1731474089.7000232,-0.34010374546051025,0.45437777042388916,-10.014033317565918,-0.011209314908657106,0.00534333383586077,0.006989729600068207,1.647318959236145,8.171136856079102,0.8840320110321045
1731474089.7499368,-0.3352277874946594,0.43942809104919434,-10.014036178588867,-0.012231010141879778,0.0023163713045146516,0.009487319144849031,1.6482295989990234,8.17260456085205,0.884102463722229
1731474089.8000188,-0.3352277874946594,0.43942809104919434,-10.014036178588867,-0.011935371567119617,0.0020079740508130886,0.00718910109087511,1.6491225957870483,8.174098014831543,0.8841947317123413
1731474089.8000188,-0.3420368432998657,0.46527913212776184,-9.998604774475098,-0.011543333732854499,0.004999292308752979,0.0004203738633171618,1.6491276025772095,8.17410659790039,0.8841953277587891
1731474089.8498688,-0.3664596974849701,0.4678037762641907,-9.986387252807617,-0.011992680688888903,0.010306604403239007,-0.008539405898053184,1.6499748229980469,8.17558765411377,0.884284496307373
1731474089.899858,-0.3664596974849701,0.4678037762641907,-9.986387252807617,-0.014106209621762674,0.015477526035194719,-0.016316381709854166,1.6470417976379395,8.156760215759277,0.8841288685798645
1731474089.899858,-0.34123659133911133,0.4840555489063263,-9.985909461975098,-0.018210241324642495,0.01799988651437105,-0.020072240130321026,1.6470439434051514,8.156752586364746,0.8841288685798645
1731474089.949762,-0.3622075617313385,0.4841685891151428,-9.985236167907715,-0.022818847794591434,0.016514794255337747,-0.01886123523701017,1.6473983526229858,8.155388832092285,0.884106457233429
1731474089.999753,-0.34743690490722656,0.4958237409591675,-9.99301815032959,-0.024771501918403275,0.011008626638596097,-0.013815792374118976,1.6492972373962402,8.145707130432129,0.8843181729316711
1731474090.049663,-0.34788429737091064,0.505302906036377,-9.969696044921875,-0.021704394085801847,0.0025914064992491083,-0.007170391620569581,1.6500006914138794,8.142497062683105,0.8843284249305725
1731474090.0997126,-0.3582882285118103,0.4987584948539734,-9.983470916748047,-0.014068508384274687,-0.006691041373148368,-0.0008232247782840598,1.6506621837615967,8.13926887512207,0.8843287825584412
1731474090.1495976,-0.3582882285118103,0.4987584948539734,-9.983470916748047,-0.0048487582695275555,-0.014299947246914968,0.004387704782773888,1.6516319513320923,8.13247013092041,0.8845333456993103
1731474090.1495976,-0.3667028248310089,0.5200543999671936,-9.972513198852539,0.0023350064499879867,-0.018293065151459724,0.008259609100289904,1.6516358852386475,8.13244915008545,0.884533703327179
1731474090.1996012,-0.36494049429893494,0.5353296995162964,-9.978793144226074,0.005262051949732007,-0.01857283029488425,0.010700638339608756,1.6523222923278809,8.128732681274414,0.8846063613891602
1731474090.2494667,-0.32819393277168274,0.5521596074104309,-9.941433906555176,0.004099147010353814,-0.01715709521898842,0.011865025971759587,1.6560710668563843,8.117644309997559,0.8848050236701965
1731474090.300348,-0.32819393277168274,0.5521596074104309,-9.941433906555176,0.0010813171591732358,-0.01680439908266876,0.012446259590699924,1.6578481197357178,8.111254692077637,0.8849596381187439
1731474090.300348,-0.35115161538124084,0.5368016362190247,-9.967182159423828,-0.0012196223933207617,-0.018557425623019548,0.013009673002203466,1.6578587293624878,8.11121654510498,0.8849606513977051
1731474090.3503184,-0.3327264189720154,0.5245203375816345,-9.979969024658203,-0.0019710797765312513,-0.020478927311267745,0.012685631926934414,1.6604758501052856,8.102887153625488,0.8850647211074829
1731474090.4004328,-0.3327264189720154,0.5245203375816345,-9.979969024658203,-0.002082789690612517,-0.019371254564136523,0.009571778062596402,1.66277015209198,8.094878196716309,0.8852511644363403
1731474090.4004328,-0.35382384061813354,0.5354447960853577,-9.9802885055542,-0.0025390535017677696,-0.013891801041051735,0.003100870783247643,1.6627845764160156,8.094827651977539,0.8852524161338806
1731474090.4502733,-0.3591298460960388,0.5334442257881165,-10.013641357421875,-0.0037797913568050068,-0.005859487636160836,-0.004896535679692252,1.6650264263153076,8.086945533752441,0.8854411840438843
1731474090.5002248,-0.36479392647743225,0.5140856504440308,-9.966605186462402,-0.006205005669670971,0.0013637276469295062,-0.011840258315553942,1.6630269289016724,8.07852840423584,0.885199248790741
1731474090.5500815,-0.29037532210350037,0.523932158946991,-9.975282669067383,-0.009675225833581352,0.005453465121955772,-0.01601311571578833,1.6641758680343628,8.071125984191895,0.8852294087409973
1731474090.600087,-0.30451396107673645,0.4803786277770996,-10.04052734375,-0.011890542008847522,0.006239380925232162,-0.01707888868320727,1.6673073768615723,8.049405097961426,0.88536536693573
1731474090.6499794,-0.2831840515136719,0.5302726626396179,-9.984821319580078,-0.008948307561157116,0.004984306913677239,-0.016297982448576404,1.6692142486572266,8.037054061889648,0.8853875994682312
1731474090.6999872,-0.30251699686050415,0.5056096911430359,-9.982156753540039,0.0007175018301728685,0.0026200384335206585,-0.014653944821086258,1.6711163520812988,8.024675369262695,0.885371208190918
1731474090.749888,-0.3148697316646576,0.5037885308265686,-10.014663696289062,0.013807064654510929,-0.0012079339452869956,-0.010626076377636032,1.6730326414108276,8.012323379516602,0.8853233456611633
1731474090.7998383,-0.2839489281177521,0.5018978714942932,-9.99512004852295,0.024505902002250925,-0.006923425043154877,-0.002132138889384534,1.6749958992004395,7.999967098236084,0.8852595686912537
1731474090.849793,-0.27240103483200073,0.5090347528457642,-10.009008407592773,0.028944574703218453,-0.013739429078408368,0.010307480274551284,1.6708862781524658,8.019433975219727,0.8855303525924683
1731474090.8998556,-0.29844602942466736,0.5029484629631042,-10.004854202270508,0.02720467793057074,-0.02001993406233272,0.02361968338108217,1.67191743850708,8.01253604888916,0.8856074213981628
1731474090.949743,-0.29693520069122314,0.505366325378418,-9.988072395324707,0.02139826680018227,-0.023942706338904905,0.03395270616341407,1.6751065254211426,7.991202354431152,0.8858088850975037
1731474090.9996557,-0.3359871506690979,0.5235353708267212,-9.96452808380127,0.012990263069061769,-0.024097344048044637,0.03853130398854883,1.6768584251403809,7.979909420013428,0.8860362768173218
1731474091.0497282,-0.3307221531867981,0.5225757360458374,-10.007951736450195,0.0025590252547853815,-0.020583919736554705,0.03691038691910214,1.6786317825317383,7.968547821044922,0.8863584399223328
1731474091.0996656,-0.3237450420856476,0.5316799879074097,-9.997241973876953,-0.00903609598546577,-0.015397921108747395,0.030359261380328302,1.6803919076919556,7.957174777984619,0.8867636322975159
1731474091.1495028,-0.37063413858413696,0.538305401802063,-9.953588485717773,-0.020364786025481744,-0.01128064126259161,0.020771380259613767,1.6805957555770874,7.957255840301514,0.8859806060791016
1731474091.1995835,-0.37063413858413696,0.538305401802063,-9.953588485717773,-0.030119032106931603,-0.010109879772062555,0.010805201099890898,1.6846240758895874,7.941183567047119,0.8861331939697266
1731474091.1995835,-0.3376631736755371,0.5449643135070801,-9.961478233337402,-0.036907716123624874,-0.011811258758765559,0.0033282013622770836,1.6846370697021484,7.941117763519287,0.886134147644043
1731474091.2494085,-0.3139318823814392,0.5560449957847595,-9.967137336730957,-0.03818480994283391,-0.014581499250764487,-0.0004951445659218646,1.6867246627807617,7.9302825927734375,0.8862901926040649
1731474091.2994611,-0.3436102867126465,0.5317143797874451,-9.974397659301758,-0.031201526773362437,-0.016430904720859115,-0.0017947924925532733,1.6887502670288086,7.919281959533691,0.886445164680481
1731474091.3503623,-0.3411019444465637,0.5366346836090088,-9.992331504821777,-0.015913295431364636,-0.01626110532680386,-0.002754468906477825,1.6907484531402588,7.908060550689697,0.8865967988967896
1731474091.4003217,-0.3411019444465637,0.5366346836090088,-9.992331504821777,0.003884631121516659,-0.013818760311061124,-0.005355881207679443,1.6926932334899902,7.897014617919922,0.8867353796958923
1731474091.4003217,-0.35934779047966003,0.5204048156738281,-9.952765464782715,0.02254996881765546,-0.009503988560503513,-0.010449199100244421,1.692704439163208,7.896951198577881,0.8867361545562744
1731474091.4502246,-0.35934779047966003,0.5204048156738281,-9.952765464782715,0.03533412995752785,-0.004070392512235639,-0.016884436069351152,1.6946840286254883,7.885961055755615,0.8868462443351746
1731474091.4502246,-0.3826143741607666,0.5236998796463013,-9.962532997131348,0.03982218785893659,0.0017944490096999221,-0.021899091042439905,1.6946959495544434,7.8858962059021,0.8868467807769775
1731474091.5002189,-0.3538346290588379,0.5494754314422607,-9.985278129577637,0.03618802171125933,0.007336241737242235,-0.023309309701214063,1.6891943216323853,7.9171624183654785,0.8862616419792175
1731474091.5501451,-0.3432210683822632,0.502437949180603,-10.04443359375,0.02694104495249687,0.011584874306095299,-0.021542903413629196,1.6902837753295898,7.91194486618042,0.8862189054489136
1731474091.6001773,-0.3281601071357727,0.5158441662788391,-9.975163459777832,0.016114904353093224,0.014244610415686606,-0.01921980775851965,1.6914312839508057,7.906739234924316,0.8861251473426819
1731474091.650053,-0.32874834537506104,0.5016791820526123,-9.978544235229492,0.007737688929678868,0.016442602372706547,-0.018310960312124983,1.6942695379257202,7.899869441986084,0.8862759470939636
1731474091.7000244,-0.34446749091148376,0.5266024470329285,-10.057920455932617,0.0041150490941695966,0.019472009745332856,-0.01852115314064951,1.6957180500030518,7.894493103027344,0.8862055540084839
1731474091.7499979,-0.3155851662158966,0.5072634816169739,-9.958635330200195,0.004826341478408883,0.022695257960839932,-0.01907951647873485,1.697176218032837,7.889174938201904,0.8860883116722107
1731474091.7998457,-0.3103046715259552,0.518742561340332,-9.9906587600708,0.007550921380460863,0.023564078621942097,-0.019855108043643335,1.6983038187026978,7.872794151306152,0.8863552808761597
1731474091.8498366,-0.3103046715259552,0.518742561340332,-9.9906587600708,0.010168647123514542,0.020032985482564422,-0.02015643783167472,1.699761986732483,7.864345073699951,0.8862816691398621
1731474091.8498366,-0.3334648013114929,0.5075783133506775,-10.015873908996582,0.011541416118633695,0.012560604753953295,-0.018939536227180552,1.6997703313827515,7.864297389984131,0.8862811326980591
1731474091.8998556,-0.3334648013114929,0.5075783133506775,-10.015873908996582,0.010737498192740787,0.003919094505392618,-0.016347063090338957,1.7031726837158203,7.844417572021484,0.8864772319793701
1731474091.8998556,-0.3122220039367676,0.514275848865509,-9.949199676513672,0.007119707959289255,-0.00264210595234982,-0.013399819437533387,1.703185796737671,7.844344139099121,0.8864771127700806
1731474091.9497182,-0.3122220039367676,0.514275848865509,-9.949199676513672,0.001685819137279922,-0.005458733438901521,-0.00973027083298778,1.7081693410873413,7.821183681488037,0.8866199254989624
1731474091.9497182,-0.2819036543369293,0.5336759090423584,-9.974722862243652,-0.002706078641054855,-0.005188407501276788,-0.003255549000224755,1.708189845085144,7.82108211517334,0.8866201639175415
1731474091.9497182,-0.2819036543369293,0.5336759090423584,-9.974722862243652,-0.0031717080585522204,-0.003920663512781208,0.00621173096504687,1.7102782726287842,7.810715675354004,0.8866448998451233
1731474091.9497182,-0.2819036543369293,0.5336759090423584,-9.974722862243652,0.001311659141279686,-0.003737283309742364,0.01475458954058887,1.7102992534637451,7.810611248016357,0.8866451978683472
1731474092.3483305,-0.3226688802242279,0.5239363312721252,-9.992278099060059,0.009377202664487584,-0.005621563086456406,0.017367034374399702,1.7214292287826538,7.7503886222839355,0.8882614374160767
1731474092.398287,-0.34643223881721497,0.5290935039520264,-9.958526611328125,0.01763890004257707,-0.009075943559425259,0.012147855100411081,1.72295081615448,7.743221282958984,0.8886352181434631
1731474092.4483156,-0.34915056824684143,0.5422105193138123,-9.98935317993164,0.021917146897313146,-0.012639542450320942,0.001797400715125228,1.7206284999847412,7.751951694488525,0.8875608444213867
1731474092.49818,-0.3428492844104767,0.5465685129165649,-10.005890846252441,0.01953697332449624,-0.01497947246612663,-0.00830012927788931,1.7220673561096191,7.744505882263184,0.8877076506614685
1731474092.548053,-0.3565996289253235,0.5310126543045044,-9.944005012512207,0.011233281757113498,-0.015470184717673165,-0.01384093581754144,1.7235432863235474,7.7370285987854,0.8878268003463745
1731474092.598106,-0.3560912311077118,0.5299665331840515,-9.957097053527832,0.0005986620739247737,-0.013852832614537878,-0.01319919014279208,1.7233166694641113,7.733161449432373,0.8874706625938416
1731474092.6481354,-0.325025349855423,0.5512297749519348,-10.017881393432617,-0.008282843801691904,-0.010171008341267499,-0.007001700785118728,1.724707007408142,7.724692344665527,0.8875105977058411
1731474092.6980903,-0.35464078187942505,0.5370462536811829,-9.965409278869629,-0.012532842924860859,-0.005449064716677747,0.0014257955866880346,1.7260822057724,7.716136932373047,0.8875439167022705
1731474092.7479851,-0.3172648549079895,0.5310273766517639,-9.982487678527832,-0.011059165077731317,-0.001554268071432313,0.007051943262942659,1.7274941205978394,7.7030229568481445,0.887471616268158
1731474092.7979496,-0.325264036655426,0.5274683237075806,-10.016234397888184,-0.004733141145410578,0.00023545337658983565,0.006588454981699466,1.7289237976074219,7.693157196044922,0.8875308632850647
1731474092.8479366,-0.349308043718338,0.5187178254127502,-9.973846435546875,0.003702401967462271,0.0001715239246438171,0.00031088526304366205,1.7317508459091187,7.674633979797363,0.8875678777694702
1731474092.8979018,-0.2937595248222351,0.5410016775131226,-9.991613388061523,0.01058433781118985,-0.000578166882342262,-0.008764554628009421,1.7337968349456787,7.661189556121826,0.8876188397407532
1731474092.9478507,-0.33975374698638916,0.5002723932266235,-10.05535888671875,0.013816249591745159,-0.0011484730353233422,-0.017119570860904803,1.7358651161193848,7.647796154022217,0.8876373767852783
1731474092.9977965,-0.3114513158798218,0.5144200921058655,-9.969694137573242,0.01435541418231287,-0.0012603046014472144,-0.023253909226557855,1.7379719018936157,7.634377479553223,0.887605607509613
1731474093.047668,-0.30592045187950134,0.5239786505699158,-9.979462623596191,0.014647644344784105,-0.0007498243102855286,-0.02739547531855937,1.7401098012924194,7.620988845825195,0.8875108957290649
1731474093.0977025,-0.27832555770874023,0.5577501654624939,-9.984227180480957,0.016805625862715685,0.0001197139948895616,-0.02921473529648702,1.7353887557983398,7.6421403884887695,0.887591540813446
1731474093.147593,-0.31211280822753906,0.5227921605110168,-9.98379898071289,0.021717249360314914,0.00033981894374647586,-0.027823057360691017,1.73643159866333,7.634537220001221,0.8874801397323608
1731474093.1974974,-0.2941074073314667,0.5053321719169617,-9.990656852722168,0.027676156314966616,-0.00030960866829792916,-0.023271874748932456,1.7375282049179077,7.626987457275391,0.8873062133789062
1731474093.2474205,-0.2768595516681671,0.5354159474372864,-9.995851516723633,0.030608801689479208,9.937341966055998e-05,-0.01683437434393758,1.7387014627456665,7.619407653808594,0.8870818614959717
1731474093.2974794,-0.2768595516681671,0.5354159474372864,-9.995851516723633,0.027510029545711096,0.0038301871598450804,-0.010416524012693367,1.7402334213256836,7.612823486328125,0.8876404762268066
1731474093.2974794,-0.2930150330066681,0.5351903438568115,-10.001940727233887,0.019001913852970984,0.010714267468272226,-0.005770297144401219,1.7402422428131104,7.612771034240723,0.8876401782035828
1731474093.3483963,-0.30239972472190857,0.5302776098251343,-9.985015869140625,0.008023107706314533,0.018046911862902536,-0.003620086152999702,1.741698980331421,7.6042799949646,0.8875903487205505
1731474093.3984356,-0.30239972472190857,0.5302776098251343,-9.985015869140625,-0.002729283458512306,0.022659862504031063,-0.003252254671715151,1.7445018291473389,7.570818901062012,0.8877888917922974
1731474093.3984356,-0.30197805166244507,0.5326236486434937,-9.974191665649414,-0.011681402306834242,0.022863437145365168,-0.0030619291679732544,1.744511365890503,7.570735454559326,0.8877889513969421
1731474093.4482849,-0.29416152834892273,0.5453499555587769,-10.02635669708252,-0.017724783392729353,0.018897364903925417,-0.0019635368913061488,1.7461134195327759,7.556629180908203,0.887798547744751
1731474093.4983568,-0.3068825900554657,0.5144311189651489,-9.966144561767578,-0.01981684026934661,0.012230404347223278,-0.00045110343211503484,1.7505139112472534,7.522806644439697,0.8879315257072449
1731474093.5481806,-0.3068825900554657,0.5144311189651489,-9.966144561767578,-0.01771299809724713,0.004968128760035912,0.00028346738321338895,1.7556729316711426,7.4870524406433105,0.8880411386489868
1731474093.5481806,-0.3372335433959961,0.5266342759132385,-9.971237182617188,-0.012735276092910879,-0.0007850639870088465,-5.472205841542749e-06,1.7556999921798706,7.486850261688232,0.8880416750907898
1731474093.598163,-0.3266236186027527,0.5188621282577515,-10.03116512298584,-0.007495299761013817,-0.004022190104850608,-0.001023974744008421,1.7588891983032227,7.462935447692871,0.8881028890609741
1731474093.6481717,-0.3266236186027527,0.5188621282577515,-10.03116512298584,-0.004635300702836111,-0.005149684176483229,-0.0036549452853298883,1.7620823383331299,7.438866138458252,0.8881585597991943
1731474093.6481717,-0.32177498936653137,0.538185715675354,-10.000555038452148,-0.00536168576349247,-0.005217703919432972,-0.009750959307591067,1.762101173400879,7.438723564147949,0.8881588578224182
1731474093.698096,-0.3369312584400177,0.5175722241401672,-9.95157241821289,-0.009028403532625531,-0.005288262065485473,-0.01948156369851149,1.7652573585510254,7.414792537689209,0.8881855010986328
1731474093.748041,-0.30701524019241333,0.5396652221679688,-9.987956047058105,-0.01395803080958177,-0.0061112557363075925,-0.029649561490984373,1.7597439289093018,7.440132141113281,0.8879868388175964
1731474093.7980123,-0.2943284213542938,0.5646704435348511,-10.002531051635742,-0.01816210506420582,-0.007959995759859808,-0.03582117297132387,1.7632075548171997,7.407738208770752,0.8879348635673523
1731474093.847888,-0.3204219341278076,0.5186828374862671,-9.936808586120605,-0.019790505431297067,-0.01048591323679912,-0.03546974697549733,1.7651811838150024,7.388517379760742,0.8877756595611572
1731474093.8978896,-0.3474690020084381,0.542435884475708,-9.995295524597168,-0.018436470035625246,-0.01211278915970496,-0.028245483546364372,1.7671090364456177,7.369248390197754,0.8875367641448975
1731474093.9478157,-0.3232117295265198,0.5584902167320251,-9.998310089111328,-0.01610588913842488,-0.010501366820499729,-0.015399178164180894,1.7689883708953857,7.3500075340271,0.8872442245483398
1731474093.9977915,-0.3003000020980835,0.5365951061248779,-9.957523345947266,-0.015537213229899607,-0.004756745138300342,-0.0001194109067778823,1.7708362340927124,7.330665588378906,0.8869310021400452
1731474094.0476484,-0.3003000020980835,0.5365951061248779,-9.957523345947266,-0.017414220714394253,0.0037258242305138714,0.013871880752886239,1.7726322412490845,7.311436176300049,0.8866366744041443
1731474094.0476484,-0.2960893511772156,0.5549783706665039,-9.971250534057617,-0.019952324075355115,0.012657439955588651,0.024636155586696337,1.772642731666565,7.31132173538208,0.8866350054740906
1731474094.097808,-0.30846431851387024,0.5268027186393738,-10.026986122131348,-0.02087924470415239,0.02007540541903561,0.03171321320039641,1.767383337020874,7.356855869293213,0.8879218697547913
1731474094.1476138,-0.3205359876155853,0.5312829613685608,-9.955556869506836,-0.019285056508519336,0.024767485326078,0.03465345196010996,1.7682043313980103,7.346569538116455,0.8880121111869812
1731474094.1976066,-0.3122895359992981,0.5600022673606873,-9.983095169067383,-0.015885194500553902,0.026055819196237763,0.03381442079409629,1.7711063623428345,7.319137096405029,0.8879432678222656
1731474094.2475333,-0.3122895359992981,0.5600022673606873,-9.983095169067383,-0.012001263318665283,0.023236175381123766,0.03136010697445526,1.7724095582962036,7.304980278015137,0.8880729079246521
1731474094.2475333,-0.31259462237358093,0.5131564140319824,-10.013252258300781,-0.0085192779224089,0.016486481079332947,0.029052793929629627,1.7724181413650513,7.304886341094971,0.8880740404129028
1731474094.2974975,-0.31259462237358093,0.5131564140319824,-10.013252258300781,-0.005695110311763958,0.008603667121397342,0.025907741078069778,1.773694634437561,7.2908196449279785,0.8882744312286377
1731474094.2974975,-0.3407626450061798,0.4863525629043579,-9.983735084533691,-0.003632421747881615,0.0043161893602902904,0.01965296818373953,1.7737022638320923,7.290735721588135,0.8882758021354675
1731474094.3473876,-0.2992401719093323,0.5213502645492554,-9.991992950439453,-0.0026660683968421552,0.007219940498236448,0.00987233064748922,1.7763948440551758,7.261397361755371,0.887848973274231
1731474094.3984056,-0.32000860571861267,0.532026469707489,-10.022276878356934,-0.003001918896319766,0.017061140002890992,-0.001267791998111396,1.7780519723892212,7.243170261383057,0.8878769874572754
1731474094.4483037,-0.2953367829322815,0.5160759091377258,-9.97430419921875,-0.004262822481810322,0.02924521142751683,-0.01089023828902441,1.780596137046814,7.214502334594727,0.887682318687439
1731474094.498245,-0.3028234839439392,0.5159717798233032,-9.966289520263672,-0.005733079733707916,0.03751792775606835,-0.016812842253857044,1.7825589179992676,7.192625522613525,0.8875997066497803
1731474094.5482192,-0.2935384511947632,0.5314792394638062,-10.012699127197266,-0.006747570406126748,0.03792788085267322,-0.01797120646938741,1.784735918045044,7.169670581817627,0.8875181674957275
1731474094.5981443,-0.3133105933666229,0.5270630717277527,-9.992209434509277,-0.006957793047921078,0.0304789128341115,-0.015141116859121527,1.7868250608444214,7.146702766418457,0.8873859643936157
1731474094.6481237,-0.2912640869617462,0.5387024283409119,-9.945801734924316,-0.006564662589588868,0.018176373454195798,-0.010136475346036053,1.7889000177383423,7.12376594543457,0.8872220516204834
1731474094.698082,-0.304096519947052,0.5263890027999878,-10.006844520568848,-0.006077755848528984,0.005228693408354095,-0.0035753403345619656,1.7880382537841797,7.13724422454834,0.8874138593673706
1731474094.7479763,-0.2717997431755066,0.5659945011138916,-9.987005233764648,-0.005639528684484663,-0.004923328334353326,0.0047377674114888225,1.7892920970916748,7.123976230621338,0.8873521685600281
1731474094.7980065,-0.3007130026817322,0.5172274708747864,-9.978690147399902,-0.004636401387246781,-0.010996982306860728,0.013723976082153604,1.7905375957489014,7.110641002655029,0.8873133063316345
1731474094.8478863,-0.3007130026817322,0.5172274708747864,-9.978690147399902,-0.0022924150434057025,-0.013418375668400295,0.021373696301669205,1.7913844585418701,7.098264694213867,0.8873682022094727
1731474094.8478863,-0.31742045283317566,0.5344122052192688,-10.018102645874023,0.0011426400555129908,-0.012900986366078802,0.026134049556790082,1.791392207145691,7.098175525665283,0.8873683214187622
1731474094.8979185,-0.31711748242378235,0.534500241279602,-9.987299919128418,0.004096494680146456,-0.010358731983944035,0.02670480805972686,1.7927182912826538,7.083029270172119,0.8874189853668213
1731474094.9478214,-0.31711748242378235,0.534500241279602,-9.987299919128418,0.004715974448162932,-0.007476792197870853,0.022104621358561907,1.7940562963485718,7.0678486824035645,0.8875303864479065
1731474094.9478214,-0.2996901571750641,0.5381747484207153,-9.957315444946289,0.002237415545453543,-0.006060042638105436,0.013203279604158477,1.7940672636032104,7.06772518157959,0.8875315189361572
1731474094.9978147,-0.338575154542923,0.5018426775932312,-9.980085372924805,-0.0025397337814545224,-0.006811964050702572,0.003203397515001129,1.794482946395874,7.0481648445129395,0.8873028755187988
1731474095.0477438,-0.338575154542923,0.5018426775932312,-9.980085372924805,-0.008085846818726582,-0.00878877303495558,-0.004268591118840496,1.7955909967422485,7.031999588012695,0.8872987031936646
1731474095.0477438,-0.2985818088054657,0.5487602949142456,-10.011765480041504,-0.012768977893178077,-0.010321200688886081,-0.0075663002775563475,1.7955974340438843,7.0319037437438965,0.8872986435890198
1731474095.0976217,-0.3277839720249176,0.5324580073356628,-9.981037139892578,-0.014545397123882961,-0.011025171822137893,-0.007686227610691647,1.7982909679412842,7.002408981323242,0.8871586918830872
1731474095.1476002,-0.32121533155441284,0.5162765979766846,-9.970890045166016,-0.011755289034985822,-0.01203053115987073,-0.00669963036912128,1.8007827997207642,6.963133335113525,0.887045681476593
1731474095.1975527,-0.32121533155441284,0.5162765979766846,-9.970890045166016,-0.004937420970189603,-0.01371227894613531,-0.005712168862571495,1.80253005027771,6.9376044273376465,0.8869549036026001
1731474095.1975527,-0.31656014919281006,0.5140693187713623,-9.996644973754883,0.003168214429544629,-0.014684904991629897,-0.0047225547429967235,1.8025403022766113,6.9374542236328125,0.8869543075561523
1731474095.2474806,-0.31656014919281006,0.5140693187713623,-9.996644973754883,0.009550981538845066,-0.013470509499444363,-0.004027921743853351,1.804276704788208,6.91213321685791,0.8868523240089417
1731474095.2474806,-0.3317126929759979,0.5247854590415955,-10.036504745483398,0.012500964986022876,-0.010001937138335379,-0.0048954305177652205,1.804287314414978,6.911978721618652,0.8868516683578491
1731474095.2974312,-0.32355713844299316,0.514661967754364,-9.947484016418457,0.011797628898921669,-0.005497301054581717,-0.008585372693088119,1.8060572147369385,6.886533260345459,0.8867335915565491
1731474095.3473787,-0.32355713844299316,0.514661967754364,-9.947484016418457,0.008258923725808468,-0.00149089700657507,-0.014334329135100665,1.8032960891723633,6.922796249389648,0.8869269490242004
1731474095.3473787,-0.30334630608558655,0.5251743793487549,-10.007716178894043,0.0034691417269073492,0.00103702106794731,-0.01905905310492524,1.803301453590393,6.922717571258545,0.8869264721870422
1731474095.3973355,-0.34706586599349976,0.513888418674469,-9.964221954345703,-0.00067776864869249,0.0018212135379291733,-0.020559027722236403,1.8041969537734985,6.909462928771973,0.8868246674537659
1731474095.4482982,-0.3490428626537323,0.5281573534011841,-9.968609809875488,-0.0031818409760505173,0.0010578942606879168,-0.01972546032771813,1.8049856424331665,6.877317905426025,0.8869328498840332
1731474095.4982467,-0.3311694264411926,0.519619345664978,-9.992570877075195,-0.00456718063337581,-0.0007264154651505264,-0.018638517431305457,1.8059628009796143,6.855901718139648,0.8868330121040344
1731474095.5482032,-0.3387899398803711,0.5272279381752014,-10.0325288772583,-0.005523605937045742,-0.0026999328427209845,-0.018627182991394257,1.8069251775741577,6.834529876708984,0.8866869211196899
1731474095.5981243,-0.3153894543647766,0.516776442527771,-9.946231842041016,-0.005476276776283343,-0.003878853857468672,-0.020266970921352132,1.8078746795654297,6.8131327629089355,0.8864922523498535
1731474095.6481407,-0.30665040016174316,0.5289518237113953,-9.977482795715332,-0.003042506187880761,-0.0035653877532973383,-0.022906497627986782,1.8056632280349731,6.83610725402832,0.8869072794914246
1731474095.6980479,-0.298431932926178,0.5330854654312134,-10.030414581298828,0.0026089504593945195,-0.0018307353889658142,-0.024660576700935334,1.8060264587402344,6.823719501495361,0.8867807388305664
1731474095.7479742,-0.31998395919799805,0.5356101393699646,-9.980976104736328,0.010501886865934564,0.0004165519958118679,-0.024484375013960995,1.8063076734542847,6.785519599914551,0.8869032263755798
1731474095.7979877,-0.3110008239746094,0.5118252038955688,-9.979917526245117,0.01766893841471814,0.0020960326784705005,-0.0229705698969608,1.8059813976287842,6.730742931365967,0.8869114518165588
1731474095.8479362,-0.3036671280860901,0.5110424757003784,-9.980179786682129,0.021073095726000517,0.002926377168513813,-0.02063515902078432,1.806156873703003,6.69536828994751,0.8867911696434021
1731474095.8978462,-0.3059512972831726,0.5311705470085144,-9.996103286743164,0.01984262273007609,0.003328084760960803,-0.017318859782915714,1.8063833713531494,6.659996509552002,0.8866234421730042
1731474095.9478061,-0.2980295419692993,0.5159748792648315,-9.999449729919434,0.015402760535129763,0.00330308502937301,-0.013336729549784255,1.8066529035568237,6.624755382537842,0.8864182233810425
1731474095.9977877,-0.29304805397987366,0.5184807777404785,-9.999472618103027,0.010163655371290978,0.002276841806536715,-0.00992461658435833,1.805287480354309,6.680533409118652,0.8869057893753052
1731474096.0477142,-0.29304805397987366,0.5184807777404785,-9.999472618103027,0.006274497635092179,9.528857565038566e-05,-0.008310817234978502,1.804383635520935,6.639796733856201,0.8869425654411316
1731474096.0477142,-0.2929629385471344,0.5167074203491211,-9.980708122253418,0.0046703260090385605,-0.002540267130894496,-0.008478252262618535,1.8043818473815918,6.6396403312683105,0.8869422674179077
1731474096.097722,-0.34272056818008423,0.5207318663597107,-9.951961517333984,0.0045514021247831295,-0.004582410213799933,-0.008706591003668142,1.8041170835494995,6.615751266479492,0.8868880867958069
1731474096.1475773,-0.34272056818008423,0.5207318663597107,-9.951961517333984,0.0035814490334480377,-0.0053411449789275214,-0.006322397870968433,1.8026260137557983,6.594372749328613,0.8869645595550537
1731474096.1475773,-0.3657597601413727,0.5506055951118469,-9.971494674682617,-0.0008015617304461856,-0.0049677555749048485,0.00034147353053636843,1.8026211261749268,6.5941948890686035,0.8869643211364746
1731474096.1976411,0.37223970890045166,1.3371042013168335,-10.02437973022461,-0.005653003504501754,-0.00838371932325949,0.009501507716464578,1.8020002841949463,6.571774005889893,0.886946439743042
1731474096.2475028,0.4527299404144287,1.3587878942489624,-9.929007530212402,0.0071536318795584865,-0.033860412985648194,0.015981100601887323,1.8013803958892822,6.549261569976807,0.8869602084159851
1731474096.297488,0.4527299404144287,1.3587878942489624,-9.929007530212402,0.06771382078913865,-0.10950481592028824,0.015735613855434923,1.8012967109680176,6.545678615570068,0.8870112299919128
1731474096.297488,0.5915169715881348,1.5134291648864746,-9.90280532836914,0.19081405337983903,-0.24610635137448805,0.0100046580356942,1.8012945652008057,6.545558929443359,0.8870114684104919
1731474096.3474317,0.5915169715881348,1.5134291648864746,-9.90280532836914,0.3492235887305097,-0.4119991682045803,0.003758516373614395,1.8013633489608765,6.524965286254883,0.8870611786842346
1731474096.3474317,0.17510749399662018,0.8935470581054688,-10.035807609558105,0.48056715626115853,-0.5413276308342144,0.0006590012128423277,1.8013664484024048,6.5248332023620605,0.8870615363121033
1731474096.397339,0.17510749399662018,0.8935470581054688,-10.035807609558105,0.5230039481822529,-0.5686435467888761,-0.0007339951742700808,1.8006802797317505,6.494935512542725,0.8870127201080322
1731474096.397339,-0.3405812978744507,0.3639465868473053,-10.007553100585938,0.4472636851890063,-0.4619188242222937,-0.0055588738207756365,1.800687313079834,6.4947099685668945,0.887012779712677
1731474096.4473627,-0.9837560057640076,-0.3931492269039154,-10.055438995361328,0.2627061606590667,-0.23428127801984888,-0.016058075453132908,1.7981427907943726,6.460084915161133,0.886985182762146
1731474096.4982522,-0.9540234208106995,-0.3379376232624054,-10.131939888000488,0.005224950204424289,0.06656304539311712,-0.028590496976087176,1.7978371381759644,6.432778835296631,0.8869096040725708
1731474096.5482063,-0.538606584072113,0.2147039920091629,-10.003460884094238,-0.263919106242792,0.36493973589770345,-0.03807632993561533,1.797216773033142,6.406613349914551,0.8867520093917847
1731474096.5983634,-0.7128154635429382,-0.047871869057416916,-9.946409225463867,-0.4582840875397426,0.5625600585402974,-0.040886444094021784,1.7952088117599487,6.415644645690918,0.8869010210037231
1731474096.648087,-0.494931697845459,0.3538738489151001,-9.921689987182617,-0.5047716107990836,0.5815742679482608,-0.03376039986037657,1.7927470207214355,6.4010396003723145,0.8867141604423523
1731474096.6982007,-0.494931697845459,0.3538738489151001,-9.921689987182617,-0.39309218164632276,0.4170255538087805,-0.01579923662025097,1.7909380197525024,6.385299205780029,0.8868890404701233
1731474096.6982007,-0.6457996368408203,0.20965443551540375,-9.961112022399902,-0.18012510644104168,0.13904049829496443,0.008054986623935662,1.7909209728240967,6.385208606719971,0.8868884444236755
1731474096.7480147,-0.5559568405151367,0.49113035202026367,-9.974994659423828,0.044922665383114006,-0.14650643364612564,0.028401637591522807,1.7880072593688965,6.369320869445801,0.8868241310119629
1731474096.798063,-0.6396058201789856,0.3876928985118866,-9.991548538208008,0.20226848772706002,-0.34636772580152597,0.03641149831773064,1.7888633012771606,6.352136135101318,0.8870073556900024
1731474096.8479714,-0.6396058201789856,0.3876928985118866,-9.991548538208008,0.2525945034539837,-0.4169902317028232,0.028479692775182766,1.7879369258880615,6.3332200050354,0.887127697467804
1731474096.8479714,-0.4947969913482666,0.4272802472114563,-9.931161880493164,0.20621455436085762,-0.37026431578334035,0.008722473097776141,1.7879319190979004,6.333060264587402,0.887129008769989
1731474096.8979855,-0.5687180757522583,0.4260362386703491,-9.966668128967285,0.10908548481929561,-0.25254900882707926,-0.012473513517044456,1.7874618768692017,6.313431262969971,0.8872686624526978
1731474096.9478638,-0.5687180757522583,0.4260362386703491,-9.966668128967285,0.015006724977514027,-0.11874774738107388,-0.02451498317339491,1.7870335578918457,6.307428359985352,0.8870130181312561
1731474096.9478638,-0.5249053239822388,0.4542323052883148,-9.992703437805176,-0.04028192518880251,-0.012098172185722863,-0.023122208494307513,1.7870287895202637,6.307325839996338,0.887012779712677
1731474096.9978473,-0.5492870807647705,0.4844987392425537,-9.98939037322998,-0.04870793629342503,0.04627242140535534,-0.011971173160237634,1.7838083505630493,6.278986930847168,0.8869810104370117
1731474097.0476785,-0.5183020234107971,0.5115375518798828,-10.009493827819824,-0.023312899119074006,0.05672180909681494,0.0009319209787186328,1.7821391820907593,6.261197566986084,0.8869422078132629
1731474097.0977821,-0.49864816665649414,0.4994237422943115,-9.9727783203125,0.01476561542008499,0.03380545442531778,0.008768864064101529,1.780443787574768,6.243353843688965,0.8869152069091797
1731474097.1476703,-0.5122123956680298,0.5002397894859314,-9.985485076904297,0.04774981686266413,-0.0024930945524045123,0.009521939371705666,1.7788033485412598,6.225277423858643,0.8869113922119141
1731474097.1975982,-0.4455479681491852,0.5198177099227905,-10.00476360321045,0.06688929550787065,-0.034690815917893435,0.005481812435883712,1.7773691415786743,6.207891941070557,0.8869261741638184
1731474097.2474775,-0.4918311834335327,0.526695728302002,-9.97504711151123,0.0724226017473027,-0.053165643510177454,0.000138323001147197,1.7805672883987427,6.233905792236328,0.8869861364364624
1731474097.2975993,-0.46048736572265625,0.5526016354560852,-9.924558639526367,0.06964109185145827,-0.057003746539761826,-0.0037268667898783265,1.7800374031066895,6.222719669342041,0.8869851231575012
1731474097.347411,-0.4275020956993103,0.5335408449172974,-9.977166175842285,0.06378797537107489,-0.0506783637534029,-0.004052245134005032,1.7766257524490356,6.183980941772461,0.8869906663894653
1731474097.3974466,-0.4275020956993103,0.5335408449172974,-9.977166175842285,0.05760357152812986,-0.039615299155276756,-0.00023604421810299414,1.7752470970153809,6.162805557250977,0.886978805065155
1731474097.3974466,-0.41542038321495056,0.5353671312332153,-9.97169303894043,0.051567716364136165,-0.027667986751314322,0.0058695795233796874,1.7752373218536377,6.162646293640137,0.8869786858558655
1731474097.4473994,-0.3869037330150604,0.5369682908058167,-10.006441116333008,0.04494363755233813,-0.01696654466583282,0.011045890412224504,1.772695779800415,6.147496700286865,0.8870079517364502
1731474097.49736,-0.40073293447494507,0.5050302147865295,-10.004138946533203,0.03734415977994414,-0.008461794413054127,0.012695981612936601,1.7710466384887695,6.127995014190674,0.8870486617088318
1731474097.5482693,-0.37351319193840027,0.5108347535133362,-9.992263793945312,0.02928741552959401,-0.0019393734148226292,0.010128948525957651,1.7693849802017212,6.10725212097168,0.8871232271194458
1731474097.598287,-0.37145572900772095,0.5150434374809265,-10.023614883422852,0.02149508213779032,0.003735121083372775,0.0048910470962679215,1.76822829246521,6.10264253616333,0.8870273232460022
1731474097.6480896,-0.3779059946537018,0.5268424153327942,-10.012676239013672,0.01470979812383899,0.009315344798903365,-0.000493696291374408,1.766925573348999,6.087709903717041,0.8870556354522705
1731474097.6981237,-0.38403064012527466,0.5027579069137573,-9.981107711791992,0.009460286672571315,0.014094587778193064,-0.0039802261367011755,1.7638388872146606,6.046467304229736,0.8870115876197815
1731474097.7481012,-0.3957782983779907,0.536052405834198,-9.988154411315918,0.0054368875577898955,0.016428500622677207,-0.004188429766280274,1.7619229555130005,6.022143363952637,0.8870037198066711
1731474097.7980413,-0.3923265039920807,0.521342933177948,-9.986916542053223,0.0017972977717629814,0.014939064418574956,-0.0009568644457332296,1.7600165605545044,5.997864723205566,0.886989414691925
1731474097.8479571,-0.40255141258239746,0.5249602794647217,-9.953752517700195,-0.001964320216098384,0.009253174429817814,0.004008326984865904,1.7581156492233276,5.97368860244751,0.8869789838790894
1731474097.8979394,-0.42752838134765625,0.4981854259967804,-10.028425216674805,-0.005946722527835853,0.0005146514511937595,0.008240928096930703,1.75896418094635,5.998135566711426,0.8870072364807129
1731474097.947801,-0.42752838134765625,0.4981854259967804,-10.028425216674805,-0.01026089427355224,-0.008588615414232354,0.0097600487943192,1.7575064897537231,5.982759952545166,0.8870388865470886
1731474097.947801,-0.3904142677783966,0.5270366668701172,-10.016278266906738,-0.014438614099889203,-0.015106945781557904,0.007652696327128828,1.7574952840805054,5.982642650604248,0.8870392441749573
1731474097.9978857,-0.4056937098503113,0.5224282145500183,-9.969828605651855,-0.016479822508192507,-0.01780580171136955,0.003224828837722272,1.7545660734176636,5.944977760314941,0.887015700340271
1731474098.0477726,-0.4555206298828125,0.5486091375350952,-9.982638359069824,-0.01430045545338006,-0.017795530373412104,-0.00012527937941828634,1.749922275543213,5.901209831237793,0.8870095610618591
1731474098.0978143,-0.6246640086174011,1.19499933719635,-9.986113548278809,-0.009485524284524255,-0.02016988222632426,0.00014971855284041556,1.7472765445709229,5.874281406402588,0.8870155811309814
1731474098.1476128,-0.7417433857917786,1.152559757232666,-9.80565071105957,-0.009546933227363556,-0.039314721666115715,0.00421716916130567,1.7446311712265015,5.847524166107178,0.8870269656181335
1731474098.197797,-0.6988540887832642,0.6343510746955872,-9.964262008666992,-0.025115900746884655,-0.09331669611600278,0.012348748666731524,1.7419123649597168,5.820297718048096,0.8870593905448914
1731474098.2475789,-0.914641797542572,1.1071343421936035,-10.064445495605469,-0.06344548386302162,-0.18251031569096104,0.024637601784159753,1.7442210912704468,5.847344875335693,0.8870368599891663
1731474098.2974894,-0.914641797542572,1.1071343421936035,-10.064445495605469,-0.12275115409650096,-0.2822442975042247,0.03657579609604421,1.7422674894332886,5.8303728103637695,0.8871512413024902
1731474098.2974894,-0.8787088394165039,0.16158488392829895,-9.822525978088379,-0.18794124330720838,-0.35367960497447837,0.04189685952106599,1.742255449295044,5.830273628234863,0.8871521353721619
1731474098.3474338,-0.29190999269485474,0.14447011053562164,-10.056215286254883,-0.2298280974448591,-0.3482409451345025,0.04152781679649345,1.738345980644226,5.794360160827637,0.8870953321456909
1731474098.3975186,-0.29190999269485474,0.14447011053562164,-10.056215286254883,-0.21641757230865202,-0.22697324178564104,0.042177272658594264,1.7347661256790161,5.767567157745361,0.8872853517532349
1731474098.3975186,0.02926085889339447,0.23642776906490326,-10.180939674377441,-0.13593029403105006,-0.006449064743456537,0.045483253606551144,1.7347441911697388,5.76741361618042,0.8872867226600647
1731474098.4473784,-0.33537402749061584,0.27356353402137756,-9.971210479736328,-0.010297744142529028,0.22966815031651955,0.04545194375493406,1.730867624282837,5.740562915802002,0.8875887393951416
1731474098.4974663,-0.33537402749061584,0.27356353402137756,-9.971210479736328,0.11620990805447781,0.38386557183671866,0.03763258677438153,1.7271937131881714,5.714977264404297,0.8879873752593994
1731474098.4974663,-0.23677094280719757,0.2552403211593628,-9.988724708557129,0.20074789474386356,0.4053167070179781,0.02608175914329816,1.7271729707717896,5.714829444885254,0.8879899978637695
1731474098.5472836,-0.28334781527519226,0.29785293340682983,-9.94349193572998,0.2219341717778357,0.30602510799039817,0.01947907896792911,1.7338879108428955,5.749780178070068,0.8871259093284607
1731474098.5982552,-0.13174819946289062,0.432744562625885,-9.943455696105957,0.18728398727667736,0.13911598207728615,0.023155555365676393,1.7294013500213623,5.705165386199951,0.8870964050292969
1731474098.6480975,-0.2823200523853302,0.49993929266929626,-9.989808082580566,0.12346650673312183,-0.03308387017009964,0.03500144029936314,1.7277041673660278,5.682685375213623,0.8872342705726624
1731474098.6980865,-0.18879149854183197,0.48328813910484314,-9.962355613708496,0.057271382743474146,-0.16243875728353113,0.04652765745227609,1.722734808921814,5.641947269439697,0.8871391415596008
1731474098.7480757,-0.22062250971794128,0.5369740724563599,-10.005141258239746,0.0032952200095914645,-0.22548947754919482,0.048658010557872396,1.719958782196045,5.6118669509887695,0.8873701095581055
1731474098.7980192,-0.2440219521522522,0.4870322048664093,-9.976567268371582,-0.03430073152211377,-0.22384328599331405,0.03787166556345862,1.7172160148620605,5.5819993019104,0.8877022862434387
1731474098.8480363,-0.21307040750980377,0.5269613862037659,-9.958608627319336,-0.05556558666027599,-0.176875308542707,0.01757290477905711,1.714296817779541,5.550943851470947,0.8881116509437561
1731474098.8978841,-0.23226575553417206,0.5536417961120605,-10.032608985900879,-0.06271442239016228,-0.11108623546816848,-0.00499059833725961,1.7187161445617676,5.601011276245117,0.8871421217918396
1731474098.9478436,-0.2187466323375702,0.5319986939430237,-10.029801368713379,-0.05951363065893988,-0.05060917681818231,-0.023378723927687205,1.7137064933776855,5.562273025512695,0.8870346546173096
1731474098.9978118,-0.23682382702827454,0.5011776089668274,-10.003891944885254,-0.0498934287987694,-0.009798424936575753,-0.034261480070779116,1.7108434438705444,5.5392327308654785,0.8869554400444031
1731474099.0477288,-0.2578216791152954,0.5105985999107361,-10.042562484741211,-0.0373422542207522,0.009631703786845788,-0.03645907928985558,1.7078849077224731,5.516295433044434,0.8867886662483215
1731474099.0977812,-0.2829653024673462,0.5110121965408325,-10.016634941101074,-0.02558168512346377,0.014420029069725398,-0.030548697905216585,1.704828143119812,5.49323844909668,0.8865368962287903
1731474099.147664,-0.3106366991996765,0.5142471790313721,-9.977943420410156,-0.018773082474572114,0.012839109351413136,-0.0191249516018819,1.7017335891723633,5.4703474044799805,0.886224627494812
1731474099.1977215,-0.3181423842906952,0.5283025503158569,-10.020133018493652,-0.02027480847706596,0.010578427677014102,-0.005352497692103579,1.7089818716049194,5.510860919952393,0.8869277834892273
1731474099.2475657,-0.3113178014755249,0.5226333141326904,-9.998724937438965,-0.030556444054973864,0.009880432033960416,0.008168582878921339,1.7035311460494995,5.459403991699219,0.8869715332984924
1731474099.2975001,-0.33019813895225525,0.5487326383590698,-9.895303726196289,-0.045413611167770214,0.010306681625429134,0.019551117068339632,1.7003945112228394,5.431314468383789,0.8869938254356384
1731474099.3474622,-0.34446707367897034,0.550426185131073,-9.980342864990234,-0.05745443906938917,0.00999286340307815,0.028504022704228884,1.6971358060836792,5.403304576873779,0.8870759010314941
1731474099.3974357,-0.3708359897136688,0.5653079152107239,-9.976693153381348,-0.061301375904978715,0.006896601279642082,0.03583207863185446,1.6937199831008911,5.375241279602051,0.887238621711731
1731474099.4473517,-0.4010647237300873,0.5209092497825623,-9.949220657348633,-0.057348487172379795,0.00014094410259572168,0.04133096744727073,1.6901684999465942,5.34728479385376,0.8874968886375427
1731474099.4973154,-0.4037376642227173,0.5008751749992371,-9.989498138427734,-0.05075428375460358,-0.008776084443408312,0.0439091927525024,1.6985594034194946,5.398245811462402,0.8870828747749329
1731474099.5482473,-0.4065915048122406,0.5055252313613892,-9.98577880859375,-0.04714937399400201,-0.016230283873006512,0.04299659515399325,1.6969646215438843,5.383501052856445,0.8872976303100586
1731474099.5982633,-0.36092430353164673,0.5115265846252441,-9.951295852661133,-0.047815807400979606,-0.018977658341055165,0.03873651820972855,1.6934235095977783,5.347975254058838,0.8871408700942993
1731474099.6481407,-0.3768134117126465,0.5383915901184082,-10.024014472961426,-0.04852943639602692,-0.016734920772749292,0.031768914359512665,1.6908360719680786,5.324817657470703,0.887347400188446
1731474099.698098,-0.3693855404853821,0.47702208161354065,-10.00424575805664,-0.044171504785900144,-0.011857635548783938,0.022323705987087196,1.6881572008132935,5.301835060119629,0.8876191973686218
1731474099.7480748,-0.3482222557067871,0.49441131949424744,-9.962587356567383,-0.033712763901961554,-0.006603463833900518,0.009754758817045924,1.6853686571121216,5.278718948364258,0.8879321217536926
1731474099.7980053,-0.36393216252326965,0.5067143440246582,-10.010370254516602,-0.020007484227459592,-0.0015198253049152873,-0.005550183422706153,1.689157247543335,5.290910243988037,0.8871210813522339
1731474099.847931,-0.3136870563030243,0.5389273166656494,-9.997920036315918,-0.0065776899534789775,0.0032781528544948615,-0.020911808217520398,1.6876893043518066,5.27510404586792,0.8871374726295471
1731474099.8979416,-0.32132816314697266,0.4976780116558075,-9.988658905029297,0.004724678601783959,0.006599922087049775,-0.032441056032171386,1.6838234663009644,5.239883899688721,0.8869950771331787
1731474099.947844,-0.29256904125213623,0.5210879445075989,-10.007356643676758,0.01405028715343982,0.006991874836772745,-0.036666552914954284,1.6814509630203247,5.216683387756348,0.8868647217750549
1731474099.9977777,-0.2779063582420349,0.5357846021652222,-9.989287376403809,0.022123979584427286,0.004064900495596926,-0.03260874626660582,1.679161787033081,5.193874359130859,0.8866509199142456
1731474100.0477233,-0.2860219180583954,0.5437748432159424,-9.956356048583984,0.029031599418747236,-0.0018172302163563191,-0.022635362800993146,1.676863193511963,5.170318126678467,0.8863592147827148
1731474100.097768,-0.26791009306907654,0.5622115731239319,-10.00939655303955,0.03448559084833876,-0.01028675616328974,-0.010521633071944453,1.6747444868087769,5.147796154022217,0.8860396146774292
1731474100.147696,-0.29884791374206543,0.5593369603157043,-10.00313663482666,0.03837385984717235,-0.020917985384295654,0.00028874490265956435,1.6804325580596924,5.181841850280762,0.8869117498397827
1731474100.197625,-0.25430309772491455,0.5731019973754883,-9.982946395874023,0.04068689729311771,-0.032637895127327725,0.007106675660566354,1.679555058479309,5.167364120483398,0.8868712186813354
1731474100.2475946,-0.31645530462265015,0.534370481967926,-9.990229606628418,0.0411688249589077,-0.04283819639827778,0.009104279645134895,1.6758158206939697,5.1143341064453125,0.8869765400886536
1731474100.2976072,-0.2786167860031128,0.5262591242790222,-10.006281852722168,0.039234430651183885,-0.04749461274827105,0.007780641795004717,1.6719707250595093,5.069972038269043,0.8870043754577637
1731474100.3475144,-0.3248670995235443,0.5233784317970276,-10.008668899536133,0.034388340863135754,-0.043584456414778226,0.005182292948721946,1.669783115386963,5.040121555328369,0.8870365619659424
1731474100.3975778,-0.3384418487548828,0.5007143020629883,-9.996399879455566,0.02628032123228146,-0.03160724547937812,0.0024289564937464386,1.6677937507629395,5.011875152587891,0.8870762586593628
1731474100.447388,-0.38153666257858276,0.49244561791419983,-9.968552589416504,0.014017832017786754,-0.015087342229750531,0.0003198177978121898,1.6682621240615845,4.9979376792907715,0.8870164752006531
1731474100.4974976,-0.40689459443092346,0.5222783088684082,-9.982460975646973,-0.0032305398766841573,0.0016643766543106902,-3.159660299875455e-05,1.6669304370880127,4.97368049621582,0.887026309967041
1731474100.5475168,-0.40689459443092346,0.5222783088684082,-9.982460975646973,-0.023787027095024893,0.014453459681065735,0.001711557289855603,1.6643123626708984,4.951210975646973,0.8870097994804382
1731474100.5475168,-0.3999193608760834,0.5021840333938599,-9.987773895263672,-0.0424929117292491,0.01984022320712826,0.004089965626510919,1.664300560951233,4.951056957244873,0.887009859085083
1731474100.5973256,-0.4125231206417084,0.5052074193954468,-9.997929573059082,-0.053290819622325,0.01734296680257039,0.004971331265394884,1.6614407300949097,4.904298782348633,0.8870100975036621
1731474100.6482234,-0.42747098207473755,0.48852595686912537,-9.971458435058594,-0.05301770319450727,0.010387967465519937,0.003466462154134582,1.6591315269470215,4.8717803955078125,0.8870289921760559
1731474100.6981275,-0.4604300856590271,0.5171490907669067,-9.977174758911133,-0.04334063051758183,0.0037017911738762873,0.0006966313414220496,1.656740427017212,4.839836120605469,0.8870528340339661
1731474100.748147,-0.44816815853118896,0.5395228862762451,-9.959145545959473,-0.029859609519600774,-0.00017958271479387314,-0.0008642394489411088,1.6590602397918701,4.860296249389648,0.8870094418525696
1731474100.7980564,-0.46408775448799133,0.5315636396408081,-9.954414367675781,-0.018860330486620575,-0.0018505121938519687,0.0008728311083237432,1.6578081846237183,4.841920375823975,0.8870135545730591
1731474100.8479838,-0.41950464248657227,0.5501323938369751,-9.993712425231934,-0.01356774065057497,-0.0030524560813358567,0.005728594652789723,1.6565183401107788,4.823576927185059,0.8870259523391724
1731474100.8979886,-0.44888171553611755,0.5179092884063721,-9.970446586608887,-0.012707200268272146,-0.004423694521051997,0.010776177690917873,1.655189871788025,4.805142402648926,0.8870590329170227
1731474100.947946,-0.44888171553611755,0.5179092884063721,-9.970446586608887,-0.012677227929266793,-0.005134378173321158,0.012366108382425479,1.6569377183914185,4.818668365478516,0.8870207071304321
1731474100.947946,-0.4362180829048157,0.5426515936851501,-9.932392120361328,-0.010906931572638175,-0.004045158484896611,0.009238065944923395,1.6569329500198364,4.818589687347412,0.8870209455490112
1731474100.9978948,-0.4152058959007263,0.534545361995697,-10.003629684448242,-0.006857989079488357,-0.0013639033140662943,0.0034288276394501245,1.6560758352279663,4.804710865020752,0.8870639801025391
1731474101.0478172,-0.4039912819862366,0.511673629283905,-10.022022247314453,-0.0007849742509472505,0.0010567370849886076,-0.0022894928260727295,1.6552058458328247,4.790777683258057,0.8871086239814758
1731474101.0977743,-0.3737109303474426,0.5160889029502869,-9.974050521850586,0.007326221540706897,0.0016301723288689317,-0.007226687211902255,1.655174970626831,4.770364761352539,0.8870072364807129
1731474101.1476772,-0.3737109303474426,0.5160889029502869,-9.974050521850586,0.017447798503324428,0.0005121837879379701,-0.011959845166367366,1.6538969278335571,4.7272562980651855,0.8869852423667908
1731474101.1476772,-0.3421862721443176,0.531585156917572,-10.015620231628418,0.028203870080261713,-0.0011704947290823847,-0.016133906787552818,1.6538922786712646,4.727120399475098,0.8869850635528564
1731474101.197642,-0.3356361389160156,0.5213810801506042,-9.9979887008667,0.03678842845231079,-0.0026967709953198524,-0.01898332922280751,1.6531356573104858,4.703896522521973,0.8869279623031616
1731474101.2475646,-0.31761035323143005,0.5017820000648499,-9.976705551147461,0.041216593186828146,-0.0039196780921240204,-0.020602492795980032,1.6517821550369263,4.680951118469238,0.8869518637657166
1731474101.2975647,-0.2897328734397888,0.5183433294296265,-10.016006469726562,0.04193908552897074,-0.004633920991288836,-0.021401452806154957,1.650925874710083,4.658089637756348,0.8868587613105774
1731474101.3474448,-0.30622297525405884,0.5020813345909119,-9.987690925598145,0.040618764203597446,-0.004618700885844004,-0.02158573340567911,1.6501339673995972,4.634194374084473,0.8867080807685852
1731474101.3974807,-0.2828544080257416,0.5097150802612305,-9.955326080322266,0.038237093983581265,-0.004122740785018764,-0.02120978686748944,1.6509803533554077,4.638753414154053,0.8869189620018005
1731474101.4473894,-0.27045896649360657,0.5410341620445251,-10.037121772766113,0.03498922876088128,-0.003797451363516034,-0.020089855571020335,1.6506640911102295,4.621743679046631,0.8868026733398438
1731474101.497355,-0.2710893750190735,0.5100065469741821,-10.013091087341309,0.031064163782487136,-0.0043821057473381175,-0.018919364725264405,1.650437831878662,4.605192184448242,0.8866415619850159
1731474101.5473194,-0.2751227021217346,0.5256327390670776,-9.95810317993164,0.026707255896918643,-0.0062223728857529765,-0.019802695685673152,1.6502798795700073,4.588384628295898,0.8864300847053528
1731474101.5972705,-0.28832748532295227,0.5191564559936523,-10.005989074707031,0.022008380072386806,-0.008840177243250553,-0.02380272669572581,1.649932622909546,4.593820095062256,0.8868975043296814
1731474101.6482537,-0.28832748532295227,0.5191564559936523,-10.005989074707031,0.01695991761167167,-0.01125817283226504,-0.029334206890666268,1.6496795415878296,4.57948637008667,0.886756956577301
1731474101.6482537,-0.30361902713775635,0.5424277782440186,-10.000555992126465,0.011579805016161607,-0.01265585853589175,-0.03354122008498826,1.6496782302856445,4.57940673828125,0.8867559432983398
1731474101.6981754,-0.29881954193115234,0.5337089896202087,-9.94569206237793,0.005986511304093466,-0.012872691783506343,-0.03358595841298096,1.6486605405807495,4.548407077789307,0.8868945240974426
1731474101.7480898,-0.29881954193115234,0.5337089896202087,-9.94569206237793,0.0004811980322375533,-0.012433625294832851,-0.027369576389049133,1.6482230424880981,4.53064489364624,0.8867408037185669
1731474101.7480898,-0.34052249789237976,0.542123556137085,-9.995912551879883,-0.004477613472303176,-0.011823431349763144,-0.015405260014614841,1.648220419883728,4.530540466308594,0.8867396712303162
1731474101.7981153,-0.35044917464256287,0.5485327839851379,-9.998692512512207,-0.00890937901931292,-0.01107643247891498,-0.00234212387025536,1.6479028463363647,4.494959354400635,0.8867998123168945
1731474101.8479643,-0.35044917464256287,0.5485327839851379,-9.998692512512207,-0.013618060161943467,-0.010187538949244715,0.005339913369898637,1.647214412689209,4.446606159210205,0.8867314457893372
1731474101.8479643,-0.3628862500190735,0.542750358581543,-9.95411205291748,-0.01882375421925831,-0.009212300319504553,0.0046655378991936405,1.6472114324569702,4.446424961090088,0.8867310881614685
1731474101.8979833,-0.3721238374710083,0.5510615110397339,-9.976536750793457,-0.0231905725097379,-0.007948548803689361,-0.001182849739985211,1.6466838121414185,4.416313648223877,0.8866661787033081
1731474101.947878,-0.3880130350589752,0.5461267232894897,-9.99917221069336,-0.025294044487270455,-0.006127308942467867,-0.006068120532681451,1.6460680961608887,4.3848185539245605,0.8865886330604553
1731474101.9979317,-0.392349511384964,0.5538936853408813,-10.002202987670898,-0.02536729292427256,-0.0038738902139712965,-0.006245983636096341,1.6454403400421143,4.355789661407471,0.8865025043487549
1731474102.0477316,-0.40121614933013916,0.5339411497116089,-9.970176696777344,-0.02512818801190172,-0.0016418863073395017,-0.0021815544673313993,1.646956205368042,4.398031234741211,0.8866428136825562
1731474102.0977995,-0.39071720838546753,0.5575560331344604,-9.982723236083984,-0.02614458069772675,0.00014750852009024406,0.003591484256862688,1.6470999717712402,4.358673095703125,0.8865669965744019
1731474102.147722,-0.39071720838546753,0.5575560331344604,-9.982723236083984,-0.028074698492036216,0.0010861247412960449,0.008621026987241912,1.646916151046753,4.335611343383789,0.8865338563919067
1731474102.147722,-0.413981169462204,0.5271975994110107,-10.020149230957031,-0.02876376779274158,0.0009451196473287654,0.010976157712174769,1.6469147205352783,4.3354620933532715,0.8865337371826172
1731474102.197657,-0.388478547334671,0.5200658440589905,-9.975563049316406,-0.026537321178860394,0.0005708145926583477,0.009463559301518237,1.6466633081436157,4.312456130981445,0.8865231871604919
1731474102.247583,-0.388478547334671,0.5200658440589905,-9.975563049316406,-0.021600706475133034,0.0019525732730878668,0.004473505593266728,1.6463513374328613,4.289377689361572,0.8865299224853516
1731474102.247583,-0.36913618445396423,0.529254674911499,-9.970175743103027,-0.015088447660750294,0.006630085856000543,-0.0016540247139139863,1.6463490724563599,4.289222240447998,0.8865299820899963
1731474102.2975485,-0.36913618445396423,0.529254674911499,-9.970175743103027,-0.00785040416121526,0.014254557408935829,-0.005879148219889025,1.646001935005188,4.266275882720947,0.8865349292755127
1731474102.2975485,-0.38169965147972107,0.5685131549835205,-10.009520530700684,-0.0003574629505119879,0.02260359137047842,-0.006509778707456932,1.645999789237976,4.266138076782227,0.8865349292755127
1731474102.3474746,-0.38169965147972107,0.5685131549835205,-10.009520530700684,0.006722458522554909,0.02848318871623609,-0.004409929714930061,1.647433876991272,4.3106279373168945,0.8864734172821045
1731474102.3474746,-0.36289820075035095,0.5329427123069763,-9.954858779907227,0.012350147916635325,0.02930395624344608,-0.0020028566195441815,1.6474339962005615,4.310553550720215,0.8864732384681702
1731474102.397389,-0.36289820075035095,0.5329427123069763,-9.954858779907227,0.015794821377107176,0.02516049735531005,-0.0002189999531356314,1.6474748849868774,4.298557281494141,0.886441171169281
1731474102.397389,-0.3660849630832672,0.5433037877082825,-9.959707260131836,0.017204757287625605,0.01918724916020078,0.0029154526059403797,1.647475242614746,4.2984795570373535,0.8864409327507019
1731474102.4473753,-0.3477407395839691,0.5410928130149841,-9.990659713745117,0.017399187657990794,0.015093979628148072,0.009689000562013956,1.6481964588165283,4.257477760314941,0.8863649368286133
1731474102.4973965,-0.32704225182533264,0.531670093536377,-9.999044418334961,0.017420761080071713,0.014573585526274704,0.019440158619442538,1.6488096714019775,4.214880466461182,0.8862969279289246
1731474102.547349,-0.32704225182533264,0.531670093536377,-9.999044418334961,0.017977268310413935,0.016760196387381115,0.02836845267346065,1.64919912815094,4.189000606536865,0.886334240436554
1731474102.547349,-0.32146862149238586,0.5386345386505127,-9.96210765838623,0.018769111612413784,0.019204107374167917,0.03244724546271088,1.6492019891738892,4.188818454742432,0.8863347768783569
1731474102.5972707,-0.31739217042922974,0.541077733039856,-9.993855476379395,0.0187046542407339,0.019397773904211553,0.030594246092818286,1.6496325731277466,4.163275718688965,0.8864448070526123
1731474102.647219,-0.3035844564437866,0.5359151363372803,-10.018573760986328,0.01714570524405526,0.016112646781314095,0.02472209225809196,1.6498531103134155,4.163943767547607,0.886237382888794
1731474102.6981442,-0.31515976786613464,0.5339117646217346,-9.97684097290039,0.014554898513876946,0.009927329835764423,0.017377359365077935,1.6502583026885986,4.145421504974365,0.8863207101821899
1731474102.7481475,-0.31515976786613464,0.5339117646217346,-9.97684097290039,0.011636167908556674,0.0028084702853421926,0.01087568610131037,1.6510039567947388,4.111889839172363,0.8861256241798401
1731474102.7481475,-0.30606308579444885,0.5266275405883789,-9.988195419311523,0.008454980136131772,-0.002953825955681468,0.007506596059984308,1.6510071754455566,4.111744403839111,0.8861256837844849
1731474102.7980547,-0.3134632706642151,0.553710401058197,-9.998231887817383,0.0049844843306890265,-0.005925843992124657,0.007912460661526576,1.6515601873397827,4.087271213531494,0.8861483335494995
1731474102.847975,-0.3134632706642151,0.553710401058197,-9.998231887817383,0.001816067779232337,-0.006322829698818994,0.009754565676304379,1.6524622440338135,4.0764689445495605,0.8859923481941223
1731474102.847975,-0.29872187972068787,0.5151129961013794,-9.989572525024414,-0.000221385771382528,-0.00552995638023576,0.009675321451595983,1.6524665355682373,4.076338768005371,0.8859922885894775
1731474102.8979475,-0.30346980690956116,0.5134450197219849,-9.987990379333496,-0.0005958505677860905,-0.004149575195833923,0.006422027021390942,1.6531537771224976,4.055272579193115,0.8859879374504089
1731474102.9479005,-0.30346980690956116,0.5134450197219849,-9.987990379333496,0.0007904492736305873,-0.0009833696867993834,0.0016153765328401643,1.6538432836532593,4.034133434295654,0.8859935998916626
1731474102.9479005,-0.3163912296295166,0.49759525060653687,-10.02739429473877,0.0034386375093583294,0.0054870487132419165,-0.002239117248107804,1.653847575187683,4.034003257751465,0.8859936594963074
1731474102.997868,-0.3298352062702179,0.5225420594215393,-9.988719940185547,0.006149616796583966,0.01529891555014055,-0.004064454794412784,1.6534594297409058,4.035092353820801,0.8859939575195312
1731474103.0477366,-0.3298352062702179,0.5225420594215393,-9.988719940185547,0.00740031058251496,0.02649148131679421,-0.0043626999605274,1.653869867324829,4.020550727844238,0.8859795928001404
1731474103.0477366,-0.321785569190979,0.4878977835178375,-9.947224617004395,0.006340129366258714,0.03568812560686519,-0.003634409141759136,1.6538722515106201,4.0204668045043945,0.8859794735908508
1731474103.0977798,-0.3380987346172333,0.5144014358520508,-9.981386184692383,0.0035256539134208625,0.03994957612907387,-0.001504620339665877,1.6542965173721313,4.0060038566589355,0.8859578371047974
1731474103.1476743,-0.3380987346172333,0.5144014358520508,-9.981386184692383,0.0002903273475818785,0.03850162484068198,0.0024290877280743932,1.6551884412765503,3.9837093353271484,0.8859964609146118
1731474103.1476743,-0.3539755642414093,0.5201336741447449,-10.001205444335938,-0.0024902586171508595,0.03249593656719923,0.007280765292126509,1.6551920175552368,3.983600378036499,0.8859964609146118
1731474103.1977403,-0.3673993647098541,0.5184742212295532,-9.954431533813477,-0.004849703487958642,0.023783045478854285,0.011026701989616769,1.6557856798171997,3.9653255939483643,0.8860123157501221
1731474103.2476242,-0.3747175335884094,0.5227670073509216,-10.001571655273438,-0.007484431953331429,0.014191103026851906,0.012150102660846804,1.6563645601272583,3.947084665298462,0.8860569000244141
1731474103.2976367,-0.38150644302368164,0.5107854604721069,-10.008935928344727,-0.011303537523804082,0.005317012801289012,0.010408491556029242,1.6567574739456177,3.936676502227783,0.8860195875167847
1731474103.3474503,-0.3659832179546356,0.5411281585693359,-9.978615760803223,-0.01657793729014836,-0.0016702372335430334,0.006267960773155152,1.6572567224502563,3.9199914932250977,0.8860636949539185
1731474103.3974996,-0.3659832179546356,0.5411281585693359,-9.978615760803223,-0.021840257893463635,-0.006559076228088558,0.0011894307261488795,1.6588636636734009,3.8837063312530518,0.8860214352607727
1731474103.3974996,-0.36971616744995117,0.5453881025314331,-9.983979225158691,-0.024192073035844957,-0.010183325981626665,-0.0021769666685347053,1.658868432044983,3.8835701942443848,0.8860215544700623
1731474103.4473991,-0.36971616744995117,0.5453881025314331,-9.983979225158691,-0.02170201899608583,-0.013258885953409068,-0.0020499526307374465,1.6607239246368408,3.8514647483825684,0.8860065340995789
1731474103.4473991,-0.3780785799026489,0.54286789894104,-10.00909423828125,-0.015216825160685687,-0.015382940939200666,0.0006115094699253479,1.6607298851013184,3.851330518722534,0.8860065340995789
1731474103.497433,-0.3780785799026489,0.54286789894104,-10.00909423828125,-0.00756728738813485,-0.015571241695823003,0.0029554056487270507,1.6617027521133423,3.8293025493621826,0.8860095143318176
1731474103.497433,-0.37810224294662476,0.5271745920181274,-9.948097229003906,-0.001608433025190253,-0.013269160164575997,0.0026658477176240646,1.661709189414978,3.8291544914245605,0.8860095739364624
1731474103.5473595,-0.3541327714920044,0.5118879675865173,-9.96418285369873,0.0012091764913961587,-0.008535066142548708,5.746648904506372e-05,1.6626759767532349,3.807053804397583,0.886016309261322
1731474103.5974348,-0.3746906518936157,0.5229374766349792,-10.012154579162598,0.0012896799590200606,-0.0017164944809249377,-0.0023512778000314644,1.66364586353302,3.784939765930176,0.8860202431678772
1731474103.647303,-0.3691582977771759,0.49537694454193115,-10.002567291259766,0.00013509125412518595,0.006613832616565617,-0.0029356589151447107,1.6622425317764282,3.8043410778045654,0.8859988451004028
1731474103.6972108,-0.36596542596817017,0.5153015851974487,-9.972599029541016,-0.0009451015139212529,0.0153813909465398,-0.0024287337875406366,1.6627451181411743,3.7901031970977783,0.8859886527061462
1731474103.7481203,-0.3765275180339813,0.4918709397315979,-9.961251258850098,-0.0013970282782217395,0.022605944071614283,-0.0016610406290694896,1.6640831232070923,3.7574548721313477,0.8859940767288208
1731474103.7980876,-0.351504921913147,0.50485759973526,-10.009658813476562,-0.0011648073686240322,0.02577139264457029,-3.4761277837762415e-05,1.6647918224334717,3.739020347595215,0.8859863877296448
1731474103.848081,-0.351504921913147,0.50485759973526,-10.009658813476562,-9.481468417462074e-05,0.02338368399129332,0.0022667388032788028,1.6654986143112183,3.7206547260284424,0.8859815001487732
1731474103.848081,-0.344034880399704,0.5255322456359863,-10.018609046936035,0.0024115098835822218,0.01591540793183002,0.0024845648676445377,1.665502667427063,3.7205495834350586,0.8859815001487732
1731474103.8981051,-0.344034880399704,0.5255322456359863,-10.018609046936035,0.006922199038003861,0.005124922839747102,-0.0026030073651048457,1.6657195091247559,3.708871603012085,0.8859935402870178
1731474103.8981051,-0.30946534872055054,0.5376237034797668,-9.973519325256348,0.01327821764599927,-0.006847096993610007,-0.01323723124092227,1.6657230854034424,3.708771228790283,0.885993480682373
1731474103.9479327,-0.30946534872055054,0.5376237034797668,-9.973519325256348,0.0205282738792286,-0.01765774593770141,-0.025059848278522596,1.6663304567337036,3.692525625228882,0.8859559297561646
1731474103.9479327,-0.3071880340576172,0.5411726236343384,-9.992323875427246,0.027394399481542812,-0.025044054278330053,-0.031041171680794722,1.6663342714309692,3.6924283504486084,0.8859555125236511
1731474103.997859,-0.32309672236442566,0.5192209482192993,-9.972305297851562,0.032752765395270236,-0.027681192100482126,-0.026408171849471012,1.6682171821594238,3.6554436683654785,0.8859559297561646
1731474104.0478392,-0.32309672236442566,0.5192209482192993,-9.972305297851562,0.035684674163524596,-0.025601904094603792,-0.011952930050391209,1.6694211959838867,3.630760908126831,0.8858634233474731
1731474104.0478392,-0.29603931307792664,0.5296194553375244,-9.98351764678955,0.03542556189086249,-0.01994211547647093,0.006754214151283059,1.6694289445877075,3.630607843399048,0.8858627676963806
1731474104.097806,-0.29783520102500916,0.5368590950965881,-9.999457359313965,0.032003287517912225,-0.012751665517006475,0.022300823327663588,1.6701523065567017,3.604980707168579,0.885989785194397
1731474104.1477733,-0.29783520102500916,0.5368590950965881,-9.999457359313965,0.02672776033451793,-0.006494885837173647,0.02892979405184138,1.671330213546753,3.578699827194214,0.8860596418380737
1731474104.1477733,-0.3294965326786041,0.5119683146476746,-10.00804328918457,0.021052691017924195,-0.002708634784685587,0.025265110900773945,1.6713372468948364,3.578547716140747,0.8860602378845215
1731474104.197722,-0.3294965326786041,0.5119683146476746,-10.00804328918457,0.015005923429546358,-0.0008911793062671495,0.014391943247878757,1.6725494861602783,3.552649736404419,0.8861830234527588
1731474104.197722,-0.3398628830909729,0.5049551725387573,-9.955574035644531,0.007424795008813668,0.000965197469960665,0.0016377614585736003,1.6725572347640991,3.552485466003418,0.8861839175224304
1731474104.2477899,-0.3398628830909729,0.5049551725387573,-9.955574035644531,-0.002476305055573622,0.004679925653687748,-0.007552378170904136,1.6737935543060303,3.526409387588501,0.8863159418106079
1731474104.2477899,-0.35206174850463867,0.5204223990440369,-9.986393928527832,-0.014220033747851692,0.010642194962984903,-0.009267701022710625,1.6738008260726929,3.5262556076049805,0.8863166570663452
1731474104.2976036,-0.3412289619445801,0.5216960906982422,-10.00800895690918,-0.026381622754204394,0.017622047795569796,-0.003166792401805694,1.6716712713241577,3.5655581951141357,0.8860262036323547
1731474104.3476317,-0.3412289619445801,0.5216960906982422,-10.00800895690918,-0.03703034287571207,0.023422614228693017,0.006941134694328768,1.6721608638763428,3.5512006282806396,0.8860411047935486
1731474104.3476317,-0.3662014603614807,0.5173548460006714,-9.966527938842773,-0.04385621880352509,0.026000960847536943,0.015832248737480768,1.6721633672714233,3.551119089126587,0.8860412240028381
1731474104.3976111,-0.3662014603614807,0.5173548460006714,-9.966527938842773,-0.04509071129669177,0.02447781276655766,0.02074827724331384,1.6728709936141968,3.521719217300415,0.8860357403755188
1731474104.3976111,-0.3436085283756256,0.5276415944099426,-9.944849014282227,-0.04077660063799278,0.019468545428064275,0.02250615671675762,1.672873616218567,3.521617889404297,0.8860360383987427
1731474104.4475274,-0.3438352346420288,0.5468814373016357,-10.003653526306152,-0.032257084487239115,0.01239147574219672,0.02295488312846465,1.6732804775238037,3.5040345191955566,0.8861207365989685
1731474104.4974675,-0.3438352346420288,0.5468814373016357,-10.003653526306152,-0.0208237485289286,0.0043503552388565216,0.021961339681995058,1.6736221313476562,3.4864463806152344,0.8862612247467041
1731474104.4974675,-0.38221994042396545,0.5705419182777405,-9.991206169128418,-0.007938965464656982,-0.004277967160818348,0.017477352576814893,1.673624038696289,3.4863405227661133,0.8862622380256653
1731474104.5474474,-0.38221994042396545,0.5705419182777405,-9.991206169128418,0.003796324880205502,-0.013539570266373523,0.008305297064623253,1.6746362447738647,3.471668004989624,0.8860461115837097
1731474104.5474474,-0.36268889904022217,0.5386653542518616,-9.95189380645752,0.011309293946422038,-0.023041136242734402,-0.003798730207171158,1.6746395826339722,3.471566677093506,0.8860464096069336
1731474104.5973384,-0.3861674666404724,0.5632814168930054,-10.010082244873047,0.013234827963231801,-0.030651066914984367,-0.014603955827312096,1.6752147674560547,3.454719305038452,0.8860734701156616
1731474104.647274,-0.34291431307792664,0.5671423077583313,-9.993722915649414,0.010974374092617412,-0.032993045533627724,-0.02016337715376648,1.6758314371109009,3.417280435562134,0.8859901428222656
1731474104.6971953,-0.37541571259498596,0.5187017917633057,-9.967864990234375,0.007381902523566275,-0.02814688690575451,-0.019377269553235803,1.6764785051345825,3.392385721206665,0.8859173655509949
1731474104.7481544,-0.36180180311203003,0.5296751260757446,-9.994182586669922,0.0043736042233003345,-0.01685024632707736,-0.01369803379388131,1.6770706176757812,3.3670759201049805,0.8859529495239258
1731474104.7981064,-0.36808910965919495,0.5126605033874512,-10.033941268920898,0.001779885148570374,-0.0015406546711290792,-0.005739852700220061,1.6777209043502808,3.341902256011963,0.8858854174613953
1731474104.8481212,-0.3823160231113434,0.5400002002716064,-10.016824722290039,-0.00137852628363569,0.014151574453141351,0.00103517453757044,1.6783726215362549,3.316710948944092,0.8858119249343872
1731474104.897986,-0.38772737979888916,0.5204212665557861,-9.946805953979492,-0.005379811707220585,0.025894789449743168,0.0036755199981497125,1.6780821084976196,3.3254971504211426,0.8859672546386719
1731474104.948103,-0.33601024746894836,0.5320039987564087,-9.981191635131836,-0.00955702882995596,0.0304768944719681,0.0021504169695211036,1.6784603595733643,3.3095338344573975,0.8859639167785645
1731474104.997892,-0.33601024746894836,0.5320039987564087,-9.981191635131836,-0.011913220090877997,0.027380323151992528,-0.0013291943373856113,1.678808331489563,3.2938005924224854,0.885961651802063
1731474104.997892,-0.3453448414802551,0.5244081020355225,-10.025842666625977,-0.009429052936651153,0.018564213766788348,-0.0056782823418517646,1.678810715675354,3.293689012527466,0.885961651802063
1731474105.0478797,-0.29181620478630066,0.5460422039031982,-9.940299034118652,-0.00019609334966601928,0.007206482580137064,-0.01172390178025149,1.6790173053741455,3.2772367000579834,0.8859788775444031
1731474105.0978827,-0.3213929533958435,0.5546528100967407,-9.976991653442383,0.014762862512125993,-0.0036459426361648323,-0.01961395196810474,1.6794095039367676,3.259204149246216,0.8859246373176575
1731474105.1478648,-0.3213929533958435,0.5546528100967407,-9.976991653442383,0.030852531235457982,-0.01194844503254757,-0.027473994179034737,1.6798615455627441,3.241034746170044,0.8858108520507812
1731474105.1478648,-0.2696468234062195,0.5467962026596069,-10.002449035644531,0.041239750009264955,-0.016686145392765205,-0.03334007358556483,1.6798644065856934,3.240927219390869,0.8858099579811096
1731474105.1977825,-0.27890926599502563,0.5556193590164185,-9.986638069152832,0.04145825135001174,-0.01768483487718757,-0.03707624517410287,1.6800427436828613,3.2291555404663086,0.8859218955039978
1731474105.2477992,-0.27724266052246094,0.5423107147216797,-9.987103462219238,0.03276578637652445,-0.015561472266999823,-0.03958527357680467,1.680561900138855,3.2117342948913574,0.8857550024986267
1731474105.297683,-0.27198144793510437,0.5264574885368347,-10.024283409118652,0.020142360492821476,-0.011245817538651653,-0.04092665499504217,1.680771827697754,3.176812171936035,0.8858706951141357
1731474105.3475633,-0.27198144793510437,0.5264574885368347,-10.024283409118652,0.008442988263458342,-0.005403457662214882,-0.040166146103480585,1.6813347339630127,3.1331264972686768,0.8858644962310791
1731474105.3475633,-0.28918927907943726,0.5273343324661255,-10.011110305786133,0.0003970421506179389,0.0011712666529107415,-0.03653095974628143,1.6813372373580933,3.13297700881958,0.8858636021614075
1731474105.397587,-0.3012186288833618,0.5229423642158508,-9.95329761505127,-0.003823753272195313,0.006961186408372128,-0.029495081542837295,1.6817678213119507,3.1073269844055176,0.8856698274612427
1731474105.4474819,-0.3012186288833618,0.5229423642158508,-9.95329761505127,-0.006018849432600653,0.010392816520597732,-0.018137796072696694,1.6821904182434082,3.0814497470855713,0.885414719581604
1731474105.4474819,-0.31008589267730713,0.5171889066696167,-9.978832244873047,-0.008503314346797412,0.010962976504230549,-0.0018300174065902473,1.6821932792663574,3.081272840499878,0.8854128122329712
1731474105.4974742,-0.31008589267730713,0.5171889066696167,-9.978832244873047,-0.012741007054573681,0.009439235117665838,0.017956620599374168,1.6819161176681519,3.0772595405578613,0.8859367966651917
1731474105.4974742,-0.3178133964538574,0.5341136455535889,-10.027206420898438,-0.018725610769417107,0.007105038544689369,0.03685219831138139,1.681917667388916,3.077119827270508,0.8859367966651917
1731474105.5473843,-0.3178133964538574,0.5341136455535889,-10.027206420898438,-0.024894118205046094,0.0046639245477664015,0.04860725807637328,1.6821259260177612,3.0561492443084717,0.8859999775886536
1731474105.5473843,-0.3323654234409332,0.5383059978485107,-9.979313850402832,-0.028899673212526476,0.0018164412605177341,0.047941404935720126,1.6821271181106567,3.0560083389282227,0.8860008120536804
1731474105.5973647,-0.3323654234409332,0.5383059978485107,-9.979313850402832,-0.02932935168643702,-0.002044640087445948,0.03449710529175576,1.682323932647705,3.026296377182007,0.8860496878623962
1731474105.5973647,-0.3597765564918518,0.5270809531211853,-9.937849998474121,-0.02676242359726177,-0.006833345227858599,0.014174464842676676,1.682325005531311,3.026134490966797,0.8860504031181335
1731474105.6472979,-0.3597765564918518,0.5270809531211853,-9.937849998474121,-0.02313429394126506,-0.011248257368297659,-0.004041613856272495,1.6824699640274048,3.001250982284546,0.8861517906188965
1731474105.6472979,-0.3276771605014801,0.542153000831604,-9.984922409057617,-0.020243728682116227,-0.013323790518758996,-0.013014852773561241,1.6824707984924316,3.001065731048584,0.8861525058746338
1731474105.6972594,-0.3478107750415802,0.5443117618560791,-10.018284797668457,-0.018578907386954092,-0.012029879222858024,-0.011299552181301,1.6825639009475708,2.9761712551116943,0.886234700679779
1731474105.7471824,-0.3478107750415802,0.5443117618560791,-10.018284797668457,-0.017461484482996097,-0.00824203512803762,-0.00367898421640886,1.6826128959655762,2.9510715007781982,0.8862988948822021
1731474105.7471824,-0.36784273386001587,0.5280852317810059,-9.968801498413086,-0.01635736731112691,-0.0038975702479050528,0.0027230607489935237,1.6826131343841553,2.950881242752075,0.8862993717193604
1731474105.798139,-0.36784273386001587,0.5280852317810059,-9.968801498413086,-0.015732885748962144,-0.00041601746657473455,0.0038333504950323854,1.6824705600738525,2.9859609603881836,0.8860343098640442
1731474105.798139,-0.36192548274993896,0.5258458852767944,-9.97927474975586,-0.016418805173581835,0.001953755825042057,0.0005358290455293276,1.682470679283142,2.9858932495117188,0.8860344290733337
1731474105.8481517,-0.36192548274993896,0.5258458852767944,-9.97927474975586,-0.01812180910129587,0.0035439931524223842,-0.003972880654295903,1.6824674606323242,2.9737281799316406,0.8860458135604858
1731474105.8481517,-0.3869226276874542,0.541847288608551,-10.002359390258789,-0.01913718566231555,0.004456318333898614,-0.0075346225955526674,1.6824672222137451,2.973639965057373,0.8860458731651306
1731474105.8979738,-0.3869226276874542,0.541847288608551,-10.002359390258789,-0.018126405727612253,0.004322434794748924,-0.010077381723636012,1.6828008890151978,2.9276678562164307,0.8859958052635193
1731474105.8979738,-0.36713188886642456,0.5270590782165527,-9.967669486999512,-0.015385694025970193,0.002763261087384404,-0.012438145566331677,1.6828014850616455,2.9275193214416504,0.8859956860542297
1731474105.9480221,-0.36713188886642456,0.5270590782165527,-9.967669486999512,-0.011714527706645342,0.0002849637230424348,-0.014188167051098878,1.6828832626342773,2.901381015777588,0.8859540820121765
1731474105.9480221,-0.37000736594200134,0.5344986915588379,-10.002396583557129,-0.007110646539979877,-0.0015783073500247274,-0.013189847119630536,1.682883620262146,2.9012317657470703,0.8859537243843079
1731474105.9980433,-0.37000736594200134,0.5344986915588379,-10.002396583557129,-0.0013009802154171695,-0.0014705403750699497,-0.008141279220130358,1.683003306388855,2.874608278274536,0.8859785199165344
1731474105.9980433,-0.3635270595550537,0.5026518702507019,-10.023391723632812,0.005224020714324564,0.0008153618741996018,-0.0006691312190001486,1.6830039024353027,2.874453544616699,0.8859783411026001
1731474106.047899,-0.3635270595550537,0.5026518702507019,-10.023391723632812,0.011152391255299179,0.004810906400078653,0.005660129589851008,1.6831172704696655,2.847341299057007,0.8859551548957825
1731474106.047899,-0.3629533648490906,0.5206795334815979,-9.985580444335938,0.015052391550421904,0.010037910878110585,0.007912645896259757,1.6831179857254028,2.8471837043762207,0.8859550356864929
1731474106.0978172,-0.35138028860092163,0.5118288397789001,-9.960338592529297,0.01623392872096332,0.01573595455553379,0.005985794725172693,1.683264970779419,2.8201608657836914,0.8859462738037109
1731474106.1477525,-0.35138028860092163,0.5118288397789001,-9.960338592529297,0.015228431244773693,0.020695099909235744,0.0029634049704002855,1.6832160949707031,2.8289878368377686,0.8859959244728088
1731474106.1477525,-0.35135167837142944,0.532738447189331,-10.016921997070312,0.013370509274922917,0.02372277385762923,0.0024346323425918142,1.6832168102264404,2.8288698196411133,0.8859959840774536
1731474106.1976922,-0.35135167837142944,0.532738447189331,-10.016921997070312,0.011677390924908115,0.023694432274275,0.004487211153570571,1.6832869052886963,2.7836341857910156,0.8860057592391968
1731474106.1976922,-0.3006232976913452,0.5283825397491455,-9.9982328414917,0.01044494889260359,0.019686951257424395,0.005377475822407765,1.6832876205444336,2.783463954925537,0.8860058188438416
1731474106.247668,-0.32829171419143677,0.5094645619392395,-9.941567420959473,0.01015743018766136,0.012258551589855723,0.0025683979074835332,1.6834031343460083,2.758039951324463,0.8860220909118652
1731474106.2975428,-0.30270475149154663,0.5564647912979126,-9.96811294555664,0.011857816326131162,0.003992328580023121,-0.0012155527217746153,1.6835453510284424,2.73275089263916,0.8860399127006531
1731474106.3476026,-0.30270475149154663,0.5564647912979126,-9.96811294555664,0.016240901960615485,-0.002498426534066912,-0.0005466345617616201,1.6837252378463745,2.7070586681365967,0.8860557675361633
1731474106.3476026,-0.2777516543865204,0.5406443476676941,-10.006043434143066,0.023191394294320454,-0.00663115873207683,0.007170195398733661,1.68372642993927,2.7069032192230225,0.8860558867454529
1731474106.3975139,-0.2777516543865204,0.5406443476676941,-10.006043434143066,0.03220728891953496,-0.009240780130684927,0.019472173000786668,1.6839619874954224,2.681777000427246,0.8860945105552673
1731474106.3975139,-0.30120134353637695,0.5488377809524536,-9.988678932189941,0.042523885860014446,-0.010966205424804937,0.031037502799485285,1.6839637756347656,2.6816139221191406,0.8860949277877808
1731474106.4475057,-0.30120134353637695,0.5488377809524536,-9.988678932189941,0.05264467607371094,-0.012011223435592073,0.03759153107738294,1.681726336479187,2.736236572265625,0.886050283908844
1731474106.4475057,-0.28460612893104553,0.5269214510917664,-9.996599197387695,0.060239631544950996,-0.012450124960782568,0.038033021584325546,1.6817256212234497,2.7361645698547363,0.8860508799552917
1731474106.4974222,-0.28460612893104553,0.5269214510917664,-9.996599197387695,0.06290770707124106,-0.011827214383574102,0.03344284050193994,1.6816900968551636,2.723912477493286,0.886191725730896
1731474106.4974222,-0.27007657289505005,0.5303640365600586,-10.029571533203125,0.05938171407401771,-0.009070174116998224,0.02516786059371054,1.6816903352737427,2.7238311767578125,0.8861929178237915
1731474106.547354,-0.27007657289505005,0.5303640365600586,-10.029571533203125,0.05059949679236093,-0.003578648913906908,0.014085211422579697,1.679689884185791,2.680346965789795,0.8860597610473633
1731474106.547354,-0.2928130328655243,0.5099286437034607,-9.936111450195312,0.039338660624930966,0.0038862506248859337,0.0015683861751457414,1.6796858310699463,2.6801791191101074,0.8860601782798767
1731474106.5972831,-0.2928130328655243,0.5099286437034607,-9.936111450195312,0.028000228411888102,0.011629557611564858,-0.008356127078821381,1.6791270971298218,2.655583381652832,0.8861154317855835
1731474106.5972831,-0.2825969159603119,0.5159085392951965,-10.000070571899414,0.017149819456183994,0.017990166749695637,-0.00962517662868605,1.6791239976882935,2.65544056892395,0.8861156702041626
1731474106.647277,-0.2825969159603119,0.5159085392951965,-10.000070571899414,0.006603592092440401,0.021910220661340723,0.000567012099591003,1.6777490377426147,2.6279876232147217,0.8860231637954712
1731474106.647277,-0.2961852252483368,0.5426015853881836,-10.044075965881348,-0.0030955936262703483,0.022886147005809106,0.01797463637851169,1.677743673324585,2.6278188228607178,0.886023223400116
1731474106.6972785,-0.3033027946949005,0.48623889684677124,-9.952486038208008,-0.010850856022177962,0.020747493199996813,0.03394798810960202,1.6769212484359741,2.6021804809570312,0.8860746622085571
1731474106.7481804,-0.3033027946949005,0.48623889684677124,-9.952486038208008,-0.01599182255630486,0.016231855040982297,0.041834319514756635,1.6761077642440796,2.5829482078552246,0.8860746026039124
1731474106.7481804,-0.27458927035331726,0.5040803551673889,-9.97196102142334,-0.01846928957375374,0.011383758960543564,0.040917515321347964,1.6761033535003662,2.5828261375427246,0.8860753178596497
1731474106.7980993,-0.27458927035331726,0.5040803551673889,-9.97196102142334,-0.017994159319104065,0.00787913154724494,0.03419971864234983,1.675342082977295,2.5621743202209473,0.8862420320510864
1731474106.7980993,-0.3132530450820923,0.5080615878105164,-10.006875038146973,-0.013894692360370244,0.005309008929276858,0.02405996393198378,1.6753371953964233,2.5620455741882324,0.8862433433532715
1731474106.848119,-0.3132530450820923,0.5080615878105164,-10.006875038146973,-0.006722429665093915,0.002068089166025135,0.011166107141111426,1.6745370626449585,2.5411832332611084,0.8864681720733643
1731474106.848119,-0.32105961441993713,0.526967465877533,-9.991323471069336,0.0008331416387120831,-0.0028875132276534494,-0.004095132033159194,1.6745316982269287,2.541045665740967,0.8864697217941284
1731474106.8980846,-0.3101704716682434,0.5343310832977295,-9.968233108520508,0.005529947036339887,-0.00966153662299191,-0.020118121300832743,1.6743444204330444,2.535554885864258,0.8860320448875427
1731474106.9479756,-0.3101704716682434,0.5343310832977295,-9.968233108520508,0.005802532501219448,-0.01765850710162952,-0.033665922746799644,1.673730492591858,2.5181398391723633,0.885970950126648
1731474106.9479756,-0.33802008628845215,0.5439022183418274,-9.999982833862305,0.0023674622848994875,-0.025247744585436306,-0.041250874689660655,1.6737265586853027,2.5180280208587646,0.8859702944755554
1731474106.997838,-0.2564917802810669,1.6371318101882935,-9.999014854431152,-0.0026377832232144507,-0.03524143464053031,-0.041544901968964446,1.6731218099594116,2.500694751739502,0.8858166933059692
1731474107.0477982,-0.35511189699172974,1.2902861833572388,-9.731145858764648,-0.006665234094731507,-0.06733269632655595,-0.03516891548301671,1.672498345375061,2.4830315113067627,0.8855658173561096
1731474107.0978487,-0.292791485786438,0.6551506519317627,-10.004880905151367,-0.008047001143687369,-0.14859376586616005,-0.02150168476908277,1.6725783348083496,2.4868974685668945,0.8859391808509827
1731474107.1477108,-0.3266688883304596,1.118098258972168,-10.126120567321777,-0.007097234991406399,-0.2764989664293507,-0.0008310063063766077,1.6720138788223267,2.4713518619537354,0.8858416676521301
1731474107.1976707,-0.42802703380584717,0.5637068748474121,-9.925093650817871,-0.006143050014029379,-0.4076315925232995,0.019889957545542347,1.6702600717544556,2.43291974067688,0.8859778046607971
1731474107.2476103,-0.3232111930847168,0.8949564695358276,-9.993997573852539,-0.00833716759790353,-0.4893853272825336,0.03109974430475001,1.6692675352096558,2.407808780670166,0.8860406279563904
1731474107.297545,-0.44316980242729187,0.5013415217399597,-10.101434707641602,-0.014052268232979488,-0.4930815724227564,0.02843138203344925,1.6682522296905518,2.3816049098968506,0.8861770033836365
1731474107.3475626,-0.24490027129650116,0.7027904391288757,-9.967036247253418,-0.018301779918267518,-0.4235605884996444,0.011892066086748282,1.6682521104812622,2.372708797454834,0.8860476016998291
1731474107.3974648,-0.4473165273666382,0.4456942081451416,-9.965729713439941,-0.015002096127222659,-0.30799273845120645,-0.015390830293245384,1.6675188541412354,2.3522655963897705,0.8860944509506226
1731474107.4473732,-0.4473165273666382,0.4456942081451416,-9.965729713439941,-0.005824159537790577,-0.17623270081791967,-0.04474662743661345,1.6653907299041748,2.3172223567962646,0.8859702944755554
1731474107.4473732,-0.2736425995826721,0.6598518490791321,-10.009672164916992,-0.0012214733466666824,-0.05022841427719009,-0.0650078935273273,1.665382981300354,2.3170578479766846,0.8859696388244629
1731474107.497358,-0.3830350637435913,0.5126525163650513,-10.02347183227539,-0.007030295191842205,0.050597336761108905,-0.07022023290693437,1.6641383171081543,2.290816307067871,0.8857793807983398
1731474107.547346,-0.2961381673812866,0.6301684379577637,-9.993282318115234,-0.015049007072550804,0.10578450235563523,-0.06275667625219358,1.662627935409546,2.2649173736572266,0.8858609795570374
1731474107.5972981,-0.2961381673812866,0.6301684379577637,-9.993282318115234,-0.012434748506192327,0.10523391951806912,-0.04943570181499571,1.6612153053283691,2.2379744052886963,0.8855834603309631
1731474107.5972981,-0.3602698743343353,0.4508877396583557,-9.97994327545166,0.004318150206200532,0.06054388372421828,-0.035857472979592714,1.6612048149108887,2.2377779483795166,0.8855809569358826
1731474107.5972981,-0.3602698743343353,0.4508877396583557,-9.97994327545166,0.02613193729913429,0.0024774615160240085,-0.024089071305952618,1.6607627868652344,2.2294185161590576,0.8854720592498779
1731474107.9789596,-0.3233598470687866,0.5749571919441223,-9.976527214050293,0.039137267852587185,-0.035037232682889,-0.01389297075776245,1.6600667238235474,2.046119213104248,0.8848837614059448
1731474108.0288332,-0.3303079903125763,0.5492979288101196,-10.001304626464844,0.03549872469688611,-0.03478079695310483,-0.004884826612014795,1.6602683067321777,2.0257270336151123,0.8846011161804199
1731474108.078842,-0.313975989818573,0.5857250690460205,-9.990361213684082,0.017879085774006313,-0.003703674797852455,0.0021484340137993656,1.6605366468429565,2.0052623748779297,0.8843147158622742
1731474108.1288102,-0.32150986790657043,0.520402193069458,-9.958651542663574,-0.004244590970864371,0.03701815142901757,0.005745288508647168,1.6608226299285889,1.9847813844680786,0.884037435054779
1731474108.17881,-0.31373685598373413,0.5667767524719238,-9.999537467956543,-0.02123551294550023,0.06771046763169655,0.005529682350863624,1.6579020023345947,2.053417682647705,0.885680079460144
1731474108.228644,-0.3469487726688385,0.5267049074172974,-9.979222297668457,-0.028064583627066413,0.07923866160288141,0.0027742241231115045,1.6574127674102783,2.038945198059082,0.8856479525566101
1731474108.278637,-0.3304080367088318,0.543578028678894,-9.979108810424805,-0.025549274182592657,0.0729343698201119,-0.00046253455486569095,1.655188798904419,2.005458354949951,0.8859056234359741
1731474108.3286176,-0.3608396053314209,0.5200645923614502,-10.01076889038086,-0.018434480796253157,0.05607912484569297,-0.002288363295371455,1.6542620658874512,1.984480619430542,0.8858941793441772
1731474108.3785808,-0.29354622960090637,0.48053044080734253,-10.00152587890625,-0.011666121893068048,0.03723582015880329,-0.002309032663177355,1.6522445678710938,1.953796148300171,0.8859677910804749
1731474108.428456,-0.5000413656234741,0.5313040018081665,-9.972251892089844,-0.008320737858927894,0.022831291450479685,-0.001899259244470583,1.6509851217269897,1.929336428642273,0.8859558701515198
1731474108.4785337,-0.19646286964416504,1.0050190687179565,-9.954062461853027,-0.010492747875668895,0.012294629233145078,-0.0018514292301592778,1.6490719318389893,1.9038583040237427,0.8859847784042358
1731474108.5284007,-0.43711230158805847,0.8396744132041931,-9.97972297668457,-0.019158441638843504,-0.004398984916832113,-0.0009444251794634556,1.647547960281372,1.87822687625885,0.885975182056427
1731474108.578449,-0.48139846324920654,1.3871296644210815,-9.916431427001953,-0.03472101006708983,-0.036281165075661065,0.001992947228645226,1.6459392309188843,1.8522593975067139,0.8859668374061584
1731474108.6281734,-0.40360042452812195,0.7147037982940674,-9.957160949707031,-0.06003308930552309,-0.07865416407364252,0.0063365553812337995,1.646301031112671,1.8623898029327393,0.88600093126297
1731474108.6782396,-0.4667075276374817,0.9715057611465454,-9.971407890319824,-0.09686975319880595,-0.1153978584017177,0.010448305574344122,1.6448966264724731,1.8438221216201782,0.8860287070274353
1731474108.7281961,-0.4174550771713257,0.7971446514129639,-10.068986892700195,-0.1375873572791798,-0.1323980067460899,0.012071819333934178,1.6432114839553833,1.8250995874404907,0.8860843181610107
1731474108.77823,-0.3928569555282593,0.8035571575164795,-9.960246086120605,-0.1660824314564301,-0.12853903793484606,0.008273112013197574,1.642859697341919,1.8240315914154053,0.8860253691673279
1731474108.828108,-0.3928569555282593,0.8035571575164795,-9.960246086120605,-0.16848595955908474,-0.11283141762190119,-0.002085009849693521,1.641086459159851,1.8097517490386963,0.8860582113265991
1731474108.828108,-0.43709173798561096,0.706527829170227,-9.997798919677734,-0.14234830272158078,-0.09286371714404691,-0.015807560687599746,1.6410746574401855,1.8096661567687988,0.8860583901405334
1731474108.878113,-0.445539653301239,0.6754440665245056,-10.036395072937012,-0.09776923566264946,-0.06933008454228982,-0.027859240050469296,1.6389776468276978,1.7952302694320679,0.8860538005828857
1731474108.928978,-0.4476873278617859,0.6644552946090698,-9.99553108215332,-0.0513587742461332,-0.03878350573789057,-0.03592511137462664,1.6388441324234009,1.7636245489120483,0.8859261870384216
1731474108.9790184,-0.4476873278617859,0.6644552946090698,-9.99553108215332,-0.017454075716497,-1.7840709843324615e-06,-0.04054985124669983,1.6378843784332275,1.7527093887329102,0.8858177661895752
1731474108.9790184,-0.467433363199234,0.621199369430542,-10.024280548095703,-0.0018671551446002082,0.0411965512724544,-0.042183974589535565,1.6378753185272217,1.752607822418213,0.8858165740966797
1731474109.0288718,-0.47566303610801697,0.6088836789131165,-10.034350395202637,-0.0017103447805585127,0.07411249106698699,-0.04058265588310645,1.6326602697372437,1.7001985311508179,0.885893702507019
1731474109.0788927,-0.47566303610801697,0.6088836789131165,-10.034350395202637,-0.009892685792776818,0.09054307121952074,-0.036334320184404294,1.629920244216919,1.6663665771484375,0.8858823180198669
1731474109.0788927,-0.4803491532802582,0.5935032367706299,-10.015056610107422,-0.019395258335455356,0.0890139566447499,-0.030663992390781977,1.62990140914917,1.6661604642868042,0.8858814239501953
1731474109.1287663,-0.4702795445919037,0.5308822393417358,-10.020432472229004,-0.02521930876550572,0.07380277740795518,-0.023926588223798513,1.6268953084945679,1.6336842775344849,0.8857114315032959
1731474109.1787636,-0.5139833092689514,0.5413621664047241,-9.971261978149414,-0.02534165897018843,0.053049130266316157,-0.015510291056531305,1.6237906217575073,1.6009855270385742,0.8854901194572449
1731474109.228715,-0.44681060314178467,0.4902341365814209,-9.967559814453125,-0.020826909274565722,0.036265888772851834,-0.004603084117226956,1.6200166940689087,1.5621740818023682,0.8851950168609619
