Timestamp,IMU_Linear_Acc_X,IMU_Linear_Acc_Y,IMU_Linear_Acc_Z,Filtered_X,Filtered_Y,Filtered_Z,Pose_X,Pose_Y,Pose_Z
1730865948.9843962,-1.5622344017028809,1.2559999227523804,-9.844598770141602,-0.007536755159051078,-0.006059374884622541,-0.04749372468611398,0.8699943423271179,0.8899954557418823,0.8849644660949707
1730865949.0343103,-1.6065484285354614,1.3037285804748535,-9.91126537322998,-0.048219246098525584,-0.03882552657585156,-0.30283351973151656,0.869921088218689,0.8899365663528442,0.8845044374465942
1730865949.084335,-1.6464300155639648,1.3352413177490234,-9.848318099975586,-0.14329803053543452,-0.11563584168732102,-0.893934817109449,0.8696054816246033,0.8896821141242981,0.8825294971466064
1730865949.1342292,-1.7890230417251587,1.2793657779693604,-9.847938537597656,-0.27006512296549257,-0.21781035720096775,-1.6595194287098516,0.8687750101089478,0.8890123963356018,0.8773744702339172
1730865949.1843033,-1.9112098217010498,1.1769911050796509,-9.826825141906738,-0.37466480969900084,-0.2976808864561992,-2.223053326564782,-0.11048997938632965,-0.11290451139211655,-0.11514267325401306
1730865949.2342906,-1.7468112707138062,1.169215440750122,-9.872337341308594,-0.4209697010025526,-0.31652252266668435,-2.31378328197871,-0.30369552969932556,-0.3101532757282257,-0.31963932514190674
1730865949.2843397,-1.7610691785812378,1.1731765270233154,-9.90518856048584,-0.4079055566560531,-0.26569528782563073,-1.9215481228236277,-0.09155691415071487,-0.09330159425735474,-0.09845340996980667
1730865949.3341703,-1.772855281829834,1.1963719129562378,-9.869773864746094,-0.3549841440038123,-0.16446958229363978,-1.2344498211171322,-0.14346756041049957,-0.14563873410224915,-0.1587972790002823
1730865949.3842542,-1.7723252773284912,1.1582468748092651,-9.856871604919434,-0.2871073827279257,-0.04686751072751409,-0.5050657870253017,-0.1964394748210907,-0.19849911332130432,-0.2216176986694336
1730865949.4341888,-1.5951693058013916,1.1924304962158203,-9.84045124053955,-0.22523545906406145,0.054553738618240886,0.06445924998447741,-0.039878420531749725,-0.039976101368665695,-0.044497791677713394
1730865949.4842129,-1.4303251504898071,1.1096744537353516,-9.871488571166992,-0.17839571453778647,0.12035458481874453,0.3783975425829105,-0.051852136850357056,-0.050785839557647705,-0.05717708542943001
1730865949.5342839,-1.4494115114212036,1.127644419670105,-9.831385612487793,-0.14073804566560683,0.14779077543650487,0.4454017190790289,-0.014635978266596794,-0.013890058733522892,-0.015303034335374832
1730865949.5842733,-1.374488115310669,1.0864741802215576,-9.847817420959473,-0.09917294095864751,0.1472396386187227,0.34188147465310537,-0.01831839233636856,-0.01612880453467369,-0.01695355772972107
1730865949.634126,-1.4525998830795288,1.0719263553619385,-9.802490234375,-0.04546433339925904,0.13461686168336434,0.16646724964569287,-0.005222560837864876,-0.004287105053663254,-0.004406002350151539
1730865949.684152,-1.5784028768539429,1.0320987701416016,-9.840079307556152,0.017038589660199412,0.12430568711769421,0.0030488611664627255,-0.00632012914866209,-0.004337518010288477,-0.004306201823055744
1730865949.734146,-1.5448294878005981,0.9901504516601562,-9.828018188476562,0.07446700621255259,0.125459767334041,-0.09947984097454922,-0.0016781954327598214,-0.0009933379478752613,-0.0012651965953409672
1730865949.7841535,-1.495914340019226,0.9905200004577637,-9.897010803222656,0.11086597346527943,0.1412846948729416,-0.1302731493845935,-0.0016387745272368193,-0.00046999676851555705,-0.0016491346759721637
1730865949.8341901,-1.5989469289779663,0.96947181224823,-9.889765739440918,0.1186950696432987,0.1697493510928932,-0.10692475604204446,-0.0002763394732028246,0.00013895088341087103,-0.0006148843676783144
1730865949.8841543,-1.5671354532241821,0.9694827198982239,-9.91878890991211,0.1014974979451402,0.20512435585936772,-0.05980316208968044,0.00010967477282974869,0.00045567838242277503,-0.00039961232687346637
1730865949.9341342,-1.4966825246810913,0.9941743016242981,-9.964380264282227,0.06933629725065929,0.24023793046516084,-0.017284197467932413,0.0005759050836786628,0.001491344766691327,-0.0007211783085949719
1730865949.984129,-1.4800490140914917,0.969645619392395,-9.981051445007324,0.0349698966876701,0.2686840006452975,0.0028276363301297297,0.0011753817088901997,0.003171785268932581,-0.0010623972630128264
1730865950.0342054,-1.459653377532959,1.016774296760559,-9.992463111877441,0.01092974000866747,0.2864426134482845,-0.004804570663884908,0.001832188107073307,0.005549636669456959,-0.001405844115652144
1730865950.0840492,-1.5144121646881104,1.049118995666504,-9.973414421081543,0.0049168028568468735,0.29227049441575437,-0.035044767987430184,0.00026522850384935737,0.0010799065930768847,-0.0002577176783233881
1730865950.1340241,-1.6105612516403198,1.0086636543273926,-9.94045639038086,0.015809698294292195,0.2869690639243583,-0.07613978756304744,0.0004153474001213908,0.00264940713532269,-0.0005013586487621069
1730865950.1840804,-1.5536221265792847,1.06661057472229,-9.94149398803711,0.03392770560454262,0.2730945402558468,-0.11447573506526029,1.0599652528762817,1.1435431241989136,1.0976829528808594
1730865950.2339597,-1.603241205215454,1.065562129020691,-9.964529037475586,0.04689192635180501,0.2535976348311182,-0.1390801880951172,1.3887892961502075,1.4992806911468506,1.4376153945922852
1730865950.2839465,-1.879683494567871,1.0326447486877441,-9.866992950439453,0.04537221674141283,0.22829331500703842,-0.14375320257215493,1.7203773260116577,1.8584849834442139,1.7799335718154907
1730865950.3339956,-2.0737950801849365,0.9914940595626831,-9.809025764465332,0.02151779881080812,0.19426937657668453,-0.12618400290057327,1.0376421213150024,1.1268243789672852,1.0713331699371338
1730865950.3840535,-1.8243703842163086,0.9407444000244141,-9.798154830932617,-0.030094966068751058,0.15195553838955173,-0.08773077512868921,1.1080119609832764,1.205215573310852,1.1428837776184082
1730865950.4339852,-1.6435387134552002,1.0102969408035278,-9.805895805358887,-0.09673594778082543,0.10750106373708529,-0.036055787710330585,0.9373883008956909,1.0273911952972412,0.9641531705856323
1730865950.4839067,-1.5730770826339722,1.1460793018341064,-9.76155948638916,-0.14113382123496102,0.06727802888719941,0.014932510436821958,0.9558956623077393,1.0516220331192017,0.9821726679801941
1730865950.5338778,-1.402429223060608,1.2469379901885986,-9.80485725402832,-0.12906378196097176,0.031555673986626995,0.051733171068521766,0.9740412831306458,1.0759409666061401,1.0002491474151611
1730865950.5837739,-1.2801685333251953,1.27745521068573,-9.844583511352539,-0.057669643909631814,-0.005908488806324408,0.06767052712624105,0.9919688105583191,1.10030996799469,1.0184874534606934
1730865950.6338754,-1.3144124746322632,1.2810062170028687,-9.876189231872559,0.05029500544990245,-0.052229618130081444,0.0629561988490506,1.0100826025009155,1.1248701810836792,1.0370887517929077
1730865950.6837897,-1.3720238208770752,1.2254197597503662,-9.91110610961914,0.1661200343420134,-0.10862902517825249,0.041599885065435493,1.0281901359558105,1.1488604545593262,1.0555391311645508
1730865950.7338083,-1.4993278980255127,1.1518988609313965,-9.931300163269043,0.264240689455431,-0.16765102101137896,0.009156027887177924,0.8885983228683472,0.9791590571403503,0.9100086688995361
1730865950.78379,-1.6006672382354736,1.0863429307937622,-9.86929702758789,0.3238300018067784,-0.21501869108287291,-0.02755806430155902,0.892331063747406,0.9826837778091431,0.9120771288871765
1730865950.8337855,-1.81550133228302,1.01986563205719,-9.81452465057373,0.3291670731305314,-0.23398166729169936,-0.05864837659294107,0.8805338740348816,0.9725325107574463,0.896499514579773
1730865950.8837059,-1.9375649690628052,0.9927679896354675,-9.77560806274414,0.2726540178492687,-0.2125268872908655,-0.07202906035204205,0.883553683757782,0.9746423363685608,0.8963450193405151
1730865950.9336746,-2.0457820892333984,0.9714118242263794,-9.726194381713867,0.162509165293185,-0.15235233450634966,-0.0605935018983718,0.8871176242828369,0.9763011932373047,0.896025538444519
1730865950.9836621,-2.0869340896606445,1.0083929300308228,-9.737180709838867,0.024754593378836946,-0.07105945195795238,-0.027836534653022906,0.8800155520439148,0.9798057675361633,0.8910691142082214
1730865951.0336392,-2.0562994480133057,1.051559329032898,-9.758321762084961,-0.10714509807474193,0.006439428731535978,0.014538284893644001,0.8814815282821655,0.9827961921691895,0.8905580043792725
1730865951.083622,-1.9736506938934326,1.1039338111877441,-9.822582244873047,-0.20261243596907916,0.05893543119147895,0.05176409075116766,0.8851396441459656,0.9907160401344299,0.8887225985527039
1730865951.133597,-1.9302725791931152,1.1401413679122925,-9.887577056884766,-0.23957015609357285,0.07553855256405875,0.07035515071914276,0.8869800567626953,0.9957736730575562,0.8882455825805664
1730865951.1835477,-1.8705997467041016,1.1601102352142334,-9.892549514770508,-0.2125674749195267,0.05820729756013219,0.06337631402589114,0.8909323811531067,1.0019210577011108,0.8870702385902405
1730865951.233644,-1.852792739868164,1.1702474355697632,-9.919771194458008,-0.13726635475151952,0.019845190303753556,0.034126744101236776,0.8930743336677551,1.0077415704727173,0.886569619178772
1730865951.2836158,-1.850260853767395,1.1229956150054932,-9.914119720458984,-0.04326840844509396,-0.021845255190096783,-0.005607559108990133,0.8962461352348328,1.014188528060913,0.887396514415741
1730865951.3335752,-1.8229795694351196,1.0839333534240723,-9.910886764526367,0.03904809771196527,-0.05109681197156747,-0.04145073481828128,0.8985499143600464,1.019723892211914,0.8872416019439697
1730865951.3836124,-1.7985893487930298,1.0479875802993774,-9.888747215270996,0.0899135317279766,-0.05877836146206429,-0.062427785917878266,0.9031609892845154,1.0243167877197266,0.8876047730445862
1730865951.4335694,-1.7535266876220703,0.9978740811347961,-9.872357368469238,0.10526424566055109,-0.04430944701930292,-0.06420098194382051,0.9093152284622192,1.033382773399353,0.8876088261604309
1730865951.4836032,-1.7225205898284912,0.9698752164840698,-9.863229751586914,0.09379585928598293,-0.014569875872300925,-0.04928072762725763,0.9136486053466797,1.0395859479904175,0.887324333190918
1730865951.533507,-1.668954610824585,0.9353963732719421,-9.8529052734375,0.06962160848925403,0.019519241540931234,-0.025034781523447125,0.9181479215621948,1.0457425117492676,0.8869500160217285
1730865951.583536,-1.6359572410583496,0.9215210676193237,-9.852986335754395,0.04631297241037428,0.04796122835252661,-0.0001263534397313859,0.9228720664978027,1.0520920753479004,0.8865376114845276
1730865951.6334298,-1.6144894361495972,0.9229671359062195,-9.850465774536133,0.034037789552250425,0.06583913547824413,0.018983760495568106,0.913471519947052,1.0451242923736572,0.8876401782035828
1730865951.6834772,-1.6067534685134888,0.9610587358474731,-9.857247352600098,0.03724253496887705,0.07315391695093114,0.02947538530477405,0.9153535962104797,1.049049735069275,0.8876519799232483
1730865951.7344527,-1.5976148843765259,1.0084751844406128,-9.867647171020508,0.05221470792413849,0.07070920328188346,0.031359424506016705,0.9151341915130615,1.0577006340026855,0.8878058791160583
1730865951.7843916,-1.6114647388458252,1.0301212072372437,-9.874835968017578,0.06849800602319234,0.05767711864516623,0.02609942143115629,0.9168709516525269,1.0637595653533936,0.8879310488700867
1730865951.8344188,-1.5975745916366577,1.018343448638916,-9.889068603515625,0.07542454423054326,0.03454827598754351,0.016042418312020586,0.9187991619110107,1.0699726343154907,0.8881097435951233
1730865951.8845086,-1.6075562238693237,0.9683912396430969,-9.893061637878418,0.06822127897500004,0.006807944116634721,0.004061232149300719,0.9161697626113892,1.0697624683380127,0.8879712224006653
1730865951.934418,-1.626556634902954,0.905511736869812,-9.897462844848633,0.049110001131942305,-0.016271202884911986,-0.007202129179000939,0.9172148108482361,1.0739458799362183,0.8880358338356018
1730865951.9844997,-1.6508206129074097,0.8503293991088867,-9.890620231628418,0.02428689144213412,-0.026030575432658902,-0.015691156475340976,0.9182891249656677,1.0843652486801147,0.8880448341369629
1730865952.034278,-1.668717384338379,0.7852784395217896,-9.882685661315918,6.287795752102452e-05,-0.018183814964326285,-0.01987331761833356,0.9195243120193481,1.0907187461853027,0.8880360126495361
1730865952.0843859,-1.666137456893921,0.7490000128746033,-9.847501754760742,-0.019125451093142187,0.0052796934928877205,-0.018913494464929202,0.9204798340797424,1.0946906805038452,0.8879829049110413
1730865952.134316,-1.6244356632232666,0.7482098340988159,-9.854060173034668,-0.030590152548053008,0.036606589719980466,-0.012972545392083321,0.9215995073318481,1.1004177331924438,0.8879107236862183
1730865952.1843207,-1.5937052965164185,0.7874472141265869,-9.882034301757812,-0.03255551482699944,0.0648101322355373,-0.0038726601690002673,0.9226495027542114,1.106317162513733,0.8878170847892761
1730865952.2342668,-1.5707736015319824,0.8576775789260864,-9.910017013549805,-0.023855184897572514,0.07886267476291284,0.00433097449371262,0.918557345867157,1.1057493686676025,0.8879696726799011
1730865952.2842512,-1.587791085243225,0.9232023358345032,-9.935588836669922,-0.0052851043186591925,0.0714925316454182,0.006838026660737058,0.9170419573783875,1.1153713464736938,0.8879955410957336
1730865952.3342435,-1.5839658975601196,0.9715844392776489,-9.951668739318848,0.01812369343903078,0.043027075287051325,0.0014487546266938715,0.9166022539138794,1.1213324069976807,0.8880108594894409
1730865952.3842833,-1.6285433769226074,0.9795622229576111,-9.949352264404297,0.03768932854505456,0.0021650652230221553,-0.009586765544516714,0.9137113094329834,1.1261727809906006,0.8878597617149353
1730865952.4342704,-1.6731714010238647,0.9589577913284302,-9.931402206420898,0.04550397957478543,-0.03798797138053621,-0.02110758739902507,0.9125936627388,1.1319695711135864,0.8877661824226379
1730865952.4843504,-1.7608195543289185,0.9085907340049744,-9.892904281616211,0.038027104802055234,-0.06518115049459602,-0.027797743793946478,0.911575973033905,1.1376619338989258,0.8876107931137085
1730865952.5342863,-1.8198007345199585,0.8613375425338745,-9.845653533935547,0.01562862282298151,-0.07110750316500736,-0.025640713106419466,0.9111444354057312,1.1384613513946533,0.8877023458480835
1730865952.5842535,-1.8743910789489746,0.8098325729370117,-9.812735557556152,-0.01887359714333872,-0.0534220542347844,-0.012823568180496413,0.9103306531906128,1.1426670551300049,0.8875581622123718
1730865952.634168,-1.8814746141433716,0.8248398900032043,-9.78154468536377,-0.05896134365528352,-0.017607358898601343,0.008706590050525851,0.909106969833374,1.1528812646865845,0.887736439704895
1730865952.6841817,-1.8178749084472656,0.9012826681137085,-9.799697875976562,-0.09347132015555967,0.0235663410537402,0.0328461590674691,0.907877504825592,1.1592646837234497,0.8877574801445007
1730865952.7341259,-1.7743693590164185,0.9895063042640686,-9.821540832519531,-0.10989679364978903,0.05391684966434208,0.05141036601220603,0.9068997502326965,1.1629440784454346,0.8878568410873413
1730865952.7841399,-1.7426655292510986,1.0704177618026733,-9.879551887512207,-0.10015103974618086,0.05983685679695413,0.05721610328438736,0.9053692817687988,1.168774962425232,0.8880718350410461
1730865952.834016,-1.7173658609390259,1.144403100013733,-9.899643898010254,-0.06562525369493151,0.03680094215139434,0.04692656720186192,0.9069913625717163,1.17555832862854,0.8879555463790894
1730865952.884022,-1.7238008975982666,1.201750636100769,-9.902915954589844,-0.017780933674592637,-0.007967344096021445,0.02280019032916256,0.9062999486923218,1.1816025972366333,0.8881757259368896
1730865952.9340377,-1.7645459175109863,1.1820310354232788,-9.86949348449707,0.027117239299529746,-0.059158353104616195,-0.007342467094871662,0.9080098271369934,1.1847983598709106,0.888154923915863
1730865952.9839852,-1.83077871799469,1.1543887853622437,-9.82955265045166,0.05478980997373514,-0.09977186030164331,-0.0324939952277034,0.9090157747268677,1.1931172609329224,0.8882740139961243
1730865953.0339887,-1.8594506978988647,1.0799541473388672,-9.79504680633545,0.05798878674333284,-0.11686819264432573,-0.04338104610019644,0.9094924330711365,1.1986382007598877,0.8882681131362915
1730865953.0839276,-1.8404059410095215,1.018115758895874,-9.759230613708496,0.03909518191408497,-0.10505795478660655,-0.03689006077400235,0.9100839495658875,1.2038127183914185,0.8881624341011047
1730865953.1339393,-1.7897979021072388,0.9865586757659912,-9.764646530151367,0.008831116690689107,-0.0666995501427621,-0.01633752827725006,0.9107436537742615,1.2088418006896973,0.8879883289337158
1730865953.1840162,-1.698754072189331,1.0258070230484009,-9.786855697631836,-0.018371811134899767,-0.010130881910821243,0.011340015982250089,0.9098943471908569,1.2077274322509766,0.8884193897247314
1730865953.2339149,-1.6195176839828491,1.096706748008728,-9.849236488342285,-0.02980879867652703,0.05142051774621207,0.037822481797902166,0.9100620150566101,1.2117929458618164,0.8885042071342468
1730865953.2839737,-1.5690386295318604,1.1863417625427246,-9.894932746887207,-0.019411123723399672,0.10009971753973707,0.05416450960018669,0.9101706147193909,1.216107964515686,0.8887055516242981
1730865953.3338645,-1.5596836805343628,1.2637195587158203,-9.941064834594727,0.010164527163515725,0.11700755963956067,0.052345794983207634,0.9091271758079529,1.2210654020309448,0.8887571692466736
1730865953.384044,-1.59630286693573,1.3051685094833374,-9.960204124450684,0.04943405377486381,0.09156535342258655,0.029268799846149402,0.9090758562088013,1.226457118988037,0.8890453577041626
1730865953.4338489,-1.6284863948822021,1.3273265361785889,-9.94701862335205,0.08459974097527975,0.03071442547048562,-0.00898484176270705,0.9091907143592834,1.231879711151123,0.8893526792526245
1730865953.4840422,-1.6553434133529663,1.316172480583191,-9.920696258544922,0.10088807748315601,-0.04250158927484754,-0.04802724898616298,0.9086683392524719,1.235471487045288,0.8889139890670776
1730865953.5338588,-1.6599690914154053,1.2806527614593506,-9.860176086425781,0.08962895808721326,-0.10176454314105374,-0.07255071371783128,0.9112793207168579,1.248922348022461,0.8890770077705383
1730865953.583919,-1.6765570640563965,1.1801283359527588,-9.819402694702148,0.05444199471716625,-0.12932356627396205,-0.07398878850672892,0.9124924540519714,1.25569748878479,0.888913094997406
1730865953.6338382,-1.6720153093338013,1.0732054710388184,-9.787087440490723,0.009461528624155115,-0.1188823632090422,-0.053149407179444816,0.9142694473266602,1.2599459886550903,0.8893256187438965
1730865953.6838663,-1.6663193702697754,0.9791675806045532,-9.763050079345703,-0.029170621662873337,-0.07400465750388621,-0.01827366083660175,0.915521502494812,1.2651814222335815,0.8892188668251038
1730865953.7339408,-1.6707918643951416,0.9239218235015869,-9.750232696533203,-0.05096586701790564,-0.006936212176128238,0.01908461132290275,0.916673481464386,1.2703183889389038,0.8891130685806274
1730865953.7837968,-1.6994575262069702,0.9047927856445312,-9.781537055969238,-0.053742763508359555,0.06456538498016103,0.04835630212241349,0.9167742729187012,1.2727409601211548,0.8896371126174927
1730865953.8338177,-1.7137017250061035,0.9450106620788574,-9.824131965637207,-0.04245895946139478,0.123457351188058,0.06289070604367533,0.9175586700439453,1.2779301404953003,0.889877438545227
1730865953.8838098,-1.7199853658676147,1.0237822532653809,-9.900525093078613,-0.025650049734173223,0.15654101044056984,0.060268228744291684,0.9193299412727356,1.286575436592102,0.8900202512741089
1730865953.933771,-1.7121604681015015,1.109671950340271,-9.941783905029297,-0.010953618614411027,0.15473708534817604,0.04125839069646012,0.9220381379127502,1.2955296039581299,0.8902426362037659
1730865953.9838536,-1.7125602960586548,1.1412822008132935,-9.991416931152344,-0.0021629231520962954,0.11730758091604854,0.010294921752343828,0.9236465096473694,1.3029696941375732,0.890565812587738
1730865954.033785,-1.7383090257644653,1.1559922695159912,-9.991555213928223,0.0007529726018912572,0.05605719125838393,-0.024192929742727888,0.9252495765686035,1.3106118440628052,0.8908708691596985
1730865954.0837812,-1.7700742483139038,1.0934906005859375,-9.966474533081055,-0.0007005530934916775,-0.008719143404882859,-0.05281350211654076,0.9241096377372742,1.308892846107483,0.8901157975196838
1730865954.1337168,-1.7931220531463623,1.0574482679367065,-9.924484252929688,-0.005586653999316626,-0.057529132694686444,-0.06890480531728742,0.924936056137085,1.3136457204818726,0.8899602890014648
1730865954.1838078,-1.8051255941390991,0.9757516384124756,-9.861323356628418,-0.013213920957525193,-0.07831392332416554,-0.06910251491496358,0.9261875748634338,1.3232539892196655,0.8898828029632568
1730865954.233678,-1.8243852853775024,0.909440279006958,-9.807530403137207,-0.021943236573647128,-0.06841982293270268,-0.05267416925158952,0.9271848201751709,1.329655408859253,0.8895828127861023
1730865954.2837088,-1.831785798072815,0.8526820540428162,-9.77783489227295,-0.029417741754585912,-0.033889315729408606,-0.022509319456991903,0.9284659028053284,1.3312851190567017,0.8898316621780396
1730865954.3335953,-1.7967559099197388,0.8678164482116699,-9.767488479614258,-0.0335093247602958,0.012873589229268302,0.014032441489128215,0.9294721484184265,1.3362109661102295,0.8896944522857666
1730865954.3836603,-1.7605763673782349,0.9291214346885681,-9.799591064453125,-0.03228816746010834,0.056187227934981605,0.04678783668985979,0.9312471747398376,1.3434463739395142,0.8899685740470886
1730865954.433618,-1.710945725440979,1.0032237768173218,-9.818702697753906,-0.02386102531359188,0.08084978685608946,0.06618181271150465,0.9323340058326721,1.34920072555542,0.890135645866394
1730865954.4836576,-1.7012803554534912,1.053971767425537,-9.838756561279297,-0.007801003830904512,0.07754227461602772,0.06698439748446043,0.9345645904541016,2.011234998703003,0.8901397585868835
1730865954.5335536,-1.6881037950515747,1.0379717350006104,-9.849413871765137,0.013142891376610987,0.04747327967366942,0.050562239706256645,0.936051070690155,2.2300031185150146,0.8904367685317993
1730865954.5836434,-1.7113316059112549,0.9963055849075317,-9.854170799255371,0.0333018750614148,0.002972052051217762,0.023951880134744724,0.9361473321914673,2.717418909072876,0.8901763558387756
1730865954.6335702,-1.745736837387085,0.9328804016113281,-9.85682487487793,0.046145502352518825,-0.03706359066911227,-0.0034678709986897295,0.937411904335022,3.0360498428344727,0.8903282880783081
1730865954.683587,-1.7479357719421387,0.8603179454803467,-9.831171989440918,0.047014187545294364,-0.05590572344937455,-0.023647845806482423,0.9388082027435303,3.358238458633423,0.8904476761817932
1730865954.733575,-1.7491909265518188,0.843873918056488,-9.839099884033203,0.03526489734869821,-0.04608012640914848,-0.032131542314761646,0.937164843082428,3.1807749271392822,0.8900517225265503
1730865954.7836032,-1.719849944114685,0.8954249024391174,-9.856204986572266,0.014837322046673831,-0.011337572588264854,-0.028812348090478262,0.9379026889801025,3.36484956741333,0.8899535536766052
1730865954.8335345,-1.69038987159729,1.013269066810608,-9.893735885620117,-0.0066261646450011475,0.03327794358161988,-0.017936384217269993,0.9388159513473511,3.7456068992614746,0.8899568319320679
1730865954.8834958,-1.6407148838043213,1.1782209873199463,-9.94733715057373,-0.020334517509958534,0.06500472046738037,-0.006692225129723967,0.9409751892089844,4.453278064727783,0.8899567723274231
1730865954.9335127,-1.5968351364135742,1.3148117065429688,-9.980710983276367,-0.020553639635467042,0.06469704247313861,-0.0017535676457166379,0.9424616098403931,4.942324638366699,0.8899087309837341
1730865954.9834745,-1.5788203477859497,1.3853707313537598,-9.986942291259766,-0.007557358589429812,0.028174345181034347,-0.005710904472383203,0.9439151287078857,5.4322686195373535,0.8898512721061707
1730865955.0333755,-1.59587824344635,1.345052719116211,-9.986001014709473,0.01337224811615799,-0.03338252550100603,-0.016386265349096412,0.9421254396438599,4.892201900482178,0.8899487257003784
1730865955.0834413,-1.6471034288406372,1.241713523864746,-9.92891788482666,0.03480253248681343,-0.10039092192009406,-0.028727696893520203,0.9428470134735107,5.116121768951416,0.8898575305938721
1730865955.1334794,-1.7504501342773438,1.1041513681411743,-9.85863208770752,0.04837238971687743,-0.14936837178537937,-0.03617595669380757,0.9436693787574768,5.338720798492432,0.8896855115890503
1730865955.1834555,-1.8304283618927002,0.9711137413978577,-9.74976921081543,0.04517237194227482,-0.15688829868197227,-0.031143061992152762,0.9445508122444153,5.327204704284668,0.8899029493331909
1730865955.2333221,-1.9156988859176636,0.9128645658493042,-9.670672416687012,0.01911868854445286,-0.11007629374624553,-0.00776870505628563,0.9455624222755432,5.519455432891846,0.8897706866264343
1730865955.2834413,-1.9563443660736084,0.903839647769928,-9.61693286895752,-0.027003179377415282,-0.01909198212391476,0.032624551038046436,0.9465733170509338,5.71333646774292,0.8896685838699341
1730865955.3332965,-1.9662718772888184,0.9583784937858582,-9.625625610351562,-0.08047242313218966,0.08342444450805069,0.07983908299984317,0.9474419355392456,5.905600070953369,0.8897070288658142
1730865955.3834836,-1.923431158065796,1.0500279664993286,-9.705564498901367,-0.12598788595731883,0.15989835615337428,0.12044911577161456,0.9480892419815063,5.807923793792725,0.8900900483131409
1730865955.4342368,-1.8367159366607666,1.1513241529464722,-9.823517799377441,-0.15252917170007255,0.18626476134836187,0.14334515314187735,0.9485213160514832,5.9607319831848145,0.8905999660491943
1730865955.4842105,-1.7143102884292603,1.2665013074874878,-9.948857307434082,-0.15293568934369195,0.15820311490525424,0.1398968223877879,0.9516369104385376,6.380410194396973,0.8903720378875732
1730865955.5342638,-1.5934988260269165,1.3747628927230835,-10.055098533630371,-0.12255023401554918,0.08776389187190735,0.10469183193191703,0.9525488018989563,6.636165142059326,0.891033947467804
1730865955.5842412,-1.4835880994796753,1.4298890829086304,-10.111140251159668,-0.06303030408277757,-0.003116077312639652,0.04102212753444458,0.9548454880714417,6.952254295349121,0.8903886079788208
1730865955.6342456,-1.443881630897522,1.4316983222961426,-10.103753089904785,0.014108287464602524,-0.08948054290330817,-0.0358040451523768,0.9561291933059692,7.234024524688721,0.8906583189964294
1730865955.6842623,-1.4952565431594849,1.3775787353515625,-10.049909591674805,0.08941733471138004,-0.14954271104671865,-0.10304522666956782,0.9574804902076721,6.836828708648682,0.8877131342887878
1730865955.7341847,-1.6399167776107788,1.2702287435531616,-9.953142166137695,0.14097809641380207,-0.16921830260857165,-0.13945126210444336,0.9589750170707703,6.909907341003418,0.8867545127868652
1730865955.7842758,-1.8158236742019653,1.1555479764938354,-9.814238548278809,0.15103233538300473,-0.14487926071043078,-0.13329776629689594,0.9612892866134644,6.727773666381836,0.884215235710144
1730865955.8341494,-1.987913966178894,1.0372942686080933,-9.684324264526367,0.11207588445112007,-0.0837116161217792,-0.08593863012060393,0.9647424221038818,6.682720184326172,0.8820585012435913
1730865955.8841746,-2.1046435832977295,0.9711049795150757,-9.589987754821777,0.0319968932262818,-0.0022021275237878793,-0.011002455464651135,0.967411458492279,6.68634033203125,0.8802531361579895
1730865955.9341092,-2.1483964920043945,0.9394667744636536,-9.553539276123047,-0.06554519634998818,0.0773733508663964,0.0695628736597033,0.9700339436531067,6.690047740936279,0.8785240054130554
1730865955.9841945,-2.121264934539795,0.9565346837043762,-9.586009979248047,-0.15143494084779296,0.1348389989708686,0.13400319738849747,0.9723952412605286,6.694037914276123,0.8770430684089661
1730865956.0340698,-2.039263963699341,0.9619608521461487,-9.645097732543945,-0.20496013102728705,0.16042643544676233,0.16937322106652936,0.9668529629707336,6.654122829437256,0.8802439570426941
1730865956.0840585,-1.9312196969985962,0.9948458671569824,-9.719782829284668,-0.2183505080564446,0.15597216790122329,0.17289878721089413,0.9670242667198181,6.653958320617676,0.8801696300506592
1730865956.1340225,-1.8107657432556152,1.0069457292556763,-9.799466133117676,-0.19218697000887608,0.12942440596567953,0.14752979492201818,0.9666855931282043,6.654148578643799,0.8804932236671448
1730865956.184022,-1.7375962734222412,1.0039891004562378,-9.883305549621582,-0.13055956784633863,0.08950578110422322,0.09795193401182964,0.9659396409988403,6.654614448547363,0.8811271786689758
1730865956.2339506,-1.6901278495788574,0.9899908900260925,-9.963652610778809,-0.0405684637784481,0.044516805890602154,0.029475502633061246,0.9705414175987244,6.6420512199401855,0.8789656758308411
1730865956.2840056,-1.6511867046356201,1.0167818069458008,-10.022025108337402,0.06479530807399006,0.0027278226312261386,-0.05028343996579314,0.9713823199272156,6.640812873840332,0.8786544799804688
1730865956.3338845,-1.626352071762085,1.0566904544830322,-10.058816909790039,0.1638125186935356,-0.029078782791664325,-0.12783873965812292,0.975388765335083,6.639793872833252,0.8767654299736023
1730865956.3839247,-1.6089198589324951,1.1275053024291992,-10.08283519744873,0.23053308701640365,-0.048183834543078945,-0.18476606569815818,0.9776055812835693,6.638912200927734,0.8755471706390381
1730865956.433835,-1.548673152923584,1.161179542541504,-10.08017635345459,0.24812296342219942,-0.05680239479072859,-0.2065279634899938,0.9808791279792786,6.6379313468933105,0.8739919662475586
1730865956.4838657,-1.5168516635894775,1.1840696334838867,-10.051786422729492,0.2186814625257375,-0.05986968311914047,-0.19031765439914486,0.9843021631240845,6.638291835784912,0.8741692304611206
1730865956.533793,-1.4813148975372314,1.1318827867507935,-9.987784385681152,0.16013315591672425,-0.060693786245797104,-0.14465311032016318,0.9877879619598389,6.637754440307617,0.8728886246681213
1730865956.5838237,-1.4938756227493286,1.0512200593948364,-9.905617713928223,0.09520157358393912,-0.05752841816418942,-0.08332714367281212,0.9915948510169983,6.637069225311279,0.8713222742080688
1730865956.6337664,-1.5253958702087402,0.9455553293228149,-9.82075309753418,0.04159734521817168,-0.04408938019433248,-0.018508801794055632,0.9955781102180481,6.636255741119385,0.8696262836456299
1730865956.683823,-1.6069215536117554,0.8572342395782471,-9.72569751739502,0.00708553176678456,-0.013221975660542151,0.0436967360446784,0.9872165322303772,6.637930870056152,0.874516487121582
1730865956.7337284,-1.7038275003433228,0.803158164024353,-9.66273307800293,-0.01090450062438128,0.037679620729371276,0.1020052738640307,0.9886526465415955,6.6376752853393555,0.874450147151947
1730865956.7837372,-1.8090814352035522,0.8006678223609924,-9.635173797607422,-0.021708259850876717,0.10017858222194831,0.15293654645587976,0.9918072819709778,6.637709140777588,0.8752732276916504
1730865956.8336544,-1.8927173614501953,0.8072279691696167,-9.634767532348633,-0.03541576116907884,0.154583896898797,0.18687836581429856,0.9960612654685974,6.639184474945068,0.8779398202896118
1730865956.883653,-1.9440635442733765,0.8602471947669983,-9.668485641479492,-0.05653168360606075,0.18056868609441556,0.19356457356010429,0.9984431266784668,6.640188694000244,0.8795750737190247
1730865956.9336395,-1.9826576709747314,0.9154075980186462,-9.733817100524902,-0.08106691172332409,0.1683665477452284,0.16933646159615434,1.0006561279296875,6.641635894775391,0.8816722631454468
1730865956.9837236,-1.9989776611328125,0.9727869033813477,-9.810914993286133,-0.10088329627507649,0.12110106239333172,0.11848310138019898,1.0022233724594116,6.640391826629639,0.8810834288597107
1730865957.033659,-1.9968469142913818,1.0430967807769775,-9.891023635864258,-0.11048022962463239,0.05110579033882727,0.05073186512816853,1.0039445161819458,6.641289710998535,0.8825873732566833
1730865957.083661,-1.9078164100646973,1.1033395528793335,-9.982389450073242,-0.10782538091024113,-0.024517387004545463,-0.02118141042033707,1.0054045915603638,6.642226696014404,0.884138822555542
1730865957.1336153,-1.811535358428955,1.1505705118179321,-10.037453651428223,-0.0908108292036946,-0.08930876588226917,-0.08495049659853324,1.0064970254898071,6.640685081481934,0.8829637169837952
1730865957.1835968,-1.684177279472351,1.158101201057434,-10.068291664123535,-0.05688817024179519,-0.13307926068089265,-0.13285349501574575,1.0077403783798218,6.640642166137695,0.8834829330444336
1730865957.2335598,-1.607757568359375,1.1402833461761475,-10.083259582519531,-0.007044083676078297,-0.15220775752497923,-0.16113798754866174,1.0089006423950195,6.64024543762207,0.8836351633071899
1730865957.2836456,-1.5794684886932373,1.0847864151000977,-10.054425239562988,0.05217214233689788,-0.14607389504747922,-0.16707979984476065,1.0101245641708374,6.639472484588623,0.8833771347999573
1730865957.3335211,-1.6266781091690063,1.0333889722824097,-10.00820255279541,0.11157122231013981,-0.11640692260814203,-0.15042461085825096,1.0121536254882812,6.631290435791016,0.884399950504303
1730865957.3835816,-1.7076492309570312,0.985153317451477,-9.948284149169922,0.16131509832092059,-0.0688459721591904,-0.11553542309443732,1.0162029266357422,6.623199462890625,0.8861589431762695
1730865957.4335127,-1.7534598112106323,0.9991579055786133,-9.872818946838379,0.18943650660204264,-0.013731336226143084,-0.0698826603480604,1.0189733505249023,6.619478702545166,0.8865031599998474
1730865957.4836228,-1.761965274810791,1.019677996635437,-9.80775260925293,0.1846822883098563,0.03491118267444159,-0.021229300449220476,1.0222177505493164,6.615779399871826,0.8867334127426147
1730865957.5335631,-1.7332777976989746,1.0601274967193604,-9.740081787109375,0.14531194851711982,0.06376229024608371,0.024937970923461557,1.0258437395095825,6.612234115600586,0.8869660496711731
1730865957.5835302,-1.7360866069793701,1.0578792095184326,-9.706241607666016,0.08305221797328007,0.06588530262881169,0.06715998295874939,1.0297943353652954,6.608814239501953,0.8873170614242554
1730865957.633568,-1.7078824043273926,1.0534155368804932,-9.675688743591309,0.017263748976631008,0.043326723358462174,0.10722352292432222,1.0210357904434204,6.607953071594238,0.8884899020195007
1730865957.683474,-1.7233083248138428,1.0290294885635376,-9.678693771362305,-0.03428405353562496,0.0059935230707335255,0.14588704768001123,1.022449016571045,6.604965686798096,0.8893897533416748
1730865957.733404,-1.7296462059020996,1.0342074632644653,-9.693284034729004,-0.06190263680349861,-0.031694390318363436,0.1771486267396047,1.025090217590332,6.59251070022583,0.8911526799201965
1730865957.7834828,-1.7782323360443115,1.0552161931991577,-9.738544464111328,-0.06594359532899646,-0.05631251549596225,0.18845876712370002,1.0269101858139038,6.586118221282959,0.8929235339164734
1730865957.833414,-1.8271551132202148,1.1032934188842773,-9.756502151489258,-0.05474208235643034,-0.06193160725079223,0.1699755601968515,1.0285742282867432,6.579596519470215,0.8951367139816284
1730865957.8834038,-1.8970963954925537,1.1459044218063354,-9.80887222290039,-0.04057208580497384,-0.05298313071690608,0.12272245243875589,1.0301183462142944,6.572936058044434,0.8977128863334656
1730865957.933347,-1.9201931953430176,1.1988476514816284,-9.833016395568848,-0.03542837714881643,-0.04094943088290785,0.057345018803597776,1.0285797119140625,6.577453136444092,0.8912312984466553
1730865957.983341,-1.93211030960083,1.2210768461227417,-9.855461120605469,-0.04614040095883463,-0.0371452537581274,-0.011733396824521274,1.0294370651245117,6.573352336883545,0.8918517231941223
1730865958.0332818,-1.8952357769012451,1.1917591094970703,-9.863088607788086,-0.06920877345850632,-0.04518361982048122,-0.07007539317519855,1.0339818000793457,6.560522556304932,0.8906319737434387
1730865958.0833924,-1.8420480489730835,1.143674373626709,-9.883455276489258,-0.09107708123048099,-0.05836015179515934,-0.10599183613505353,1.0359231233596802,6.553020477294922,0.8905221223831177
1730865958.1332362,-1.7618697881698608,1.129366159439087,-9.8805570602417,-0.09644118945388924,-0.06502264294072096,-0.11457048488672374,1.037482738494873,6.544186592102051,0.8898802995681763
1730865958.1833367,-1.694387674331665,1.115341305732727,-9.905627250671387,-0.07725081057422531,-0.05702753163837834,-0.09965604142692211,1.0389875173568726,6.536080837249756,0.889325737953186
1730865958.2332082,-1.6100733280181885,1.094612956047058,-9.931663513183594,-0.03592879507645608,-0.03454334400478567,-0.07145083168761389,1.0403450727462769,6.527892112731934,0.8885597586631775
1730865958.2832747,-1.5418109893798828,1.0807050466537476,-9.972339630126953,0.017750987092205687,-0.004784126855653224,-0.04226362549563907,1.0415513515472412,6.52584981918335,0.8894295692443848
1730865958.3331993,-1.499990701675415,1.0729589462280273,-10.015694618225098,0.07258520657295281,0.023189809717048725,-0.022471148672758737,1.0445009469985962,6.511091709136963,0.8893477320671082
1730865958.383289,-1.4388550519943237,1.0682786703109741,-10.016959190368652,0.11822499922065252,0.04259200228154749,-0.016738010694226656,1.0466129779815674,6.502442359924316,0.8890736103057861
1730865958.4332135,-1.4234479665756226,1.0768064260482788,-10.036955833435059,0.14536645127077846,0.05009108117078057,-0.022248167551987223,1.0493518114089966,6.48757266998291,0.8891171216964722
1730865958.4831707,-1.4432932138442993,1.1116139888763428,-10.005428314208984,0.14912298456537645,0.04576554885841791,-0.03134018445775463,1.05240797996521,6.475795745849609,0.8888306617736816
1730865958.5341525,-1.5085569620132446,1.1484904289245605,-9.962830543518066,0.1308629724779041,0.032105693123385466,-0.03610432769613334,1.055877685546875,6.463910102844238,0.8884524703025818
1730865958.5831633,-1.5824558734893799,1.1850098371505737,-9.87814998626709,0.09496076640913974,0.012057838125960481,-0.03066409460257296,1.051931619644165,6.4802961349487305,0.8889592885971069
1730865958.6341417,-1.7026240825653076,1.1562330722808838,-9.797066688537598,0.046106099712441825,-0.011554136042971536,-0.01189136162015716,1.0537341833114624,6.475170135498047,0.8887302875518799
1730865958.6841717,-1.8434793949127197,1.0966352224349976,-9.701960563659668,-0.010334020169377223,-0.03369576840053595,0.019168165575461367,1.0555579662322998,6.470056533813477,0.8885133266448975
1730865958.7341104,-1.9647480249404907,1.0394996404647827,-9.635427474975586,-0.06938358103286758,-0.04559889512259168,0.05770069490815692,1.057273268699646,6.464870452880859,0.8883931040763855
1730865958.7841659,-2.0362460613250732,0.9632866978645325,-9.589738845825195,-0.12986780281394925,-0.038051660938003815,0.09907816833541637,1.0534894466400146,6.472319602966309,0.889078676700592
1730865958.8331368,-2.0580220222473145,0.9396564364433289,-9.595098495483398,-0.19225358256068337,-0.007572495070302971,0.14004921535851494,1.0537663698196411,6.468891143798828,0.889458417892456
1730865958.8841126,-2.0260348320007324,0.9472898840904236,-9.640368461608887,-0.24841774857792392,0.038515797255410746,0.1733804990852633,1.0551866292953491,6.461523056030273,0.8893486857414246
1730865958.9341154,-1.9630955457687378,1.0134309530258179,-9.721592903137207,-0.27845344752475953,0.08285315343148299,0.18565001596166797,1.0549755096435547,6.457319259643555,0.8901382684707642
1730865958.984118,-1.895137906074524,1.0919886827468872,-9.815616607666016,-0.26385974242172405,0.10635445811673581,0.16524907080322834,1.056782603263855,6.448415279388428,0.8894662261009216
1730865959.0339692,-1.8222602605819702,1.1473636627197266,-9.905097961425781,-0.20206287393534234,0.09777596292327835,0.11141637952564185,1.0564467906951904,6.443127632141113,0.8902531266212463
1730865959.0840662,-1.7455374002456665,1.1361726522445679,-9.956357955932617,-0.10816820066843852,0.0590743309669902,0.03563866860385535,1.059774398803711,6.436680316925049,0.8891016840934753
1730865959.1339521,-1.700907826423645,1.1482601165771484,-10.000899314880371,-0.006800752356021952,0.004743105992149794,-0.04316908732656442,1.060577630996704,6.430390357971191,0.8892813920974731
1730865959.1839936,-1.7207727432250977,1.1174755096435547,-10.020934104919434,0.07786756448345135,-0.045454859926857785,-0.10603165466263631,1.0614724159240723,6.424030303955078,0.8892745971679688
1730865959.233999,-1.7523990869522095,1.134559988975525,-9.988039016723633,0.12900137216686564,-0.07580001236384236,-0.14047680507186439,1.0616035461425781,6.424618721008301,0.8898634314537048
1730865959.2839696,-1.8286563158035278,1.1376848220825195,-9.950651168823242,0.14038126493212127,-0.0803831857743389,-0.14355122537589937,1.062714695930481,6.419743537902832,0.8895710110664368
1730865959.3339097,-1.8731988668441772,1.1633003950119019,-9.883402824401855,0.11596633919700296,-0.06374686566124055,-0.11997549930610739,1.06411612033844,6.410296440124512,0.8912782073020935
1730865959.3839538,-1.87714421749115,1.2097761631011963,-9.829784393310547,0.06683519045482346,-0.03721756839922733,-0.07795829324857836,1.0656538009643555,6.403488636016846,0.8913019895553589
1730865959.43391,-1.8527741432189941,1.2444229125976562,-9.779115676879883,0.00892619580802114,-0.013424666917470697,-0.0270420490547611,1.0656569004058838,6.398897171020508,0.8929503560066223
1730865959.483997,-1.7791498899459839,1.2536530494689941,-9.761033058166504,-0.039567882958798185,-0.0013833150494069473,0.02253397009320732,1.0666985511779785,6.392457008361816,0.8934821486473083
1730865959.5338774,-1.7433054447174072,1.2289862632751465,-9.7857084274292,-0.06377150746910858,-0.0030078226560205194,0.06110589582528001,1.0666263103485107,6.3789262771606445,0.8944622278213501
1730865959.583923,-1.7001326084136963,1.2023404836654663,-9.813427925109863,-0.057830207024646266,-0.012741230117643982,0.08126895219645297,1.067073106765747,6.371351718902588,0.8952528834342957
1730865959.6338441,-1.658395528793335,1.1724835634231567,-9.855494499206543,-0.02693562662654806,-0.021509739081386023,0.07979207288576647,1.0685633420944214,6.354300022125244,0.8962379097938538
1730865959.6838272,-1.589672565460205,1.1396898031234741,-9.88569164276123,0.015838130499409443,-0.02212437945258989,0.058902085752381095,1.0699447393417358,6.337124347686768,0.8976746797561646
1730865959.733828,-1.5081108808517456,1.1046420335769653,-9.922158241271973,0.0563540368342582,-0.012498736490933013,0.025847482864235223,1.0709924697875977,6.325207233428955,0.8988665342330933
1730865959.7838185,-1.4295170307159424,1.1049782037734985,-9.95274543762207,0.08549314359897678,0.0042934493912480335,-0.009508697932644467,1.0722177028656006,6.313288688659668,0.9000779986381531
1730865959.833836,-1.4276865720748901,1.1359474658966064,-9.951932907104492,0.10189439373416573,0.022399795691458932,-0.03875965986204082,1.0736730098724365,6.301444053649902,0.9012250900268555
1730865959.8838398,-1.4848183393478394,1.1582427024841309,-9.916403770446777,0.11024995798255463,0.0359272991177784,-0.05783188066748854,1.0716036558151245,6.3153157234191895,0.898797333240509
1730865959.9337692,-1.5948827266693115,1.1681678295135498,-9.850994110107422,0.11472867486584815,0.04070884094079481,-0.0658801904565084,1.0731159448623657,6.301595211029053,0.8995581269264221
1730865959.9839382,-1.7093874216079712,1.1369863748550415,-9.79179573059082,0.11243609488855155,0.03580610521679319,-0.062321343851344295,1.0744489431381226,6.293147087097168,0.899854302406311
1730865960.0338023,-1.8193243741989136,1.1080282926559448,-9.737626075744629,0.09444839518869239,0.02460185562521751,-0.04628533841106175,1.0751876831054688,6.282039642333984,0.9007877111434937
1730865960.083812,-1.884267807006836,1.1029753684997559,-9.714607238769531,0.05438565897017082,0.013448129414924398,-0.018981508415104032,1.0765520334243774,6.273061275482178,0.9011709690093994
1730865960.1337838,-1.9105286598205566,1.1115912199020386,-9.716594696044922,-0.003530875244973069,0.0074475272070825835,0.014028392519741018,1.0779763460159302,6.264133453369141,0.9015469551086426
1730865960.1837988,-1.9257912635803223,1.116139531135559,-9.744019508361816,-0.06470803967604247,0.007114934009804294,0.043540255175569746,1.0766291618347168,6.258478164672852,0.9021190404891968
1730865960.2337227,-1.9447674751281738,1.1083884239196777,-9.78177261352539,-0.11261726159170318,0.00936420829542367,0.060655840749237196,1.0771231651306152,6.249700546264648,0.9027591943740845
1730865960.28374,-1.942165493965149,1.0875669717788696,-9.824285507202148,-0.13662935669871387,0.011067737485543044,0.0605412332509058,1.0778571367263794,6.239392280578613,0.9019041657447815
1730865960.3336928,-1.9253342151641846,1.0885087251663208,-9.844911575317383,-0.13401231503465083,0.011262320963502995,0.043624947025515295,1.07809317111969,6.2295451164245605,0.902258038520813
1730865960.383695,-1.8715403079986572,1.0781447887420654,-9.8873929977417,-0.10872201911574109,0.010583303630359843,0.015305987613393282,1.0780258178710938,6.219718933105469,0.9026857614517212
1730865960.4336674,-1.8378441333770752,1.0401469469070435,-9.917705535888672,-0.06856555025099975,0.009906597799442394,-0.01619140097854377,1.0777380466461182,6.20995569229126,0.9031108617782593
1730865960.48365,-1.7672381401062012,1.032460331916809,-9.951805114746094,-0.02147492035322847,0.01036162446128156,-0.04414800876969181,1.079849362373352,6.219809532165527,0.8997732996940613
1730865960.5337403,-1.7021394968032837,1.0370874404907227,-9.975760459899902,0.0263740624588627,0.013270761218574489,-0.06577211164500782,1.0801870822906494,6.214171409606934,0.8993314504623413
1730865960.5838394,-1.65043306350708,1.073177456855774,-10.0149564743042,0.06948201054279501,0.018203547744683243,-0.08019977460925262,1.0833300352096558,5.637930870056152,0.8972429037094116
1730865960.6337297,-1.6014059782028198,1.14634108543396,-10.020565032958984,0.10206199963814172,0.021516456345220345,-0.08621655548700816,1.0848287343978882,5.450530052185059,0.8960907459259033
1730865960.6836996,-1.5850491523742676,1.22859787940979,-9.987622261047363,0.11963915686819449,0.01775167604827024,-0.0826868572129911,1.086769938468933,5.089641094207764,0.8950011730194092
1730865960.733647,-1.6096011400222778,1.2526041269302368,-9.945744514465332,0.12078508894800424,0.002945104731219049,-0.06945011481429184,1.0887638330459595,4.856422424316406,0.8936578035354614
1730865960.7837098,-1.665219783782959,1.2559261322021484,-9.857342720031738,0.10652162170715662,-0.021519224665921873,-0.047313378978481285,1.0910568237304688,4.621743679046631,0.8921589255332947
1730865960.8336103,-1.7471556663513184,1.2027697563171387,-9.769553184509277,0.07842246381168208,-0.047564503468954425,-0.01717594953197559,1.0935620069503784,4.388937473297119,0.8905918002128601
1730865960.8836133,-1.8258168697357178,1.1118991374969482,-9.667461395263672,0.03753442549074043,-0.06407236757415063,0.021494968701912205,1.089158058166504,4.633795738220215,0.8931750059127808
1730865960.9335773,-1.8815194368362427,1.0185134410858154,-9.608986854553223,-0.014091130129184469,-0.06219708405909692,0.06927999060123005,1.0902392864227295,4.486396312713623,0.8925999999046326
1730865960.9835758,-1.8734042644500732,0.954424262046814,-9.58102798461914,-0.06928261821704504,-0.03894010400844563,0.12082086629163295,1.0912203788757324,4.225490093231201,0.8918256759643555
1730865961.033538,-1.824157476425171,0.9195178747177124,-9.613903045654297,-0.11438919474191238,0.001278934731934949,0.16229418788763106,1.091939091682434,4.057116508483887,0.8916715383529663
1730865961.0836797,-1.7324042320251465,0.9404146075248718,-9.695297241210938,-0.13460547875652518,0.0472106964701778,0.17800879869344444,1.0923441648483276,3.8892838954925537,0.8919435739517212
1730865961.133535,-1.6441199779510498,0.9858413338661194,-9.814929962158203,-0.1206182163798689,0.08411115797251385,0.1583561475162168,1.0936745405197144,3.7450649738311768,0.8921776413917542
1730865961.1836119,-1.5686087608337402,1.074684739112854,-9.920032501220703,-0.07240007124132579,0.09950686404077155,0.10329755921722114,1.0940799713134766,3.5825207233428955,0.892754852771759
1730865961.2334654,-1.542607307434082,1.151999592781067,-10.003628730773926,-0.0014310173253571472,0.08771570641234601,0.023586950450147356,1.0960575342178345,3.2377772331237793,0.8920984268188477
1730865961.283573,-1.5542049407958984,1.2301385402679443,-10.041191101074219,0.07134610428024826,0.0507548557377507,-0.0614120938460274,1.0971251726150513,3.0078721046447754,0.8921846747398376
1730865961.3333614,-1.6225168704986572,1.2406723499298096,-10.066964149475098,0.12350280036400652,-0.002134398826483617,-0.13047413675191624,1.0984247922897339,2.7800087928771973,0.8920326828956604
1730865961.3834236,-1.7253564596176147,1.2138913869857788,-10.027120590209961,0.13916830211526934,-0.056545040810898,-0.16810405800102277,1.1000611782073975,2.5504720211029053,0.8915070295333862
1730865961.4334004,-1.8377536535263062,1.1672279834747314,-9.96264362335205,0.11249385933683995,-0.09809599350434198,-0.16932215138259038,1.098373293876648,2.8232460021972656,0.891472339630127
1730865961.4834306,-1.8791604042053223,1.118408203125,-9.90227222442627,0.04862398521333271,-0.11729464751654636,-0.13932064939190283,1.0994300842285156,2.6993165016174316,0.8907128572463989
1730865961.5334456,-1.8703622817993164,1.049418330192566,-9.87574577331543,-0.034871990416002016,-0.11072684739673165,-0.08914624246047503,1.1005892753601074,2.3377609252929688,0.8910232782363892
1730865961.5833516,-1.7904411554336548,0.9940613508224487,-9.860814094543457,-0.11059832744430019,-0.08045215644679626,-0.03175175284941336,1.1027089357376099,1.8291559219360352,0.8908964395523071
1730865961.6333067,-1.6464136838912964,0.9628157019615173,-9.86606502532959,-0.15209751516207642,-0.034239482782021824,0.019978906341582912,1.1037558317184448,1.5065184831619263,0.8905353546142578
1730865961.683353,-1.5627888441085815,0.9482263922691345,-9.848698616027832,-0.14500120647885062,0.01516868342187548,0.05525732719670695,1.1044394969940186,1.1814062595367432,0.890265703201294
1730865961.7333167,-1.562458872795105,0.9341247081756592,-9.841981887817383,-0.09069335397352304,0.054784679574777145,0.06879872351319727,1.104826807975769,0.8572470545768738,0.8901517391204834
1730865961.783527,-1.5797141790390015,0.9555282592773438,-9.840194702148438,-0.0038854642586950254,0.07721601751269477,0.06295963289109208,1.1030464172363281,1.3860721588134766,0.8927716016769409
1730865961.8334281,-1.656130313873291,1.0449622869491577,-9.828990936279297,0.0916138491451488,0.0816891973086176,0.0457241077511779,1.1033838987350464,1.2245577573776245,0.893309473991394
1730865961.883437,-1.7408385276794434,1.130565881729126,-9.812065124511719,0.16693573397220096,0.06974669287554246,0.026232172231881814,1.104037880897522,1.0643259286880493,0.893932580947876
1730865961.933372,-1.8037424087524414,1.1793253421783447,-9.80042552947998,0.19522354748282528,0.041395916144974,0.01141003973914235,1.105145812034607,0.9032207131385803,0.8946062922477722
1730865961.9834905,-1.8700915575027466,1.1633671522140503,-9.820185661315918,0.16280143134544833,-0.0035467818135378,0.004755475341803192,1.103384256362915,1.5266306400299072,0.8945534825325012
1730865962.0333447,-1.9134926795959473,1.100498914718628,-9.80792236328125,0.07713429751121997,-0.05993598958875531,0.0061571883228920465,1.1042202711105347,1.4990366697311401,0.8950191736221313
1730865962.083408,-1.9817607402801514,0.9967160820960999,-9.799867630004883,-0.03421673066944479,-0.1123842348358412,0.01252082686635832,1.1035470962524414,1.5971955060958862,0.8960859179496765
1730865962.1332574,-2.009242534637451,0.8998187184333801,-9.762540817260742,-0.13467281557107058,-0.13868937139660142,0.019803145791411417,1.1036489009857178,1.5897325277328491,0.8967923521995544
1730865962.1833553,-2.0146119594573975,0.8520634174346924,-9.732019424438477,-0.19524624695952064,-0.12351615641425903,0.02552239755998065,1.103356122970581,1.6217485666275024,0.897727370262146
1730865962.2332752,-1.9653370380401611,0.8578269481658936,-9.763777732849121,-0.20510379106953197,-0.06995689590029869,0.02939074552907849,1.1032592058181763,1.629366159439087,0.89920574426651
1730865962.2832632,-1.8760980367660522,0.9307280778884888,-9.811843872070312,-0.1704603675630534,0.001236849096733817,0.03106029751817352,1.102474331855774,1.6285107135772705,0.9002450704574585
1730865962.3331802,-1.7786275148391724,1.0387083292007446,-9.875558853149414,-0.10670218017722233,0.06134212033676183,0.027898091578813185,1.1013469696044922,1.627734661102295,0.9013553857803345
1730865962.3832405,-1.7020138502120972,1.1243410110473633,-9.926508903503418,-0.029870745219094892,0.08555231595127157,0.015827743612713698,1.1000455617904663,1.6271392107009888,0.902523934841156
1730865962.4332123,-1.6601722240447998,1.1989141702651978,-9.964488983154297,0.0487000491958625,0.061726367082076475,-0.00822578843165082,1.1033830642700195,1.6337802410125732,0.8989781737327576
1730865962.4832904,-1.6342209577560425,1.2611186504364014,-9.975395202636719,0.12159140636598989,-0.005680937163624243,-0.043538449863149545,1.1034632921218872,1.633935809135437,0.8990886807441711
1730865962.5331616,-1.622498869895935,1.2675787210464478,-9.962905883789062,0.1794092843203285,-0.09498077112054881,-0.08235727930236697,1.104501485824585,1.6349787712097168,0.8984798789024353
1730865962.5832772,-1.639206886291504,1.2061913013458252,-9.937066078186035,0.2092677687461909,-0.17353994432267353,-0.11085917835865655,1.1054151058197021,1.6346770524978638,0.8981499075889587
1730865962.6331246,-1.6860491037368774,1.1449236869812012,-9.880510330200195,0.20225905143678846,-0.21203562181530378,-0.11672241984154362,1.106845498085022,1.6338918209075928,0.8975344300270081
1730865962.6834114,-1.7109571695327759,1.0855287313461304,-9.83228588104248,0.16016074802601493,-0.19656321133049456,-0.09580353007078857,1.1055665016174316,1.6353646516799927,0.8981190919876099
1730865962.7330935,-1.709753394126892,1.0741137266159058,-9.788422584533691,0.09488632364993196,-0.13236834967258035,-0.052777119554583724,1.106613278388977,1.6345990896224976,0.8976371884346008
1730865962.7832174,-1.6724727153778076,1.0828081369400024,-9.795247077941895,0.024668813875948277,-0.04174623241096363,0.000822572278989353,1.1058540344238281,2.1687939167022705,0.8999921083450317
1730865962.8330767,-1.6206578016281128,1.0981696844100952,-9.837224006652832,-0.031082110940341467,0.044216921993545655,0.04960549528996983,1.106343388557434,2.3436503410339355,0.9005122780799866
1730865962.8830912,-1.5427521467208862,1.13316011428833,-9.84755802154541,-0.05833417416639447,0.09923841448161884,0.07941317736474293,1.105959177017212,2.700185537338257,0.9020448923110962
1730865962.933006,-1.5629488229751587,1.1618047952651978,-9.863628387451172,-0.05340822192517221,0.11215713699494553,0.08276520745088743,1.1060301065444946,2.9247381687164307,0.9031029939651489
1730865962.9830446,-1.629149079322815,1.215698003768921,-9.845447540283203,-0.02483662825688107,0.08788593737507053,0.062069643420007314,1.1060031652450562,3.1496503353118896,0.9043427109718323
1730865963.0340078,-1.6967530250549316,1.2590280771255493,-9.838217735290527,0.008794845754347632,0.04101961875525671,0.02842501347262976,1.105954885482788,3.383737087249756,0.9057512283325195
1730865963.084012,-1.7413307428359985,1.2730633020401,-9.82457160949707,0.026719394503136595,-0.012766203146546801,-0.004076050712952381,1.1062555313110352,3.1277804374694824,0.9018850326538086
1730865963.1339903,-1.7646113634109497,1.2583575248718262,-9.81188678741455,0.01660730723718252,-0.06149745276887365,-0.024740868341119923,1.106445074081421,3.2625162601470947,0.9020629525184631
1730865963.1839724,-1.7786732912063599,1.2127102613449097,-9.802888870239258,-0.01831374146249456,-0.09568602915881222,-0.029638395649703587,1.1070085763931274,3.556837797164917,0.9013524651527405
1730865963.233917,-1.8130278587341309,1.14822256565094,-9.807696342468262,-0.061426949844373246,-0.10698075970462886,-0.021352574806879937,1.1071844100952148,3.742488384246826,0.9012557864189148
1730865963.2838762,-1.809478998184204,1.100132703781128,-9.810400009155273,-0.09396544126718248,-0.09139966952070386,-0.006487569156150064,1.107168436050415,3.9291467666625977,0.9011239409446716
1730865963.333905,-1.797210454940796,1.1131501197814941,-9.829365730285645,-0.10544907846784893,-0.052658821480919535,0.007482351750476809,1.1078380346298218,3.968535900115967,0.9010881781578064
1730865963.383851,-1.7991148233413696,1.125964879989624,-9.836786270141602,-0.0958829959269216,-0.0015235827579901402,0.015023177643984628,1.1076542139053345,4.10750675201416,0.901073157787323
1730865963.4338167,-1.7826963663101196,1.1695894002914429,-9.845488548278809,-0.0720435233825456,0.046737546674743426,0.014286841573062165,1.1089075803756714,4.451343059539795,0.9009854197502136
1730865963.4838102,-1.7767739295959473,1.2048052549362183,-9.856528282165527,-0.042695026665297356,0.07669416592340664,0.007070059815915459,1.1090024709701538,4.664444923400879,0.9009901285171509
1730865963.5337822,-1.8129676580429077,1.1983704566955566,-9.851751327514648,-0.015561831507360523,0.07961889850703624,-0.0028454748252515175,1.1098432540893555,4.927821636199951,0.9008689522743225
1730865963.5838563,-1.865580439567566,1.1427628993988037,-9.82577133178711,0.003510879285492135,0.058309124261543506,-0.01151162679023686,1.1101326942443848,5.153295040130615,0.9008127450942993
1730865963.633715,-1.881205439567566,1.0834192037582397,-9.824111938476562,0.010763065970036352,0.02589873547971127,-0.015750482329836384,1.110466480255127,5.3983917236328125,0.9007153511047363
1730865963.68373,-1.863053321838379,1.0553536415100098,-9.826824188232422,0.005329780219704153,-0.00016631636885320374,-0.013777481254115227,1.110838532447815,5.2850470542907715,0.9008508324623108
1730865963.7337158,-1.8265241384506226,1.0528087615966797,-9.850543975830078,-0.009584690347790243,-0.0067120529809234185,-0.006169439102943168,1.1111392974853516,5.434106826782227,0.900783896446228
1730865963.7837036,-1.7715882062911987,1.0776413679122925,-9.877630233764648,-0.026224769863509387,0.007437009960801077,0.00348533084268078,1.1113758087158203,5.572219371795654,0.9007182717323303
1730865963.8336518,-1.7354477643966675,1.0973707437515259,-9.941924095153809,-0.03421441269286139,0.03088068258635089,0.009347303013522178,1.111783504486084,5.720305919647217,0.9007567763328552
1730865963.8837056,-1.689695954322815,1.1317925453186035,-9.966397285461426,-0.025700998997554618,0.04803226591644682,0.006011164001459112,1.1119869947433472,5.882757663726807,0.9007436037063599
1730865963.9335935,-1.6389662027359009,1.1293141841888428,-9.971222877502441,-0.0006061860854146579,0.049004392071362854,-0.007594295494367527,1.1121560335159302,6.044065475463867,0.9007286429405212
1730865963.9836588,-1.6623183488845825,1.1505361795425415,-9.938908576965332,0.033307362717175236,0.03335805034431751,-0.026424823989768004,1.1126991510391235,6.133090019226074,0.9024645090103149
1730865964.0335605,-1.685981035232544,1.114296793937683,-9.907242774963379,0.06521837410536484,0.007875587213355743,-0.04211725433670993,1.1131600141525269,6.286592960357666,0.9027493596076965
1730865964.0836053,-1.7127622365951538,1.098321795463562,-9.828071594238281,0.08513883625536306,-0.017216052150666895,-0.047236841790060415,1.1134611368179321,6.050502777099609,0.9023751020431519
1730865964.1335196,-1.7381293773651123,1.0863145589828491,-9.812661170959473,0.08616063783966293,-0.03208405793398494,-0.03786915271869824,1.1141552925109863,6.084824562072754,0.9022712111473083
1730865964.1835907,-1.7394286394119263,1.1070185899734497,-9.751754760742188,0.06750877247077652,-0.03198636338877184,-0.015394618365207311,1.1141818761825562,5.984262466430664,0.904455840587616
1730865964.2335656,-1.7783422470092773,1.099996566772461,-9.74980354309082,0.03563640180890391,-0.01978681866240147,0.01344370718171833,1.1148433685302734,5.988696098327637,0.9050979018211365
1730865964.2834716,-1.775434136390686,1.1180026531219482,-9.734968185424805,0.0007143739858413746,-0.0031666747428548267,0.03954974327212111,1.1155472993850708,5.9930806159973145,0.9058033227920532
1730865964.3334875,-1.7961090803146362,1.0978853702545166,-9.74190616607666,-0.02844669651374649,0.010485435578715493,0.055439769121558735,1.1145997047424316,5.948459148406982,0.9082737565040588
1730865964.3834748,-1.8024729490280151,1.096219539642334,-9.761283874511719,-0.04716943056949177,0.0172580286747569,0.05789915948294885,1.1147503852844238,5.94694185256958,0.9094150066375732
1730865964.4334664,-1.8615046739578247,1.0873790979385376,-9.789366722106934,-0.05482887479105343,0.0171669245378831,0.04811402234364588,1.1150894165039062,5.929431438446045,0.9121361374855042
1730865964.4834557,-1.8906596899032593,1.113863468170166,-9.796687126159668,-0.05375813433340432,0.012640817910215346,0.02984736099061807,1.1151401996612549,5.9253973960876465,0.9137352705001831
1730865964.533443,-1.8843986988067627,1.1354656219482422,-9.818350791931152,-0.04788711710052084,0.006102466637299448,0.008083068905805266,1.115064024925232,5.921401023864746,0.9153761267662048
1730865964.5834439,-1.8520234823226929,1.1645499467849731,-9.829914093017578,-0.04059362189508977,-0.001775351794335804,-0.011994607338276817,1.1148767471313477,5.917393207550049,0.9170188307762146
1730865964.6334517,-1.8085271120071411,1.176212191581726,-9.861815452575684,-0.032902172562719996,-0.011982716887609896,-0.027003288421055514,1.1154651641845703,5.913464069366455,0.9158270359039307
1730865964.6834452,-1.7181299924850464,1.1627516746520996,-9.876137733459473,-0.023310239630112382,-0.025156442197491247,-0.03653259594266751,1.1154415607452393,5.909500598907471,0.916881263256073
1730865964.7333987,-1.6924563646316528,1.1392431259155273,-9.905946731567383,-0.009027897638541395,-0.03875097274595975,-0.04175274249772529,1.1160125732421875,5.89976167678833,0.918022632598877
1730865964.7834475,-1.6710063219070435,1.1597439050674438,-9.915834426879883,0.011481584349937802,-0.04699672267401897,-0.043537131040215615,1.1161761283874512,5.89402437210083,0.9190140962600708
1730865964.8333828,-1.6623401641845703,1.1732234954833984,-9.910504341125488,0.035595923186851425,-0.04563460168891334,-0.042132359168865444,1.1164137125015259,5.887771129608154,0.9199617505073547
1730865964.8834436,-1.664509892463684,1.188157320022583,-9.918722152709961,0.05663604784088712,-0.03624420304050108,-0.03763497618648834,1.1167417764663696,5.88191556930542,0.9207385778427124
1730865964.933397,-1.6572636365890503,1.1673773527145386,-9.908549308776855,0.06818688616125529,-0.024868353112602114,-0.030570996525698814,1.1166281700134277,5.88522481918335,0.9199504256248474
1730865964.9834638,-1.6591688394546509,1.130024790763855,-9.90406608581543,0.0680684525286655,-0.016913456896587603,-0.022163095144743874,1.1170542240142822,5.881176948547363,0.9204341173171997
1730865965.0333724,-1.6374982595443726,1.1253414154052734,-9.897210121154785,0.058329418197544544,-0.013204715065834795,-0.013775013149102901,1.1171724796295166,5.8721723556518555,0.9222815036773682
1730865965.0834715,-1.6542800664901733,1.1127800941467285,-9.890379905700684,0.04306388179527258,-0.0104134748969913,-0.006275393602575148,1.117677927017212,5.860144138336182,0.9245092272758484
1730865965.1333466,-1.6624219417572021,1.1077226400375366,-9.87459659576416,0.026421470311540088,-0.005228873702467664,-3.05450240281602e-05,1.1181966066360474,5.852633476257324,0.9258119463920593
1730865965.183495,-1.6803877353668213,1.1172305345535278,-9.872438430786133,0.011323473604338021,0.002380565460113178,0.004902976177526946,1.1187680959701538,5.845039367675781,0.92713463306427
1730865965.2333581,-1.6642932891845703,1.1443051099777222,-9.851571083068848,-0.0008358903017648433,0.009585515428899922,0.008827885507068294,1.1181573867797852,5.846096515655518,0.9250144958496094
1730865965.2835011,-1.676072597503662,1.1518168449401855,-9.866317749023438,-0.009630365759499855,0.013025745829212131,0.012250652856614634,1.1183831691741943,5.841324806213379,0.925468921661377
1730865965.3333554,-1.688549518585205,1.173169493675232,-9.839729309082031,-0.015070664341311211,0.010916169886992646,0.015095466200236114,1.1186931133270264,5.831630706787109,0.9253286123275757
1730865965.3832452,-1.7406500577926636,1.1670211553573608,-9.839791297912598,-0.01780852994037218,0.004013423287341496,0.016449605373518594,1.1189311742782593,5.824864387512207,0.9257526397705078
1730865965.4331973,-1.7592371702194214,1.1434805393218994,-9.807424545288086,-0.019648549835848607,-0.004679035420704241,0.015713075979290888,1.1194071769714355,5.8167266845703125,0.9236132502555847
1730865965.4832108,-1.7919294834136963,1.1425443887710571,-9.786770820617676,-0.02299355696627546,-0.011139741834534454,0.013671902105577555,1.1196672916412354,5.809384822845459,0.9233061075210571
1730865965.5332005,-1.8289555311203003,1.1339582204818726,-9.734051704406738,-0.029110896699865406,-0.012478399567612274,0.012299689648415086,1.1198656558990479,5.801927089691162,0.9230276346206665
1730865965.5832748,-1.906752586364746,1.1017496585845947,-9.722082138061523,-0.03777631327056262,-0.008462588304829242,0.014045936658925172,1.1200287342071533,5.800971508026123,0.9219818115234375
1730865965.6332035,-1.9440362453460693,1.0649313926696777,-9.711519241333008,-0.0487344601489767,-0.0006294371780392631,0.020671774164805177,1.120111346244812,5.7947516441345215,0.9216102361679077
1730865965.6832056,-1.954621434211731,1.0486096143722534,-9.747272491455078,-0.06118022337087281,0.009380772821972267,0.030958305636454377,1.1190543174743652,5.784178256988525,0.9206287860870361
1730865965.733109,-1.9300211668014526,1.0519165992736816,-9.785317420959473,-0.07165022792889743,0.020023858915062236,0.03966788071190386,1.1185487508773804,5.775716781616211,0.9201581478118896
1730865965.7832572,-1.8917458057403564,1.0662336349487305,-9.863221168518066,-0.07456456385251115,0.02896283879923835,0.040119135662128096,1.1179085969924927,5.767989635467529,0.9198207259178162
1730865965.8331983,-1.8261340856552124,1.0515388250350952,-9.917787551879883,-0.06483506313150704,0.03305750013862408,0.027452457274003052,1.117071509361267,5.760012626647949,0.9195512533187866
1730865965.8832433,-1.7325536012649536,1.0188775062561035,-9.973783493041992,-0.03957449971949892,0.030440525537274044,-0.00034608176063751113,1.1182384490966797,5.770073413848877,0.9195826053619385
1730865965.9331484,-1.6438817977905273,1.0134690999984741,-9.997303009033203,0.0008047366976813471,0.022587595651458514,-0.041306715689716965,1.1178734302520752,5.765895843505859,0.9192766547203064
1730865965.9832146,-1.6068297624588013,1.0392526388168335,-10.010113716125488,0.05060279856725849,0.013245286435377169,-0.08667592166334276,1.1178230047225952,5.752357482910156,0.9193553924560547
1730865966.0331244,-1.5930547714233398,1.1113393306732178,-9.983500480651855,0.09841723091365229,0.005002930104745586,-0.12175266461936879,1.1177743673324585,5.744645118713379,0.9188124537467957
1730865966.0831685,-1.6152253150939941,1.2080261707305908,-9.939994812011719,0.1310177890797386,-0.0032237850457601325,-0.13317376471965742,1.1175745725631714,5.738439559936523,0.918877899646759
1730865966.1329873,-1.6628810167312622,1.2549554109573364,-9.904179573059082,0.1387909884489461,-0.015415638601546261,-0.11601507714909705,1.1179018020629883,5.7312116622924805,0.9181032180786133
1730865966.183079,-1.7237470149993896,1.2498868703842163,-9.840123176574707,0.1191948906039992,-0.03375550338821838,-0.07536280172412131,1.1185555458068848,5.723855018615723,0.9170814156532288
1730865966.232996,-1.7540323734283447,1.1959750652313232,-9.810408592224121,0.07677282499577132,-0.05436269260106416,-0.02268476386522339,1.1172741651535034,5.719615459442139,0.9186772704124451
1730865966.282932,-1.7761001586914062,1.1373709440231323,-9.77637004852295,0.021040136101594647,-0.06877378678285437,0.029818946397593287,1.1164873838424683,5.703640937805176,0.9187567830085754
1730865966.3329697,-1.7739691734313965,1.080772876739502,-9.734260559082031,-0.03484998708369107,-0.06915934680125593,0.07211602940313931,1.116320252418518,5.6942458152771,0.9187237024307251
1730865966.3838212,-1.7863746881484985,1.0190056562423706,-9.72805404663086,-0.07647854279215116,-0.05235139660820195,0.09708924703884729,1.1152466535568237,5.68495512008667,0.9186210036277771
1730865966.4338863,-1.7863746881484985,1.0190056562423706,-9.72805404663086,-0.09400187586332227,-0.02124879346677004,0.10231154657917904,1.114476203918457,5.674546241760254,0.9188414216041565
1730865966.4338863,-1.763444423675537,0.9958710074424744,-9.702902793884277,-0.08671789521321904,0.015650798085929177,0.09073268231475805,1.1144378185272217,5.674097537994385,0.918856680393219
1730865966.4838243,-1.7485802173614502,0.980993390083313,-9.72205638885498,-0.06165219291486197,0.047187077734202276,0.06877795307348182,1.1135104894638062,5.664196014404297,0.9192776679992676
1730865966.5338418,-1.7739217281341553,0.9647471904754639,-9.749009132385254,-0.028827899894434697,0.06522982983951114,0.04370356087478848,1.1148539781570435,5.670776844024658,0.9185097813606262
1730865966.5839176,-1.776928424835205,1.0090956687927246,-9.792386054992676,0.002272334971121057,0.06824035941128259,0.02097162332792695,1.1145075559616089,5.6649651527404785,0.9186649322509766
1730865966.6337254,-1.7719019651412964,1.0469619035720825,-9.85647201538086,0.02447061805506267,0.05875256265274817,0.0023742961933654414,1.1144888401031494,5.652528285980225,0.9181169867515564
1730865966.6840096,-1.742720127105713,1.0767850875854492,-9.918389320373535,0.03438922907486401,0.039477625707425905,-0.01370060795149275,1.1143101453781128,5.644294261932373,0.9180371165275574
1730865966.733826,-1.7308605909347534,1.0838773250579834,-9.983128547668457,0.033480959953696106,0.013610570768208508,-0.029883626287344013,1.1143287420272827,5.638571739196777,0.9177910089492798
1730865966.7839155,-1.7244657278060913,1.1198302507400513,-10.016728401184082,0.026831829555109668,-0.013472456531242905,-0.0472136714114304,1.1142884492874146,5.630887508392334,0.917549729347229
1730865966.8337839,-1.6922295093536377,1.1217204332351685,-10.01152515411377,0.01985829055802811,-0.03570826560093731,-0.063782365881719,1.1152317523956299,5.6211090087890625,0.9174867868423462
1730865966.8839517,-1.6949405670166016,1.091368556022644,-10.003122329711914,0.015683588339032536,-0.048959579015537144,-0.07505414475137437,1.115502119064331,5.613397121429443,0.9170929789543152
1730865966.9338105,-1.6541407108306885,1.079060673713684,-9.937772750854492,0.014806625919210194,-0.051316903831405164,-0.07600859777703012,1.1161667108535767,5.6055908203125,0.9174075126647949
1730865966.9837117,-1.6971153020858765,1.0559735298156738,-9.882655143737793,0.015934513034501926,-0.04253053583351574,-0.06362883525982753,1.1165659427642822,5.597811222076416,0.9170095920562744
1730865967.0336804,-1.7184339761734009,1.0200108289718628,-9.829143524169922,0.016411681161442426,-0.024606541233015426,-0.03834415212737506,1.117873191833496,5.5871782302856445,0.9174302220344543
1730865967.0837424,-1.7796587944030762,0.9819168448448181,-9.78043270111084,0.012634595640667075,-0.0018772780736560505,-0.004330150845856615,1.1187268495559692,5.576688289642334,0.9172012805938721
1730865967.1336548,-1.7767276763916016,0.9837790727615356,-9.749464988708496,0.0020232332259602455,0.02052176226301477,0.03149110378240458,1.119596004486084,5.56625509262085,0.9170067310333252
1730865967.1838517,-1.7815088033676147,1.03798508644104,-9.75819206237793,-0.01476864160870806,0.03795428645353269,0.06177301909269897,1.1188974380493164,5.570903301239014,0.9176363945007324
1730865967.2337184,-1.7619465589523315,1.1153185367584229,-9.77953052520752,-0.033727995611671,0.04642573435562573,0.08115663847794827,1.1192840337753296,5.56432580947876,0.9178608655929565
1730865967.283684,-1.7306779623031616,1.2181533575057983,-9.794438362121582,-0.04860141597733175,0.04217710461157538,0.08662332779660331,1.1195670366287231,5.557870388031006,0.9182949066162109
1730865967.3336196,-1.73723566532135,1.2622041702270508,-9.825244903564453,-0.05280825092539481,0.021725257599752936,0.07682162468926203,1.1197230815887451,5.551505088806152,0.9189321398735046
1730865967.3837023,-1.7728885412216187,1.2536513805389404,-9.841352462768555,-0.04303063329513612,-0.01642878563262758,0.05278875640908575,1.1199582815170288,5.558503150939941,0.9179003834724426
1730865967.4336104,-1.7957485914230347,1.2329119443893433,-9.852080345153809,-0.022289388576027573,-0.06781856847951495,0.01907098256943902,1.1201368570327759,5.553938388824463,0.9181822538375854
1730865967.4835632,-1.8130037784576416,1.187165379524231,-9.869086265563965,0.0008836987462882175,-0.1183889619221847,-0.016390746293332672,1.1211899518966675,5.538793087005615,0.9177134037017822
1730865967.5335834,-1.8403993844985962,1.1168467998504639,-9.861696243286133,0.0169955298507664,-0.14801147477819376,-0.044426771792911365,1.1216281652450562,5.531205177307129,0.9176680445671082
1730865967.5836523,-1.8365612030029297,1.1099493503570557,-9.855596542358398,0.020578429322856442,-0.14219815225246857,-0.0583231529360512,1.1235756874084473,5.5152692794799805,0.9175370335578918
1730865967.6335382,-1.8015090227127075,1.1125519275665283,-9.858222961425781,0.012579086619727089,-0.1017004511537122,-0.05638008543727733,1.1254419088363647,5.498890399932861,0.91746586561203
1730865967.683565,-1.7416749000549316,1.0947171449661255,-9.853496551513672,-0.0004919394917435004,-0.04190595029241752,-0.042046931382041366,1.1266354322433472,5.487181663513184,0.917210042476654
1730865967.7336876,-1.707353949546814,1.0896289348602295,-9.870576858520508,-0.009718035867202247,0.016008540475943016,-0.022103080531062844,1.127829670906067,5.475305080413818,0.9168698787689209
1730865967.7836096,-1.6856294870376587,1.0882185697555542,-9.87708854675293,-0.007807201955213296,0.055685684792695284,-0.0037891924522863,1.1289819478988647,5.463717460632324,0.9165029525756836
1730865967.833548,-1.6856732368469238,1.1131680011749268,-9.89499282836914,0.007956427245996742,0.07122593687532819,0.007566252499226961,1.1272257566452026,5.478559494018555,0.9173365235328674
1730865967.8835711,-1.6620116233825684,1.1451038122177124,-9.884458541870117,0.034570875986604625,0.06571751553106805,0.009843438258489027,1.1279070377349854,5.471936225891113,0.9172772169113159
1730865967.9334772,-1.6606212854385376,1.1801331043243408,-9.870457649230957,0.06371289756717645,0.04625559373499909,0.004794919901518335,1.129096508026123,5.4587554931640625,0.9173198938369751
1730865967.9834714,-1.653437852859497,1.1797866821289062,-9.851520538330078,0.08482358288938074,0.02010934634267615,-0.0026569214767071638,1.1302766799926758,5.4492034912109375,0.9172760248184204
1730865968.0334425,-1.6758476495742798,1.1824043989181519,-9.821070671081543,0.09033526986811802,-0.0059837377761720704,-0.007087439235759325,1.1316765546798706,5.439661502838135,0.9172199368476868
1730865968.0835173,-1.7237505912780762,1.1566532850265503,-9.81063461303711,0.07869485906253837,-0.02560812678202983,-0.005119030154046224,1.1332895755767822,5.430070400238037,0.9171484708786011
1730865968.1334534,-1.7996176481246948,1.1426687240600586,-9.782665252685547,0.052885673707741165,-0.03403949012829585,0.004061340124093676,1.1308279037475586,5.441949844360352,0.91715407371521
1730865968.1835039,-1.8628112077713013,1.1092867851257324,-9.77823543548584,0.017519933437902306,-0.0299575266952871,0.018983323248156596,1.1316156387329102,5.4365692138671875,0.9171370267868042
1730865968.2334023,-1.8774480819702148,1.0935637950897217,-9.79169750213623,-0.02170339214710517,-0.015696868737444962,0.03548835447703349,1.132873773574829,5.421444416046143,0.9167278409004211
1730865968.2834685,-1.8534674644470215,1.108945369720459,-9.822172164916992,-0.05713876416149098,0.0037015047899162587,0.047195160030934345,1.1343567371368408,5.401312828063965,0.9163299798965454
1730865968.3333826,-1.7973651885986328,1.1064001321792603,-9.855999946594238,-0.08001117063970205,0.021838045589634217,0.04846624561475952,1.135238528251648,5.388729572296143,0.9162887930870056
1730865968.3833833,-1.749116063117981,1.0848197937011719,-9.900351524353027,-0.08306835681011623,0.033067688147389356,0.0374385996082022,1.135916829109192,5.376230239868164,0.916354238986969
1730865968.4334073,-1.6887575387954712,1.0780417919158936,-9.944061279296875,-0.06336259011407673,0.035294852409439255,0.0159787028056605,1.1364163160324097,5.363733291625977,0.9164869785308838
1730865968.4834383,-1.660573959350586,1.0784896612167358,-9.943114280700684,-0.023269714632713365,0.03086814718570271,-0.01249687219861541,1.1357799768447876,5.381045818328857,0.9160414934158325
1730865968.5333052,-1.6808581352233887,1.0688133239746094,-9.9386625289917,0.029542086410191987,0.024260714869475,-0.04369487019887163,1.1369397640228271,5.365267753601074,0.9156911969184875
1730865968.5834394,-1.6925055980682373,1.0484857559204102,-9.91047477722168,0.08140296304259184,0.018964713482469787,-0.0707891935892174,1.1377211809158325,5.356393814086914,0.9153670072555542
1730865968.6333168,-1.7340891361236572,1.0040960311889648,-9.874168395996094,0.11530465920015517,0.016461541196896752,-0.0847385396021724,1.139249563217163,5.3495073318481445,0.9152954816818237
1730865968.6832635,-1.7513102293014526,0.9668171405792236,-9.831408500671387,0.11945936630800225,0.017275367278242686,-0.07895628744417652,1.1406303644180298,5.341695308685303,0.9147968888282776
1730865968.7332773,-1.7555934190750122,0.9132131338119507,-9.825553894042969,0.09426466774775574,0.021767954932160858,-0.05398337807428612,1.1422981023788452,5.333832263946533,0.9141245484352112
1730865968.783267,-1.7511773109436035,0.8991687297821045,-9.808719635009766,0.05120904795610119,0.030098296740198694,-0.01744458047357842,1.1404691934585571,5.329678058624268,0.9150490760803223
1730865968.833155,-1.7669599056243896,0.9138646125793457,-9.811017036437988,0.005979600399096976,0.04169891537280658,0.01998295022426394,1.1413136720657349,5.322253704071045,0.9148146510124207
1730865968.8833268,-1.7647291421890259,0.9623916149139404,-9.817171096801758,-0.028657587398903225,0.05326215039417491,0.04853060312212579,1.1421395540237427,5.314859390258789,0.9146637320518494
1730865968.9331322,-1.774051547050476,0.9942019581794739,-9.836055755615234,-0.0466583191735637,0.05773869025110722,0.06160681413870175,1.1415761709213257,5.311820030212402,0.9151011109352112
1730865968.9830694,-1.7563841342926025,1.0308074951171875,-9.850176811218262,-0.04866866965659201,0.048285249150684315,0.057454113818547155,1.1419469118118286,5.305574417114258,0.9152548909187317
1730865969.0331802,-1.7418923377990723,1.052126407623291,-9.863423347473145,-0.039202549011801535,0.02413848217928062,0.03964999161144828,1.1422127485275269,5.2993245124816895,0.9155332446098328
1730865969.0830772,-1.7634446620941162,1.1164103746414185,-9.859697341918945,-0.02343491286294645,-0.00852614690961049,0.015264738206785228,1.142397403717041,5.29315710067749,0.915877640247345
1730865969.1331055,-1.7613576650619507,1.1499154567718506,-9.857751846313477,-0.005974048134528755,-0.041904313752857775,-0.008286064763777478,1.1428402662277222,5.290528774261475,0.915039598941803
1730865969.1830616,-1.7668864727020264,1.152148723602295,-9.854114532470703,0.00907760562695649,-0.07100052985634013,-0.025586321934735003,1.1443686485290527,5.270325660705566,0.9147657752037048
1730865969.2330203,-1.7597706317901611,1.146106243133545,-9.849930763244629,0.018618052377838715,-0.09194485756266443,-0.033909561732790375,1.1451153755187988,5.2601470947265625,0.9145859479904175
1730865969.2830868,-1.7832831144332886,1.1196283102035522,-9.831854820251465,0.021395149848926334,-0.09955312495206542,-0.03298134235963002,1.146357774734497,5.25004243850708,0.914557695388794
1730865969.3329446,-1.7911642789840698,1.0579688549041748,-9.824539184570312,0.018113469262395127,-0.08985726353235844,-0.024564284761259682,1.147274374961853,5.240293025970459,0.9143451452255249
1730865969.3830001,-1.793712854385376,1.0126854181289673,-9.833224296569824,0.01078045435389301,-0.0634672316853851,-0.011978657707876782,1.1489218473434448,5.230104923248291,0.9128299951553345
1730865969.432937,-1.7517714500427246,1.0202561616897583,-9.849518775939941,0.0021970136196673984,-0.025755719520048275,0.0005840200259832709,1.1500188112258911,5.220508098602295,0.912226140499115
1730865969.4829564,-1.7155946493148804,1.0792349576950073,-9.881749153137207,-0.003992217734061166,0.01369397037186488,0.009035622917221727,1.151343822479248,5.208834648132324,0.9110468626022339
1730865969.532836,-1.6973638534545898,1.1483683586120605,-9.885079383850098,-0.003997618143157964,0.042471477780390246,0.010612714180337305,1.1525038480758667,5.198378562927246,0.9103204011917114
1730865969.5827827,-1.6990910768508911,1.1914793252944946,-9.90003490447998,0.0035142975265588187,0.05024570988803749,0.0052210057198862955,1.1536667346954346,5.188007831573486,0.9096115827560425
1730865969.6338701,-1.7048535346984863,1.1952179670333862,-9.894710540771484,0.01556330658485638,0.034000547975511705,-0.004293137815768146,1.1548863649368286,5.177462577819824,0.9088844060897827
1730865969.6838133,-1.7279154062271118,1.140415906906128,-9.889106750488281,0.02663154845586457,-0.0009135291886035353,-0.013867502617085288,1.1561158895492554,5.167328357696533,0.9081602096557617
1730865969.7338028,-1.727390170097351,1.0967813730239868,-9.850716590881348,0.03196864530577863,-0.04292944278872653,-0.020143532362870146,1.1532961130142212,5.193365097045898,0.908236026763916
1730865969.7837937,-1.7448590993881226,1.0502889156341553,-9.854978561401367,0.029498958205819437,-0.07782871540088243,-0.021120280092649102,1.1539713144302368,5.188570499420166,0.9075759649276733
1730865969.8337355,-1.7205950021743774,1.0371060371398926,-9.837763786315918,0.02026252317391834,-0.09347538973228314,-0.016580005307785244,1.1559544801712036,5.174829483032227,0.9050458669662476
1730865969.8838043,-1.7044275999069214,1.004769206047058,-9.838481903076172,0.00789449012310197,-0.08448183059233808,-0.008374181150548615,1.1571705341339111,5.166115760803223,0.9037286043167114
1730865969.9337204,-1.6762114763259888,1.0011883974075317,-9.852025985717773,-0.0027310916272956873,-0.05458179093214627,0.00038260116960880854,1.1583880186080933,5.157264709472656,0.9024068713188171
1730865969.9836867,-1.6579885482788086,0.9812003374099731,-9.872231483459473,-0.007223077523049993,-0.014569319943131036,0.0065225861985701685,1.1595916748046875,5.148336887359619,0.9010951519012451
1730865970.0337353,-1.6788157224655151,1.0039273500442505,-9.869159698486328,-0.0032270008935557423,0.023385228588708153,0.007664007824406871,1.1582928895950317,5.153979778289795,0.9023445248603821
1730865970.0836577,-1.7302862405776978,0.9892690777778625,-9.866273880004883,0.008012655364195794,0.050567824598029214,0.0031711154360011557,1.1589806079864502,5.148355484008789,0.9016054272651672
1730865970.1336935,-1.7561147212982178,1.0005706548690796,-9.84821891784668,0.020612598674898213,0.06308128512077063,-0.0048989871324275356,1.1610199213027954,5.13657283782959,0.8992909789085388
1730865970.1836424,-1.7367112636566162,1.0267400741577148,-9.844929695129395,0.026471017357833655,0.06112494289035039,-0.012354012248102536,1.161300539970398,5.117891311645508,0.8960312008857727
1730865970.2335315,-1.7292639017105103,1.0034098625183105,-9.847564697265625,0.021462624340660458,0.04796485382621864,-0.015467267036724276,1.162136435508728,5.1057448387146,0.8938892483711243
1730865970.283596,-1.7082710266113281,1.0320013761520386,-9.856908798217773,0.008942922059328043,0.02906803105351189,-0.013419249113330395,1.1630076169967651,5.093733310699463,0.8917181491851807
1730865970.3336132,-1.7297741174697876,1.0265306234359741,-9.872505187988281,-0.0036188262427692113,0.010619176796151372,-0.00839336114161383,1.1638926267623901,5.0816731452941895,0.8895018696784973
1730865970.3835676,-1.73284912109375,1.026072382926941,-9.879054069519043,-0.01037985499184292,-0.0027885676862765617,-0.003912584745084048,1.1614848375320435,5.104628562927246,0.8934062719345093
1730865970.4335475,-1.7507237195968628,1.0402652025222778,-9.899032592773438,-0.010037294983334923,-0.009549282605792587,-0.0029003224797323774,1.1617158651351929,5.099194526672363,0.892378568649292
1730865970.4835615,-1.7441734075546265,1.067531943321228,-9.886956214904785,-0.0052737049376915,-0.010897423264546152,-0.006157719388123137,1.1619288921356201,5.093707084655762,0.8913342952728271
1730865970.5335526,-1.7646288871765137,1.0706843137741089,-9.89332103729248,-0.00032035660502242793,-0.010067693634323397,-0.01202437097567735,1.1621345281600952,5.088205337524414,0.8902694582939148
1730865970.583584,-1.8092890977859497,1.0768513679504395,-9.85693645477295,0.0011670544711380067,-0.010764419700471189,-0.01751625248403496,1.1641426086425781,5.093606948852539,0.8912364840507507
1730865970.6335008,-1.8451093435287476,1.0780317783355713,-9.835271835327148,-0.003047119843510134,-0.015059168697633879,-0.01976212261302649,1.1647862195968628,5.0893940925598145,0.8903744220733643
1730865970.6835158,-1.8778879642486572,1.068177342414856,-9.794242858886719,-0.013173141070560352,-0.021861940326280686,-0.01677475320760946,1.1668967008590698,5.076812744140625,0.8887584209442139
1730865970.7335863,-1.8792659044265747,1.0619271993637085,-9.761591911315918,-0.026867736727429318,-0.027453545610906235,-0.007886908541922595,1.1677629947662354,5.07056999206543,0.8877090811729431
1730865970.7835293,-1.8781741857528687,1.0342954397201538,-9.767451286315918,-0.039686977515219594,-0.028061215491797742,0.005667046722617607,1.1696187257766724,5.057736396789551,0.8873574137687683
1730865970.8334446,-1.8452465534210205,1.0448501110076904,-9.792409896850586,-0.046572608499501816,-0.02225396081621965,0.020345674176675013,1.1714688539505005,5.0446038246154785,0.8864643573760986
1730865970.8834481,-1.7909832000732422,1.0523160696029663,-9.833215713500977,-0.04385590964976954,-0.011752037982744948,0.03095060081734022,1.1726300716400146,5.034945487976074,0.8857201933860779
1730865970.9334626,-1.7380390167236328,1.0403714179992676,-9.891928672790527,-0.03046539083318667,-0.0005461593663566053,0.03239739503256518,1.1736996173858643,5.025259017944336,0.8850545287132263
1730865970.9834626,-1.6841381788253784,1.027842402458191,-9.939653396606445,-0.007337254097065835,0.0075997101623383944,0.021378351904828185,1.1747146844863892,5.01564884185791,0.8844603896141052
1730865971.0333781,-1.598343849182129,1.0370818376541138,-9.97574520111084,0.024193625488075743,0.011347215187485465,-0.002995163698360638,1.1735386848449707,5.030490398406982,0.8868792653083801
1730865971.083417,-1.5712602138519287,1.0332560539245605,-9.993497848510742,0.06228163161896635,0.01163888721964909,-0.03820040020642847,1.174323320388794,5.025615692138672,0.8867476582527161
1730865971.133399,-1.550557255744934,1.039259433746338,-9.944525718688965,0.10108982546796778,0.010076654513826697,-0.07592949657133559,1.1761244535446167,5.016213417053223,0.8871748447418213
1730865971.1834455,-1.5575945377349854,1.0153611898422241,-9.915091514587402,0.12951969894885684,0.00790397034816419,-0.10270306402715627,1.177715539932251,5.009054183959961,0.8868471384048462
1730865971.233443,-1.6128383874893188,0.9890211224555969,-9.859123229980469,0.13679157285621876,0.006312006807279468,-0.10672703619673769,1.1796249151229858,5.001976490020752,0.8862607479095459
1730865971.283348,-1.700724482536316,0.9786924719810486,-9.800239562988281,0.118290764027074,0.007043154849499153,-0.0844466988631991,1.181857705116272,4.99489688873291,0.8854342103004456
1730865971.3333108,-1.7688379287719727,1.0146944522857666,-9.755945205688477,0.0757562254172041,0.011722984321340852,-0.04033736141121448,1.1780344247817993,5.003653049468994,0.8871057033538818
1730865971.3833656,-1.8208271265029907,1.02140212059021,-9.763900756835938,0.01573628877529299,0.0199356136109322,0.016079203754840093,1.1800702810287476,4.990325450897217,0.887259304523468
1730865971.433279,-1.8217395544052124,1.0340009927749634,-9.765320777893066,-0.049410766760606344,0.028288264899463445,0.07087016106655428,1.1813158988952637,4.9832963943481445,0.887295126914978
1730865971.48329,-1.782911777496338,1.0537012815475464,-9.80487060546875,-0.10203711270136223,0.032115843423019694,0.10788169456915102,1.1846951246261597,4.972961902618408,0.8875178098678589
1730865971.5332751,-1.7525897026062012,1.0612386465072632,-9.85537052154541,-0.1262457439257456,0.028433676661329815,0.11583183362751318,1.1863493919372559,4.964807033538818,0.8879685401916504
1730865971.5832372,-1.7406247854232788,1.1116029024124146,-9.87990665435791,-0.11647049774305804,0.017522198975829593,0.09397122512176984,1.187690258026123,4.956763744354248,0.8886776566505432
1730865971.633259,-1.770524501800537,1.115897536277771,-9.90289306640625,-0.07972286129527803,0.0019750557723595616,0.050951868166902996,1.1887940168380737,4.948692798614502,0.8895727396011353
1730865971.683197,-1.7900440692901611,1.1545110940933228,-9.899785995483398,-0.031223602646640966,-0.015559943275721164,-0.0004618480011566832,1.1886920928955078,4.9607625007629395,0.8877912759780884
1730865971.7331789,-1.8505797386169434,1.163799524307251,-9.896068572998047,0.012202698887292071,-0.0332317987038868,-0.04793537262222165,1.1898690462112427,4.949244022369385,0.8876916170120239
1730865971.783353,-1.8653908967971802,1.1624170541763306,-9.862640380859375,0.03790571097149571,-0.04850810991007393,-0.0811538824675294,1.1909345388412476,4.9426164627075195,0.8875712156295776
1730865971.8332534,-1.84821355342865,1.119704008102417,-9.858514785766602,0.04148460275215943,-0.05709809322623061,-0.09277837183164699,1.1920828819274902,4.935954570770264,0.8872371315956116
1730865971.8832345,-1.8270213603973389,1.114829421043396,-9.805334091186523,0.027833359127115702,-0.05471867460072346,-0.08077578313471827,1.1933279037475586,4.929093360900879,0.8866837024688721
1730865971.9334147,-1.793975830078125,1.0453251600265503,-9.822367668151855,0.007866244810290801,-0.03969033853451216,-0.04946273761649568,1.1920892000198364,4.934486389160156,0.887547492980957
1730865971.9832606,-1.7209333181381226,1.0137131214141846,-9.828447341918945,-0.007016460441615795,-0.013844512909480338,-0.008026671948347868,1.1927896738052368,4.9302167892456055,0.887319028377533
1730865972.0332992,-1.6012029647827148,0.9719731211662292,-9.870986938476562,-0.008802455066514676,0.017578345773071588,0.03134382089369914,1.1943235397338867,4.9192633628845215,0.8876248598098755
1730865972.0832047,-1.5673483610153198,0.9927900433540344,-9.874567985534668,0.0056629215801205866,0.046833902218044926,0.05654078935159805,1.1953709125518799,4.912410259246826,0.8877109289169312
1730865972.133241,-1.5617990493774414,1.0194441080093384,-9.915316581726074,0.03301917754783163,0.06580739327281053,0.060795681021194786,1.196619987487793,4.9042887687683105,0.8877933621406555
1730865972.1831715,-1.576568603515625,1.0584110021591187,-9.886327743530273,0.06290801990115619,0.06855320427011159,0.04599589733488722,1.1979146003723145,4.8970723152160645,0.888043224811554
1730865972.2332606,-1.631142258644104,1.0728533267974854,-9.91388988494873,0.08238161063751603,0.053828880912080414,0.02104526271986034,1.1994086503982544,4.889908313751221,0.8883799910545349
1730865972.283102,-1.7173388004302979,1.079965353012085,-9.86382007598877,0.08180661658398099,0.026078917035507482,-0.0028000734967955397,1.198554515838623,4.892241477966309,0.8878285884857178
1730865972.3331964,-1.82231605052948,1.1077828407287598,-9.826631546020508,0.05776146185904027,-0.006624400287120838,-0.016654884994408654,1.199640154838562,4.8876190185546875,0.8878774642944336
1730865972.383157,-1.8533849716186523,1.1184059381484985,-9.800682067871094,0.01407055734307376,-0.03580967455150113,-0.016727361399538725,1.2015150785446167,4.877036094665527,0.8877278566360474
1730865972.4330823,-1.8954871892929077,1.0949914455413818,-9.761144638061523,-0.03868017202671034,-0.05496421579799373,-0.004506849328598302,1.2029014825820923,4.869898796081543,0.8876875042915344
1730865972.4830406,-1.8989217281341553,1.0262970924377441,-9.779446601867676,-0.08636845426694557,-0.06029371257847263,0.014646317767617942,1.2041163444519043,4.86269998550415,0.8876601457595825
1730865972.5331557,-1.8536771535873413,1.0082930326461792,-9.78778076171875,-0.11635991196376402,-0.05009569069501506,0.0336267419128169,1.205090880393982,4.8552632331848145,0.8876936435699463
1730865972.5831227,-1.783974289894104,1.004658818244934,-9.84261703491211,-0.12174957832549685,-0.02483607582764209,0.04589764283142746,1.203848958015442,4.863152980804443,0.8878602385520935
1730865972.6330674,-1.7528783082962036,1.0574264526367188,-9.855023384094238,-0.10267452247879327,0.010799121757999342,0.047339511930744586,1.207263708114624,4.84262752532959,0.8880756497383118
1730865972.6830595,-1.7219197750091553,1.080628514289856,-9.910914421081543,-0.06556533163845,0.04625423856404311,0.037314026249723076,1.209761381149292,4.828086853027344,0.8901481628417969
1730865972.7331333,-1.704637885093689,1.1132997274398804,-9.919187545776367,-0.021452925308963512,0.06839760437660429,0.018754110749130116,1.2117235660552979,4.815063953399658,0.8912745714187622
1730865972.7830756,-1.6880874633789062,1.1303209066390991,-9.951221466064453,0.017738312564375906,0.06906914086942495,-0.002992695081453736,1.2136659622192383,4.802310943603516,0.8924121260643005
1730865972.8330402,-1.6892642974853516,1.1353075504302979,-9.929433822631836,0.043820690446777,0.04927744088733524,-0.02224970710936132,1.2156987190246582,4.7896199226379395,0.8935257196426392
1730865972.8830557,-1.6928538084030151,1.1137971878051758,-9.93874454498291,0.05467993756551344,0.01701185567727145,-0.03509613528595896,1.2178443670272827,4.777072429656982,0.8945625424385071
1730865972.9329422,-1.7044410705566406,1.0738990306854248,-9.894899368286133,0.053218792184699375,-0.01699598431066257,-0.04015919469565446,1.211350679397583,4.8175249099731445,0.8916502594947815
1730865972.9829872,-1.7288248538970947,1.0470776557922363,-9.854463577270508,0.04432063474626397,-0.042604111680044875,-0.03770418911921021,1.2122001647949219,4.813314914703369,0.8918863534927368
1730865973.0330038,-1.782965898513794,1.0143132209777832,-9.822835922241211,0.03170359576126809,-0.05281827437904461,-0.028293052425332074,1.2131459712982178,4.808980464935303,0.8920397758483887
1730865973.082945,-1.8363450765609741,1.0109021663665771,-9.767317771911621,0.016066797011212473,-0.045480931352049794,-0.012220540421589118,1.2141201496124268,4.805397033691406,0.8930015563964844
1730865973.132889,-1.8869452476501465,0.9894759058952332,-9.760782241821289,-0.003968656369892493,-0.02370130374803359,0.009709810497851967,1.215260624885559,4.799899101257324,0.8934750556945801
1730865973.1829495,-1.8473352193832397,1.0347927808761597,-9.739604949951172,-0.02793078796195178,0.004760300929615381,0.0340495100873279,1.216372013092041,4.7943243980407715,0.8940081000328064
1730865973.232936,-1.816389560699463,1.0465000867843628,-9.774761199951172,-0.05049916502348002,0.0295446133118148,0.054123026003171856,1.2162715196609497,4.7922749519348145,0.8944652676582336
1730865973.2828844,-1.783855676651001,1.0769073963165283,-9.79489803314209,-0.06361197975314531,0.04170852124967187,0.06328852952945102,1.2182081937789917,4.779670238494873,0.8958278894424438
1730865973.3328242,-1.7646828889846802,1.053520679473877,-9.82564926147461,-0.06174716694864463,0.03806262000349049,0.058628273740827935,1.21907377243042,4.77298641204834,0.8967980146408081
1730865973.3828576,-1.7351040840148926,1.0145779848098755,-9.854711532592773,-0.04526042113194246,0.02301416303879464,0.04169823317041267,1.219797134399414,4.766441345214844,0.8978849649429321
1730865973.432912,-1.683071255683899,0.9749651551246643,-9.900102615356445,-0.01928371040318123,0.006521410625338999,0.01676962621623459,1.2204416990280151,4.759915351867676,0.8990480303764343
1730865973.4828544,-1.6453770399093628,0.9578630328178406,-9.910890579223633,0.010387115788920629,-0.0008236061199421814,-0.011790831493687572,1.2210747003555298,4.7534003257751465,0.9002166986465454
1730865973.532847,-1.649688720703125,0.9565423130989075,-9.945751190185547,0.040340367942072713,0.00724244489474022,-0.04106527651592542,1.2217670679092407,4.7469305992126465,0.9013131856918335
1730865973.5828483,-1.6442580223083496,0.9954084157943726,-9.940225601196289,0.06914539028046753,0.030062096707252444,-0.06943634847576621,1.2205793857574463,4.762856483459473,0.8973092436790466
1730865973.632834,-1.6689367294311523,1.0497392416000366,-9.937795639038086,0.09467896806367435,0.059966736649797105,-0.09498863936257691,1.221327781677246,4.759655475616455,0.8973725438117981
1730865973.682793,-1.6859419345855713,1.0834542512893677,-9.915569305419922,0.11156128106818738,0.08410421163669082,-0.11301415287197428,1.2234655618667603,4.751842021942139,0.8982912302017212
1730865973.7328548,-1.71327543258667,1.1262437105178833,-9.893120765686035,0.11231669282578544,0.08954730834094049,-0.11640098695543334,1.2249056100845337,4.747734069824219,0.8982597589492798
1730865973.782775,-1.7269731760025024,1.1472166776657104,-9.872698783874512,0.0931477910782178,0.07084198353785487,-0.10077099199668409,1.226601481437683,4.743833065032959,0.8979557752609253
1730865973.8327966,-1.735066294670105,1.1401067972183228,-9.833118438720703,0.0579908697866985,0.033411324362029204,-0.06845845417088671,1.2253012657165527,4.734579086303711,0.8998404741287231
1730865973.8827624,-1.717958927154541,1.1496965885162354,-9.815305709838867,0.016637750773888352,-0.010311586008404636,-0.027147748305625316,1.2262929677963257,4.729373931884766,0.8999892473220825
1730865973.9327734,-1.6673269271850586,1.18075430393219,-9.812365531921387,-0.01926161878349246,-0.04726949622506071,0.013382679468974503,1.2271803617477417,4.720583438873291,0.90180903673172
1730865973.9827108,-1.718985915184021,1.200554609298706,-9.816550254821777,-0.04002599822052981,-0.06873971997120837,0.04390546575518794,1.2281229496002197,4.713913917541504,0.9025794863700867
1730865974.032757,-1.777178168296814,1.1863377094268799,-9.796299934387207,-0.043062920874150944,-0.07267844844637625,0.05860210321248059,1.2287321090698242,4.7074713706970215,0.9036121964454651
1730865974.0837018,-1.8267006874084473,1.1075407266616821,-9.833602905273438,-0.03531494581339949,-0.06220233273457383,0.05695822866045999,1.229488492012024,4.700448036193848,0.9046502113342285
1730865974.1328225,-1.8129234313964844,1.0744457244873047,-9.833734512329102,-0.02761487418259498,-0.04153164811628883,0.0427405660818377,1.230143427848816,4.693517208099365,0.905778706073761
1730865974.1827915,-1.7848941087722778,1.034195899963379,-9.854951858520508,-0.026161906763981883,-0.013274535204232659,0.02125698832940455,1.2307411432266235,4.686418533325195,0.9070026278495789
1730865974.2327878,-1.7069191932678223,1.0519814491271973,-9.866008758544922,-0.02959706600322199,0.020981959723842855,-0.002635477732678592,1.230469822883606,4.692069053649902,0.9033973217010498
1730865974.2827125,-1.7330290079116821,1.0380792617797852,-9.891645431518555,-0.03202163802320913,0.057890659103887916,-0.02509800180316358,1.2309058904647827,4.687317848205566,0.9035763144493103
1730865974.333654,-1.723747968673706,1.0607243776321411,-9.90710735321045,-0.02867867980932217,0.08999356797985844,-0.04298448747952333,1.232416033744812,4.680082321166992,0.9029561877250671
1730865974.383695,-1.6333900690078735,1.1029419898986816,-9.92292594909668,-0.019495622824545335,0.1072556711512278,-0.05377813184372422,1.233088731765747,4.674924850463867,0.9028177261352539
1730865974.4336932,-1.7185343503952026,1.0912126302719116,-9.885492324829102,-0.006942431457721747,0.10272492899792598,-0.05616017783839464,1.2337298393249512,4.670018196105957,0.9025412201881409
1730865974.4835937,-1.7632367610931396,1.0811116695404053,-9.884361267089844,0.00649114347331854,0.07727487691459185,-0.050109511800953965,1.2338495254516602,4.664120197296143,0.9026943445205688
1730865974.533778,-1.7660847902297974,1.066494345664978,-9.817702293395996,0.017295618563515455,0.039593142358797184,-0.03656199860868662,1.234384536743164,4.6593546867370605,0.9024497866630554
1730865974.583637,-1.76335608959198,1.0730304718017578,-9.786660194396973,0.021630846525057187,0.002185126828579116,-0.01707768407885052,1.2354847192764282,4.650097846984863,0.9027891755104065
1730865974.6336203,-1.755035638809204,1.0663394927978516,-9.755593299865723,0.018598086042838507,-0.024118959467346893,0.006320727792761882,1.2362853288650513,4.643833637237549,0.9027164578437805
1730865974.683558,-1.7797462940216064,1.05051851272583,-9.727736473083496,0.01087223174438473,-0.03427339275858251,0.030431346497580555,1.236748218536377,4.636096954345703,0.9030067920684814
1730865974.7336075,-1.7905184030532837,1.0506978034973145,-9.733460426330566,0.002155145628809424,-0.029660923328138106,0.050536789395006096,1.2374755144119263,4.629123687744141,0.9031684994697571
1730865974.7834837,-1.7196898460388184,1.0897799730300903,-9.776664733886719,-0.004722576935660878,-0.016193723288555787,0.061626015872787765,1.2377578020095825,4.619867324829102,0.9032477140426636
1730865974.8335426,-1.7713710069656372,1.1019127368927002,-9.835098266601562,-0.007873875970874127,-0.0017184325079521562,0.059887788849626325,1.2382819652557373,4.612954139709473,0.9035677909851074
1730865974.8835092,-1.8028919696807861,1.1387075185775757,-9.852670669555664,-0.007440793043750429,0.007038528326144246,0.04416343932219055,1.237033486366272,4.601047515869141,0.9033095836639404
1730865974.9336016,-1.8285831212997437,1.182466745376587,-9.922863006591797,-0.006914094770756919,0.0068682199598482825,0.017122894806300776,1.2369897365570068,4.592691898345947,0.9035464525222778
1730865974.9834633,-1.8077365159988403,1.2220063209533691,-9.935257911682129,-0.010219614035261062,-0.0018768372203022366,-0.01532332717462259,1.2369250059127808,4.584378719329834,0.9037846326828003
1730865975.0335941,-1.8268399238586426,1.19771409034729,-9.958266258239746,-0.01739610523103714,-0.016756359281213353,-0.04645865126003609,1.2368249893188477,4.575977802276611,0.9039468765258789
1730865975.0834959,-1.7553056478500366,1.1827597618103027,-9.942646980285645,-0.02473999143351946,-0.03427948212047162,-0.07142635081821405,1.2366726398468018,4.567552089691162,0.9039607048034668
1730865975.1334362,-1.7702215909957886,1.131227731704712,-9.93575382232666,-0.027684784085916368,-0.05005862931209244,-0.0882364021373187,1.2363345623016357,4.585761547088623,0.9029078483581543
1730865975.1834197,-1.7350672483444214,1.0756663084030151,-9.8892240524292,-0.0230915454553599,-0.05901620558706625,-0.09634402677543472,1.2361361980438232,4.5813164710998535,0.9025194644927979
1730865975.2334309,-1.6980245113372803,1.014807939529419,-9.849322319030762,-0.010711060826409019,-0.05630257593631714,-0.09407170330811851,1.2375743389129639,4.568231582641602,0.9023995995521545
1730865975.2833824,-1.74787175655365,0.9247363805770874,-9.83838939666748,0.006521492447611553,-0.03899746894484274,-0.07861107491235446,1.237910270690918,4.560091018676758,0.9018519520759583
1730865975.3333728,-1.7218077182769775,0.9190731048583984,-9.835184097290039,0.02292089981815088,-0.008305720240527063,-0.05038803629246259,1.2388347387313843,4.550578594207764,0.9022378325462341
1730865975.3833628,-1.710154414176941,0.9689270853996277,-9.809120178222656,0.031968204421123095,0.028966005214296375,-0.016043853681297744,1.2394294738769531,4.541752338409424,0.9018789529800415
1730865975.4333987,-1.6837084293365479,0.9878154993057251,-9.841340065002441,0.030702039854652672,0.06105258526496542,0.014810403434459869,1.2395223379135132,4.536403179168701,0.9022879004478455
1730865975.483403,-1.650559425354004,1.0081390142440796,-9.836055755615234,0.022259736260594982,0.07559975994795426,0.03479304148450624,1.239992380142212,4.529753684997559,0.9022392630577087
1730865975.5333564,-1.6746716499328613,1.0141290426254272,-9.857386589050293,0.013017672150887893,0.06695625417651797,0.04110979075772807,1.2423650026321411,4.5189290046691895,0.9023576378822327
1730865975.5833364,-1.6851810216903687,1.004333734512329,-9.852632522583008,0.007601619176411299,0.04006328839273093,0.035398985039963804,1.244644045829773,4.5066142082214355,0.9023220539093018
1730865975.6333683,-1.5812643766403198,1.044628381729126,-9.859695434570312,0.006996632335098563,0.0067960633210745235,0.02233608552528197,1.246109127998352,4.497554779052734,0.9024125933647156
1730865975.683324,-1.7228114604949951,1.0327458381652832,-9.875347137451172,0.010400702545988644,-0.021388969308660112,0.007457945919383473,1.2475826740264893,4.488558769226074,0.9025394320487976
1730865975.7333395,-1.8088876008987427,1.0366780757904053,-9.752493858337402,0.015558192847274293,-0.038508929694078986,-0.004528135591456228,1.2491031885147095,4.47939920425415,0.9026710987091064
1730865975.7832942,-1.8492463827133179,1.0879586935043335,-9.823813438415527,0.01643959851857694,-0.044673388120642324,-0.009762436429134812,1.2472021579742432,4.489382266998291,0.9021116495132446
1730865975.8332365,-1.8476037979125977,1.0733569860458374,-9.768607139587402,0.005646837000035862,-0.04379881980279399,-0.005725173359808709,1.248110055923462,4.483449459075928,0.90205317735672
1730865975.8832293,-1.7965223789215088,1.0459142923355103,-9.815152168273926,-0.01723272112859762,-0.039711584871698485,0.006615308513556349,1.249723196029663,4.471982002258301,0.90184086561203
1730865975.933179,-1.7969716787338257,1.0425485372543335,-9.871280670166016,-0.04217690267397012,-0.03316638491633862,0.02200901753829688,1.2517821788787842,4.463910102844238,0.9016797542572021
1730865975.9832678,-1.7303887605667114,1.079399585723877,-9.879664421081543,-0.056108431761506726,-0.023535729452250707,0.03296554478505055,1.252846598625183,4.457273006439209,0.9016808271408081
1730865976.0331671,-1.6776671409606934,1.154143214225769,-9.950304985046387,-0.05171285578803873,-0.012967304754779458,0.033499142789981215,1.2537987232208252,4.450460910797119,0.9017640352249146
1730865976.0831647,-1.6643404960632324,1.210000991821289,-9.945380210876465,-0.028838360893506963,-0.007563332298733956,0.021900874506978196,1.2568857669830322,4.447847843170166,0.901620626449585
1730865976.1330926,-1.6949403285980225,1.204162359237671,-9.977410316467285,0.007205456129922596,-0.013651182673283762,0.0007168989966551808,1.2584013938903809,4.441749095916748,0.90167236328125
1730865976.1830785,-1.715383529663086,1.1504161357879639,-9.959513664245605,0.045404752194872985,-0.030889473298336148,-0.024222927507720877,1.2621630430221558,4.4357123374938965,0.901465117931366
1730865976.2331274,-1.7309974431991577,1.0735752582550049,-9.935346603393555,0.07137784753968265,-0.04923152834419387,-0.0451288560715923,1.2651019096374512,4.4242377281188965,0.899594247341156
1730865976.2831085,-1.751832365989685,1.0295008420944214,-9.867960929870605,0.07523777527790575,-0.05543205399507682,-0.054822757923534096,1.267693281173706,4.415961742401123,0.8986650109291077
1730865976.333172,-1.7894331216812134,1.0231446027755737,-9.804779052734375,0.057377486667761685,-0.0429498392437483,-0.048954456081554666,1.2704685926437378,4.407504558563232,0.897599458694458
1730865976.3830342,-1.7807178497314453,0.9962002635002136,-9.770801544189453,0.02611101879705806,-0.015243279662365106,-0.026533798637555187,1.2678475379943848,4.40944766998291,0.8978403806686401
1730865976.4331918,-1.7807178497314453,0.9962002635002136,-9.770801544189453,-0.008052848846111915,0.01820312024245972,0.009416079443718247,1.2692283391952515,4.403974533081055,0.897186815738678
1730865976.4331918,-1.7861945629119873,0.9779112339019775,-9.746031761169434,-0.03577969229802306,0.04700816634076965,0.05007964614158663,1.269271731376648,4.403801918029785,0.8971666097640991
1730865976.4830334,-1.7849152088165283,0.9251965284347534,-9.751386642456055,-0.05072654615802394,0.06366791718098275,0.08244130186010297,1.2705157995224,4.398687362670898,0.8966546058654785
1730865976.5330846,-1.784656286239624,0.8895010352134705,-9.759675979614258,-0.05128754398386081,0.0669277030055518,0.09630385872941168,1.2716882228851318,4.39351224899292,0.8963409066200256
1730865976.583109,-1.7826882600784302,0.8732828497886658,-9.80506706237793,-0.04068521803803449,0.062486454769616645,0.08956728088064453,1.2707085609436035,4.399422645568848,0.8967013359069824
1730865976.6331296,-1.7952266931533813,0.8966658711433411,-9.827330589294434,-0.024840458792528157,0.05833863729836595,0.06699646852659487,1.2715508937835693,4.396164894104004,0.8966566920280457
1730865976.6830444,-1.813761830329895,0.8992002606391907,-9.887080192565918,-0.009845905954240007,0.05768076927538007,0.03610311178565641,1.2723466157913208,4.393064022064209,0.896740734577179
1730865976.7331476,-1.7603381872177124,1.0126773118972778,-9.927574157714844,-6.030262584873734e-05,0.05607909130936374,0.003510228843098125,1.2722179889678955,4.383340358734131,0.8953415155410767
1730865976.7829556,-1.7341268062591553,1.0816811323165894,-9.964619636535645,0.003472455608458677,0.045595279728573905,-0.026860541941050076,1.2747752666473389,4.369133472442627,0.8939586281776428
1730865976.8330567,-1.752147912979126,1.1004984378814697,-9.94594955444336,0.0030437138259430613,0.022104448701452666,-0.05210704580207163,1.2760461568832397,4.361879825592041,0.8931814432144165
1730865976.882986,-1.7777737379074097,1.0999888181686401,-9.936602592468262,0.0014399957483154867,-0.010057503348082553,-0.06771280370713377,1.2781767845153809,4.354010105133057,0.8920513391494751
1730865976.9328961,-1.7552416324615479,1.0999363660812378,-9.89273738861084,-0.0005990249278567109,-0.040302933966703286,-0.0688710933530286,1.279815435409546,4.346195697784424,0.8908969759941101
1730865976.9829338,-1.7443795204162598,1.0299259424209595,-9.859451293945312,-0.0030808965369289974,-0.058343141558980724,-0.054215458076092966,1.2814490795135498,4.338259696960449,0.8895893096923828
1730865977.0329692,-1.738450288772583,0.9913241267204285,-9.821126937866211,-0.004408568486465313,-0.05829981961846295,-0.02680151810528953,1.280335783958435,4.340701103210449,0.8908472657203674
1730865977.0829315,-1.72636079788208,1.0042277574539185,-9.780694961547852,-0.0022105611864177903,-0.03978294218773909,0.007637735021354607,1.2812674045562744,4.33525276184082,0.8901867270469666
1730865977.1329029,-1.7019740343093872,1.0301756858825684,-9.777835845947266,0.004127004526413423,-0.009280383807061109,0.04187406278151691,1.2829822301864624,4.325133323669434,0.8896880149841309
1730865977.1829247,-1.7100615501403809,1.0236696004867554,-9.772236824035645,0.012756702572565599,0.02085587827115094,0.06807308068779999,1.2842997312545776,4.317729473114014,0.8891825079917908
1730865977.2328663,-1.6848812103271484,1.0475960969924927,-9.79813289642334,0.020577247863522802,0.039051611534431256,0.08008182193063283,1.2856639623641968,4.310373783111572,0.8888607621192932
1730865977.282879,-1.6928070783615112,1.0816024541854858,-9.839337348937988,0.024908206431976467,0.040731920929675286,0.07547071676478279,1.287078857421875,4.303149223327637,0.8887343406677246
1730865977.3328586,-1.6839771270751953,1.121504783630371,-9.875795364379883,0.02486394035849464,0.027885627075923236,0.05553838957101709,1.2844618558883667,4.3125481605529785,0.8887779712677002
1730865977.382834,-1.7058701515197754,1.1514695882797241,-9.901827812194824,0.02138774648404434,0.005400227659799585,0.024503754953773077,1.2851459980010986,4.308642864227295,0.8886933326721191
1730865977.4328403,-1.718064785003662,1.188222885131836,-9.899704933166504,0.01575111389815393,-0.020710205735085682,-0.010600546306523784,1.2863746881484985,4.297367572784424,0.8873479962348938
1730865977.4828014,-1.7559535503387451,1.210862636566162,-9.879318237304688,0.00830453246001917,-0.044066067763253815,-0.040690425879180626,1.2873735427856445,4.290493488311768,0.8867340683937073
1730865977.5329611,-1.7530285120010376,1.21330988407135,-9.857230186462402,-0.0010944622707308184,-0.05952969312303774,-0.05751915821946355,1.2883570194244385,4.279764652252197,0.8875303864479065
1730865977.5827668,-1.771667242050171,1.2144695520401,-9.824956893920898,-0.011830184574294193,-0.0645193254060677,-0.0569282684648777,1.2894854545593262,4.270314693450928,0.887189507484436
1730865977.6327608,-1.7904527187347412,1.173574447631836,-9.815088272094727,-0.02214002796198598,-0.05903825967418673,-0.04038843128740296,1.2905755043029785,4.260674953460693,0.886725664138794
1730865977.6826727,-1.791128396987915,1.1400463581085205,-9.794534683227539,-0.0300995748922669,-0.04462844825486993,-0.014040593568976377,1.2924832105636597,4.267778396606445,0.88776034116745
1730865977.732706,-1.7754602432250977,1.096877932548523,-9.804055213928223,-0.03463265070186651,-0.023396666158043686,0.014138101444798185,1.2936073541641235,4.262184143066406,0.8876584768295288
1730865977.7826765,-1.7451756000518799,1.0755596160888672,-9.820162773132324,-0.0349369401320537,0.0016810245318100393,0.03653744845945629,1.2968019247055054,4.253089904785156,0.8879501819610596
1730865977.8326948,-1.7535194158554077,1.0384587049484253,-9.841119766235352,-0.02985610351932169,0.02639576168200119,0.04716231706285291,1.2985378503799438,4.245672225952148,0.8880789875984192
1730865977.8826828,-1.7427948713302612,1.0323339700698853,-9.852581024169922,-0.01948739504295246,0.04631963916001274,0.04356247656652823,1.3002066612243652,4.238368034362793,0.8883207440376282
1730865977.932601,-1.7566986083984375,1.0032477378845215,-9.877225875854492,-0.006735104919203066,0.05854208262060868,0.027926405596542497,1.3018418550491333,4.231199264526367,0.8886514902114868
1730865977.9826145,-1.751990556716919,1.0094205141067505,-9.899985313415527,0.004067303788439204,0.06304960057173983,0.0053103173332077844,1.2978992462158203,4.241016387939453,0.8881890177726746
1730865978.0336628,-1.7626899480819702,1.0143227577209473,-9.914119720458984,0.009753238487648955,0.06219577810865441,-0.018918924445442877,1.2985105514526367,4.237319469451904,0.8882618546485901
1730865978.0835943,-1.7406483888626099,1.0380933284759521,-9.910380363464355,0.009687091515414418,0.05782612199149614,-0.03971737024349675,1.29813551902771,4.223753929138184,0.8882357478141785
1730865978.1336367,-1.7494313716888428,1.0510751008987427,-9.90699577331543,0.005616168611056771,0.04949341420495393,-0.052373942644509716,1.3070605993270874,4.210911273956299,0.8867829442024231
1730865978.1836076,-1.718260645866394,1.0800387859344482,-9.886003494262695,0.0004858939633607788,0.036252113233924965,-0.053935539789167965,1.3106237649917603,4.202209949493408,0.8860799670219421
1730865978.2335746,-1.7213134765625,1.065432071685791,-9.858278274536133,-0.002805146326293868,0.019124746595881023,-0.04448247458834104,1.3142191171646118,4.193492412567139,0.8852463364601135
1730865978.283583,-1.7201809883117676,1.035151481628418,-9.832938194274902,-0.002191952119799056,0.0013654711923578033,-0.026470145596003265,1.3177803754806519,4.184868335723877,0.8843305110931396
1730865978.3336213,-1.7472566366195679,1.0085045099258423,-9.819117546081543,0.0027053083061613203,-0.012583611550086596,-0.003174893203869591,1.3166855573654175,4.196657180786133,0.8852579593658447
1730865978.3834875,-1.7398953437805176,1.0001616477966309,-9.799436569213867,0.0100500209189994,-0.01869351683307917,0.021896782067341906,1.3192145824432373,4.191825866699219,0.8848342299461365
1730865978.4336264,-1.7612855434417725,1.0042710304260254,-9.807564735412598,0.01660488335181747,-0.015667978984813518,0.04429273371007627,1.3164050579071045,4.174822807312012,0.8833334445953369
1730865978.483481,-1.776827335357666,1.0146998167037964,-9.798775672912598,0.019404238070320885,-0.006225062130064369,0.05878294630207246,1.3174632787704468,4.165177822113037,0.8826206922531128
1730865978.5336518,-1.7869014739990234,0.9881681203842163,-9.822782516479492,0.016970544795817753,0.004513012196703375,0.06171711591325772,1.3185703754425049,4.155501842498779,0.8820571899414062
1730865978.5834239,-1.7913928031921387,0.9635969996452332,-9.843122482299805,0.00961552353960522,0.01240370997918841,0.05293454772091939,1.3196996450424194,4.145941734313965,0.8816414475440979
1730865978.6335306,-1.7745351791381836,0.944753110408783,-9.866405487060547,-0.000885960057775591,0.016675522687385994,0.035128004752905936,1.3169095516204834,4.1571125984191895,0.8820376992225647
1730865978.6834292,-1.7401525974273682,0.9377371668815613,-9.902955055236816,-0.011617809172351239,0.01935716515668674,0.012230204443362683,1.317339539527893,4.145251750946045,0.8810815811157227
1730865978.7334626,-1.6854290962219238,0.9745905995368958,-9.937728881835938,-0.018677818024197327,0.022059199092922897,-0.011378319506416613,1.3177289962768555,4.138065338134766,0.8805876970291138
1730865978.783451,-1.6466100215911865,0.9855256676673889,-9.951215744018555,-0.018008389577692255,0.02334632564758922,-0.031401035135595445,1.314826250076294,4.132999897003174,0.8796806931495667
1730865978.8334842,-1.6563363075256348,1.0078275203704834,-9.9380521774292,-0.007595943949687458,0.0198913507758102,-0.04462289874455105,1.3140679597854614,4.126445293426514,0.8789176940917969
1730865978.8833902,-1.7004355192184448,1.0166414976119995,-9.931790351867676,0.009632825302757945,0.010106529132969222,-0.04926150791194311,1.313310980796814,4.119917392730713,0.8780363202095032
1730865978.9333422,-1.7124758958816528,1.0166045427322388,-9.904008865356445,0.025340188702209554,-0.004087608400124658,-0.04456986555608457,1.3126001358032227,4.113420486450195,0.8770416975021362
1730865978.9833767,-1.7484877109527588,0.9874158501625061,-9.873875617980957,0.03005990648876636,-0.0186383912536086,-0.03092906638521995,1.312742829322815,4.117190837860107,0.8785609006881714
1730865979.0333667,-1.7781975269317627,0.9723923206329346,-9.826956748962402,0.019071694674002784,-0.029345110053135386,-0.010222032904384193,1.3135617971420288,4.105994701385498,0.8775748610496521
1730865979.083341,-1.8249285221099854,0.9684796333312988,-9.808510780334473,-0.004725656825032849,-0.03310519064988787,0.013810338446768173,1.3136167526245117,4.099582195281982,0.876973032951355
1730865979.1334617,-1.8077327013015747,0.99198979139328,-9.797586441040039,-0.032562260867521946,-0.02920084672931697,0.0356850758102341,1.3136248588562012,4.093077182769775,0.8764322400093079
1730865979.1833425,-1.7758582830429077,1.0017274618148804,-9.795262336730957,-0.05471609747761542,-0.020169228490944886,0.05014607531030392,1.313524603843689,4.086573123931885,0.8760031461715698
1730865979.2334268,-1.7445600032806396,0.9905624389648438,-9.823312759399414,-0.06455206404605034,-0.010710092117743026,0.0547892761983268,1.314242959022522,4.091158390045166,0.8765255808830261
1730865979.283344,-1.7271696329116821,1.0075136423110962,-9.839427947998047,-0.05979601143758098,-0.0049410848840254745,0.05040026813821293,1.3140865564346313,4.086997985839844,0.8764227628707886
1730865979.3333242,-1.6950007677078247,1.0687576532363892,-9.858665466308594,-0.0424693673289485,-0.004616027243982013,0.03922027613216789,1.31380033493042,4.082771301269531,0.8764306902885437
1730865979.3832564,-1.675797462463379,1.0785269737243652,-9.882787704467773,-0.017640713795179737,-0.009936549547248354,0.023482936961610516,1.3134416341781616,4.078561782836914,0.876516580581665
1730865979.4332826,-1.6692519187927246,1.0586843490600586,-9.9091157913208,0.009127332026626526,-0.020772033432588276,0.004898516440591479,1.3062744140625,4.077847003936768,0.8770585656166077
1730865979.4832273,-1.7125009298324585,1.0549372434616089,-9.896411895751953,0.03313657802492996,-0.03560251314543013,-0.014887863978626728,1.3046270608901978,4.073740005493164,0.8771201968193054
1730865979.5331433,-1.7504215240478516,1.0589847564697266,-9.870314598083496,0.049269567173682936,-0.04988488541701664,-0.032564113276780646,1.3030848503112793,4.069535732269287,0.8771229386329651
