Timestamp,IMU_Linear_Acc_X,IMU_Linear_Acc_Y,IMU_Linear_Acc_Z,Filtered_X,Filtered_Y,Filtered_Z,Pose_X,Pose_Y,Pose_Z
1730869619.264412,0.1078934520483017,0.5455120801925659,-10.093385696411133,0.0005205150587302986,-0.0026317375806309672,-0.04869395824134903,1.9600001573562622,0.7689996361732483,1.5579935312271118
1730869619.3145387,-0.02356228604912758,0.6120975613594055,-9.569014549255371,0.002681239820092742,-0.017084117975106314,-0.30762705392869266,1.9600039720535278,0.7689762115478516,1.5575710535049438
1730869619.3644183,-0.1354777067899704,0.4864141047000885,-9.981496810913086,0.0045610006647378715,-0.05118147094029846,-0.8977540236260988,-0.6893051862716675,-0.2705318331718445,-0.549374520778656
1730869619.4145505,-0.21905741095542908,0.4202512204647064,-9.835477828979492,-0.002844851078680138,-0.0952279132050316,-1.642944187200091,-0.4801705777645111,-0.18857991695404053,-0.3849095106124878
1730869619.464454,-0.3439543843269348,0.45764657855033875,-9.856555938720703,-0.03211477091074834,-0.12410025275089062,-2.160121311984949,-0.8178494572639465,-0.32148662209510803,-0.6608486771583557
1730869619.514421,-0.3056859076023102,0.3405626714229584,-10.061245918273926,-0.09071477106380191,-0.1173496560976438,-2.188989271320673,-0.252547949552536,-0.09939044713973999,-0.20691066980361938
1730869619.5643842,-0.3544876277446747,0.4928737282752991,-9.845966339111328,-0.1752659201836657,-0.07228361174178902,-1.7386926936465854,-0.34689390659332275,-0.13675761222839355,-0.29166802763938904
1730869619.6143646,-0.30331718921661377,0.3422285318374634,-10.229007720947266,-0.27189407384554054,-0.0025428547074841136,-1.0140453075855025,-0.4425075352191925,-0.17449872195720673,-0.3804943561553955
1730869619.6643744,-0.18811090290546417,0.43594831228256226,-9.90850830078125,-0.3612576041258898,0.0710812958093753,-0.27616828012627476,-0.5388036966323853,-0.21211108565330505,-0.4708332121372223
1730869619.7143714,-0.429264634847641,0.5449435710906982,-10.449129104614258,-0.4258181289666213,0.13007190729046403,0.27139271810354193,-0.08438154309988022,-0.032895687967538834,-0.07232502102851868
1730869619.7645168,-0.5432526469230652,0.6673744320869446,-9.783607482910156,-0.4591929421162466,0.1613596751404157,0.5369931470246719,-0.10286368429660797,-0.03887731209397316,-0.08673147857189178
1730869619.8142552,-0.5432526469230652,0.6673744320869446,-9.783607482910156,-0.471735256199932,0.15697435462735823,0.543247178089705,-0.028388438746333122,-0.010248912498354912,-0.022678736597299576
1730869619.8142552,-0.5482656955718994,0.533369779586792,-10.301359176635742,-0.4829918882534273,0.11715058434146458,0.3905805449228126,-0.028457768261432648,-0.0102614127099514,-0.02270367182791233
1730869619.8642793,-0.09153520315885544,0.2616714835166931,-9.948772430419922,-0.5050001889215341,0.05588799815317054,0.19382552934915817,-0.03525005653500557,-0.011294313706457615,-0.024655774235725403
1730869619.914511,-0.06106235831975937,0.4395034611225128,-10.200756072998047,-0.5298099316719957,6.291367041415079e-05,0.03152079344654629,-0.043221697211265564,-0.012238848954439163,-0.026290472596883774
1730869619.964255,-0.19601258635520935,0.3536001443862915,-9.961949348449707,-0.5341309857621285,-0.024200199126071114,-0.06345344411506322,-0.007963583804666996,-0.0021205474622547626,-0.0045874216593801975
1730869620.014267,-0.20926164090633392,0.3995128870010376,-9.953245162963867,-0.5010589736334479,-0.007484511869857534,-0.0901663820044574,-0.011131742037832737,-0.0023311260156333447,-0.005074747372418642
1730869620.064211,-0.35506656765937805,0.4327813982963562,-9.896909713745117,-0.43681150663576085,0.04018979963556566,-0.06381244527761692,-0.003991786390542984,-0.0005693415878340602,-0.0014856024645268917
1730869620.1142735,-0.29855233430862427,0.37596988677978516,-9.80644416809082,-0.3663946695384972,0.09844868069776484,-0.0041382825444525925,-0.006380495615303516,-0.00042765267426148057,-0.0017950034234672785
1730869620.1643615,-0.4213408827781677,0.4640572667121887,-9.847981452941895,-0.31714836260533474,0.14758870812713504,0.07039683107273101,-0.0025219032540917397,0.0001382415066473186,-0.0004114740586373955
1730869620.2142992,-0.36005035042762756,0.3875417709350586,-9.797995567321777,-0.3051552945913416,0.17581479424799276,0.14491080107609247,-0.004344863351434469,0.0007413523853756487,-0.00017718745220918208
1730869620.264231,-0.4437577724456787,0.4819522500038147,-9.802705764770508,-0.3308535718352804,0.18090496761160113,0.20875438152520914,-0.007127917371690273,0.0018344428390264511,0.0005050769541412592
1730869620.314575,-0.37357786297798157,0.4376414716243744,-9.818338394165039,-0.3823535837367024,0.16774207220680712,0.255951463257334,-0.0019171724561601877,0.0005713569698855281,0.0004119919613003731
1730869620.3642669,-0.4250602722167969,0.48316341638565063,-9.82990550994873,-0.44222379884246826,0.14428930239153626,0.2849436035854107,-0.004080167040228844,0.0014426163397729397,0.0015971249667927623
1730869620.4142275,-0.34653109312057495,0.47863122820854187,-9.915818214416504,-0.49416979887356405,0.11822918286843158,0.2968586469575321,2.294293165206909,0.8476089239120483,1.6815842390060425
1730869620.4641957,-0.31867319345474243,0.4557795524597168,-9.942465782165527,-0.5249151436408978,0.09486956338520902,0.292515864260947,2.8071954250335693,1.0383957624435425,2.060293436050415
1730869620.514221,-0.2662813663482666,0.4333033561706543,-10.042943954467773,-0.5198794467122367,0.07627837836066541,0.269176532370164,3.333759069442749,1.2349246740341187,2.450662851333618
1730869620.564181,-0.23299379646778107,0.34472090005874634,-10.058757781982422,-0.46397129439286283,0.06264453243318241,0.22141651170129,3.875044584274292,1.4375817775726318,2.85347318649292
1730869620.614117,-0.18231898546218872,0.35684123635292053,-10.1242036819458,-0.35375217252380314,0.05507904410803122,0.14755801513784111,2.4059391021728516,0.8866639733314514,1.7471755743026733
1730869620.6641748,-0.18231898546218872,0.35684123635292053,-10.1242036819458,-0.2063983839907377,0.05543470197491497,0.05562451655678177,2.5012307167053223,0.9225671887397766,1.816069483757019
1730869620.6641748,-0.15568068623542786,0.31649285554885864,-10.116087913513184,-0.05494502373702126,0.062199784543899135,-0.035926790251115955,2.503305435180664,0.9233525395393372,1.8175749778747559
1730869620.7141192,-0.17616447806358337,0.355331689119339,-10.095451354980469,0.06551939381637548,0.0692417588177624,-0.10412362094081533,2.2367584705352783,0.830414354801178,1.6213157176971436
1730869620.7641208,-0.1581648886203766,0.34982651472091675,-10.057096481323242,0.1327647627450148,0.0700952190221715,-0.13260271246066546,2.2574338912963867,0.840593695640564,1.6353236436843872
1730869620.8141174,-0.1581648886203766,0.34982651472091675,-10.057096481323242,0.14482930161422314,0.062034647686572186,-0.11966257093720338,2.2783918380737305,0.8509066700935364,1.648974061012268
1730869620.8141174,-0.16892647743225098,0.3996388912200928,-10.007208824157715,0.11650595861709903,0.04643992357894623,-0.07691443446479261,2.278860569000244,0.8511370420455933,1.64927339553833
1730869620.8640897,-0.14254242181777954,0.4184211194515228,-9.982617378234863,0.06987440218683794,0.026558557326777244,-0.02145653162570334,2.2997195720672607,0.8613800406455994,1.6625088453292847
1730869620.9150932,-0.13830463588237762,0.4332590401172638,-9.94255256652832,0.02531908557644227,0.005017658958785377,0.03217512912222798,5.706520080566406,0.8174283504486084,1.5773274898529053
1730869620.9640899,-0.11191699653863907,0.46656593680381775,-9.960847854614258,-0.003717607319051016,-0.016907295346423396,0.07594677486122514,5.392248630523682,0.82036954164505,1.5690555572509766
1730869621.0140839,-0.14146608114242554,0.47869184613227844,-9.959293365478516,-0.012346868358461556,-0.03879292241278643,0.10757001699920463,5.590742111206055,0.824385404586792,1.5700913667678833
1730869621.0641131,0.05468118563294411,0.5220661759376526,-9.89512825012207,-0.0025076532651070664,-0.06069448928157128,0.12808816183114166,5.075727462768555,0.8275604844093323,1.5657904148101807
1730869621.1150877,0.3344877362251282,0.5938640236854553,-10.008054733276367,0.023308599072784937,-0.08328332186824473,0.14022397791497815,5.078358173370361,0.8314913511276245,1.5666732788085938
1730869621.1650488,-0.25511279702186584,0.48890289664268494,-9.912660598754883,0.06584248270236143,-0.10763094888155146,0.14673132493571797,5.080779552459717,0.8347334861755371,1.5677903890609741
1730869621.2151036,-0.11338786035776138,0.5315729379653931,-10.008140563964844,0.11993044818698381,-0.1332047339791806,0.14913982992345803,4.803761005401611,0.8375298976898193,1.5648047924041748
1730869621.2650502,-0.24424950778484344,0.4756036698818207,-9.934361457824707,0.16643631138542192,-0.1562917355879963,0.14814851162266693,4.760254383087158,0.8408209681510925,1.565645456314087
1730869621.314138,-0.13316096365451813,0.5289860963821411,-9.935802459716797,0.18358037598887797,-0.17199866798715926,0.14476447047355054,4.617280006408691,0.8474070429801941,1.5645297765731812
1730869621.3650184,-0.3333134651184082,0.41595590114593506,-9.979358673095703,0.16294482718990372,-0.17738474036579294,0.14087604180492022,4.551138877868652,0.8514522314071655,1.5653369426727295
1730869621.4150133,-0.2265339195728302,0.4878559112548828,-9.884378433227539,0.11131735158820028,-0.17219519882122036,0.13853527822373718,4.483547210693359,0.855151891708374,1.5665308237075806
1730869621.4650707,-0.3975995182991028,0.4085344970226288,-10.062084197998047,0.04305685911792129,-0.15816788556811884,0.13864621189701287,4.4192094802856445,0.8582758903503418,1.5680127143859863
1730869621.5150208,-0.3501935303211212,0.4475538730621338,-9.841519355773926,-0.027505985943994248,-0.1384909897625515,0.14039533656031764,4.4771409034729,0.8586576581001282,1.5662431716918945
1730869621.5649266,-0.49351710081100464,0.3879776895046234,-10.052953720092773,-0.0909679560526081,-0.11685459806669604,0.14225824781231672,4.440751552581787,0.8608900308609009,1.5673377513885498
1730869621.6149807,-0.45623260736465454,0.40849071741104126,-9.83167839050293,-0.1443780177830924,-0.09619221769403702,0.14358142130510615,4.328686714172363,0.8684487342834473,1.5682239532470703
1730869621.6649673,-0.5646675825119019,0.35740476846694946,-9.988876342773438,-0.1895759209625614,-0.07796988123240073,0.14502037007329274,4.266876220703125,0.8721256256103516,1.5697160959243774
1730869621.714947,-0.4711452126502991,0.3855980634689331,-9.830233573913574,-0.22989094345347963,-0.0622547595267809,0.14812600897082742,4.169308185577393,0.8790308833122253,1.5702617168426514
1730869621.7648966,-0.5227143168449402,0.385802686214447,-9.942237854003906,-0.26682352761129113,-0.04862090635798192,0.15442236486156546,4.0931196212768555,0.883703887462616,1.571988821029663
1730869621.8149183,-0.4155566096305847,0.43601834774017334,-9.85862922668457,-0.2983917013935462,-0.03750859030302231,0.1642929755387983,4.028829574584961,0.8873522877693176,1.5721875429153442
1730869621.8649375,-0.4155566096305847,0.43601834774017334,-9.85862922668457,-0.3199242788888148,-0.030839241869458404,0.1767919578929764,3.964808225631714,0.8910267949104309,1.5738269090652466
1730869621.8649375,-0.4650941789150238,0.452747642993927,-9.92862606048584,-0.3269760803998542,-0.03098965909720091,0.1903130064727411,3.962944269180298,0.8911322355270386,1.5738800764083862
1730869621.914873,-0.35504424571990967,0.492603063583374,-9.933513641357422,-0.3188386839736219,-0.0390989240795072,0.2023579356288534,3.8826122283935547,0.8961938619613647,1.574860692024231
1730869621.9648798,-0.35504424571990967,0.492603063583374,-9.933513641357422,-0.29882694373518504,-0.054509767994340014,0.20922660314143376,3.802152633666992,0.900813102722168,1.5771397352218628
1730869621.9648798,-0.39080652594566345,0.4931141138076782,-9.987191200256348,-0.2715841961670862,-0.07514851119519934,0.2077971126289819,3.8015949726104736,0.9008445143699646,1.5771572589874268
1730869622.0148392,-0.2862735986709595,0.4906461238861084,-10.035412788391113,-0.24173661995437742,-0.09776391182142465,0.19698522246673686,3.716987133026123,0.9054588079452515,1.580069661140442
1730869622.0648448,-0.27709299325942993,0.46406298875808716,-10.05473518371582,-0.21291365032956067,-0.11835855633910791,0.17706020479860862,3.637284278869629,0.9095143675804138,1.5832483768463135
1730869622.1148434,-0.16521671414375305,0.4394601881504059,-10.087590217590332,-0.18564941127978174,-0.13301209802970948,0.14910848688372264,3.5471699237823486,0.9137188792228699,1.5872738361358643
1730869622.164784,-0.1569562554359436,0.41252169013023376,-10.101988792419434,-0.15705879273440526,-0.13864312304597162,0.11539542272045186,0.4735689163208008,0.9007562398910522,1.5771763324737549
1730869622.214835,-0.05708228051662445,0.4127674996852875,-10.099740028381348,-0.12312791196679142,-0.13352897534343874,0.07941152994990362,-0.10572073608636856,0.9019036889076233,1.578594446182251
1730869622.2648041,-0.05244842916727066,0.41748368740081787,-10.113301277160645,-0.08151148349269685,-0.11751747884771119,0.04537280839583463,-0.5980544090270996,0.9025875329971313,1.5799460411071777
1730869622.3148017,0.01233764924108982,0.44552183151245117,-10.064924240112305,-0.03293564095356019,-0.09254461331612178,0.017455160348886382,0.6545369029045105,0.9072096347808838,1.5798850059509277
1730869622.3647866,-0.02614518813788891,0.47080281376838684,-10.068625450134277,0.019089113887688733,-0.0635433555676082,-0.000941456474800104,0.5922286510467529,0.9090251326560974,1.5810234546661377
1730869622.414774,-0.02147853747010231,0.5242586731910706,-9.985130310058594,0.06912574454743568,-0.038056566057917504,-0.007575782323484995,0.5238941311836243,0.910893440246582,1.5822631120681763
1730869622.4647746,-0.1124878078699112,0.5327650308609009,-9.974990844726562,0.11054633125580937,-0.023804265111061318,-0.0013708214233673112,0.9654879570007324,0.9152695536613464,1.5874661207199097
1730869622.514726,-0.15546713769435883,0.5692649483680725,-9.895246505737305,0.1364167858808285,-0.02561286507995099,0.01767178493282332,0.9878653287887573,0.9177283048629761,1.5897002220153809
1730869622.5647717,-0.24237993359565735,0.5423313975334167,-9.885570526123047,0.14091529260367555,-0.04340639445516349,0.04835785060699371,1.009869933128357,0.9200267791748047,1.5919426679611206
1730869622.614699,-0.2793150544166565,0.5436504483222961,-9.812047004699707,0.12118646695727224,-0.07209279265064446,0.08823998849876771,1.1611528396606445,0.9201624989509583,1.5949667692184448
1730869622.6647408,-0.344716340303421,0.4751851558685303,-9.818642616271973,0.07874007030663707,-0.10313054629779608,0.1339097736640947,1.1957201957702637,0.9215284585952759,1.597461223602295
1730869622.7146564,-0.35684722661972046,0.4521704316139221,-9.773009300231934,0.01943762352546595,-0.12698453096138032,0.18142598076446478,1.2307559251785278,0.9226198792457581,1.600375771522522
1730869622.7647333,-0.3977925181388855,0.3900677561759949,-9.797024726867676,-0.04796684914317279,-0.13577625352730927,0.2266885881215562,1.3231092691421509,0.9284692406654358,1.6037412881851196
1730869622.8146884,-0.38800379633903503,0.37161317467689514,-9.806652069091797,-0.11406173242463521,-0.1255012405589147,0.26571866920404047,1.4636025428771973,0.9337766766548157,1.6100132465362549
1730869622.8646278,-0.38800379633903503,0.37161317467689514,-9.806652069091797,-0.17083782483348428,-0.09722447687900602,0.29498777290002276,1.5377923250198364,0.9364963173866272,1.6149730682373047
1730869622.8646278,-0.4286390542984009,0.34603676199913025,-9.85786247253418,-0.21316517692715686,-0.05683413034270118,0.312090468703767,1.5396922826766968,0.9365629553794861,1.6151102781295776
1730869622.9146957,-0.32610222697257996,0.3805190324783325,-9.895587921142578,-0.23945705766400968,-0.013093760324293057,0.31609768605407373,1.62629234790802,0.9403167963027954,1.6175369024276733
1730869622.9647043,-0.36280447244644165,0.3787749409675598,-10.006203651428223,-0.2498173245712959,0.02500199181795068,0.3057868900636404,1.7064461708068848,0.9435677528381348,1.6228303909301758
1730869623.0146692,-0.2781282067298889,0.4385416805744171,-10.06205940246582,-0.24238131610496916,0.0499786637593019,0.2761685776972191,1.7862582206726074,0.9469240307807922,1.6288726329803467
1730869623.0646348,-0.298145592212677,0.4543220102787018,-10.14953899383545,-0.21343208319813678,0.05692385122227942,0.21921690168771052,1.7372404336929321,0.9465892314910889,1.620595932006836
1730869623.1146142,-0.2014612853527069,0.4868931174278259,-10.140596389770508,-0.16259657644669007,0.044981178299347696,0.1328440569121373,1.7817901372909546,0.9489961266517639,1.6235014200210571
1730869623.1646018,-0.22459569573402405,0.49315130710601807,-10.177619934082031,-0.09643735478324222,0.01882482326652754,0.030417705929404088,1.8277592658996582,0.9515794515609741,1.6267293691635132
1730869623.2146137,-0.1507623940706253,0.5147486329078674,-10.117414474487305,-0.026245209598733728,-0.0124973740973451,-0.06170406386502242,1.871285319328308,0.9540426731109619,1.6297610998153687
1730869623.2646334,-0.1507623940706253,0.5147486329078674,-10.117414474487305,0.037159108348847225,-0.039965519861542745,-0.11865603402118882,1.8552281856536865,0.9527955055236816,1.6241228580474854
1730869623.2646334,-0.1754547506570816,0.5064753293991089,-10.12751293182373,0.08641512877954535,-0.05813641290734648,-0.13018394437410902,1.856171727180481,0.9528411030769348,1.6241564750671387
1730869623.3145459,-0.0919613391160965,0.5239108800888062,-10.013066291809082,0.11643877373943753,-0.06497023300589079,-0.10295779457425389,1.8921767473220825,0.9545000791549683,1.6253126859664917
1730869623.3646026,0.02408004179596901,0.4934527575969696,-9.959339141845703,0.12486641741610807,-0.06052150890272619,-0.05303718899337512,1.9929789304733276,0.9638774394989014,1.6279351711273193
1730869623.4146326,0.44406646490097046,0.6216552257537842,-9.900501251220703,0.11794756570246136,-0.047496495766578925,0.003818907215792153,2.0524356365203857,0.9679071307182312,1.629740595817566
1730869623.464552,-0.3446057140827179,0.4110585153102875,-9.8322172164917,0.1095529207881271,-0.03172271486325767,0.055873450465353275,2.1338744163513184,0.9734975099563599,1.6320934295654297
1730869623.5146034,-0.5780960321426392,0.48380061984062195,-9.830026626586914,0.10410534707203858,-0.0190220411829365,0.09463231413680143,2.203824996948242,0.9780889749526978,1.6344698667526245
1730869623.5646496,-0.24416480958461761,0.42293521761894226,-9.885716438293457,0.08842754215224784,-0.011866673149044993,0.11426961241720836,2.1058216094970703,0.9828771352767944,1.632858157157898
1730869623.614602,-0.5593356490135193,0.48532629013061523,-9.866288185119629,0.05064298550700434,-0.010322716856070665,0.11185918132523148,2.12345027923584,0.987700343132019,1.6343872547149658
1730869623.6645615,-0.2235688865184784,0.38897281885147095,-9.939305305480957,-0.004712413388205314,-0.01350832498383826,0.08919245899963357,2.1416139602661133,0.9926244616508484,1.6362098455429077
1730869623.7145762,-0.493733674287796,0.4152463674545288,-9.960298538208008,-0.06371684857935901,-0.01876615281777072,0.05343250532576577,2.078007698059082,0.9909267425537109,1.6283228397369385
1730869623.7645764,-0.270384818315506,0.31749624013900757,-9.952549934387207,-0.11197128375021154,-0.021530225544878632,0.013944698863630247,2.0811073780059814,0.9940190315246582,1.6280895471572876
1730869623.814533,-0.47616541385650635,0.32620108127593994,-9.995917320251465,-0.13628911905227356,-0.017011130080821713,-0.020613531880445173,2.0839407444000244,0.9971160292625427,1.6278432607650757
1730869623.8645835,-0.2300226241350174,0.3602463901042938,-10.000746726989746,-0.12679587174666213,-0.0026228497574634635,-0.043827289367201136,2.0643208026885986,1.0003780126571655,1.623149037361145
1730869623.9145827,-0.46575331687927246,0.30574893951416016,-10.055492401123047,-0.08365977642552079,0.019783083520494755,-0.053740983607698176,2.0638279914855957,1.0039256811141968,1.621787428855896
1730869623.9646077,-0.2414969652891159,0.4153238534927368,-9.991966247558594,-0.02314145755157565,0.04360668802744578,-0.05311231979582573,2.063203811645508,1.007536768913269,1.6202983856201172
1730869624.0145154,-0.3500531017780304,0.35035088658332825,-10.080948829650879,0.028114053370564426,0.0600234119756364,-0.04660942684469708,2.059391498565674,1.0109821557998657,1.6183499097824097
1730869624.0644372,-0.1526309996843338,0.45262014865875244,-9.98288631439209,0.05071882536965698,0.062097182646006166,-0.03807879761443505,2.0570878982543945,1.0205847024917603,1.6142711639404297
1730869624.1144917,-0.1526309996843338,0.45262014865875244,-9.98288631439209,0.04536960251212705,0.048043094998137484,-0.028844158260755683,2.0564589500427246,1.0256649255752563,1.6121442317962646
1730869624.1144917,-0.248490571975708,0.3563973307609558,-10.047439575195312,0.027008746501489565,0.02270935871301032,-0.018416135732047416,2.0564403533935547,1.0258314609527588,1.6120741367340088
1730869624.1646135,-0.031086547300219536,0.4712691009044647,-9.985363960266113,0.00920342905659607,-0.0032753606235034188,-0.008071199818858378,2.0549848079681396,1.0334490537643433,1.6089340448379517
1730869624.214493,-0.14108401536941528,0.4094908535480499,-10.042396545410156,-0.00235170094191733,-0.01904649771632414,-0.0015142705010975752,2.0542187690734863,1.0391656160354614,1.6065454483032227
1730869624.2644749,-0.044336412101984024,0.4881012737751007,-9.973686218261719,-0.0074033457264392356,-0.02017530558858984,-0.0012911464339062041,2.0534236431121826,1.0449541807174683,1.6041021347045898
1730869624.3145707,-0.1675606369972229,0.48266464471817017,-9.995362281799316,-0.009669911817737086,-0.009929171375425351,-0.006449986321817228,2.0528106689453125,1.0468851327896118,1.6070159673690796
1730869624.3644392,-0.10985677689313889,0.526824414730072,-9.923385620117188,-0.014261546752668684,0.003866193745473281,-0.01300050868395544,2.0518789291381836,1.0527479648590088,1.6056065559387207
1730869624.4145014,-0.2773052453994751,0.5313953757286072,-9.898249626159668,-0.02293690180302619,0.012983815415940013,-0.01543940677226474,2.051225423812866,1.059874415397644,1.6039108037948608
1730869624.4644306,-0.2639521062374115,0.5214315056800842,-9.814702033996582,-0.03324009604408147,0.012655811348672242,-0.008837573449531056,2.0492196083068848,1.0716971158981323,1.5997178554534912
1730869624.514425,-0.2639521062374115,0.5214315056800842,-9.814702033996582,-0.041380190182298736,0.0037563453091559243,0.008047274589899012,2.0481114387512207,1.0781179666519165,1.5976605415344238
1730869624.514425,-0.39139747619628906,0.5140902400016785,-9.820317268371582,-0.044719856106193334,-0.00824514167124279,0.030283328014238317,2.0480504035949707,1.0784600973129272,1.5975514650344849
1730869624.5644462,-0.3679974675178528,0.47186270356178284,-9.776712417602539,-0.04420335102762456,-0.01697637748169488,0.0488634542354524,2.046675443649292,1.0858442783355713,1.5952481031417847
1730869624.6144447,-0.46059486269950867,0.46041786670684814,-9.817060470581055,-0.045254024630184464,-0.01804486873408464,0.0568127276256883,2.047703266143799,1.0816737413406372,1.5973516702651978
1730869624.6644163,-0.4178040325641632,0.4423099160194397,-9.858763694763184,-0.05341395922137551,-0.010032887511319435,0.052724502439647616,2.0468404293060303,1.085863709449768,1.596400260925293
1730869624.7145288,-0.48163801431655884,0.43566328287124634,-9.932292938232422,-0.0676783878874751,0.0048500615798003546,0.038604579842019385,2.0457346439361572,1.0948829650878906,1.597661018371582
1730869624.7644405,-0.42646974325180054,0.4545987546443939,-10.01331615447998,-0.07940853055740063,0.021185036608156623,0.016548626973501547,2.04447340965271,1.1011786460876465,1.5973800420761108
1730869624.8143585,-0.35034143924713135,0.4526030421257019,-10.07211685180664,-0.078440734769702,0.0326883386778353,-0.011546955297234967,2.0430264472961426,1.1074864864349365,1.597108006477356
1730869624.86433,-0.25599801540374756,0.4794028103351593,-10.160372734069824,-0.05846578741646126,0.03490770669973155,-0.04338731454181116,2.0413966178894043,1.1139285564422607,1.5967646837234497
1730869624.914467,-0.20289959013462067,0.49902117252349854,-10.140196800231934,-0.01762978934326685,0.026622113487710035,-0.07743887583469046,2.043436288833618,1.106355905532837,1.5970484018325806
1730869624.9643261,-0.12995034456253052,0.5209792256355286,-10.173877716064453,0.040728010701504246,0.009798128770048644,-0.11223934433008839,2.0426716804504395,1.1100815534591675,1.5964664220809937
1730869625.0143218,-0.08869250118732452,0.5528972744941711,-10.097692489624023,0.10535178236483118,-0.01113903432441794,-0.14189415695694557,2.041569232940674,1.9036201238632202,1.596114993095398
1730869625.0642245,-0.08514655381441116,0.5358295440673828,-10.09847354888916,0.15855011562396432,-0.030556990558364458,-0.15531252864019038,2.039748430252075,2.5463414192199707,1.5953937768936157
1730869625.114275,-0.10811126232147217,0.5439248085021973,-10.006184577941895,0.18417758414176716,-0.04328286668933436,-0.14353057712254527,2.0392138957977295,2.8978443145751953,1.5942198038101196
1730869625.1644382,-0.14636175334453583,0.5116181373596191,-9.988195419311523,0.17492732549564105,-0.04612568612558135,-0.10637760584663858,2.0391438007354736,3.2402098178863525,1.5927618741989136
1730869625.2142467,-0.14636175334453583,0.5116181373596191,-9.988195419311523,0.13426238386304767,-0.038860395193009406,-0.05162824119645813,2.039454460144043,3.5809197425842285,1.591115951538086
1730869625.2142467,-0.20502345263957977,0.5053900480270386,-9.924368858337402,0.07393573630799403,-0.024028082134914912,0.00948570989211029,2.0394651889801025,3.5886642932891846,1.5910770893096924
1730869625.2642314,-0.2343730628490448,0.46490660309791565,-9.90329647064209,0.008391534396040894,-0.005490646793225057,0.06671236456481769,2.03813099861145,3.2314932346343994,1.5947240591049194
1730869625.3141487,-0.2587866485118866,0.44963958859443665,-9.84833812713623,-0.050322528028146976,0.013156241844525653,0.11333974014761149,2.0377509593963623,3.4260470867156982,1.5946115255355835
1730869625.364234,-0.26768186688423157,0.41360732913017273,-9.860912322998047,-0.09339831519515598,0.029118478138592117,0.14467309110640766,2.035127878189087,3.9024674892425537,1.59449303150177
1730869625.4141903,-0.28329944610595703,0.4158135950565338,-9.842540740966797,-0.11474935667485917,0.04020149053699306,0.15622342795045266,2.0336484909057617,4.211515426635742,1.5947638750076294
1730869625.4641895,-0.07384730875492096,0.3521116375923157,-9.815855026245117,-0.11194475525956091,0.045158184393552694,0.14623746405034577,2.032837152481079,4.561151027679443,1.593953251838684
1730869625.514162,-0.9992602467536926,0.03196261450648308,-10.004125595092773,-0.09073706525899111,0.04595310959999601,0.11793256341986524,2.031201124191284,4.900645732879639,1.5942933559417725
1730869625.5641782,-0.32424575090408325,0.6061896085739136,-9.749882698059082,-0.07340240927320987,0.048271135137406024,0.07725399597603734,2.0311498641967773,5.104235649108887,1.5934779644012451
1730869625.6141284,-0.22642475366592407,0.2315201461315155,-10.073570251464844,-0.0880080457448742,0.05548557040518454,0.030338230484200816,2.0298099517822266,5.379448413848877,1.5936717987060547
1730869625.6641667,-0.2619904577732086,0.4689963459968567,-9.87574291229248,-0.13538791054983249,0.06679052993512757,-0.01826015592678873,2.0283191204071045,5.631589412689209,1.5938663482666016
1730869625.7141802,-0.2125408798456192,0.3857767581939697,-10.060864448547363,-0.18229127661869246,0.08336478134742471,-0.06702474058264672,2.0284030437469482,5.724974632263184,1.5926411151885986
1730869625.7641308,0.4065982401371002,0.6509146094322205,-10.009475708007812,-0.19009615365424232,0.10540496675444203,-0.11436575553692858,2.0266809463500977,5.94830322265625,1.5922094583511353
1730869625.8141353,0.48739954829216003,0.6203770041465759,-10.024750709533691,-0.13468223585596203,0.12148493599703433,-0.15266594423605745,2.024533271789551,6.174685955047607,1.5914393663406372
1730869625.8641062,-0.5638568997383118,0.38048842549324036,-10.126834869384766,-0.013948665366870661,0.11209994396988951,-0.16911218972230624,2.0221831798553467,6.402903079986572,1.5902564525604248
1730869625.914097,-0.23681864142417908,0.6456557512283325,-9.932780265808105,0.13812197770740064,0.0680580983033652,-0.1556232494318937,2.026743173599243,6.319402694702148,1.5913206338882446
1730869625.96397,-0.47360941767692566,0.42438647150993347,-10.156109809875488,0.2578481784802343,0.0006410965550784943,-0.11657985544985033,2.026556968688965,6.506528854370117,1.5903502702713013
1730869626.0139604,-0.29074254631996155,0.6060695052146912,-9.828850746154785,0.2929524142746235,-0.0645937376945256,-0.06707697697849552,2.0236949920654297,6.960122108459473,1.5905057191848755
1730869626.0639415,-0.48404619097709656,0.3500635027885437,-10.086292266845703,0.2347923448692607,-0.10035152430982942,-0.025165141441346184,2.0234525203704834,7.238284111022949,1.5897578001022339
1730869626.1139054,-0.3387361168861389,0.4156971573829651,-9.744598388671875,0.11430811132559529,-0.0903709297420529,-0.003450801723725024,2.0236449241638184,7.513845443725586,1.5889806747436523
1730869626.163953,-0.5122836828231812,0.2313924878835678,-9.917820930480957,-0.02157416212303002,-0.03544472624003223,-0.0041711097490902405,2.0239531993865967,7.790669918060303,1.5881900787353516
1730869626.213932,-0.33652934432029724,0.278717964887619,-9.780648231506348,-0.1327694921322066,0.05084809427546224,-0.01938246286830329,2.0208542346954346,7.546401023864746,1.5905166864395142
1730869626.2639024,-0.42426598072052,0.21846024692058563,-9.918871879577637,-0.197693429795895,0.14835853049697423,-0.03712723782019553,2.0197341442108154,7.716040134429932,1.5902451276779175
1730869626.3148804,-0.22366178035736084,0.296268492937088,-9.920248985290527,-0.2123632267470032,0.23212928622288426,-0.05013118510163083,2.016115188598633,7.444833755493164,1.5905855894088745
1730869626.364922,-0.2655823528766632,0.3032582998275757,-9.992635726928711,-0.18423813374075626,0.2764992018035514,-0.05907814682533365,2.01371431350708,7.488379001617432,1.5902732610702515
1730869626.4149008,-0.06536281108856201,0.35644611716270447,-10.120227813720703,-0.1274629242519923,0.2667735467104038,-0.06834573331380592,2.0108067989349365,7.534758567810059,1.589786171913147
1730869626.4649897,-0.13872851431369781,0.42738980054855347,-10.10992431640625,-0.058622762170915284,0.2072826742320663,-0.08138490272706309,2.0077261924743652,7.580789089202881,1.5891233682632446
1730869626.5148933,-0.013652604073286057,0.47687265276908875,-10.192092895507812,0.00849309178320505,0.11660291834078508,-0.10043613142861936,2.0042877197265625,7.631627082824707,1.5881404876708984
1730869626.5648208,0.1842741221189499,0.5729753375053406,-10.139307022094727,0.06720024204614378,0.016378424531604298,-0.12667416800027784,2.012099266052246,7.373961448669434,1.5945643186569214
1730869626.6148355,0.37197837233543396,0.6600878238677979,-10.170602798461914,0.11889472738775864,-0.07619130726024355,-0.1576473356026212,2.008673906326294,7.35882568359375,1.598781943321228
1730869626.6648233,-0.28545254468917847,0.5592945218086243,-10.102733612060547,0.1628851314381872,-0.14762135004885932,-0.18387980816597782,2.0072665214538574,7.363614082336426,1.599740743637085
1730869626.7148535,-0.3688538670539856,0.6431666016578674,-9.947708129882812,0.1781775825676829,-0.18476603997418387,-0.18975026562386732,2.004082202911377,7.356876850128174,1.6034371852874756
1730869626.764833,-0.36425814032554626,0.4874691963195801,-9.936192512512207,0.13036824312624798,-0.17865748727797656,-0.16198838163290338,2.002758741378784,7.359744548797607,1.6044549942016602
1730869626.814782,-0.47434017062187195,0.5366589426994324,-9.772720336914062,0.012473734226697283,-0.13166623799607335,-0.10046839548744375,2.0015807151794434,7.362293720245361,1.6051743030548096
1730869626.864742,-0.47434017062187195,0.5366589426994324,-9.772720336914062,-0.13459680091787285,-0.05788987404968046,-0.01970662369814125,1.9996124505996704,7.361067295074463,1.601277470588684
1730869626.864742,-0.40598785877227783,0.31807589530944824,-9.787484169006348,-0.2519295060038111,0.022979834793968187,0.06016769593349095,1.9995591640472412,7.361140727996826,1.6012675762176514
1730869626.9147348,-0.461243599653244,0.3474912941455841,-9.642227172851562,-0.30045217034846006,0.09404055954106127,0.12140400457370769,1.9973623752593994,7.363784313201904,1.601070523262024
1730869626.9647417,-0.4688127934932709,0.2145090103149414,-9.723301887512207,-0.2735418644157747,0.14737322914724735,0.15303307741050698,1.9946695566177368,7.3688483238220215,1.5993870496749878
1730869627.0147772,-0.41959652304649353,0.2594338357448578,-9.666778564453125,-0.19186550682387413,0.1828849112180576,0.1543987071851685,1.9914907217025757,7.375774383544922,1.5981695652008057
1730869627.0647173,-0.4445038437843323,0.19329340755939484,-9.865147590637207,-0.0897531326575719,0.20068568897540523,0.13251055856435776,1.9884860515594482,7.380826950073242,1.5981465578079224
1730869627.1147866,-0.7373690009117126,0.23481538891792297,-9.916964530944824,-0.0013124477210655662,0.1973659237956317,0.09354307786110723,1.9854586124420166,7.3862175941467285,1.598404049873352
1730869627.1647208,-0.5325062274932861,0.32080528140068054,-10.004520416259766,0.047058622804593414,0.1713251626343917,0.038317204033604585,1.9878469705581665,7.395315647125244,1.6012599468231201
1730869627.2147503,-0.8683584332466125,0.18130716681480408,-10.138270378112793,0.04259454681725841,0.127903001946293,-0.032801332074785895,1.9863966703414917,7.401736259460449,1.6020963191986084
1730869627.2647417,-0.6132043600082397,0.4559628665447235,-10.13718032836914,-0.008922079688654093,0.07823160948803165,-0.11134411042715063,1.9876978397369385,7.414857387542725,1.604161262512207
1730869627.3146634,-0.529903769493103,0.37211328744888306,-10.202411651611328,-0.08441613818708914,0.03388186087548396,-0.1795163746795466,1.9867886304855347,7.423788070678711,1.6048736572265625
1730869627.3646507,0.25075048208236694,0.7611945271492004,-10.181550979614258,-0.14686055046993055,0.0006776465125097782,-0.21901493158543192,1.9869428873062134,7.432912349700928,1.6057751178741455
1730869627.4147043,-0.051642823964357376,0.5341111421585083,-10.207615852355957,-0.15559426655740602,-0.0225574944507443,-0.2209198187464798,1.9857385158538818,7.441712379455566,1.6057937145233154
1730869627.464727,-0.023280611261725426,0.6494987607002258,-10.126304626464844,-0.09713915271874063,-0.03689156776599159,-0.1885600789798881,1.9842218160629272,7.450423717498779,1.6053032875061035
1730869627.514676,-0.18953512609004974,0.5078537464141846,-10.118531227111816,-0.008291378906172476,-0.03638618744565493,-0.13349471550841802,1.9825572967529297,7.459131717681885,1.6044020652770996
1730869627.564652,-0.1878119856119156,0.5208674073219299,-9.933708190917969,0.04833947493554558,-0.012577515019361805,-0.0686552943790473,1.9888908863067627,7.457062721252441,1.6071447134017944
1730869627.6146142,-0.32993239164352417,0.4361550509929657,-9.917122840881348,0.03179283558088259,0.035343726608416226,-0.0036190712828921105,1.9914296865463257,7.472010135650635,1.5999350547790527
1730869627.6645994,-0.23495550453662872,0.43866366147994995,-9.740442276000977,-0.05186357377235183,0.0953959312691045,0.05466128961412205,1.9921516180038452,7.480402946472168,1.5978537797927856
1730869627.7146077,-0.3827328681945801,0.39622780680656433,-9.837811470031738,-0.15704700117747974,0.14626606862317493,0.09985985429671546,1.9926414489746094,7.489505767822266,1.5958689451217651
1730869627.7646017,-0.23072780668735504,0.5522676706314087,-9.720727920532227,-0.23028965894381404,0.16839870244547678,0.12828923402524647,1.9926396608352661,7.498721122741699,1.5942251682281494
1730869627.8146267,-0.31816062331199646,0.38141828775405884,-9.77680778503418,-0.24133546349317866,0.15409243531262223,0.1414880438311623,1.992455005645752,7.492552280426025,1.5921756029129028
1730869627.8645885,-0.5327348709106445,0.07261300832033157,-9.980159759521484,-0.19337092935127523,0.1117813489059166,0.14326868836303805,1.9914637804031372,7.500939846038818,1.5907303094863892
1730869627.9145894,-0.81267911195755,0.0248855147510767,-9.893415451049805,-0.11772465482160674,0.06571180941007985,0.13241323970190863,1.994249939918518,7.51206111907959,1.5849145650863647
1730869627.9644902,0.012879322282969952,0.5769516229629517,-9.929242134094238,-0.053934064311660264,0.041657332664799485,0.10276247058173328,1.9944672584533691,7.522571563720703,1.5820261240005493
1730869628.014505,-0.1590835303068161,0.40080586075782776,-9.989840507507324,-0.01341830396843167,0.03974580948868149,0.053903767682867004,1.9945842027664185,7.5322265625,1.5795842409133911
1730869628.0645196,-0.02215275913476944,0.48479321599006653,-10.027571678161621,0.0348266047663109,0.029058829156694995,-0.004035707377387645,1.9947375059127808,7.542629718780518,1.5770331621170044
1730869628.1145124,-0.16357827186584473,0.4128867983818054,-10.076921463012695,0.12959965413571373,-0.022056231194417505,-0.05824605853531748,1.9951022863388062,7.553102970123291,1.5743873119354248
1730869628.1645133,-0.03362886607646942,0.4599606692790985,-10.047686576843262,0.2782164487503218,-0.11820802559632465,-0.1012836794343163,1.9956567287445068,7.534395217895508,1.5830427408218384
1730869628.2144728,-0.1855001449584961,0.5003177523612976,-10.117410659790039,0.450088234200125,-0.23636799063785438,-0.13124829967633167,1.9971370697021484,7.538970470428467,1.5819135904312134
1730869628.264411,-0.08924317359924316,0.4888010621070862,-9.991514205932617,0.5885498943594016,-0.33846979083504514,-0.1470276245295629,1.9999501705169678,7.542871952056885,1.5804188251495361
1730869628.3144786,-0.24138636887073517,0.5659581422805786,-10.102434158325195,0.6339121471770928,-0.3880965596681717,-0.1456438028194206,1.9944015741348267,7.557051181793213,1.5812981128692627
1730869628.3644688,-0.21556830406188965,0.5022178292274475,-9.953360557556152,0.558059129663468,-0.3689745755504164,-0.12513030425543312,1.9967659711837769,7.563348293304443,1.5798135995864868
1730869628.4144242,-0.36538276076316833,0.5271936655044556,-10.023747444152832,0.3839292797986983,-0.2913233942854587,-0.08753230051791508,2.0003108978271484,7.56884241104126,1.5780596733093262
1730869628.4644725,-0.28258585929870605,0.4779786765575409,-9.909087181091309,0.17054438273706812,-0.1815484791581612,-0.03793354624508629,1.9925391674041748,7.57454776763916,1.5795267820358276
1730869628.5144339,-0.38508129119873047,0.46811336278915405,-9.979300498962402,-0.019900044881631912,-0.06889981015547589,0.01626739060347617,1.9932891130447388,7.579603672027588,1.5785914659500122
1730869628.5644076,-0.299216091632843,0.46802058815956116,-9.88668155670166,-0.14696198268014227,0.022572276386418105,0.06404056598038511,1.9882402420043945,7.583980560302734,1.5726665258407593
1730869628.6144288,-0.3233284056186676,0.4105955958366394,-9.958614349365234,-0.19905039707713568,0.07867334477956847,0.09266060261489109,1.9834531545639038,7.593080520629883,1.5663305521011353
1730869628.6643898,-0.2504955232143402,0.453258752822876,-9.894318580627441,-0.18730055476571833,0.0973431383745128,0.09478446321525107,1.98028564453125,7.600276470184326,1.5626996755599976
1730869628.7143471,-0.30094534158706665,0.3659951686859131,-9.917713165283203,-0.1344775293869439,0.0866171014784203,0.07412017808189447,1.9771850109100342,7.6066789627075195,1.559773564338684
1730869628.7643316,-0.2871827185153961,0.42821747064590454,-9.840723037719727,-0.06545984315897926,0.059430847162706475,0.04396374087593703,1.973600149154663,7.613766193389893,1.5567541122436523
1730869628.8142862,-0.35542070865631104,0.3514343500137329,-9.90149211883545,-0.001690206767249446,0.02900398112368396,0.01989082920322892,1.9790101051330566,7.592962265014648,1.5608370304107666
1730869628.8642778,-0.3317696750164032,0.42472490668296814,-9.867466926574707,0.04206022048097133,0.0052478147466164735,0.011589732087722439,1.9775770902633667,7.594533443450928,1.5591639280319214
1730869628.914274,-0.3566541373729706,0.41183048486709595,-9.961210250854492,0.060060464548240634,-0.008348811028983579,0.018407581482855807,1.9762792587280273,7.5960917472839355,1.5575376749038696
1730869628.9642851,-0.26911717653274536,0.458132266998291,-9.967050552368164,0.056102660868315155,-0.01521768963885033,0.030726036938316,1.9751290082931519,7.597616672515869,1.5559767484664917
1730869629.0142837,-0.25526392459869385,0.46567395329475403,-10.059883117675781,0.04104743296793395,-0.02212677598257113,0.035881301229887586,1.973336100578308,7.5833964347839355,1.556138277053833
1730869629.0643196,-0.16504907608032227,0.47995948791503906,-10.036107063293457,0.02786042679217109,-0.03388565352495981,0.02533593911653656,1.9719520807266235,7.58223295211792,1.5548175573349
1730869629.1142476,-0.1818961352109909,0.49024125933647156,-10.08877944946289,0.025601281905300238,-0.04962791044318043,0.0001428147380645728,1.9664804935455322,7.566004276275635,1.5562231540679932
1730869629.1642275,-0.13322819769382477,0.4776763916015625,-10.038074493408203,0.03558376673231765,-0.06321408071482684,-0.02920091901667294,1.9641660451889038,7.561016082763672,1.5556325912475586
1730869629.2142,-0.21470396220684052,0.46460381150245667,-10.051329612731934,0.05189580549517922,-0.06771187746051593,-0.04950751935737738,1.959844708442688,6.821372985839844,1.5558066368103027
1730869629.2642047,-0.18616242706775665,0.4481448233127594,-9.997706413269043,0.0651720432792129,-0.05976404790647427,-0.052328766959487356,1.9541511535644531,6.156929969787598,1.5553476810455322
1730869629.3141732,-0.2497446984052658,0.43442144989967346,-9.974238395690918,0.067659015549903,-0.04104776790363283,-0.0371867308494679,1.9508411884307861,5.804997444152832,1.5547001361846924
1730869629.3641784,-0.20820525288581848,0.42451727390289307,-9.950820922851562,0.05667114487683773,-0.01712766990361031,-0.010569951810216638,1.947680950164795,5.452409267425537,1.5539917945861816
1730869629.414194,-0.24989895522594452,0.4125909209251404,-9.9510498046875,0.03455051524328748,0.005522576692759701,0.018115998397999204,1.9446529150009155,5.101966381072998,1.5532970428466797
1730869629.4641953,-0.20806461572647095,0.44338732957839966,-9.927969932556152,0.006814300413681348,0.022363145244391123,0.041276119853376175,1.947982668876648,5.463833332061768,1.5554386377334595
1730869629.5141282,-0.23380112648010254,0.44708052277565,-9.931146621704102,-0.019835583700208267,0.03146342524295519,0.05540327576430065,1.945937991142273,5.244169235229492,1.5554672479629517
1730869629.5641482,-0.17902357876300812,0.48449182510375977,-9.925861358642578,-0.039275477909540946,0.032507004953308306,0.05994723723510932,1.9459410905838013,4.871099472045898,1.5556713342666626
1730869629.6141462,-0.17700904607772827,0.4796653389930725,-9.948545455932617,-0.047356673655774506,0.026157091409960996,0.055391269087394654,1.9441595077514648,4.580198287963867,1.5558801889419556
1730869629.664176,-0.1574827879667282,0.4930921792984009,-9.913970947265625,-0.043144909211312095,0.014565243925639062,0.04318652589340327,1.942317008972168,4.297463417053223,1.5562039613723755
1730869629.71409,-0.20031830668449402,0.44729697704315186,-9.942980766296387,-0.029547821271662472,0.0017158995768981472,0.026514732575504775,1.9403327703475952,4.0069708824157715,1.5566238164901733
1730869629.764123,-0.20718783140182495,0.4449760615825653,-9.930680274963379,-0.012507459302784171,-0.007587835569585804,0.00964325739733474,1.9432998895645142,4.332468032836914,1.5557163953781128
1730869629.814126,-0.24823498725891113,0.41042768955230713,-9.96306324005127,0.0011744342059053538,-0.009626702090437169,-0.003961553719253379,1.9422388076782227,4.158438205718994,1.5557975769042969
1730869629.8640625,0.01892746053636074,0.4477084279060364,-9.929491996765137,0.0078228585345954,-0.0036983518684508845,-0.012861095391621622,1.940812110900879,3.696147918701172,1.556256890296936
1730869629.914132,0.375313401222229,0.5396974086761475,-10.000935554504395,0.012412585764142546,0.006634148672809276,-0.01754012974956922,1.9374665021896362,3.034357786178589,1.5568040609359741
1730869629.9640977,1.0999963283538818,0.5592364072799683,-10.028501510620117,0.030882658276981785,0.014455330713796708,-0.019911621148525918,1.9355138540267944,2.6289052963256836,1.5570547580718994
1730869630.0140955,0.38623735308647156,0.32562804222106934,-9.951813697814941,0.08100326670477818,0.01491099367681743,-0.021911302003888408,1.933655023574829,2.2132160663604736,1.5572584867477417
1730869630.0640821,-0.8626943826675415,0.1565602719783783,-9.777548789978027,0.15528457709863686,0.013197585056889826,-0.022078165897100342,1.9347234964370728,2.468397617340088,1.5573604106903076
1730869630.1139805,-0.5417092442512512,0.3833976089954376,-9.978901863098145,0.20443146645379273,0.022445242841849934,-0.015440792808329912,1.9342591762542725,2.239042043685913,1.5574655532836914
1730869630.1639624,-0.47051870822906494,0.3292072117328644,-10.011646270751953,0.1806785080837865,0.045579463962339264,-0.002610452234465177,1.9342817068099976,2.0150065422058105,1.5575459003448486
1730869630.2139344,-0.4152568280696869,0.4583543539047241,-9.911552429199219,0.09884316097966245,0.06426076938396824,0.003920400273307729,1.934651494026184,1.7883745431900024,1.557628870010376
1730869630.2639384,-0.47439584136009216,0.353558748960495,-10.086254119873047,0.024713022664573196,0.05369499193186253,-0.010477188351466011,1.9323652982711792,1.9321562051773071,1.5579341650009155
1730869630.3139012,-0.4204567074775696,0.4887968599796295,-9.917679786682129,0.011906427137057042,0.004781900023175216,-0.04826914247077621,1.9318650960922241,1.758452296257019,1.558000922203064
1730869630.3638847,-0.47893449664115906,0.35755661129951477,-10.099011421203613,0.06420286140277598,-0.06867395970347848,-0.0949660043927739,1.9303110837936401,1.388595461845398,1.558396339416504
1730869630.413838,-0.4319919943809509,0.4576731026172638,-9.897680282592773,0.1434729118760594,-0.13893226842967699,-0.1261124875925664,1.9298957586288452,1.1776479482650757,1.5581806898117065
1730869630.4638827,-0.3976081311702728,0.41208887100219727,-10.113984107971191,0.20340384279337753,-0.18118002449008339,-0.1228121337688963,1.9266812801361084,1.4447821378707886,1.558976650238037
1730869630.5138366,-0.35991138219833374,0.4416024684906006,-9.951597213745117,0.2187375965281232,-0.18596711913080194,-0.08340552744602481,1.9239245653152466,1.507021427154541,1.559677004814148
1730869630.5638442,-0.3994829058647156,0.4341471493244171,-10.056684494018555,0.19068765217520967,-0.1591253300017899,-0.022639543994168582,1.9229731559753418,1.4841270446777344,1.5597151517868042
1730869630.6138437,-0.728845477104187,0.32244813442230225,-10.015337944030762,0.13366325613261704,-0.11344594479374079,0.03650731739733252,1.922428846359253,1.4607125520706177,1.5597716569900513
1730869630.663824,-0.3918605446815491,0.41026967763900757,-10.073650360107422,0.060749835416207466,-0.060947427216586705,0.07214044622613824,1.9221402406692505,1.4377517700195312,1.5599594116210938
1730869630.7138052,-0.3918605446815491,0.41026967763900757,-10.073650360107422,-0.01725459220210978,-0.010674342423056813,0.07217788491788679,1.921818494796753,1.5407763719558716,1.5606188774108887
1730869630.7138052,-0.9715763926506042,0.21467170119285583,-10.092498779296875,-0.08786879038935916,0.03069852331318337,0.03912327144423587,1.92180335521698,1.5406467914581299,1.5606290102005005
1730869630.7647066,0.33738580346107483,0.6387474536895752,-9.946311950683594,-0.1402443790324515,0.05917787026124385,-0.01101754931086496,1.921083927154541,1.5359046459197998,1.5609970092773438
1730869630.8147132,-0.21952515840530396,0.4215622544288635,-10.042959213256836,-0.16121182643453671,0.07130323558875055,-0.05491550259209597,1.9196701049804688,1.5506963729858398,1.5614128112792969
1730869630.8647425,0.03926217183470726,0.5335952639579773,-9.846874237060547,-0.13256688716739276,0.06294761453285025,-0.07261957694365159,1.918236255645752,1.5483064651489258,1.5615431070327759
1730869630.9147065,-0.3790297508239746,0.39083391427993774,-10.023076057434082,-0.05203411833567684,0.0350149456557694,-0.05681532067675232,1.916578769683838,1.546000361442566,1.5615289211273193
1730869630.9646554,-0.14871641993522644,0.4967614710330963,-9.749777793884277,0.05131531970809287,-0.002912242084483806,-0.013756228914400046,1.9148471355438232,1.5436264276504517,1.5614296197891235
1730869631.0147097,-0.4573851227760315,0.40423959493637085,-9.936467170715332,0.13381994067011166,-0.0375914013509601,0.043254028047070854,1.9188519716262817,1.549958348274231,1.5620067119598389
1730869631.0646355,-0.23079992830753326,0.4914107024669647,-9.714095115661621,0.16502991171748943,-0.05941095222286663,0.10095293941992153,1.917433738708496,1.5457991361618042,1.5621591806411743
1730869631.1146681,-0.4409782588481903,0.4523625373840332,-9.910778045654297,0.14232368481860336,-0.06571675279151719,0.14743620065873378,1.9171963930130005,1.542859435081482,1.5627673864364624
1730869631.1646688,-0.23645620048046112,0.5215526819229126,-9.770724296569824,0.08510744639241902,-0.05928475488471735,0.16978178207409422,1.9160531759262085,1.5402063131332397,1.5624991655349731
1730869631.2146564,-0.39208418130874634,0.515532374382019,-9.955465316772461,0.017585262102959135,-0.04504394099640046,0.1566288421058593,1.9157204627990723,1.537268877029419,1.5633500814437866
1730869631.2646227,-0.22922885417938232,0.5859891176223755,-9.887500762939453,-0.04218332772311774,-0.0284589550664869,0.10635010913658904,1.9153605699539185,1.5342671871185303,1.5645205974578857
1730869631.3146117,-0.39069458842277527,0.5493279099464417,-10.014667510986328,-0.08378726748201255,-0.015010781182839482,0.03017756255804653,1.9148449897766113,1.531213402748108,1.5658595561981201
1730869631.3645916,-0.23498383164405823,0.6014256477355957,-9.988487243652344,-0.10411469942790635,-0.008927831626675159,-0.05418585643279303,1.9143576622009277,1.5555174350738525,1.5624641180038452
1730869631.4146051,-0.33824166655540466,0.548050582408905,-10.101381301879883,-0.10614844831282197,-0.011296436173761719,-0.1303626944228314,1.913503646850586,1.557911992073059,1.5624053478240967
1730869631.4646082,-0.18424099683761597,0.5548918843269348,-10.071321487426758,-0.0957098760884458,-0.018511247264034632,-0.18576364634687964,1.9131563901901245,1.5700998306274414,1.5619685649871826
1730869631.514604,-0.23718859255313873,0.4864315986633301,-10.128443717956543,-0.07824650032614883,-0.023228063848926873,-0.21183523385804484,1.9122562408447266,1.5741636753082275,1.5612068176269531
1730869631.5645766,-0.06766964495182037,0.49306344985961914,-10.082537651062012,-0.057352758610244026,-0.018834437235688235,-0.2062103889605189,1.9111807346343994,1.578192949295044,1.5599135160446167
1730869631.6146233,-0.1304546594619751,0.43972527980804443,-10.10926628112793,-0.034431032692163535,-0.0033995607803490755,-0.1741212056797411,1.9112662076950073,1.595521330833435,1.5615898370742798
1730869631.6645374,-0.04157936945557594,0.4361908733844757,-10.021092414855957,-0.009396937237770162,0.020072911093323077,-0.126154453283281,1.9104437828063965,1.6026074886322021,1.5607059001922607
1730869631.7145712,-0.14350034296512604,0.3887542188167572,-10.035709381103516,0.01678377369342611,0.04508913004286407,-0.0733335345709725,1.9105435609817505,1.6201454401016235,1.5618886947631836
1730869631.7645698,-0.10116488486528397,0.3894208073616028,-9.928570747375488,0.04007268381545988,0.06393797800190902,-0.023142565677625866,1.910077691078186,1.6303826570510864,1.5614771842956543
1730869631.8146,-0.23721365630626678,0.3337767422199249,-9.931022644042969,0.054618112682065616,0.07132494510916175,0.020652531199728107,1.9113131761550903,1.6449979543685913,1.56239652633667
1730869631.8645456,-0.19458375871181488,0.3487301766872406,-9.83051586151123,0.055952363833921784,0.06681648265154452,0.05623562117744929,1.9115352630615234,1.6571420431137085,1.5624849796295166
1730869631.9145317,-0.29440179467201233,0.3201385736465454,-9.877291679382324,0.043900657190694775,0.05386347635191885,0.08244621507116084,1.911913514137268,1.6713838577270508,1.5629023313522339
1730869631.9644866,-0.23651497066020966,0.3455946445465088,-9.820716857910156,0.023450564011246816,0.03702616143798111,0.0981028863715089,1.912216305732727,1.6827644109725952,1.5633316040039062
1730869632.0144808,-0.30252689123153687,0.3522164225578308,-9.878313064575195,0.0025505465739159064,0.019924161281440762,0.10220306159198678,1.9125487804412842,1.6941159963607788,1.5640053749084473
1730869632.064431,-0.22407227754592896,0.40052270889282227,-9.872715950012207,-0.011444424641574538,0.004267725735465709,0.0947400388053268,1.9128849506378174,1.7060413360595703,1.564971923828125
1730869632.1144633,-0.25570449233055115,0.39945998787879944,-9.929604530334473,-0.014363389579196051,-0.010322389861691688,0.07716536575894828,1.910781979560852,1.7003114223480225,1.5633769035339355
1730869632.164412,-0.24858763813972473,0.43924570083618164,-9.923430442810059,-0.006316828179917822,-0.02505039060121383,0.05243051102909002,1.9105398654937744,1.7093266248703003,1.563861608505249
1730869632.2144346,-0.31487223505973816,0.4114416241645813,-9.969865798950195,0.008010953886616328,-0.03953125529526062,0.024937329780401946,1.910300612449646,1.7182350158691406,1.564441442489624
1730869632.264411,-0.2591966986656189,0.4449121952056885,-9.995930671691895,0.02072843233127401,-0.05091048818445219,-0.0005085934209346438,1.909620761871338,1.7332028150558472,1.564162254333496
1730869632.3144326,-0.28978288173675537,0.4507770538330078,-10.051193237304688,0.025004704005038132,-0.056046430365446855,-0.02091753428871577,1.90941321849823,1.7431851625442505,1.5644561052322388
1730869632.3643994,-0.24739517271518707,0.4937203526496887,-10.043825149536133,0.019174307231035883,-0.054082243916396364,-0.03587586686403772,1.908344030380249,1.772165298461914,1.564939260482788
1730869632.4144115,-0.27734729647636414,0.5090131759643555,-10.097532272338867,0.006778700752125919,-0.046864297384408705,-0.04607166853330075,1.9079128503799438,1.7883473634719849,1.5651826858520508
1730869632.4643981,-0.2549256980419159,0.5415598750114441,-10.050680160522461,-0.00669919208869867,-0.03774168906067164,-0.05195901359785025,1.9070954322814941,1.8096458911895752,1.565690040588379
1730869632.5143661,-0.32537126541137695,0.542891263961792,-10.064486503601074,-0.017294536758111906,-0.029865132526116087,-0.05337011314129509,1.9065064191818237,1.8274638652801514,1.5658607482910156
1730869632.5643704,0.028854524716734886,0.5625566840171814,-9.989327430725098,-0.02265079062807013,-0.02476657101587413,-0.04953274595971915,1.9060741662979126,1.8278521299362183,1.5670932531356812
1730869632.614337,0.07238966971635818,0.5595594048500061,-9.984051704406738,-0.01863027987466352,-0.022026803845999313,-0.039618776742939524,1.9054925441741943,1.8397315740585327,1.5674245357513428
1730869632.664319,-0.5189818739891052,0.3385801911354065,-10.024965286254883,-0.0036999436207647562,-0.019034825771143675,-0.02440426385076511,1.9009488821029663,1.847902536392212,1.5685616731643677
1730869632.7143037,-0.4324494004249573,0.507655918598175,-9.786137580871582,0.00993701253001264,-0.011476198906832383,-0.006654317825062965,1.8970584869384766,1.8586392402648926,1.5699011087417603
1730869632.7642653,-0.3621480166912079,0.32121703028678894,-9.947909355163574,0.005063558384609244,0.0023397118034292233,0.011395082329495002,1.8946760892868042,1.8693675994873047,1.5706983804702759
1730869632.8142545,-0.3295668065547943,0.4454781115055084,-9.725438117980957,-0.01741126244819353,0.019492057629356255,0.027506144330633003,1.892411470413208,1.8795264959335327,1.5714993476867676
1730869632.864237,-0.2964213788509369,0.33070358633995056,-9.992304801940918,-0.038096255006753316,0.03750384459637702,0.03629373943434459,1.8899234533309937,1.8904279470443726,1.5724382400512695
1730869632.9142232,-0.23349344730377197,0.4023406505584717,-9.807594299316406,-0.03816478915343867,0.0568841657670694,0.03131989657620475,1.8932163715362549,1.8754279613494873,1.571298360824585
1730869632.9642293,-0.2676307260990143,0.39465272426605225,-10.05340576171875,-0.01165290026300679,0.07741427733583503,0.00992741551833011,1.8882237672805786,1.8924803733825684,1.5725194215774536
1730869633.0142324,-0.19817206263542175,0.45028406381607056,-9.948606491088867,0.03234154056311179,0.09434954866942202,-0.02437173973458304,1.8860615491867065,1.900992751121521,1.5731316804885864
1730869633.0641794,0.04073769226670265,0.6720536351203918,-10.057971000671387,0.07682122969957025,0.09808975840841198,-0.06101339660690437,1.883849859237671,1.9104446172714233,1.5736923217773438
1730869633.114151,-0.03060174360871315,0.327065646648407,-10.067121505737305,0.11145817725095575,0.07910751001556655,-0.08554248884109474,1.8818511962890625,1.9202133417129517,1.57407546043396
1730869633.1641438,-0.03060174360871315,0.327065646648407,-10.067121505737305,0.13845046037179445,0.03803326982742808,-0.0887004931719836,1.8831475973129272,1.9116507768630981,1.573656439781189
1730869633.1641438,-0.5479055047035217,-0.2016935646533966,-10.214848518371582,0.1603330217728307,-0.00697077474972015,-0.0729714885461302,1.883122205734253,1.9117921590805054,1.57365882396698
1730869633.214117,-0.6108308434486389,0.5433984398841858,-10.081886291503906,0.16283571887000672,-0.02839158643168134,-0.0500467147306502,1.8823100328445435,1.9173880815505981,1.5736888647079468
1730869633.2641795,-0.011703706346452236,0.7386093735694885,-9.952848434448242,0.11960444658345996,-0.015078963107524216,-0.0315921872783124,1.877982497215271,1.933552622795105,1.575133204460144
1730869633.3141108,-0.31446853280067444,0.6153935194015503,-10.062439918518066,0.02302883940154522,0.012409980863581365,-0.021058263799191394,1.875983476638794,1.9437295198440552,1.5756428241729736
1730869633.364109,-0.1872226446866989,0.6665521264076233,-9.845990180969238,-0.10033694429830585,0.024849776286237198,-0.0151922119655848,1.8728874921798706,1.9466743469238281,1.575782060623169
1730869633.4143374,-0.4072180986404419,0.4165511131286621,-9.983485221862793,-0.2110543432314825,0.016759899706234295,-0.010850566040316856,1.8697088956832886,1.955623745918274,1.5761749744415283
1730869633.4640696,0.11459168791770935,0.8349848389625549,-9.762166976928711,-0.2796624405970958,0.0046144450714963835,-0.007564960271513166,1.866284728050232,1.9636536836624146,1.576504111289978
1730869633.514096,0.28035956621170044,0.4045332074165344,-9.880001068115234,-0.287559218487631,0.003269853190034417,-0.00588707685020092,1.86823308467865,1.9601373672485352,1.5762934684753418
1730869633.564072,-0.18003049492835999,0.11181552708148956,-9.904133796691895,-0.22758402335874398,0.01685491109851612,-0.005525448514492883,1.8653465509414673,1.965657114982605,1.5765002965927124
1730869633.6140845,-0.705555260181427,0.01282671932131052,-9.858718872070312,-0.12460080676262607,0.04717636891491957,-0.005808585293924946,1.8629132509231567,1.9780173301696777,1.5771478414535522
1730869633.6639805,-0.4801637530326843,0.6506434082984924,-9.865266799926758,-0.04027770714993506,0.09256548237202492,-0.00634044769345081,1.8596811294555664,1.98646080493927,1.57749605178833
1730869633.7139802,-0.22780779004096985,0.5438518524169922,-9.853026390075684,-0.02176863344518811,0.13071420839866665,-0.006419794202501101,1.8574308156967163,1.9923769235610962,1.5777217149734497
1730869633.76395,-0.44211116433143616,0.6070882081985474,-10.207937240600586,-0.05137872813786437,0.11952506779473837,-0.007100991753932168,1.8542590141296387,2.000764846801758,1.578015923500061
1730869633.8139775,-0.21269233524799347,0.6423905491828918,-9.860488891601562,-0.06961856894762598,0.02923630334438101,-0.01417565070375876,1.8583413362503052,1.9935072660446167,1.5771946907043457
1730869633.8639376,-0.49377182126045227,0.6072207689285278,-10.209319114685059,-0.03539648935039465,-0.12929416352441783,-0.034487709965125055,1.8563624620437622,1.998777985572815,1.5772128105163574
1730869633.9139228,-0.3383030593395233,0.6965269446372986,-9.883183479309082,0.04274070009939024,-0.30428629142167984,-0.06880678185934475,1.85727059841156,2.0105416774749756,1.5773416757583618
1730869633.9638596,-0.10330046713352203,0.8038985133171082,-10.166481018066406,0.12074027193418788,-0.4289476685482136,-0.11047522866785,1.8562270402908325,2.0173280239105225,1.577142596244812
1730869634.0138614,0.36035457253456116,0.7088611721992493,-9.912047386169434,0.1641310049690629,-0.4601795690028738,-0.14927427659579248,1.8555480241775513,2.0267646312713623,1.5774046182632446
1730869634.0638504,-0.8385377526283264,0.3053721487522125,-10.20019817352295,0.17194948193543305,-0.39678914093221634,-0.17644308997081717,1.8550584316253662,2.0330169200897217,1.5768022537231445
1730869634.1138742,-0.6567732691764832,0.4127601087093353,-9.676691055297852,0.14308102979796433,-0.26420151300259204,-0.18712366698784613,1.853691577911377,2.0426278114318848,1.577332854270935
1730869634.1638803,-0.44423675537109375,0.5249103307723999,-10.279426574707031,0.05293252862787706,-0.09672659837977596,-0.1804689164332131,1.853317379951477,2.0485684871673584,1.5764880180358887
1730869634.2138884,0.0942758172750473,0.5973430871963501,-9.505760192871094,-0.09655118155825279,0.06315577744962325,-0.1624326797974337,1.8504753112792969,2.0622713565826416,1.5772919654846191
1730869634.263883,-0.3320629894733429,0.44222208857536316,-10.399138450622559,-0.23940493223071643,0.17077924162956762,-0.14688105205400118,1.847152829170227,2.075856924057007,1.577406883239746
1730869634.3138943,0.08977746963500977,0.5442128777503967,-9.550009727478027,-0.3000969107100566,0.2024363730631013,-0.14613177240637812,1.8446996212005615,2.0846927165985107,1.5767213106155396
1730869634.3639805,0.10976488143205643,0.7033624649047852,-10.237235069274902,-0.25540121795308257,0.16638636583373118,-0.15217807258120628,1.8413183689117432,2.094916820526123,1.5756033658981323
1730869634.4138834,0.506320595741272,0.4955443739891052,-9.730408668518066,-0.1249786355286872,0.08795423308659926,-0.13240030685859017,1.8373175859451294,2.1058313846588135,1.5740690231323242
1730869634.4639435,-0.03613496571779251,0.25517481565475464,-10.0406494140625,0.059693745121643146,-0.004010693773850164,-0.05678692231560164,1.8445223569869995,2.0943233966827393,1.577515721321106
1730869634.5138073,-0.6413252353668213,0.10570916533470154,-9.949252128601074,0.25513350801453677,-0.07822318552774735,0.07263729343467558,1.8425451517105103,2.1109840869903564,1.5780067443847656
1730869634.563863,-1.2552237510681152,-0.06926611065864563,-9.745925903320312,0.39469367938247796,-0.10763135647646269,0.21920361266553492,1.8421076536178589,2.120210647583008,1.5783554315567017
1730869634.6138546,-1.086402416229248,0.4411057233810425,-10.181537628173828,0.4094747625548586,-0.0852999007756759,0.3318345630904096,1.8411622047424316,2.1284968852996826,1.5788350105285645
1730869634.663833,-0.8526864051818848,0.10287990421056747,-9.598905563354492,0.27935211390445014,-0.030798313978147626,0.37400745060882074,1.8417282104492188,2.1369686126708984,1.5803366899490356
1730869634.7138727,-0.8526864051818848,0.10287990421056747,-9.598905563354492,0.06085971929528046,0.028096144445229457,0.3476248420601202,1.8427226543426514,2.1454763412475586,1.5827497243881226
1730869634.7138727,-0.9535312056541443,0.21429508924484253,-10.286824226379395,-0.14394249186467975,0.07982943131003435,0.29125149788164867,1.8427461385726929,2.145664930343628,1.582812786102295
1730869634.7638083,-0.8706726431846619,0.29323863983154297,-9.605815887451172,-0.25127357708442843,0.1274335766749042,0.24573135408239974,1.8596436977386475,2.150326728820801,1.5784245729446411
1730869634.8137815,-0.7621034383773804,0.235987588763237,-10.177942276000977,-0.23630244489575175,0.17048764906153294,0.22421385363498378,1.8643876314163208,2.1606688499450684,1.579778790473938
1730869634.8637044,-0.704631507396698,0.3479194641113281,-9.81977367401123,-0.128860341921185,0.1991513125954732,0.21006444502703236,1.8773353099822998,2.1664631366729736,1.5773389339447021
1730869634.9137883,-0.6235724091529846,0.2744784951210022,-10.006380081176758,0.014969085177784683,0.20173052665304447,0.17252407282243581,1.8981072902679443,2.1873199939727783,1.5761386156082153
1730869634.963757,0.24967217445373535,0.5691858530044556,-10.019990921020508,0.14523343276575826,0.17332907386011556,0.09501395203141554,1.9078752994537354,2.1987569332122803,1.5763776302337646
1730869635.013742,0.03988807648420334,0.38292020559310913,-10.024341583251953,0.24399426816708022,0.11713209548314948,-0.007187069063662014,1.920422077178955,2.213221311569214,1.5767676830291748
1730869635.064772,0.09846736490726471,0.41265422105789185,-10.172840118408203,0.32594094295897924,0.041769445421490387,-0.10047450535181021,1.9157938957214355,2.2075202465057373,1.5747116804122925
1730869635.113728,0.0536348819732666,0.2983555793762207,-10.085872650146484,0.40825330665638637,-0.037651799771792754,-0.15803989980919542,1.9244804382324219,2.2161452770233154,1.5740594863891602
1730869635.1637263,0.1584606021642685,0.3330687880516052,-10.135992050170898,0.48059686351163444,-0.09973802844779286,-0.17073900011677065,1.9331238269805908,2.2235610485076904,1.5731089115142822
1730869635.2146518,0.06599006056785583,0.2910921275615692,-10.057454109191895,0.5089637511668994,-0.12485893691943216,-0.14299985577637978,1.9436861276626587,2.231315851211548,1.5716997385025024
1730869635.2637303,0.1774022877216339,0.32955262064933777,-10.016921043395996,0.4675055143136647,-0.10600954003329524,-0.0866836595983018,1.9349383115768433,2.223276376724243,1.572557806968689
1730869635.3147428,0.053225260227918625,0.32140615582466125,-10.034695625305176,0.3613202609694018,-0.05315503031058239,-0.01756344990294111,1.9430115222930908,2.2284579277038574,1.5716925859451294
1730869635.3646884,0.05614360794425011,0.33844485878944397,-9.90927791595459,0.22004945156321373,0.011607318149040197,0.04723810949723582,3.499460220336914,2.251652956008911,1.5711393356323242
1730869635.4146981,-0.10515157133340836,0.3511325716972351,-9.977052688598633,0.0770806720516899,0.06424542731200897,0.0932664723175642,3.979930877685547,2.262816905975342,1.5706371068954468
1730869635.4646409,-0.11568520963191986,0.3808728754520416,-9.812434196472168,-0.04546913714322115,0.08881111599248719,0.11468777644932066,5.173830986022949,2.2838737964630127,1.5697840452194214
1730869635.5146189,-0.11568520963191986,0.3808728754520416,-9.812434196472168,-0.13991659817310065,0.08198303684118108,0.11712615646377192,5.878288745880127,2.2989320755004883,1.569488286972046
1730869635.5146189,-0.3178093135356903,0.4046555459499359,-9.899812698364258,-0.2088237378328775,0.05103691178828751,0.1133780145678756,5.896151065826416,2.29931640625,1.5694844722747803
1730869635.5646424,-0.33601170778274536,0.4653978943824768,-9.768085479736328,-0.2609790916666172,0.008167937201147276,0.11462095513949853,6.600892066955566,2.3145039081573486,1.5694761276245117
1730869635.614612,-0.4833042323589325,0.48416203260421753,-9.870389938354492,-0.30872206937937685,-0.035700710462194495,0.12511038811861735,7.313684463500977,2.329845666885376,1.5697637796401978
1730869635.6645703,-0.49882516264915466,0.5370211005210876,-9.794037818908691,-0.36348383972265985,-0.0746424003300047,0.14320009782599225,8.02924919128418,2.3451268672943115,1.570388913154602
1730869635.714604,-0.6153385639190674,0.5093100666999817,-9.878702163696289,-0.4313120587141642,-0.10753385887736017,0.16402876514756046,6.310154438018799,2.3056929111480713,1.5690698623657227
1730869635.7645874,-0.5772644281387329,0.5316475033760071,-9.855905532836914,-0.5113379901246576,-0.13535217251855797,0.18170068745169105,6.613641738891602,2.31152081489563,1.569597601890564
1730869635.814568,-0.6293611526489258,0.4781370460987091,-9.942452430725098,-0.5967153609066728,-0.15848928434200282,0.19104185620332068,6.922118663787842,2.317093849182129,1.5706157684326172
1730869635.8645551,-0.5330580472946167,0.5044465661048889,-9.960671424865723,-0.6768758321289232,-0.1757954814738441,0.18849728736237018,7.648436546325684,2.3320462703704834,1.5680291652679443
1730869635.9145894,-0.5004047751426697,0.4518307149410248,-10.033041954040527,-0.7402652658732074,-0.18544187732204467,0.17241319663012777,8.167799949645996,2.34163761138916,1.5686591863632202
1730869635.9646096,-0.3333320617675781,0.4676661193370819,-10.066805839538574,-0.7766242061924592,-0.18633988487557143,0.14308332211435137,8.799208641052246,2.35677433013916,1.5668249130249023
1730869636.01461,-0.2643769383430481,0.4298521876335144,-10.129984855651855,-0.7785303046346038,-0.17891258891711054,0.10254988642338861,9.266722679138184,2.365785837173462,1.5671422481536865
1730869636.0645845,-0.07810448110103607,0.4196062386035919,-10.138185501098633,-0.7425867639879807,-0.16495724048031246,0.05416730002409495,10.304011344909668,2.3819520473480225,1.5660808086395264
1730869636.114601,-0.012720949947834015,0.39786067605018616,-10.157115936279297,-0.6701884477641106,-0.1468706508552609,0.0023196015354477444,10.811450004577637,2.3902382850646973,1.5661382675170898
1730869636.1645925,0.10265810787677765,0.39001789689064026,-10.112859725952148,-0.5676631274492312,-0.12689781328845626,-0.047602099987653995,11.800751686096191,2.406698226928711,1.5651098489761353
1730869636.2145674,0.07386831939220428,0.39795100688934326,-10.076675415039062,-0.4460838907952035,-0.10697490480727198,-0.08933196853130426,12.533491134643555,2.4183950424194336,1.564562439918518
1730869636.2646155,0.08328827470541,0.44482341408729553,-9.991537094116211,-0.32063177471264626,-0.08920701146881811,-0.11632409419977806,13.114294052124023,2.4274544715881348,1.5638965368270874
1730869636.3146267,-0.001726416521705687,0.49955976009368896,-9.936644554138184,-0.20866011535253673,-0.07667349209704176,-0.12293748952246976,13.578625679016113,2.4345815181732178,1.5631901025772095
1730869636.364619,-0.005718577187508345,0.5565846562385559,-9.845008850097656,-0.12600837105794116,-0.07362375089102904,-0.10592774312402434,12.973995208740234,2.4308202266693115,1.5642591714859009
1730869636.414579,-0.07919418811798096,0.5894578099250793,-9.82966136932373,-0.08258602069378992,-0.08417994014320379,-0.06571914302342649,13.370935440063477,2.437971830368042,1.563639521598816
1730869636.4646235,-0.09951021522283554,0.6249340772628784,-9.772911071777344,-0.07959246395483822,-0.11009926082540183,-0.007029386714183846,14.34894847869873,2.4497807025909424,1.563987135887146
1730869636.514541,-0.18454618752002716,0.606795072555542,-9.792936325073242,-0.11020556166016342,-0.14913373255861417,0.061649246152868376,14.769488334655762,2.455766439437866,1.5637882947921753
1730869636.5645518,-0.22621792554855347,0.5857579112052917,-9.7860107421875,-0.16322916607668045,-0.1948389656044962,0.12982400809463096,15.28433895111084,2.462756633758545,1.5637391805648804
1730869636.6145794,-0.3315427601337433,0.5300865173339844,-9.845130920410156,-0.22753044240766696,-0.23781458949386863,0.18724517162271603,15.443652153015137,2.4686386585235596,1.5648034811019897
1730869636.664506,-0.21279725432395935,0.5082617998123169,-9.850095748901367,-0.29199416595018923,-0.26726119299596185,0.2250797034010304,16.047666549682617,2.4769227504730225,1.566123604774475
1730869636.714487,0.006128305569291115,0.5688401460647583,-9.88410758972168,-0.3372294692101372,-0.27237605115973373,0.2356405565589374,16.29637336730957,2.479954719543457,1.5669950246810913
1730869636.8644934,-0.3439902067184448,0.3100091218948364,-10.292323112487793,-0.3346563614157243,-0.24542546045619607,0.21205200647463335,18.698930740356445,2.4986135959625244,1.5848039388656616
1730869636.9644687,-0.27044570446014404,0.37284988164901733,-10.249284744262695,-0.2682841754732723,-0.1852359219403126,0.14851367506587085,18.710601806640625,2.4986572265625,1.5849319696426392
1730869637.014441,-0.20049448311328888,0.4614565372467041,-10.052845001220703,-0.15372247291695607,-0.09910041733607737,0.04504407845862112,18.861087799072266,2.499201536178589,1.586592435836792
1730869637.0643923,-0.2773628830909729,0.4275785982608795,-10.157676696777344,-0.027253898691548567,-0.003559759518226742,-0.08346918285358428,19.324939727783203,2.500826597213745,1.5916093587875366
1730869637.1144493,-0.2239142805337906,0.46314308047294617,-9.959566116333008,0.07736831353439891,0.07989174274370239,-0.2076671595570988,19.7094783782959,2.502250909805298,1.595452070236206
1730869637.1644027,-0.11138374358415604,0.44398656487464905,-9.965907096862793,0.142066613747602,0.1344907475277816,-0.29704134569976887,20.17939567565918,2.504295825958252,1.5994312763214111
1730869637.2143922,0.6858738660812378,0.7186007499694824,-9.855181694030762,0.17161003236293176,0.15362306165434725,-0.3325013232374858,20.56790542602539,2.506314754486084,1.601996660232544
1730869637.2643602,0.6690240502357483,0.3649683892726898,-9.822172164916992,0.1977678229011862,0.1391652716872761,-0.31119024770479503,12.824234008789062,2.5187976360321045,1.5655105113983154
1730869637.3143637,0.1659230887889862,0.3500547707080841,-9.63718032836914,0.25794441956958947,0.1009306125220584,-0.2441699545185268,11.415587425231934,2.5432093143463135,1.5643398761749268
1730869637.3643084,0.4121052026748657,0.2908007502555847,-9.734164237976074,0.3466510673021097,0.05615236277143877,-0.14960905853421783,11.334260940551758,2.53440523147583,1.564319372177124
1730869637.4143257,0.085137277841568,0.14830833673477173,-9.721254348754883,0.4028156535593461,0.022673534777677834,-0.047457299876081195,10.76730728149414,2.542717933654785,1.5637578964233398
1730869637.4643426,-1.1851427555084229,-0.023428620770573616,-9.820404052734375,0.3547869426241645,0.013446597764251667,0.04272008423919973,10.18751335144043,2.545393705368042,1.5644704103469849
1730869637.5143104,-0.6734220385551453,0.3225133419036865,-10.013717651367188,0.15928573155899456,0.035179722873259225,0.10362837892374835,9.413861274719238,2.5554816722869873,1.5644731521606445
1730869637.5642998,-0.5792936086654663,0.2666945159435272,-10.307682991027832,-0.18176859449187086,0.08270945214758976,0.12106172220032936,8.985374450683594,2.561558723449707,1.5648765563964844
1730869637.6143527,-0.3707011938095093,0.39961981773376465,-10.149381637573242,-0.6071474525477748,0.13600720580705364,0.08503921731794724,8.306086540222168,2.5711863040924072,1.565319299697876
1730869637.664313,-0.34239423274993896,0.37804052233695984,-10.407073020935059,-1.0124481050240535,0.1702712761113807,-0.004222958744516617,7.699854850769043,2.3544774055480957,1.5650981664657593
1730869637.7143106,-0.22113758325576782,0.5377371311187744,-10.041390419006348,-1.300102494931275,0.16939221374648128,-0.13063356632956105,6.492571830749512,2.16847825050354,1.5643956661224365
1730869637.7642593,-0.28766322135925293,0.44606009125709534,-10.20271110534668,-1.4212503177892684,0.13101717477631367,-0.26441593707856187,5.71148681640625,2.079770803451538,1.5636521577835083
1730869637.8142128,-0.506635308265686,0.543083667755127,-9.860472679138184,-1.387709729817424,0.06472499431115193,-0.3713801597866442,4.914629936218262,1.98990797996521,1.5621095895767212
1730869637.8641906,-0.567001223564148,0.35482344031333923,-9.981618881225586,-1.2593002850017108,-0.012191293026266481,-0.4246936387871958,4.1153411865234375,1.9002078771591187,1.5595780611038208
1730869637.9142346,-0.6199769377708435,0.4473212659358978,-9.763314247131348,-1.114972493665495,-0.07997727540608415,-0.41364259151511995,5.149417400360107,1.9741742610931396,1.5627931356430054
1730869637.9642043,-0.9986954927444458,0.2414439171552658,-9.797520637512207,-1.021192411578471,-0.1221113875408019,-0.3454665974068265,4.718197345733643,1.9207457304000854,1.560723900794983
1730869638.0141943,-0.5773220062255859,0.273157000541687,-9.851126670837402,-1.012838104754034,-0.12948458616561428,-0.2409660443148995,4.272031784057617,1.8654658794403076,1.5578789710998535
1730869638.064178,-0.08581041544675827,0.5345715880393982,-9.734369277954102,-1.0836655633872332,-0.10332715254935729,-0.12729713807894844,3.8855819702148438,1.804671049118042,1.561597228050232
1730869638.11419,-0.18736295402050018,0.29654914140701294,-9.978951454162598,-1.1853331627567498,-0.0573085955892364,-0.030023570354267514,3.3861329555511475,1.7412378787994385,1.5603115558624268
1730869638.164191,-0.33065593242645264,0.4723804295063019,-9.883694648742676,-1.253222743490848,-0.012116954651140486,0.032797162037726424,2.7118756771087646,1.6503267288208008,1.561259388923645
1730869638.2141838,-0.36900800466537476,0.26778292655944824,-9.986807823181152,-1.249467051683657,0.016733914185847652,0.053118757863058315,2.197442054748535,1.584668755531311,1.5607739686965942
1730869638.2641835,0.043405573815107346,0.6950264573097229,-9.965749740600586,-1.179912587831473,0.024285759221571956,0.03390901276581532,1.2113021612167358,1.4518269300460815,1.5609163045883179
1730869638.3141196,0.19447794556617737,0.20725008845329285,-9.98570442199707,-1.0690030990685462,0.013836852299640157,-0.011928581352463935,0.547031044960022,1.3655462265014648,1.5606017112731934
1730869638.364093,-1.1591532230377197,0.1888837069272995,-10.11197566986084,-0.9315036616906361,0.00016674530723195628,-0.06557335414291351,1.3820929527282715,1.2457497119903564,1.5600640773773193
1730869638.414106,-1.1591532230377197,0.1888837069272995,-10.11197566986084,-0.779751635495814,0.008840579045075264,-0.10892933449694485,1.1995741128921509,1.146142601966858,1.5593334436416626
1730869638.414106,-0.9347882270812988,0.11641804873943329,-9.819366455078125,-0.6323219510122109,0.05342554354550339,-0.12920676654925914,1.1953052282333374,1.143825888633728,1.559313178062439
1730869638.4640784,-0.3173657953739166,0.5257434844970703,-10.161612510681152,-0.4901609408670595,0.11561233699222101,-0.11852959305509386,1.0185353755950928,1.048349142074585,1.5583349466323853
1730869638.5140822,-0.3173657953739166,0.5257434844970703,-10.161612510681152,-0.3250911639918417,0.15602522129567498,-0.07790423656467872,1.6366339921951294,1.0744094848632812,1.5591442584991455
1730869638.5140822,-0.08617076277732849,0.5133125185966492,-9.854287147521973,-0.11080388952658941,0.14207480810973971,-0.021443199514272534,1.635955572128296,1.0728683471679688,1.5591306686401367
1730869638.5640867,-0.1777472048997879,0.5086539387702942,-10.14891529083252,0.1380624627045102,0.0719496902037107,0.033670021372920654,1.724647045135498,0.9191496968269348,1.5584994554519653
1730869638.6141007,-0.05792945250868797,0.6716017723083496,-10.004934310913086,0.3627932789795719,-0.023604852435994424,0.07808614984739727,1.7169312238693237,0.8279241323471069,1.5581448078155518
1730869638.663942,-0.022361859679222107,0.5977389812469482,-10.137311935424805,0.4998485792097265,-0.10628210528205068,0.10798943888667945,1.751018762588501,0.6894271969795227,1.5575987100601196
1730869638.7139578,0.04531539976596832,0.7783448696136475,-10.100459098815918,0.5218732610438894,-0.15487188738255792,0.12101760979590176,1.7509618997573853,0.5740951299667358,1.5575090646743774
1730869638.764038,-0.05900026485323906,0.648614227771759,-10.037696838378906,0.44530987212015766,-0.16878384830299487,0.11727950174584362,1.7521229982376099,0.4587431252002716,1.5577198266983032
1730869638.8140528,-0.015184496529400349,0.7319027781486511,-10.06613826751709,0.3116150006969692,-0.15859482866286967,0.1013738884597833,1.7609955072402954,0.7388736009597778,1.5571695566177368
1730869638.864013,0.22797688841819763,0.6701011657714844,-9.984273910522461,0.16698090051203182,-0.1363300656467327,0.08164043204601305,1.762245774269104,0.7151595950126648,1.5574020147323608
1730869638.9140043,-0.05916585400700569,0.4622718095779419,-9.938616752624512,0.05076190924508664,-0.10828311356226525,0.066239749621196,1.7638200521469116,0.6903506517410278,1.5578358173370361
1730869638.963918,-0.4002154767513275,0.5573738217353821,-9.76423454284668,-0.01660917583137049,-0.07175027938557996,0.06112170453648121,1.7653406858444214,0.6668607592582703,1.5583970546722412
1730869639.0139103,-0.1858254224061966,0.3445452153682709,-9.798483848571777,-0.04389881142061315,-0.019925728409549544,0.0713901968169817,1.7637708187103271,0.7902035117149353,1.5571287870407104
1730869639.063853,-0.5184809565544128,0.3598842918872833,-9.786005973815918,-0.0590558577345903,0.04811227709093128,0.09910803374034693,1.7639117240905762,0.787634551525116,1.5574238300323486
1730869639.1138215,-0.2300599217414856,0.2592216730117798,-9.686817169189453,-0.08459557673476897,0.1207249126880346,0.1366608694003946,1.7639745473861694,0.809558629989624,1.5568935871124268
1730869639.163852,-0.4945482313632965,0.24156400561332703,-9.835616111755371,-0.12389119014299105,0.17676222584375414,0.16674439893574428,1.76377272605896,0.8105039596557617,1.5574595928192139
1730869639.2138815,-0.4945482313632965,0.24156400561332703,-9.835616111755371,-0.16676997027209156,0.19842882678250778,0.17119518094115316,1.76510751247406,0.8188801407814026,1.5572513341903687
1730869639.2138815,-0.28080615401268005,0.26179829239845276,-9.748011589050293,-0.2008221199516587,0.18178984697861217,0.14082441250211253,1.7651065587997437,0.8189168572425842,1.5572625398635864
1730869639.2638142,-0.3161129355430603,0.08132803440093994,-9.942852020263672,-0.2127468551765374,0.13704109386069505,0.08232705754444689,1.7648200988769531,0.8211782574653625,1.558001160621643
1730869639.31378,0.09669290482997894,0.10742443799972534,-10.099550247192383,-0.18597547000570225,0.08379495671793477,0.014121968429158593,1.7638882398605347,0.8242530226707458,1.5590338706970215
1730869639.3637345,-0.5770341157913208,0.41071435809135437,-10.079493522644043,-0.10990326955574661,0.04209312637265717,-0.048998660401228605,1.7628579139709473,0.8267125487327576,1.5597847700119019
1730869639.4137852,-0.5809361934661865,0.6975458860397339,-10.068680763244629,0.00276112783455678,0.017721820600107158,-0.10345830966290506,1.76154363155365,0.8296447396278381,1.5604780912399292
1730869639.4638126,-0.3087293207645416,0.3213740587234497,-10.156173706054688,0.11369191016334698,-0.0034329162226853158,-0.15100981277633538,1.76644766330719,0.8231397271156311,1.5571130514144897
1730869639.5137942,-0.21807244420051575,0.4988778531551361,-10.385340690612793,0.184725229888044,-0.03866208420771905,-0.19275905059118084,1.7670011520385742,0.8239560127258301,1.556614637374878
1730869639.5637379,-0.32600975036621094,0.48021116852760315,-10.01003360748291,0.20311255415549037,-0.08898050094730271,-0.2259129306905303,1.7680495977401733,0.8246448636054993,1.5555853843688965
1730869639.6137204,-0.23142726719379425,0.5405135154724121,-10.428206443786621,0.17904801889218314,-0.14131843924505139,-0.2415763219587076,1.7706055641174316,0.825520932674408,1.5564898252487183
1730869639.6637135,-0.39486536383628845,0.5856205821037292,-9.833272933959961,0.13062522825249442,-0.18194286082634017,-0.22877646758743977,1.7722474336624146,0.8257249593734741,1.5553467273712158
1730869639.7140672,-0.35676178336143494,0.4910838305950165,-10.162965774536133,0.07338810079819465,-0.2016036028765994,-0.17862693515273786,1.7774008512496948,0.8303543925285339,1.5563678741455078
1730869639.7638233,-0.3761560320854187,0.22942113876342773,-9.736413955688477,0.016570698248500132,-0.19314379405211607,-0.08647071564172427,1.7853013277053833,0.83436518907547,1.5566978454589844
1730869639.8137429,-0.28543856739997864,-0.059805531054735184,-9.951973915100098,-0.032684288122053894,-0.15060912047379563,0.03746833714308227,1.7908451557159424,0.8372293710708618,1.5572011470794678
1730869639.8637283,-0.9448966979980469,0.19631651043891907,-9.727656364440918,-0.06806618665451034,-0.07581370345259592,0.16060836592373415,1.795736312866211,0.8392520546913147,1.557444453239441
1730869639.9137223,-0.9549425840377808,0.5919491648674011,-9.522421836853027,-0.09623626213406594,0.008513576160744465,0.24580804258953726,1.8004859685897827,0.8412178158760071,1.5581942796707153
1730869639.9636784,-0.9631751775741577,0.41798314452171326,-9.769646644592285,-0.14172567815196035,0.05750178913296821,0.2800788909144064,1.8049530982971191,0.8432724475860596,1.5596041679382324
1730869640.0136373,-0.6553776264190674,0.37243911623954773,-9.681028366088867,-0.22532483990591712,0.031095643272325755,0.27776911813906,1.809296727180481,0.8456388711929321,1.5619391202926636
1730869640.0636752,0.004265685100108385,0.5947628617286682,-9.786898612976074,-0.33616155622883054,-0.0753339583497111,0.25990273991657314,1.7943856716156006,0.8386321663856506,1.5581187009811401
1730869640.1136823,-0.03740736469626427,0.46409550309181213,-9.96872615814209,-0.42820782482056324,-0.22828707526583086,0.23816040404076974,1.7945221662521362,0.8388704061508179,1.559417724609375
1730869640.1636384,-0.03740736469626427,0.46409550309181213,-9.96872615814209,-0.4508838073797,-0.37102790225030946,0.2098851193187152,1.8005925416946411,0.8390673995018005,1.5595102310180664
1730869640.1636384,-0.05117795988917351,0.5251073837280273,-10.00991439819336,-0.3880948777246833,-0.44488784622277666,0.16380925964626525,1.8006138801574707,0.8390600681304932,1.5595307350158691
1730869640.2136905,-0.018419096246361732,0.5277049541473389,-10.189563751220703,-0.2656691004845032,-0.42060197666608085,0.09511970630315533,1.8015680313110352,0.838103711605072,1.56088125705719
1730869640.263616,0.03636926785111427,0.6150963306427002,-10.171558380126953,-0.12743500979388173,-0.3162606172425227,0.0122485036651678,1.8020541667938232,0.8362370729446411,1.5623779296875
1730869640.3136368,0.03636926785111427,0.6150963306427002,-10.171558380126953,-0.010165082300833628,-0.18183097309253554,-0.070604180442227,1.802374005317688,0.8337346315383911,1.5638148784637451
1730869640.3136368,0.0513644814491272,0.6488842368125916,-10.269488334655762,0.06761334657575918,-0.06895706754997274,-0.1417120463075409,1.8023823499679565,0.8336611390113831,1.563850998878479
1730869640.3636374,0.1003720834851265,0.6970711946487427,-10.168889045715332,0.105140834534872,-0.009658414906678126,-0.19493698437445378,1.8099371194839478,0.8422675132751465,1.5599305629730225
1730869640.4136474,0.1003720834851265,0.6970711946487427,-10.168889045715332,0.112842016871076,-0.00931709138833751,-0.2282057511930822,1.8127052783966064,0.8427486419677734,1.5595884323120117
1730869640.4136474,0.07063927501440048,0.6718862056732178,-10.210142135620117,0.10321385749683071,-0.04929939162497529,-0.23865898809853592,1.8127782344818115,0.8427603244781494,1.559572458267212
1730869640.4645658,0.0457661896944046,0.6296144127845764,-10.04611587524414,0.0839203491713838,-0.09709702834361847,-0.22199684901160077,1.8200960159301758,0.8467652797698975,1.5603904724121094
1730869640.5136104,-0.020572874695062637,0.5808892250061035,-10.030916213989258,0.05775427874989387,-0.12286921842768976,-0.17764104667623237,1.8245056867599487,0.8479604125022888,1.5599188804626465
1730869640.5635376,-0.05198795720934868,0.5066591501235962,-9.870166778564453,0.02646444420995785,-0.11273528485739101,-0.11226905910367707,1.829183578491211,0.8489013910293579,1.559064269065857
1730869640.6145475,-0.17506341636180878,0.454800546169281,-9.842833518981934,-0.00783636049897694,-0.06992724004329694,-0.037390058479194827,1.8339303731918335,0.8496127724647522,1.5580061674118042
1730869640.6645448,-0.22957783937454224,0.4146440625190735,-9.782632827758789,-0.04458327822099358,-0.006981971528355127,0.036611457273787645,1.8270512819290161,0.8506928086280823,1.5612411499023438
1730869640.714549,-0.308991938829422,0.4003825783729553,-9.809908866882324,-0.08471336907680557,0.061277236550028556,0.1024573316212487,1.8338207006454468,0.8535841107368469,1.562612533569336
1730869640.7645962,-0.3341331481933594,0.40885496139526367,-9.816730499267578,-0.12514480220534877,0.11915135678081508,0.15149759482003625,1.8375961780548096,0.8554920554161072,1.563533902168274
1730869640.8146138,-0.3865926265716553,0.3996412456035614,-9.865697860717773,-0.1555955813463763,0.15151978190211707,0.17238432668903697,1.8399877548217773,0.857496976852417,1.5643073320388794
1730869640.86464,-0.37465718388557434,0.4222535490989685,-9.898229598999023,-0.16512088457750757,0.1502207688648039,0.15841498413243174,1.8428407907485962,0.8599885702133179,1.5657182931900024
1730869640.9144092,-0.3947255611419678,0.40074995160102844,-9.949752807617188,-0.15024548444896774,0.11900282185658483,0.11414051302742638,1.845376968383789,0.8629544973373413,1.5675628185272217
1730869640.9644716,-0.36390256881713867,0.4128980040550232,-9.966541290283203,-0.11589329810604151,0.07107931177786848,0.05314753614897559,1.8472999334335327,0.8657958507537842,1.5693895816802979
1730869641.0144293,-0.39694204926490784,0.3823336064815521,-10.018165588378906,-0.07192776741092187,0.02245595417407185,-0.009424082546157113,1.8418926000595093,0.8610538840293884,1.567266821861267
1730869641.0644104,-0.35610049962997437,0.3974900245666504,-10.000911712646484,-0.029221737479359636,-0.014160503800351746,-0.06217392989647494,1.8427796363830566,0.8624809384346008,1.5681480169296265
1730869641.114375,-0.35610049962997437,0.3974900245666504,-10.000911712646484,0.004207219465443361,-0.032975893139030966,-0.09719811152918942,1.8436121940612793,0.8638128638267517,1.568809151649475
1730869641.114375,-0.39209309220314026,0.3846672773361206,-10.059626579284668,0.025347600157086387,-0.035477272573380327,-0.10913681412524776,1.8436435461044312,0.8638611435890198,1.5688291788101196
1730869641.1643515,-0.36353808641433716,0.4153258502483368,-10.021919250488281,0.03515977583846,-0.027752302210395166,-0.09821397749688157,1.8455846309661865,0.8638801574707031,1.569456934928894
1730869641.214381,-0.39403101801872253,0.4387528896331787,-10.077939987182617,0.03619328311164512,-0.016973422196431588,-0.07216597833887241,1.8469587564468384,0.8648952841758728,1.5698847770690918
1730869641.2643037,-0.3331065773963928,0.5000046491622925,-10.036319732666016,0.031161928993907066,-0.009171633727668337,-0.0425981371358312,1.8503878116607666,0.8698937296867371,1.5728527307510376
1730869641.3143032,-0.34207844734191895,0.5095508098602295,-10.06199836730957,0.02274925344414694,-0.008083857778804838,-0.01937429736614403,1.8523322343826294,0.8719803690910339,1.5738877058029175
1730869641.3643172,-0.28198015689849854,0.5229408740997314,-10.007672309875488,0.013907000822391751,-0.013990052775900857,-0.006917053846679359,1.855486273765564,0.8779456615447998,1.5770710706710815
1730869641.414263,-0.29965314269065857,0.4908568561077118,-9.989931106567383,0.007476624518289025,-0.02324743915928189,-0.0036155470052639015,1.8569179773330688,0.8835678100585938,1.5791682004928589
1730869641.464241,-0.2539737820625305,0.46560683846473694,-9.913262367248535,0.005021982124671573,-0.030035175248575085,-0.004036025177573726,1.8587645292282104,0.8872897624969482,1.5808316469192505
1730869641.564271,-0.28482574224472046,0.34626907110214233,-9.807093620300293,0.006388101645394871,-0.028989665867607355,-0.001557860162361564,1.8632347583770752,0.8958554863929749,1.5847760438919067
1730869641.6142564,-0.29908302426338196,0.3259364366531372,-9.777820587158203,0.010312059015101033,-0.016261992873955633,0.010382266065743254,1.856662631034851,0.8885632753372192,1.5811971426010132
1730869641.6642249,-0.301970511674881,0.31074026226997375,-9.775644302368164,0.014770606989627968,0.00931091291565568,0.03558780295488254,1.8571511507034302,0.8904398083686829,1.5820907354354858
1730869641.714165,-0.3184935748577118,0.3179154694080353,-9.827898979187012,0.017307095051657388,0.04276368830917631,0.06925289038338292,1.8576807975769043,0.8923851251602173,1.583117961883545
1730869641.7642305,-0.2756044268608093,0.35136693716049194,-9.894177436828613,0.016246795103513262,0.07241691818107647,0.09649810347470095,1.8561979532241821,0.8941192030906677,1.5835206508636475
1730869641.8142223,-0.206793412566185,0.41114169359207153,-9.973604202270508,0.012264568499010177,0.08604715055215321,0.10097808108283794,1.8564295768737793,0.8964892625808716,1.5847984552383423
1730869641.8642032,-0.1250341832637787,0.47607484459877014,-10.030844688415527,0.009297028944611027,0.07741149414182,0.07582757404850597,1.85655677318573,0.9011513590812683,1.585341453552246
1730869641.9141514,-0.023320375010371208,0.5175714492797852,-10.126049041748047,0.01328885207769394,0.047888994413561925,0.02692626695169615,1.856817364692688,0.9039778113365173,1.5864542722702026
1730869641.9641418,0.07198912650346756,0.5848671197891235,-10.147418022155762,0.028578463895684775,0.005314191552090579,-0.0316953004173694,1.858222246170044,0.9098318219184875,1.5873403549194336
1730869642.0140882,0.130008265376091,0.5806544423103333,-10.172867774963379,0.054737647183145124,-0.03867793272897631,-0.08450662820301273,1.8589855432510376,0.9134749174118042,1.5882086753845215
1730869642.0640888,0.16452793776988983,0.5977880358695984,-10.144845962524414,0.08580286909127438,-0.07247586142908279,-0.11905689415289139,1.8600624799728394,0.9177318811416626,1.588934063911438
1730869642.114042,0.15262407064437866,0.5854166746139526,-10.139837265014648,0.11199987967598521,-0.08796824426995915,-0.12840459784537125,1.8612565994262695,0.9213852882385254,1.5893940925598145
1730869642.1640832,0.11295915395021439,0.5773398876190186,-10.073005676269531,0.12348347171269192,-0.0830018271080099,-0.11248307434607435,1.8627005815505981,0.9247052073478699,1.5895414352416992
1730869642.2140954,0.026290452107787132,0.5613166689872742,-10.024514198303223,0.11372491663892759,-0.06160711150874516,-0.07709504619156603,1.8614593744277954,0.9245401620864868,1.5884262323379517
1730869642.263953,-0.07944881916046143,0.546620786190033,-9.95679759979248,0.08132431638257645,-0.031567166933181505,-0.030670919235569836,1.862555742263794,0.9272342324256897,1.5882290601730347
1730869642.314011,-0.22987815737724304,0.5213619470596313,-9.905462265014648,0.030457814620903415,-0.0013100522286735314,0.017925005612536606,1.8610904216766357,0.9317132234573364,1.5883378982543945
1730869642.363998,-0.32253801822662354,0.5138437151908875,-9.829122543334961,-0.030577418396209467,0.022554953831284464,0.06050770548596284,1.8607076406478882,0.9365703463554382,1.5878958702087402
1730869642.4139462,-0.46659037470817566,0.49257367849349976,-9.750296592712402,-0.09107791202452907,0.03659058272082429,0.09118081122924535,1.8606611490249634,0.9405204653739929,1.5879634618759155
1730869642.4639711,-0.5418939590454102,0.4688367545604706,-9.732604026794434,-0.14014393326662458,0.04073046003244662,0.10751255751348451,1.8603265285491943,0.9445569515228271,1.5882786512374878
1730869642.5139472,-0.6550023555755615,0.4437015950679779,-9.692593574523926,-0.17230635580807915,0.03803500378569874,0.11106808868360313,1.8604947328567505,0.945684552192688,1.5876848697662354
1730869642.5639637,-0.6737224459648132,0.3992093801498413,-9.718687057495117,-0.1904002012638666,0.033556814515998505,0.10641383266678825,1.859769582748413,0.9488351941108704,1.5881105661392212
1730869642.61394,-0.7121393084526062,0.3766111135482788,-9.759568214416504,-0.19836804882645587,0.031785151238265884,0.0968112199148064,1.8605316877365112,0.9558018445968628,1.5873175859451294
1730869642.66391,-0.6422999501228333,0.3201320469379425,-9.792581558227539,-0.19369873946696173,0.03457310559129927,0.08104237437592371,1.8596745729446411,0.9604342579841614,1.5876420736312866
1730869642.713927,-0.6320587992668152,0.2514649033546448,-9.983134269714355,-0.17035715224580344,0.04146780697934231,0.055930869639706796,1.8612020015716553,0.9651939272880554,1.58710515499115
1730869642.7638936,-0.47746747732162476,0.28865641355514526,-10.021594047546387,-0.12586186065450655,0.050871313582865424,0.020287776708126735,1.8606117963790894,0.9699264168739319,1.5873024463653564
1730869642.8138812,-0.3305608332157135,0.3183807134628296,-10.258172988891602,-0.0633162753933984,0.05908691882348131,-0.023519672015426717,1.8622081279754639,0.9768289923667908,1.586761236190796
1730869642.863872,-0.14146694540977478,0.3476741313934326,-10.19037914276123,0.010926980535450097,0.05972626194106874,-0.06944040314769598,1.8621411323547363,0.98231440782547,1.5866092443466187
1730869642.9138708,-0.03874998912215233,0.39816996455192566,-10.344351768493652,0.08873756824407406,0.047676590899276505,-0.10808870390692232,1.8635233640670776,0.986629843711853,1.589174509048462
1730869642.9638798,0.08373191952705383,0.4246399700641632,-10.221000671386719,0.16004588320644747,0.023563036015849498,-0.12863883853768945,1.8643085956573486,0.9923452734947205,1.5895707607269287
1730869643.0138795,0.08122407644987106,0.43274185061454773,-10.217907905578613,0.21377427160360785,-0.006445896774498871,-0.1230474927376408,1.8627569675445557,0.9957084059715271,1.5915051698684692
1730869643.0638306,0.06882679462432861,0.255118727684021,-10.159076690673828,0.24008172998089927,-0.032964332665299224,-0.08992114041106387,1.8634496927261353,1.0009123086929321,1.5920294523239136
1730869643.113822,-0.11926605552434921,0.019597701728343964,-9.96467113494873,0.2324105332069166,-0.04375182427828586,-0.03577452871829497,1.8647369146347046,1.0060598850250244,1.592401146888733
1730869643.1638331,-0.5079531073570251,0.009431448765099049,-10.12120246887207,0.18646035301084662,-0.024243492647981913,0.027730011524321738,1.8621129989624023,1.0060551166534424,1.59383225440979
1730869643.213823,-0.8192068934440613,0.5734463334083557,-9.389470100402832,0.09883892567602516,0.030904976802381322,0.09118012110303514,1.8604238033294678,1.0199428796768188,1.5974843502044678
1730869643.2637522,-1.0653454065322876,0.561811089515686,-10.075665473937988,-0.025314957097350127,0.099617016812672,0.14978471591467135,1.8600964546203613,1.0290939807891846,1.5999542474746704
1730869643.313797,-1.0015747547149658,0.6883325576782227,-9.217734336853027,-0.16256794103609368,0.14066567882697817,0.19173176079614737,1.858916163444519,1.0302156209945679,1.6003203392028809
1730869643.3637147,-0.09125407785177231,0.8624982833862305,-10.235674858093262,-0.2724262190195786,0.12837142182164518,0.19180684277269358,1.857670545578003,1.0373725891113281,1.6027368307113647
1730869643.413741,-0.38529932498931885,0.7108660340309143,-9.46646499633789,-0.3055466652727812,0.06865903960100012,0.12612710214583758,1.855666995048523,1.0449124574661255,1.6056015491485596
1730869643.4637506,-0.16204795241355896,0.7875646948814392,-10.138001441955566,-0.2227307804765123,-0.012788304572374745,-0.009534025002222946,1.857346773147583,1.0399538278579712,1.6022125482559204
1730869643.5137298,-0.20404347777366638,0.578629195690155,-9.91048812866211,-0.02706484862783074,-0.08562163202201727,-0.1907581820383941,1.856566309928894,1.0446972846984863,1.6035255193710327
1730869643.5636964,0.0028200186789035797,0.6703667044639587,-9.9288969039917,0.22083629070642027,-0.12548955861134037,-0.3649083984958478,1.8559430837631226,1.0483213663101196,1.6037977933883667
1730869643.6137302,-0.05829745531082153,0.4733785390853882,-10.171789169311523,0.43090217196795455,-0.12281265225899385,-0.4709207451859179,1.856160283088684,1.0527355670928955,1.6052759885787964
1730869643.6636841,0.12818670272827148,0.6400346159934998,-9.796616554260254,0.5361463285992527,-0.08640590739794782,-0.4746731982389687,1.8572735786437988,1.0561509132385254,1.604467749595642
1730869643.7136822,-0.011113164015114307,0.5183312892913818,-10.259489059448242,0.5231172415534968,-0.03800724192081449,-0.38415578445018045,1.8597567081451416,1.0597124099731445,1.6025608777999878
1730869643.7636876,0.06727344542741776,0.7041241526603699,-9.767502784729004,0.42269894501704347,-0.0013446863125269161,-0.23417474119481108,1.8557360172271729,1.0625932216644287,1.6044758558273315
1730869643.8136792,-0.017141753807663918,0.6151036024093628,-10.218737602233887,0.2834996903064403,0.00861253397294898,-0.0692631443069865,1.8573499917984009,1.0662851333618164,1.603369951248169
1730869643.8636806,-0.017141753807663918,0.6151036024093628,-10.218737602233887,0.14829531297019002,-0.00657845239163157,0.06248144683401105,1.8537992238998413,1.0697669982910156,1.60496187210083
1730869643.8636806,0.2503340542316437,0.5549096465110779,-9.876626014709473,0.04302592323346725,-0.029898047239617826,0.1205915496376879,1.8538048267364502,1.0698552131652832,1.6049600839614868
1730869643.9136875,0.4995477795600891,0.21216973662376404,-10.130516052246094,-0.01722336282239164,-0.03999910342862047,0.09920076875672926,1.8540291786193848,1.0736134052276611,1.6050059795379639
1730869643.9636223,-0.2620524764060974,0.7270097136497498,-10.222326278686523,-0.022597212975425912,-0.023021141188179314,0.035588931762184015,1.8542077541351318,1.0773502588272095,1.6052178144454956
1730869644.0136008,-0.13290540874004364,0.6897579431533813,-9.493515014648438,0.018326565946969724,0.018443546046918516,-0.019336918627355055,1.8543834686279297,1.0811277627944946,1.6054524183273315
1730869644.0635738,-0.19432005286216736,0.34217116236686707,-10.628222465515137,0.07057090689086352,0.06509229418831694,-0.03087579486812051,1.8516863584518433,1.0788882970809937,1.6034832000732422
1730869644.113666,-0.19057980179786682,0.6150658130645752,-9.327078819274902,0.09522064750064732,0.09634808633912886,0.010254910641597656,1.8517136573791504,1.0816371440887451,1.6031347513198853
1730869644.163603,-0.25791704654693604,0.2226652055978775,-10.604804992675781,0.07711023296354758,0.10267088932140893,0.09602899402581493,1.8510953187942505,1.142137885093689,1.6014716625213623
1730869644.213523,-0.3110390305519104,0.5660524368286133,-9.38919734954834,0.028016068884495548,0.08318332997826516,0.21444804233739684,1.8511507511138916,1.1642343997955322,1.6011759042739868
1730869644.2635417,-0.3814604580402374,0.31916752457618713,-10.299942970275879,-0.029089968875865433,0.0413605309999764,0.35126823285571,1.8504812717437744,1.195083498954773,1.6000529527664185
1730869644.3135343,-0.45995962619781494,0.5765684843063354,-9.674023628234863,-0.07578447300376633,-0.016305291770387562,0.4862800567976032,1.850155234336853,1.2185659408569336,1.60085129737854
1730869644.3636172,-0.43707606196403503,0.4859800636768341,-9.87215518951416,-0.10385090126617706,-0.08046644833152093,0.5941313234138356,1.8496532440185547,1.2396957874298096,1.5992258787155151
1730869644.4135127,-0.5404067039489746,0.5086633563041687,-9.972716331481934,-0.11312581068556929,-0.1391994473518509,0.6504782522252174,1.8489691019058228,1.2596206665039062,1.6013238430023193
1730869644.4635427,-0.4092273712158203,0.660321056842804,-9.609984397888184,-0.10780005044356199,-0.180123311704003,0.6388023360245392,1.8487670421600342,1.2919641733169556,1.597959041595459
1730869644.5144646,-0.2849828600883484,0.6288641095161438,-10.141220092773438,-0.09229545548591991,-0.19483851416595227,0.5548024736953414,1.8478785753250122,1.3170342445373535,1.6003847122192383
1730869644.563495,-0.5074796676635742,0.46440672874450684,-9.479636192321777,-0.06863018332163337,-0.18133699592595592,0.40922878894042625,1.8468397855758667,1.340307593345642,1.603865623474121
1730869644.614425,-0.5905494093894958,0.08554358780384064,-10.516690254211426,-0.04068050218793035,-0.13872265466914332,0.2250408856272635,1.8456214666366577,1.3641207218170166,1.6082844734191895
1730869644.6634994,-0.31416353583335876,0.4308895170688629,-9.454970359802246,-0.018077326286317124,-0.06319599730804844,0.02975636261744037,1.8443379402160645,1.387487530708313,1.6129937171936035
1730869644.7133956,-0.4954310953617096,0.20346935093402863,-10.574772834777832,-0.008914419295274617,0.04371913341418596,-0.15054922749993893,1.8477579355239868,1.3368351459503174,1.5962191820144653
1730869644.7634587,-0.2363559901714325,0.3924005627632141,-9.681812286376953,-0.01097149491292141,0.16408327178039925,-0.2916135626787926,1.8473527431488037,1.349534273147583,1.5958770513534546
1730869644.8134453,-0.3718050420284271,0.3479723334312439,-10.394153594970703,-0.012751727792139098,0.26305642576772914,-0.364604560584189,1.8470799922943115,1.3905988931655884,1.5926263332366943
1730869644.8646162,-0.2280704230070114,0.3527314066886902,-9.902915000915527,-0.0014684801959495546,0.3032221169190763,-0.3396666089982931,1.8466057777404785,1.4156938791275024,1.5903962850570679
1730869644.9144082,-0.31431078910827637,0.4204792380332947,-9.997089385986328,0.02734004317489784,0.2685738154504044,-0.21129789118304404,1.8461804389953613,1.4405547380447388,1.5875693559646606
1730869644.9645972,-0.12875942885875702,0.3040870428085327,-10.105982780456543,0.06686576092519496,0.17640212685497517,-0.013516540722516387,1.8458564281463623,1.467331886291504,1.5843034982681274
1730869645.0143406,-0.12875942885875702,0.3040870428085327,-10.105982780456543,0.10691242880777027,0.06518776390934344,0.195793651641396,1.8445820808410645,1.440340280532837,1.590563416481018
1730869645.0143406,-0.18467552959918976,0.39647743105888367,-9.775040626525879,0.14097206504214677,-0.027042015661760066,0.3615418316215931,1.8445638418197632,1.4412373304367065,1.5905412435531616
1730869645.0643427,-0.028133416548371315,0.250489205121994,-10.179338455200195,0.16344820909222033,-0.07895708133569046,0.45080163982887944,1.8393720388412476,1.489163875579834,1.5925705432891846
1730869645.1144207,-0.03759085759520531,0.40411409735679626,-9.74099063873291,0.16745281838977485,-0.09014037271443018,0.45783606794544707,1.8377225399017334,1.5163480043411255,1.5944195985794067
1730869645.164374,0.054534561932086945,0.325038343667984,-10.144251823425293,0.15043207578345333,-0.07496207814071937,0.40059811690192204,1.8341630697250366,1.5459471940994263,1.5943070650100708
1730869645.2143316,-0.004701003432273865,0.4541786015033722,-9.787384986877441,0.11764258210279066,-0.05316590448220862,0.31276263826802264,1.8324639797210693,1.5730059146881104,1.596571683883667
1730869645.2646112,0.01486563216894865,0.4707547724246979,-10.060614585876465,0.07799879577272846,-0.04084785708168079,0.22891939384427806,1.83098566532135,1.600386381149292,1.599561333656311
1730869645.3143055,-0.08802548795938492,0.5412474274635315,-9.909479141235352,0.03825561914777072,-0.04570654960599016,0.17127455761605695,1.8296781778335571,1.627191424369812,1.603000521659851
1730869645.3642857,-0.1137063205242157,0.5488759279251099,-9.926030158996582,0.0005893353757452299,-0.06812845156967413,0.145976633358037,1.8298591375350952,1.5903558731079102,1.600013017654419
1730869645.4142537,-0.21692059934139252,0.5124861001968384,-9.985512733459473,-0.035830176261142675,-0.10262273033461453,0.14644976243435384,1.8232800960540771,1.5886244773864746,1.6045191287994385
1730869645.4642723,-0.21451731026172638,0.5373919606208801,-9.850554466247559,-0.07032477254324618,-0.13684090872208815,0.15772280549676906,1.8201220035552979,1.5971300601959229,1.607710838317871
1730869645.5142243,-0.2558995187282562,0.4347294867038727,-10.062891960144043,-0.09733530038792615,-0.15448145029893168,0.1625593301171553,1.8169022798538208,1.6048929691314697,1.6111503839492798
1730869645.5642457,-0.22283342480659485,0.50466388463974,-9.866647720336914,-0.1093203949472148,-0.14442462966130987,0.15021183193371915,1.8129364252090454,1.6132910251617432,1.6155186891555786
1730869645.6142201,-0.21682652831077576,0.43120378255844116,-10.103626251220703,-0.10295210317340966,-0.1073509607593979,0.12047310193494987,1.8156390190124512,1.5935739278793335,1.6099337339401245
1730869645.6642606,-0.23247340321540833,0.5084997415542603,-9.90628719329834,-0.08144439417519125,-0.05465524023157742,0.08103711961594601,1.8129445314407349,1.597110629081726,1.6123158931732178
1730869645.71415,-0.1756385862827301,0.5069795250892639,-10.061452865600586,-0.052214042428451526,-0.003448729602930455,0.04372122679002191,1.8105310201644897,1.6000044345855713,1.6144583225250244
1730869645.7641923,-0.2062876671552658,0.5713807344436646,-9.961261749267578,-0.022990053095560768,0.029372976486174547,0.020498259801631197,1.8075166940689087,1.6035388708114624,1.617130994796753
1730869645.8141208,-0.219282865524292,0.5936396718025208,-10.010615348815918,0.0008242482103480928,0.03327076973195556,0.017948375106580355,1.807173252105713,1.6011216640472412,1.6144050359725952
1730869645.8641326,-0.2955225110054016,0.5793054699897766,-9.982548713684082,0.015953632978194902,0.008512631286936648,0.03383977121986703,1.804763674736023,1.6041605472564697,1.6160486936569214
1730869645.9140913,-0.3145597279071808,0.5963557362556458,-9.940560340881348,0.01983216975163355,-0.0327014867580876,0.05860039100002352,1.7992945909500122,1.6125956773757935,1.6197748184204102
1730869645.9641633,-0.39240342378616333,0.5353857278823853,-9.977226257324219,0.010835699814452954,-0.07075329370904998,0.08010721549505341,1.7965383529663086,1.6164804697036743,1.6219731569290161
1730869646.0141048,-0.4082666337490082,0.5505759716033936,-9.907638549804688,-0.009739999866474842,-0.08842450556387416,0.08901035734634646,1.7903209924697876,1.6210551261901855,1.6263028383255005
1730869646.0641017,-0.44736248254776,0.47820374369621277,-10.013721466064453,-0.03668239717108458,-0.07887077407470877,0.08155642753997486,1.7863776683807373,1.6248589754104614,1.6294819116592407
1730869646.1140478,-0.4405917227268219,0.48499512672424316,-9.897796630859375,-0.06225394196348105,-0.046563926835165984,0.05936960646017833,1.7804298400878906,1.630252480506897,1.6332186460494995
1730869646.164064,-0.4600219130516052,0.42097339034080505,-10.012045860290527,-0.07896475189290865,-0.0029814624249408592,0.02784859989906753,1.7750242948532104,1.635158658027649,1.637143611907959
1730869646.2141092,-0.4306638240814209,0.44706976413726807,-9.90093994140625,-0.08238494683339681,0.03900460986152024,-0.005880219947978167,1.7692946195602417,1.6402217149734497,1.6411845684051514
1730869646.2641013,-0.4370201826095581,0.4179268479347229,-9.960070610046387,-0.07243824796407583,0.06951368658234751,-0.03503153806292427,1.7760437726974487,1.6360447406768799,1.6370139122009277
1730869646.3140852,-0.4038763642311096,0.46072638034820557,-9.892661094665527,-0.05263654524790846,0.08377543657604627,-0.05427934936076231,1.7731202840805054,1.639185905456543,1.6389373540878296
1730869646.36407,-0.398923397064209,0.4501756429672241,-9.902246475219727,-0.02816928324681404,0.08134918619584644,-0.05980760360906459,1.7700780630111694,1.642554521560669,1.64072585105896
1730869646.414025,-0.3936251997947693,0.45514073967933655,-9.896370887756348,-0.003887271761728455,0.06434406076363208,-0.0498003132969726,1.7738035917282104,1.6422151327133179,1.6351405382156372
1730869646.464101,-0.34694769978523254,0.4590561091899872,-9.881757736206055,0.01685412114459854,0.03737977688195998,-0.026316835871910763,1.772360920906067,1.6446630954742432,1.63528573513031
1730869646.514046,-0.3072854280471802,0.43015238642692566,-9.906818389892578,0.03255346636950479,0.007917833901840855,0.0034895991599080464,1.7709249258041382,1.647261619567871,1.6354085206985474
1730869646.5639932,-0.2452460527420044,0.42226243019104004,-9.920068740844727,0.0440684895277722,-0.015462892781122874,0.02946481272139213,1.7697172164916992,1.6534998416900635,1.6339861154556274
1730869646.6139295,-0.19761919975280762,0.3919502794742584,-9.991083145141602,0.054298766415440056,-0.026345974699474035,0.042805452568757923,1.7663389444351196,1.659488558769226,1.628888487815857
1730869646.6640372,-0.12579606473445892,0.4076811969280243,-9.977927207946777,0.06531444069555917,-0.023375641533688166,0.03973444353967724,1.764457106590271,1.6634775400161743,1.6274226903915405
1730869646.7140067,-0.077049620449543,0.3897126615047455,-10.083656311035156,0.07612049694571624,-0.01087675983377501,0.02276557325003971,1.7636451721191406,1.668797254562378,1.6222760677337646
1730869646.7639928,-0.024215001612901688,0.4361109435558319,-10.060211181640625,0.0845366183303304,0.0035371326553760127,-0.0011546088225277626,1.7623372077941895,1.6734315156936646,1.619718074798584
1730869646.8139806,0.012607254087924957,0.4661986827850342,-10.104249000549316,0.08943695986423877,0.012476274230885539,-0.023944722373598383,1.7612278461456299,1.6781491041183472,1.6170936822891235
1730869646.863929,0.02772293984889984,0.5211246013641357,-10.067258834838867,0.09078648308510232,0.01080086931150908,-0.03886352081952102,1.7603411674499512,1.682915449142456,1.6143792867660522
1730869646.914009,-0.0033041713759303093,0.5532737970352173,-10.052694320678711,0.08963215069699257,-0.003932099783708837,-0.04228778852550871,1.7621194124221802,1.6770570278167725,1.6175867319107056
1730869646.9639442,-0.05097293108701706,0.5577043294906616,-10.0164794921875,0.08700222620867024,-0.0304960925260732,-0.03434648563778239,1.7618008852005005,1.6798882484436035,1.6158998012542725
1730869647.0139484,-0.13450872898101807,0.5447826385498047,-9.963425636291504,0.08077201255596204,-0.06179243322806977,-0.01778942928072856,1.761691689491272,1.6826777458190918,1.6140981912612915
1730869647.063964,-0.22258703410625458,0.5241838693618774,-9.938746452331543,0.06454752469564336,-0.08563560674584426,0.004005088453763109,1.7623467445373535,1.6846516132354736,1.61400306224823
1730869647.1138673,-0.3060370087623596,0.5000154972076416,-9.885875701904297,0.03200757127774956,-0.0913049198239708,0.028240616842279447,1.7624324560165405,1.6868973970413208,1.612724781036377
1730869647.1638787,-0.3644818663597107,0.4758007228374481,-9.872639656066895,-0.016039016887003113,-0.07596006814855963,0.051857606302965535,1.7615944147109985,1.6957190036773682,1.6087379455566406
1730869647.213788,-0.3800033628940582,0.46098676323890686,-9.85909652709961,-0.06922197133046959,-0.04514108213912417,0.07058719644670153,1.7612191438674927,1.6996768712997437,1.6068594455718994
1730869647.2637997,-0.35476428270339966,0.45055919885635376,-9.900376319885254,-0.11227406710297179,-0.009026575776793614,0.07990436730379227,1.7603323459625244,1.707703709602356,1.603864312171936
1730869647.3137927,-0.3159610629081726,0.45218873023986816,-9.920668601989746,-0.1319847325737171,0.02202186942634786,0.07668682654188051,1.7593886852264404,1.7130545377731323,1.6018420457839966
1730869647.363869,-0.26501429080963135,0.4326716959476471,-9.968807220458984,-0.12246028845918747,0.04099789898489889,0.06059715466934322,1.7590699195861816,1.719491958618164,1.5990610122680664
1730869647.4137383,-0.21737584471702576,0.41335347294807434,-9.981993675231934,-0.08700329453812758,0.04607497383892528,0.03473765466551389,1.7579474449157715,1.7257248163223267,1.5967650413513184
1730869647.4638407,-0.19031517207622528,0.39624860882759094,-10.013904571533203,-0.03627236227739944,0.04038029487373245,0.00501848102709875,1.7566795349121094,1.732023000717163,1.5945338010787964
1730869647.5137415,-0.18901197612285614,0.38465416431427,-10.018301010131836,0.016059626259647117,0.030008327161120757,-0.021860155226105564,1.7585015296936035,1.7295981645584106,1.5959657430648804
1730869647.5637686,-0.2123315930366516,0.3913135528564453,-10.023021697998047,0.05804317118008488,0.02098497886011381,-0.04099655362601031,1.7581491470336914,1.7338021993637085,1.5944713354110718
1730869647.6137507,-0.26382237672805786,0.4013199210166931,-9.994392395019531,0.08148005763329538,0.016216529824370777,-0.0501163070346245,1.7579909563064575,1.7377324104309082,1.5929807424545288
1730869647.6637037,-0.3131924271583557,0.42744553089141846,-9.967846870422363,0.08160033465981595,0.014330106861723917,-0.04848573017535526,1.7578614950180054,1.7414913177490234,1.5982636213302612
1730869647.7136736,-0.3577885031700134,0.4446605145931244,-9.945148468017578,0.05815570930358628,0.011651622987772848,-0.03661519098106079,1.757818341255188,1.7462100982666016,1.5981558561325073
1730869647.7636933,-0.37537023425102234,0.4685766100883484,-9.933568000793457,0.01772534362152233,0.0054968208959586635,-0.017236334890292464,1.7578707933425903,1.7505136728286743,1.5979934930801392
1730869647.8136742,-0.4064066708087921,0.4926947057247162,-9.947056770324707,-0.02747556123029809,-0.0043750836334180065,0.004647749674091218,1.7571412324905396,1.7578803300857544,1.6024699211120605
1730869647.8636658,-0.4279033839702606,0.49074962735176086,-9.959426879882812,-0.06523733042984851,-0.016461982781462582,0.02338122133267124,1.7568323612213135,1.7624212503433228,1.6032168865203857
1730869647.9137197,-0.4314790964126587,0.4825657606124878,-9.974254608154297,-0.08785444154376307,-0.02794803675787384,0.034332505129643115,1.755689263343811,1.7749420404434204,1.6064482927322388
1730869647.9637535,-0.42008790373802185,0.4526536464691162,-10.003660202026367,-0.09266258424765846,-0.03483613749396698,0.03492079058599959,1.754799485206604,1.78761887550354,1.6090669631958008
1730869648.01375,-0.3733789026737213,0.40836042165756226,-10.026961326599121,-0.08107135282730944,-0.033608475953434844,0.025483175075569648,1.7538492679595947,1.7955442667007446,1.6107808351516724
1730869648.0636902,-0.3233064115047455,0.381653755903244,-10.0225191116333,-0.05700192217624876,-0.023148537545565222,0.009428221105347535,1.7527493238449097,1.8032292127609253,1.6125009059906006
1730869648.1137176,-0.2568410634994507,0.3519934117794037,-10.007404327392578,-0.02462843514481922,-0.004820780946289622,-0.007986065504694684,1.7535570859909058,1.8068645000457764,1.612866759300232
1730869648.163623,-0.21885737776756287,0.3534380793571472,-9.97520637512207,0.012495547391722737,0.018214150238940727,-0.021461419448544655,1.752952218055725,1.8135597705841064,1.6141701936721802
1730869648.2136135,-0.20870552957057953,0.3706737458705902,-9.920510292053223,0.04945495864068193,0.04057699028047958,-0.026749030405993593,1.7532320022583008,1.824049949645996,1.6156096458435059
1730869648.2636893,-0.22680526971817017,0.40708187222480774,-9.891953468322754,0.07853403901657936,0.05496068582052444,-0.021326617023104455,1.7530665397644043,1.8323954343795776,1.6169389486312866
1730869648.3136282,-0.24722518026828766,0.43727800250053406,-9.859329223632812,0.0918214796350836,0.05534164033298226,-0.005810198624051457,1.7531145811080933,1.8407866954803467,1.6182198524475098
1730869648.3636997,-0.2595447599887848,0.46513307094573975,-9.870052337646484,0.08526198417375834,0.04017422186830821,0.015475184952630717,1.753401756286621,1.849758267402649,1.6195836067199707
1730869648.413612,-0.2595447599887848,0.46513307094573975,-9.870052337646484,0.06065745279222833,0.012496111420983412,0.03659152060142661,1.7522962093353271,1.8474209308624268,1.6160812377929688
1730869648.413612,-0.27531012892723083,0.4780859351158142,-9.87732219696045,0.02519928549487228,-0.021365041009754712,0.052480635029426695,1.752295732498169,1.8475497961044312,1.6160918474197388
1730869648.463567,-0.2647063434123993,0.47511547803878784,-9.936090469360352,-0.010900827874455099,-0.052716604879136424,0.05936159051853568,1.7522634267807007,1.8533424139022827,1.6166490316390991
1730869648.5135667,-0.22866883873939514,0.47368383407592773,-9.976019859313965,-0.03777686216101937,-0.07271017398931348,0.05413167055081651,1.7507498264312744,1.8764017820358276,1.6161208152770996
1730869648.5635414,-0.22866883873939514,0.47368383407592773,-9.976019859313965,-0.04918060433740172,-0.07633619384704353,0.03554337317577678,1.7500883340835571,1.8876700401306152,1.6165952682495117
1730869648.5635414,-0.1901504397392273,0.4693188965320587,-10.02367115020752,-0.04443351598347367,-0.06470568920851834,0.007126584528114441,1.7500804662704468,1.8877917528152466,1.6166008710861206
1730869648.6135154,-0.1109015941619873,0.47250789403915405,-10.051803588867188,-0.027399427012049428,-0.04361005941621644,-0.023041400353406846,1.7490836381912231,1.9032320976257324,1.616463541984558
1730869648.6635008,-0.04361279308795929,0.4863695800304413,-10.067923545837402,-0.0030339955598941946,-0.02045022028154527,-0.04717526670368027,1.7482621669769287,1.9160714149475098,1.6166696548461914
1730869648.7135756,0.0019530586432665586,0.5168930292129517,-10.05195140838623,0.024560957621350604,-0.0018462580373154575,-0.06103378277086151,1.7477391958236694,1.9338806867599487,1.616533875465393
