Timestamp,IMU_Linear_Acc_X,IMU_Linear_Acc_Y,IMU_Linear_Acc_Z,Filtered_X,Filtered_Y,Filtered_Z,Pose_X,Pose_Y,Pose_Z
1730866779.552247,-1.9054652452468872,0.35622867941856384,-9.912497520446777,-0.009192618599265942,-0.001718569463380972,-0.04782129157114599,0.9929999709129333,6.688000202178955,0.8949999809265137
1730866779.60238,-1.9605969190597534,0.307625949382782,-9.913443565368652,-0.05881847786244682,-0.010711974292935956,-0.30460290272819407,0.9929255843162537,6.687986850738525,0.8946148157119751
1730866779.6523023,-1.8921996355056763,0.29567497968673706,-9.948633193969727,-0.17425514565766126,-0.030486792502018325,-0.898222961887378,0.9925597906112671,6.68792200088501,0.8927257657051086
1730866779.7023256,-1.8381562232971191,0.2925644516944885,-9.959775924682617,-0.3242753005883269,-0.05325573758818851,-1.6661768269151298,-0.14881394803524017,-0.9990566372871399,-0.1362115442752838
1730866779.7522938,-1.851077914237976,0.25517538189888,-9.949138641357422,-0.4337727175373453,-0.06393140753804617,-2.2318182024721613,-0.4282151162624359,-2.87119197845459,-0.3942764699459076
1730866779.8023214,-1.9615278244018555,0.2478145807981491,-9.89478874206543,-0.44750288931717985,-0.052680380797172105,-2.3257487892850093,-0.1324470043182373,-0.8840307593345642,-0.12456401437520981
1730866779.85221,-2.051208972930908,0.2444784790277481,-9.828155517578125,-0.36481676906037747,-0.020267687830830605,-1.9368397091549079,-0.20726266503334045,-1.374040126800537,-0.20102699100971222
1730866779.9022174,-2.0042574405670166,0.29340022802352905,-9.756509780883789,-0.22918173114633933,0.024284983788735625,-1.2472676605003683,-0.0614328607916832,-0.40463176369667053,-0.06132781133055687
1730866779.9521217,-1.9868382215499878,0.32427915930747986,-9.730120658874512,-0.09689020588433436,0.06804295000629891,-0.5017857919028551,-0.08221200108528137,-0.5352462530136108,-0.08612102270126343
1730866780.002123,-2.0119965076446533,0.3401558995246887,-9.680103302001953,-0.008192303218341464,0.09872130850166311,0.10112353162618601,-0.10306742787361145,-0.6653141975402832,-0.11134717613458633
1730866780.0521455,-2.1139519214630127,0.3092755377292633,-9.694231986999512,0.023413622746399614,0.10909414659431549,0.4624477465409651,-0.12401740252971649,-0.7958316802978516,-0.1360064297914505
1730866780.1022284,-2.1842126846313477,0.28832393884658813,-9.708833694458008,0.004694415390081938,0.09989063237417227,0.5824668607285619,-0.019340520724654198,-0.1244073361158371,-0.020372074097394943
1730866780.1520717,-2.2037980556488037,0.27236127853393555,-9.767258644104004,-0.04884184059423585,0.07915605150390298,0.5270531654601113,-0.022978516295552254,-0.14640673995018005,-0.02238679863512516
1730866780.2021298,-2.0938425064086914,0.2401878833770752,-9.854994773864746,-0.11963725687068552,0.058102430156884516,0.3841254360016131,-0.00636544544249773,-0.039418499916791916,-0.005428843200206757
1730866780.2520528,-1.9804954528808594,0.3036579489707947,-9.908207893371582,-0.18891640031096882,0.045874900294645166,0.22856732706597546,-0.007852647453546524,-0.04485496133565903,-0.004526304081082344
1730866780.3021054,-1.7754285335540771,0.3780212700366974,-9.96745777130127,-0.2365672150099794,0.045232798195913096,0.10472122432956582,-0.009885495528578758,-0.05021749436855316,-0.0031990555580705404
1730866780.3520055,-1.6606069803237915,0.38402265310287476,-9.964255332946777,-0.24397967604560072,0.051083094024211746,0.0262252267484709,-0.0023041130043566227,-0.010306617245078087,-0.0006821447750553489
1730866780.4020524,-1.8769445419311523,0.446695476770401,-9.893830299377441,-0.20125516166932128,0.053840045670856845,-0.01323728432795665,-0.0036561451852321625,-0.011205250397324562,-0.0003220735816285014
1730866780.452055,-2.1086370944976807,0.5598652958869934,-9.806556701660156,-0.11760549679508972,0.04477882164994268,-0.02610052079524053,-0.0012131363619118929,-0.002945158863440156,-9.414205851498991e-05
1730866780.502087,-2.057708263397217,0.5604166984558105,-9.802934646606445,-0.024431851854338965,0.01874376382801915,-0.021329017376169768,-0.0019621585961431265,-0.003023668425157666,-9.54676725086756e-05
1730866780.5519207,-1.6650718450546265,0.6846594214439392,-9.808571815490723,0.041778577743386,-0.025291865036436118,-0.0032253077321329907,-0.0026794695295393467,-0.003108773846179247,-0.0001273964298889041
1730866780.6019883,-1.420696496963501,0.7143785953521729,-9.924821853637695,0.06799427370168336,-0.0845063240853294,0.023917656219717733,-0.003266933374106884,-0.003332586493343115,-0.0001335925771854818
1730866780.6519427,-1.6096585988998413,0.8111962080001831,-9.90498161315918,0.074529817496468,-0.15387173869085763,0.05196429014815233,-0.0036732854787260294,-0.0038521771784871817,-4.5211418182589114e-05
1730866780.702067,-1.6969630718231201,0.9132221341133118,-9.831618309020996,0.09255267039793141,-0.22839784221043724,0.07109242950936447,-0.003872108645737171,-0.0048512062057852745,0.00019724806770682335
1730866780.7519913,-1.7030993700027466,1.001873254776001,-9.8668212890625,0.13480314933485515,-0.3050496116525198,0.0763013682967438,-0.000306104077026248,-0.0007539372309111059,5.756297832704149e-05
1730866780.8019166,-1.6006983518600464,1.023637056350708,-9.83635139465332,0.19057302512705104,-0.3830668436756286,0.07028878861005275,0.00025999441277235746,-0.0021567922085523605,0.0003788964240811765
1730866780.851887,-1.551563024520874,1.087428331375122,-9.826892852783203,0.24217593469699028,-0.4618905800388693,0.06003296948056286,0.00041576544754207134,-0.0012395619414746761,0.00019565419643186033
1730866780.9019206,-1.5140597820281982,1.1039763689041138,-9.834484100341797,0.28013547528154076,-0.5391545393438116,0.05225666922996322,0.0015710279112681746,-0.003537767333909869,0.0005147646297700703
1730866780.9519494,-1.4679865837097168,1.1325297355651855,-9.778359413146973,0.30588897916238833,-0.6109056478473273,0.05106138199567601,0.0034656855277717113,-0.007287343963980675,0.000965052517130971
1730866781.0019603,-1.4166239500045776,1.2003182172775269,-9.813277244567871,0.3267126312488292,-0.6733398051021477,0.05755796749658909,1.1526985168457031,7.721948146820068,1.0364232063293457
1730866781.051841,-1.401034951210022,1.2396211624145508,-9.78692626953125,0.3478289530765167,-0.7208439572404635,0.06993628720369313,1.4307528734207153,9.571762084960938,1.2853808403015137
1730866781.101868,-1.4282552003860474,1.2821996212005615,-9.803163528442383,0.36302007281178467,-0.7373976711309569,0.08298152666381807,1.1335519552230835,7.59015417098999,1.0209989547729492
1730866781.1518526,-1.4543510675430298,1.332376480102539,-9.812241554260254,0.35420859737237453,-0.6979195019215029,0.08940653831663276,1.2077821493148804,8.071070671081543,1.0871425867080688
1730866781.201928,-1.498637080192566,1.3524267673492432,-9.829035758972168,0.30638091108758403,-0.5899866306787402,0.08378579509780991,1.0625208616256714,7.111920356750488,0.9589924812316895
1730866781.2517657,-1.5535510778427124,1.3788304328918457,-9.848711967468262,0.22149993530702433,-0.4303445022676508,0.06552428731572217,1.0834534168243408,7.237562656402588,0.9775807857513428
1730866781.30184,-1.5871630907058716,1.3863065242767334,-9.849644660949707,0.11735038754042185,-0.2564520948777139,0.038771825893225136,1.1051712036132812,7.364528656005859,0.9966214895248413
1730866781.3517637,-1.5983250141143799,1.4046540260314941,-9.872547149658203,0.017010033333400832,-0.1065843739014682,0.01014070999601949,1.0229816436767578,6.845129013061523,0.9246132373809814
1730866781.401731,-1.597119927406311,1.4297209978103638,-9.885760307312012,-0.060922745411690314,-0.005401735047893735,-0.014287014908071504,1.0277060270309448,6.871521472930908,0.9290109872817993
1730866781.4516852,-1.5799914598464966,1.4330847263336182,-9.869942665100098,-0.10620452310585955,0.04108827633806615,-0.030699877410634315,1.0078905820846558,6.756124973297119,0.9141831994056702
1730866781.5016832,-1.6042726039886475,1.4380176067352295,-9.870399475097656,-0.11680689798014464,0.04303244662156301,-0.03752725382700331,1.0084444284439087,6.7633867263793945,0.9159317016601562
1730866781.5516849,-1.6052600145339966,1.3980276584625244,-9.83267879486084,-0.09897732763396083,0.019678139368025024,-0.035068881970489005,1.0087274312973022,6.770727634429932,0.9175891876220703
1730866781.6017194,-1.6437351703643799,1.3554434776306152,-9.794923782348633,-0.06597119849951613,-0.008363697324136603,-0.024905242744375583,1.0088034868240356,6.7780585289001465,0.9191663265228271
1730866781.6515894,-1.7023192644119263,1.2882513999938965,-9.759187698364258,-0.03351064591605635,-0.02468773292742267,-0.008626099680763706,1.0015194416046143,6.723949909210205,0.9113171100616455
1730866781.701671,-1.7651479244232178,1.2263257503509521,-9.715426445007324,-0.014361667482580269,-0.020460177683197838,0.012473480276667476,1.001254677772522,6.725350379943848,0.9120005369186401
1730866781.7516334,-1.8086272478103638,1.1624884605407715,-9.6951265335083,-0.014136323615419569,0.0037997684896293087,0.035808151168646295,0.9996353983879089,6.7173309326171875,0.9123997092247009
1730866781.8016527,-1.8793381452560425,1.086890459060669,-9.683050155639648,-0.030123707351077958,0.039631681994990814,0.05661385941825494,0.9992038011550903,6.7180280685424805,0.9135128259658813
1730866781.851642,-1.9179681539535522,1.0293210744857788,-9.69504451751709,-0.05430658276355797,0.07579785673539705,0.06952588526406511,0.9991477131843567,6.716001510620117,0.9141046404838562
1730866781.9016519,-1.954431176185608,0.9683744311332703,-9.744952201843262,-0.07787953015485483,0.10351577416746915,0.0707247245441385,0.998712956905365,6.716784477233887,0.9153675436973572
1730866781.95155,-1.9243277311325073,0.9388399720191956,-9.780658721923828,-0.09377004184398988,0.11850563597614083,0.058868377495261213,0.9980627298355103,6.717846393585205,0.9167943596839905
1730866782.0015864,-1.8955936431884766,0.9100903868675232,-9.87145709991455,-0.09712908008882727,0.12080147071826564,0.034663471051896246,0.9988040924072266,6.716583251953125,0.913611114025116
1730866782.0515065,-1.829331874847412,0.8860329389572144,-9.916145324707031,-0.08579051909243524,0.11384605677839671,0.00041722098259870666,0.9982532858848572,6.7175164222717285,0.9139887094497681
1730866782.1014755,-1.7700344324111938,0.8687951564788818,-9.977492332458496,-0.06059573777642005,0.10196837185480308,-0.03876144764193118,0.9975165724754333,6.718724727630615,0.9143210053443909
1730866782.1514723,-1.6651270389556885,0.8251006007194519,-10.001388549804688,-0.024078300782018773,0.08801716198806794,-0.07506747705816093,0.9999114871025085,6.717692852020264,0.9107667207717896
1730866782.2015204,-1.5899972915649414,0.7888863682746887,-10.026358604431152,0.020714610066215174,0.07408753758386333,-0.10164555988556116,0.9999772906303406,6.718620300292969,0.9099355936050415
1730866782.2515244,-1.4788490533828735,0.7582079172134399,-10.022480010986328,0.068729811021486,0.062485411999431015,-0.1147101459272291,1.0001533031463623,6.719706058502197,0.9088459610939026
1730866782.3014436,-1.4184072017669678,0.7189624309539795,-10.008719444274902,0.11289544932508888,0.055034628416535496,-0.11269255299203243,1.0012816190719604,6.718700408935547,0.908183217048645
1730866782.351448,-1.3910601139068604,0.7018033862113953,-9.99121379852295,0.14767265877896868,0.052635808343290715,-0.09650069022580685,1.0020513534545898,6.719450950622559,0.9069979786872864
1730866782.4015388,-1.4234352111816406,0.6778292059898376,-9.943195343017578,0.16888114983826044,0.054457867315777286,-0.06991065856364737,1.0050019025802612,6.719786643981934,0.910880446434021
1730866782.4523633,-1.4354772567749023,0.6544614434242249,-9.905899047851562,0.17093780935909922,0.057348693418193354,-0.03800347066853958,1.0078442096710205,6.720711708068848,0.9132615923881531
1730866782.501388,-1.4224663972854614,0.6392255425453186,-9.8737211227417,0.15024412729407655,0.05763266232148172,-0.005862861656059752,1.0100383758544922,6.721578598022461,0.9139858484268188
1730866782.552336,-1.393372654914856,0.6399043202400208,-9.857280731201172,0.11104011909507902,0.053346278961957094,0.021681339129346944,1.012647032737732,6.722619533538818,0.9147583842277527
1730866782.6023467,-1.4740822315216064,0.638656497001648,-9.82816219329834,0.06483140758136008,0.044770343743478616,0.04124017746649687,1.0154523849487305,6.723774433135986,0.9156028032302856
1730866782.6523426,-1.5379623174667358,0.6549021005630493,-9.809791564941406,0.02327270301946116,0.03380943291849703,0.052658443942391185,1.0103819370269775,6.720898628234863,0.9159592390060425
1730866782.7024016,-1.611527442932129,0.6458749175071716,-9.765271186828613,-0.008491430299903017,0.022824085372275992,0.058723735783696676,1.0114312171936035,6.721269607543945,0.9167944192886353
1730866782.752264,-1.7161686420440674,0.6638723611831665,-9.76686954498291,-0.03219224654685719,0.01356245771007056,0.06231037522130593,1.012424111366272,6.721683979034424,0.9177758693695068
1730866782.8022208,-1.7410298585891724,0.6800909042358398,-9.7890625,-0.05294597527702528,0.006624770279962394,0.06401530313120218,1.0133006572723389,6.720818042755127,0.9183807373046875
1730866782.8522215,-1.7734254598617554,0.6995884776115417,-9.809257507324219,-0.07542750210058148,0.001382968819611867,0.06243418129572362,1.0142768621444702,6.7209882736206055,0.9194981455802917
1730866782.9023304,-1.7740166187286377,0.733119785785675,-9.839550971984863,-0.09902711496604644,-0.003516339986093453,0.05553071253048026,1.0150398015975952,6.721157073974609,0.9207727909088135
1730866782.9521852,-1.7902456521987915,0.7904213666915894,-9.874380111694336,-0.11650590808531938,-0.009735919028832762,0.04158443745943619,1.016343355178833,6.71913480758667,0.9203850030899048
1730866783.0022204,-1.7866692543029785,0.8683267831802368,-9.911246299743652,-0.12003659110225985,-0.019253072707707042,0.020314046388805834,1.0193750858306885,6.717693328857422,0.9221111536026001
1730866783.0522697,-1.7985845804214478,0.9359285235404968,-9.9231595993042,-0.1073477649717655,-0.033199821748796814,-0.005534298794588797,1.0204089879989624,6.717022895812988,0.923189640045166
1730866783.102264,-1.7741609811782837,1.0240875482559204,-9.93701171875,-0.08209268725079022,-0.050421221254292534,-0.02997901713908274,1.0212019681930542,6.716250419616699,0.9242202639579773
1730866783.152206,-1.7724065780639648,1.100039005279541,-9.92455005645752,-0.051088963620304184,-0.06924705384854661,-0.046626168502033064,1.0218273401260376,6.715329647064209,0.9251536726951599
1730866783.2022998,-1.766768455505371,1.1267400979995728,-9.891798973083496,-0.02129739024695266,-0.09072189628775587,-0.05206994847819124,1.0223642587661743,6.714204788208008,0.9259665608406067
1730866783.2522106,-1.7773774862289429,1.1105138063430786,-9.859416007995605,0.0023148804038325673,-0.11788054015137117,-0.04638326531341957,1.0228739976882935,6.712827205657959,0.926651656627655
1730866783.3023438,-1.7495454549789429,1.070875883102417,-9.844228744506836,0.0175378078132321,-0.1513282934234714,-0.031468647982341,1.0224075317382812,6.715059757232666,0.921264111995697
1730866783.3521261,-1.7061011791229248,1.0365581512451172,-9.841988563537598,0.024958643828786542,-0.18536394599031636,-0.01029916434659782,1.0230095386505127,6.713919162750244,0.9211565256118774
1730866783.4020462,-1.6602259874343872,1.0255399942398071,-9.836823463439941,0.02760883648130474,-0.20727775661490724,0.012364956629906708,1.0231072902679443,6.7123122215271,0.9202332496643066
1730866783.4520674,-1.6161472797393799,1.0092666149139404,-9.825483322143555,0.029683283637665505,-0.20285996105597587,0.030439216392133102,1.0236403942108154,6.710482120513916,0.9200959801673889
1730866783.5021923,-1.5960696935653687,1.0262367725372314,-9.835089683532715,0.0342482119426644,-0.16687406848804764,0.03935625803012874,1.0242551565170288,6.708182334899902,0.9200465083122253
1730866783.552138,-1.573472023010254,1.0454888343811035,-9.836730003356934,0.041771860974422675,-0.10846816514800534,0.03830578600110956,1.0227513313293457,6.708697319030762,0.921474277973175
1730866783.6020565,-1.5679324865341187,1.0897225141525269,-9.831216812133789,0.050701036161997205,-0.04606762767676124,0.029815529996786074,1.0229992866516113,6.7070231437683105,0.9219001531600952
1730866783.6519506,-1.5657923221588135,1.1371006965637207,-9.841493606567383,0.05814136032070545,0.0020437849835679874,0.017987420352474578,1.0252645015716553,6.70521354675293,0.9228811264038086
1730866783.7019641,-1.5876872539520264,1.1799267530441284,-9.807215690612793,0.0602695761786925,0.02467070026109785,0.006897063652336655,1.0264147520065308,6.703457355499268,0.92350172996521
1730866783.7519572,-1.6328444480895996,1.1661688089370728,-9.807303428649902,0.053918278635242484,0.02089872555001867,-0.00021693860472810945,1.026536226272583,6.7018561363220215,0.9191450476646423
1730866783.801944,-1.686401605606079,1.1523146629333496,-9.77268123626709,0.038105151132258604,-0.0004952879907962494,-0.0013361800302613299,1.0274951457977295,6.700107097625732,0.9181357026100159
1730866783.8519578,-1.7418162822723389,1.105821132659912,-9.776653289794922,0.014308527557162682,-0.0254479476960245,0.00368366580065827,1.0285141468048096,6.698335647583008,0.9171351790428162
1730866783.9019153,-1.7523829936981201,1.065484881401062,-9.765835762023926,-0.014327567908879162,-0.040451010221228864,0.012918079778200002,1.0295305252075195,6.696486473083496,0.9161579608917236
1730866783.9518695,-1.740357756614685,1.0344728231430054,-9.782804489135742,-0.044310881794259536,-0.036949070884327924,0.023355696708878194,1.0273704528808594,6.698628902435303,0.9157606363296509
1730866784.001823,-1.702338457107544,1.0286614894866943,-9.822345733642578,-0.07160352400960913,-0.013979184023260673,0.03182557455828453,1.0275932550430298,6.697399616241455,0.9150347113609314
1730866784.0517845,-1.6452720165252686,1.018054723739624,-9.864652633666992,-0.08967471456515938,0.020719509194452288,0.034799635611710594,1.028470516204834,6.696461200714111,0.913017213344574
1730866784.1018646,-1.5776164531707764,1.0451972484588623,-9.894434928894043,-0.09023375113814297,0.05343481633564187,0.028831162511937763,1.0285875797271729,6.695498466491699,0.9121500253677368
1730866784.1518066,-1.5271612405776978,1.085958480834961,-9.932682991027832,-0.0686758749496141,0.07122128341732714,0.01306186081364074,1.0285050868988037,6.694684028625488,0.9113275408744812
1730866784.201817,-1.5050489902496338,1.138413667678833,-9.952028274536133,-0.028155914532313985,0.06725194937993977,-0.00939284728120137,1.0287960767745972,6.693310260772705,0.9099608063697815
1730866784.2516968,-1.5058623552322388,1.1912800073623657,-9.94874095916748,0.021721314698824247,0.04203480928505218,-0.03320403241720075,1.0288463830947876,6.692529678344727,0.90898197889328
1730866784.3018835,-1.5528610944747925,1.2020492553710938,-9.92707347869873,0.06751745044653822,0.002831422995180497,-0.05237076350460497,1.031883716583252,6.690786361694336,0.9064928889274597
1730866784.3517325,-1.6002529859542847,1.162050485610962,-9.898863792419434,0.09499490458451466,-0.03819157819012907,-0.06091480705185033,1.0332123041152954,6.689578533172607,0.9047842025756836
1730866784.401876,-1.6458344459533691,1.1075551509857178,-9.86703872680664,0.09495536585497416,-0.06753138895106,-0.05521395441835175,1.034869909286499,6.688246250152588,0.9032649993896484
1730866784.4517407,-1.6958001852035522,1.0380927324295044,-9.818025588989258,0.06798548232745269,-0.0746985320973119,-0.036176953536784406,1.036557912826538,6.686710357666016,0.9014220237731934
1730866784.5017638,-1.717877984046936,0.9779646396636963,-9.786869049072266,0.023755138656427095,-0.05637644404251387,-0.008653719981480141,1.0383374691009521,6.685032367706299,0.8995473384857178
1730866784.5516164,-1.7374910116195679,0.9426652789115906,-9.768881797790527,-0.023984987283905516,-0.01747651980080377,0.021123837684163916,1.0401333570480347,6.683247089385986,0.897670567035675
1730866784.6017811,-1.762826919555664,0.906294584274292,-9.760015487670898,-0.06372386924342828,0.032615977564495045,0.048235734458709136,1.0377455949783325,6.685143947601318,0.9037535786628723
1730866784.6516669,-1.7733542919158936,0.8908398151397705,-9.75399112701416,-0.08977175107288161,0.08383027383913316,0.0697860324159768,1.0384305715560913,6.684323310852051,0.9035986065864563
1730866784.7016385,-1.7678686380386353,0.8772012591362,-9.776786804199219,-0.10073663739883656,0.12536726233468717,0.08305627316427387,1.042457938194275,6.682422161102295,0.904365599155426
1730866784.7516289,-1.7208274602890015,0.896551251411438,-9.806337356567383,-0.096553951649779,0.1463454750621796,0.0844802228476091,1.043684959411621,6.681803226470947,0.9046030640602112
1730866784.8016918,-1.668562889099121,0.9036799073219299,-9.85491943359375,-0.07794769067311003,0.1405806161283487,0.07174818078351071,1.0446956157684326,6.681540489196777,0.905035138130188
1730866784.851654,-1.6196216344833374,0.9055684804916382,-9.896827697753906,-0.04685029112482806,0.11040636138896806,0.0458052735567053,1.0483431816101074,6.678556442260742,0.9060996770858765
1730866784.901731,-1.5751272439956665,0.9149523973464966,-9.959010124206543,-0.006765061310635742,0.06556946377288556,0.010517804867059569,1.0498713254928589,6.677859783172607,0.9066565632820129
1730866784.9515429,-1.552182674407959,0.9418111443519592,-9.986672401428223,0.03588305089401653,0.018950657225370645,-0.02798876062104801,1.0519787073135376,6.673933982849121,0.9075579047203064
1730866785.0017889,-1.5659406185150146,0.9532287120819092,-9.999459266662598,0.07173686860249198,-0.01842455812237756,-0.06208151508406286,1.053936243057251,6.672121047973633,0.9080758094787598
1730866785.051677,-1.5947954654693604,0.9605872631072998,-9.983542442321777,0.09164722743044344,-0.040720806219278496,-0.08443887275802714,1.0561184883117676,6.669438362121582,0.908713161945343
1730866785.1018124,-1.634347677230835,0.9740866422653198,-9.957880973815918,0.09037794516930985,-0.047656644679166124,-0.09013238499421418,1.058443307876587,6.667269229888916,0.9089784026145935
1730866785.1515646,-1.7043951749801636,0.9600773453712463,-9.901137351989746,0.06855012360363075,-0.042874987558134105,-0.07810683710777822,1.0610220432281494,6.6649346351623535,0.9090415239334106
1730866785.201499,-1.7481738328933716,0.9749231934547424,-9.819266319274902,0.031623528655676345,-0.0316778455757866,-0.05080759066787191,1.059296727180481,6.6638665199279785,0.9104476571083069
1730866785.2515604,-1.8636106252670288,0.9544979333877563,-9.76684284210205,-0.01320416674569265,-0.01899484538745515,-0.012569717901044839,1.0607433319091797,6.661954402923584,0.9107338786125183
1730866785.3015268,-1.8545582294464111,1.0044738054275513,-9.697285652160645,-0.05858781450676469,-0.008213916522991267,0.030365707703592586,1.0620499849319458,6.660077095031738,0.9110308289527893
1730866785.351468,-1.868048906326294,1.014823317527771,-9.67747688293457,-0.09722418988217267,-0.0013304604081947314,0.0702117809015125,1.062940001487732,6.657398223876953,0.9128636121749878
1730866785.401509,-1.8257867097854614,1.0180832147598267,-9.665218353271484,-0.12281040981984001,0.0004408609028990362,0.1004956088211518,1.063964605331421,6.655207633972168,0.9138365387916565
1730866785.4514968,-1.7889716625213623,0.9957684874534607,-9.704421997070312,-0.13022427767261527,-0.0025780360322913477,0.11685499933747168,1.0647042989730835,6.65294885635376,0.9151098728179932
1730866785.5015578,-1.736493706703186,0.9724189043045044,-9.738520622253418,-0.11538962331934399,-0.00742751744439214,0.11556880245140168,1.0662236213684082,6.650103569030762,0.9150500297546387
1730866785.5514107,-1.656137228012085,0.9713257551193237,-9.819055557250977,-0.07793327232375019,-0.009800061517166229,0.09484779164597594,1.0669463872909546,6.647701740264893,0.9162474274635315
1730866785.6015198,-1.583364725112915,0.9871044754981995,-9.88502025604248,-0.02415724844217263,-0.007306088958594617,0.057241631632832066,1.0687495470046997,6.64163064956665,0.9173887968063354
1730866785.6514213,-1.5333912372589111,1.0374432802200317,-9.949676513671875,0.03424193544541596,-0.0015695000523706117,0.009370159676651257,1.0699255466461182,6.637845993041992,0.9187442660331726
1730866785.7015111,-1.510298490524292,1.112602949142456,-9.99426555633545,0.08439909800560813,0.002466957496412051,-0.03974022472259765,1.0712652206420898,6.634016036987305,0.9200780391693115
1730866785.7514346,-1.4830982685089111,1.169565200805664,-10.027122497558594,0.11655749758245723,-0.0014291293037417905,-0.08113001031510651,1.0728623867034912,6.630177974700928,0.9212617874145508
1730866785.8015113,-1.49842369556427,1.264623761177063,-10.03924560546875,0.12768907673922125,-0.018915940101442603,-0.10972663731551843,1.0747497081756592,6.626351356506348,0.9221959710121155
1730866785.8513646,-1.4963754415512085,1.3046199083328247,-10.015660285949707,0.12205700116283624,-0.05345202908713905,-0.12607297431637102,1.0710481405258179,6.632223606109619,0.9188393354415894
1730866785.90139,-1.5463899374008179,1.2974132299423218,-9.973326683044434,0.10704256960424784,-0.10310551922220076,-0.13299412782410241,1.0721399784088135,6.6298956871032715,0.9187834858894348
1730866785.9513876,-1.6102951765060425,1.250789999961853,-9.902303695678711,0.08715516092180234,-0.15533239436520904,-0.1300021120217028,1.073520541191101,6.627147674560547,0.918391227722168
1730866786.0015514,-1.682425856590271,1.1595804691314697,-9.816996574401855,0.061167807850547436,-0.1878256599960586,-0.1115928555102831,1.073580026626587,6.623515605926514,0.9207795262336731
1730866786.0514123,-1.7316675186157227,1.0604430437088013,-9.744132041931152,0.025614147141187676,-0.18090141024062872,-0.07258504442920569,1.0747789144515991,6.619758129119873,0.9209929704666138
1730866786.1014228,-1.7730820178985596,0.9469205141067505,-9.691384315490723,-0.018199249530169943,-0.13031478609275915,-0.01580065140779685,1.0759981870651245,6.615577697753906,0.9210985898971558
1730866786.1513913,-1.7721892595291138,0.8747618198394775,-9.644698143005371,-0.06196141676855563,-0.04775988037112417,0.04693262188624933,1.0762006044387817,6.612550258636475,0.9232066869735718
1730866786.201382,-1.752000331878662,0.8315585851669312,-9.674335479736328,-0.09525951241630304,0.0472566239502489,0.10130968212762446,1.0769076347351074,6.6088080406188965,0.924072265625
1730866786.2513077,-1.7119555473327637,0.8500969409942627,-9.698257446289062,-0.11023943792490878,0.13272884272763222,0.13532217432628044,1.0785272121429443,6.602250576019287,0.922658383846283
1730866786.30139,-1.6810070276260376,0.8911280632019043,-9.787557601928711,-0.10299627631951394,0.18724984285797097,0.1402858034839643,1.0802631378173828,6.594759464263916,0.9221019148826599
1730866786.3512957,-1.631421685218811,0.9751439094543457,-9.845973014831543,-0.07527833345170391,0.19707169133361147,0.11403259739404081,1.0810234546661377,6.590448379516602,0.9225690960884094
1730866786.4022834,-1.5859853029251099,1.0582972764968872,-9.918821334838867,-0.034885969839769555,0.1618685040097333,0.06379631030429835,1.081624150276184,6.586704254150391,0.9232486486434937
1730866786.4522498,-1.5551486015319824,1.168289303779602,-9.960137367248535,0.008324400031596851,0.09247540698735876,0.0028558890880912863,1.0821926593780518,6.5832719802856445,0.9240120053291321
1730866786.5022073,-1.5512268543243408,1.226196050643921,-10.006610870361328,0.047267958933399246,0.0036946611270759176,-0.056622074530628876,1.0820493698120117,6.5827789306640625,0.9212914109230042
1730866786.5521603,-1.5881327390670776,1.244172215461731,-9.991543769836426,0.07809443045625664,-0.08964918402588057,-0.10682367447310145,1.08274507522583,6.5795512199401855,0.9210188388824463
1730866786.6021895,-1.6554864645004272,1.2211534976959229,-9.975024223327637,0.09641323984580644,-0.16995096566334222,-0.14090056077356913,1.083662509918213,6.57598352432251,0.920434832572937
1730866786.6522589,-1.7360553741455078,1.1557258367538452,-9.910178184509277,0.09517458571167903,-0.21657132574620436,-0.15047828447821704,1.0836318731307983,6.5731000900268555,0.9191150069236755
1730866786.702288,-1.8156721591949463,1.0837042331695557,-9.829550743103027,0.06886995569586116,-0.21525627132429206,-0.1301732572871816,1.0845670700073242,6.568872451782227,0.9180238246917725
1730866786.75215,-1.8744902610778809,0.9959093332290649,-9.755806922912598,0.020261488137656006,-0.1671407243433834,-0.083054388316144,1.0856550931930542,6.5639753341674805,0.9166162014007568
1730866786.8021994,-1.8997235298156738,0.9413949847221375,-9.700389862060547,-0.03887824322832465,-0.08691955880252189,-0.01954322968133865,1.084336519241333,6.56098747253418,0.9173714518547058
1730866786.85215,-1.8706480264663696,0.8849578499794006,-9.661258697509766,-0.09365966856057803,0.005126509878943225,0.04751297655391398,1.0846022367477417,6.556436538696289,0.9166526794433594
1730866786.9022171,-1.8257642984390259,0.8721081614494324,-9.646963119506836,-0.13037491634948356,0.08839413618418589,0.10505598911296257,1.0846385955810547,6.5509161949157715,0.9161742925643921
1730866786.9520888,-1.7615134716033936,0.8697312474250793,-9.69822883605957,-0.13824521241028376,0.14512524892436127,0.1406476452589907,1.0845154523849487,6.542568683624268,0.9151650071144104
1730866787.0021954,-1.6930631399154663,0.8990740180015564,-9.768674850463867,-0.11389999197262204,0.16505983662966114,0.1459249402172095,1.0840938091278076,6.538082122802734,0.9150538444519043
1730866787.0520744,-1.6157853603363037,0.9117894768714905,-9.864158630371094,-0.06449045407536103,0.14846790627816484,0.11978589435652885,1.0834307670593262,6.533838272094727,0.9152773022651672
1730866787.1021278,-1.559705138206482,0.9731722474098206,-9.950797080993652,-0.003256758539638211,0.10456554238285212,0.06762531724556645,1.0827082395553589,6.530066013336182,0.9157233238220215
1730866787.151961,-1.501749873161316,0.9858161211013794,-10.035280227661133,0.05828786220748618,0.04677743757382788,-0.0023063166462548856,1.0846339464187622,6.5325927734375,0.913825273513794
1730866787.201966,-1.4707595109939575,1.0368624925613403,-10.080292701721191,0.11312283809742826,-0.011902351357483309,-0.08053243302520911,1.0848898887634277,6.518688678741455,0.9110220670700073
1730866787.2519488,-1.4455411434173584,1.0234111547470093,-10.112411499023438,0.15465423702877013,-0.06046281537301457,-0.15306348549217838,1.0853807926177979,6.509718894958496,0.9091542363166809
1730866787.3020651,-1.4591056108474731,1.0209894180297852,-10.079185485839844,0.17420099852206275,-0.08986502414392063,-0.20107887591332863,1.0847527980804443,6.512022972106934,0.9088963270187378
1730866787.3519597,-1.5064469575881958,1.0362530946731567,-10.00871467590332,0.1658659055799635,-0.09526727957432421,-0.20983753962730892,1.085436463356018,6.506195068359375,0.9068529605865479
1730866787.4020329,-1.5905025005340576,1.0399330854415894,-9.923588752746582,0.13125992558900085,-0.07924138292876902,-0.17695358784447188,1.0864803791046143,6.500245094299316,0.904359757900238
1730866787.4518914,-1.6248046159744263,0.9546136856079102,-9.829954147338867,0.07759625404423227,-0.0508801113437716,-0.11101091615454278,1.0841107368469238,6.5047383308410645,0.9088946580886841
1730866787.5018811,-1.685149908065796,0.9332111477851868,-9.756607055664062,0.014273278642140126,-0.020215870826182814,-0.026171076527099036,1.0832712650299072,6.496735095977783,0.909227728843689
1730866787.5518787,-1.7210710048675537,0.8780882954597473,-9.693313598632812,-0.04727882042384474,0.00627326852943263,0.05983529627055941,1.083117961883545,6.491727352142334,0.9087905287742615
1730866787.6018653,-1.7624280452728271,0.8467234969139099,-9.65910816192627,-0.09445753166352733,0.026120577159618345,0.127793218417258,1.082248330116272,6.488775730133057,0.9095553159713745
1730866787.651728,-1.7630724906921387,0.8340555429458618,-9.669756889343262,-0.11840016353245653,0.039648607005345594,0.16382893042357943,1.0815849304199219,6.4847917556762695,0.9099012017250061
1730866787.7019622,-1.763291835784912,0.854268491268158,-9.677071571350098,-0.11775275981870117,0.04778793079961579,0.16459819854282834,1.0806114673614502,6.4808502197265625,0.9106683135032654
1730866787.7517922,-1.7544257640838623,0.879085898399353,-9.74117660522461,-0.09746337701068869,0.04986057110695547,0.13562251484657228,1.0793579816818237,6.477017402648926,0.9118236899375916
1730866787.8018703,-1.7280904054641724,0.9415566325187683,-9.802642822265625,-0.0657255458903544,0.04384739682303583,0.08678860539739276,1.0814558267593384,6.479081153869629,0.9098933339118958
1730866787.8518202,-1.7075694799423218,0.9975323677062988,-9.86389446258545,-0.031238927499838965,0.02836981017319359,0.028876726612538296,1.080889344215393,6.476174354553223,0.9103391766548157
1730866787.9017916,-1.6874992847442627,1.0715681314468384,-9.924424171447754,-0.000923672393203079,0.004278647801840709,-0.02780464108331001,1.0809110403060913,6.472408771514893,0.9084665179252625
1730866787.9517248,-1.6659564971923828,1.1092565059661865,-9.949370384216309,0.02122450491222408,-0.02490475324636008,-0.07399297900602532,1.0805699825286865,6.469348907470703,0.9080696702003479
1730866788.001775,-1.6603227853775024,1.1524007320404053,-9.966423034667969,0.03408154848040257,-0.053626587595464875,-0.10287838893072906,1.080312728881836,6.466342449188232,0.9074763655662537
1730866788.0517356,-1.7038003206253052,1.155005931854248,-9.943227767944336,0.03847445711027764,-0.07607521121481235,-0.11155712045310531,1.0805739164352417,6.460457801818848,0.9067128896713257
1730866788.1017058,-1.7473185062408447,1.1150089502334595,-9.910707473754883,0.035732930048614206,-0.08834927592811007,-0.10159504758733581,1.080531120300293,6.456448078155518,0.9058226943016052
1730866788.1517365,-1.8019191026687622,1.082455039024353,-9.854324340820312,0.02645115645815109,-0.08823409488187164,-0.07764506338126927,1.0803853273391724,6.447434902191162,0.9050053954124451
1730866788.2017887,-1.8273972272872925,1.0395792722702026,-9.806954383850098,0.010722780378028566,-0.0740534558165201,-0.04494937097299026,1.0803476572036743,6.441769599914551,0.9039968252182007
1730866788.251782,-1.8323909044265747,0.9989960789680481,-9.757580757141113,-0.009720189041716103,-0.046522553005899386,-0.008592522364375351,1.080307126045227,6.435490131378174,0.9028390049934387
1730866788.301694,-1.7888123989105225,0.9574252963066101,-9.7604398727417,-0.03000866983656786,-0.010331750189588054,0.026362989611066683,1.080222725868225,6.429595470428467,0.9017848372459412
1730866788.3516626,-1.7200891971588135,0.939737856388092,-9.775611877441406,-0.043460345095623305,0.028297544581525606,0.05582781156233535,1.0800409317016602,6.423397064208984,0.9007762670516968
1730866788.401727,-1.6383156776428223,0.9375902414321899,-9.812262535095215,-0.04376408711409381,0.06465877079117258,0.07717630320924874,1.079758882522583,6.417529106140137,0.8999651670455933
1730866788.4516237,-1.5641196966171265,0.9652261734008789,-9.853306770324707,-0.026181666229737496,0.09585798382140182,0.0884729958463696,1.0801069736480713,6.436219692230225,0.9040893316268921
1730866788.5016248,-1.5101934671401978,0.9893789291381836,-9.902382850646973,0.010245749340957663,0.11899369878456835,0.0879648957223145,1.0799651145935059,6.434013843536377,0.9041414856910706
1730866788.55162,-1.4727650880813599,1.0288934707641602,-9.94566535949707,0.05876522580606441,0.12913794518531607,0.0744709313542754,1.079760193824768,6.425357818603516,0.9033229351043701
1730866788.6017187,-1.4602500200271606,1.0420548915863037,-9.947214126586914,0.10488643233203246,0.1205962250019805,0.04877049036870856,1.0798888206481934,6.421710014343262,0.9032626748085022
1730866788.6516676,-1.4855735301971436,1.0443003177642822,-9.942675590515137,0.1332713909020133,0.09239557337772916,0.015801935249791253,1.08033287525177,6.4182515144348145,0.9032849669456482
1730866788.7017422,-1.5292110443115234,1.0006338357925415,-9.922380447387695,0.13500595298825827,0.051887508371948325,-0.015246200681981336,1.079594612121582,6.408505439758301,0.9020801186561584
1730866788.751628,-1.5292110443115234,1.0006338357925415,-9.922380447387695,0.11034082198725309,0.011674939086575605,-0.03514891921920639,1.0800765752792358,6.403774261474609,0.9016923904418945
1730866788.751628,-1.5889075994491577,0.961914598941803,-9.873551368713379,0.06784628393248865,-0.01691002463283874,-0.03951932719820518,1.0801117420196533,6.403507709503174,0.9016678333282471
1730866788.8017251,-1.6518731117248535,0.9063231348991394,-9.823383331298828,0.019954249515455824,-0.02800009707912262,-0.029464336653347224,1.0796153545379639,6.392342567443848,0.9006653428077698
1730866788.8516948,-1.7036452293395996,0.8648693561553955,-9.77983570098877,-0.023255477278938574,-0.021349454135331427,-0.008936170578082615,1.079768419265747,6.384716987609863,0.8999649286270142
1730866788.9016743,-1.7258092164993286,0.8446003198623657,-9.758976936340332,-0.056456866069173973,-0.0012431472843285876,0.016871203506089325,1.07943856716156,6.377737522125244,0.8994948863983154
1730866788.9515803,-1.7396818399429321,0.8332542777061462,-9.750368118286133,-0.07727766923151562,0.024547086637915733,0.041675717269450276,1.0792361497879028,6.3702778816223145,0.8989617824554443
1730866789.001622,-1.7208274602890015,0.836283802986145,-9.781009674072266,-0.08471033318402207,0.047072021870145746,0.059049823609290675,1.0788294076919556,6.362886905670166,0.8985538482666016
1730866789.0515883,-1.7006603479385376,0.8527444005012512,-9.816498756408691,-0.07894874436888893,0.05926613523314024,0.06394960335286362,1.0776731967926025,6.3621134757995605,0.8985751867294312
1730866789.1016953,-1.6851451396942139,0.8783806562423706,-9.853973388671875,-0.061894610930605914,0.058106282266336254,0.054229703617599004,1.0770152807235718,6.357335567474365,0.8984844088554382
1730866789.151612,-1.669348120689392,0.9059238433837891,-9.903338432312012,-0.03762678049385673,0.044816270544719816,0.03179719974689059,1.076209545135498,6.352484703063965,0.8984938859939575
1730866789.2015479,-1.6677767038345337,0.9304244518280029,-9.933880805969238,-0.011603932789755566,0.023160997986971972,0.0016945554481769976,1.0762135982513428,6.347990989685059,0.8973888158798218
1730866789.2515094,-1.6619867086410522,0.9385421276092529,-9.938014030456543,0.011077131181393925,-0.002258138400233544,-0.03015117129007414,1.0756466388702393,6.3426432609558105,0.8969940543174744
1730866789.3015492,-1.692750096321106,0.9411348700523376,-9.929743766784668,0.026635087362104796,-0.02617347849207431,-0.05730501987989082,1.0751416683197021,6.337408542633057,0.8965027928352356
1730866789.35147,-1.709845781326294,0.9200135469436646,-9.912097930908203,0.03256040316561268,-0.042910647058183565,-0.0728053112377259,1.07570219039917,6.330137252807617,0.8972492218017578
1730866789.401408,-1.7297369241714478,0.8873684406280518,-9.887479782104492,0.028015729303494885,-0.04831672200287046,-0.07201408415116084,1.0755420923233032,6.324472904205322,0.8968508243560791
1730866789.4514272,-1.7356029748916626,0.8896462321281433,-9.860301971435547,0.014874886941772286,-0.041541518148006176,-0.05554020385300382,1.0750958919525146,6.315122604370117,0.8971642255783081
1730866789.5013895,-1.7427743673324585,0.8787654042243958,-9.824254035949707,-0.002272089847506183,-0.025248152676277856,-0.028684593863888636,1.0748347043991089,6.3081955909729,0.8968266844749451
1730866789.5513942,-1.7414134740829468,0.8707394599914551,-9.806291580200195,-0.017856786437063746,-0.004756245552861603,0.0012779667372753668,1.0745893716812134,6.3004984855651855,0.8972874879837036
1730866789.601463,-1.7233177423477173,0.8662055134773254,-9.796025276184082,-0.02744126139888682,0.013840289890757156,0.02757513252032207,1.074259877204895,6.2934980392456055,0.8972236514091492
1730866789.6513968,-1.6878894567489624,0.8702128529548645,-9.80246639251709,-0.02870899552188444,0.025950103525940738,0.045262348051577576,1.073851227760315,6.286318778991699,0.8972468376159668
1730866789.7014136,-1.6771538257598877,0.8735132813453674,-9.787801742553711,-0.021214810166777915,0.029722939814944314,0.05184026997154251,1.074123501777649,6.288519382476807,0.8974016308784485
1730866789.7513883,-1.6528725624084473,0.8911356329917908,-9.809568405151367,-0.006204177864658207,0.025924156900583074,0.04776391550091669,1.0738551616668701,6.283953666687012,0.8975866436958313
1730866789.8014085,-1.6404615640640259,0.8988141417503357,-9.823999404907227,0.01287930730100064,0.016913997685166875,0.035852936119147936,1.0735962390899658,6.279460430145264,0.8978756666183472
1730866789.8512907,-1.6357319355010986,0.9239093661308289,-9.844608306884766,0.030988037779350358,0.00528252520298001,0.01939438096955214,1.0738054513931274,6.2745232582092285,0.8973928093910217
1730866789.9014206,-1.6376737356185913,0.9464796781539917,-9.858396530151367,0.04368651670077927,-0.007017146616866043,0.0011117506164756942,1.0737662315368652,6.269357204437256,0.8974823355674744
1730866789.951333,-1.6495534181594849,0.962045431137085,-9.884824752807617,0.04847575944924637,-0.01852152316624388,-0.01628914246466544,1.0738420486450195,6.264185905456543,0.8975525498390198
1730866790.001385,-1.6434704065322876,0.9663122892379761,-9.900568962097168,0.04465863335104117,-0.0279358196572414,-0.030149442652458464,1.0735557079315186,6.2607741355896,0.8971971273422241
1730866790.0513694,-1.6242831945419312,0.955595076084137,-9.913541793823242,0.0336205197860098,-0.03427540280937734,-0.039054911508812656,1.0736289024353027,6.25559663772583,0.8970514535903931
1730866790.1013014,-1.613465428352356,0.9486129283905029,-9.914165496826172,0.01927938059672108,-0.03657199865265992,-0.04294194145090806,1.0733935832977295,6.2460432052612305,0.8969763517379761
1730866790.15136,-1.579264760017395,0.9151272773742676,-9.920197486877441,0.006985197779090386,-0.03352625843765281,-0.04206510076148007,1.073403000831604,6.238898277282715,0.8967167735099792
1730866790.201417,-1.5526033639907837,0.8850932121276855,-9.918274879455566,0.0011845989771783662,-0.024261005584174412,-0.03689723297434706,1.0731587409973145,6.231194496154785,0.8968135714530945
1730866790.2512894,-1.5340807437896729,0.862483024597168,-9.903003692626953,0.003602150816573712,-0.009358733566055003,-0.02856680025682417,1.0730891227722168,6.223474979400635,0.8965578079223633
1730866790.301417,-1.5323699712753296,0.8567285537719727,-9.885679244995117,0.012570185920176313,0.008601279024874656,-0.01847680255877606,1.0730433464050293,6.216278553009033,0.8962622284889221
1730866790.3513446,-1.5524113178253174,0.8709022998809814,-9.875271797180176,0.023657364992080245,0.02538934460784427,-0.0075397653516388,1.0744829177856445,6.219220161437988,0.8969511985778809
1730866790.4013488,-1.5964466333389282,0.91631680727005,-9.855216979980469,0.031574262698091195,0.03655136007117873,0.0038198855609220357,1.0748350620269775,6.214791297912598,0.8968896269798279
1730866790.451232,-1.6560384035110474,0.958122968673706,-9.837653160095215,0.031790799916531866,0.03845343057492017,0.01488013015807301,1.0752654075622559,6.210465431213379,0.8968514800071716
1730866790.501283,-1.709920048713684,1.0084192752838135,-9.82276725769043,0.02092850838776107,0.02845159851886104,0.024476583053940893,1.0763649940490723,6.205634117126465,0.897197961807251
1730866790.5511825,-1.765012264251709,1.0318806171417236,-9.816730499267578,-0.002259516154017002,0.006128136825266766,0.031732333049946666,1.0769612789154053,6.200723171234131,0.8973244428634644
1730866790.6012886,-1.7763478755950928,1.0344547033309937,-9.80767822265625,-0.034325026227808766,-0.024070587511960985,0.03606121663165297,1.0775147676467896,6.19576358795166,0.8975366353988647
1730866790.6511843,-1.8005826473236084,1.0107970237731934,-9.816187858581543,-0.06684288218577063,-0.05268197416358193,0.03673799031310865,1.0778528451919556,6.191943645477295,0.8966187238693237
1730866790.7012858,-1.7882314920425415,0.9816539287567139,-9.81539535522461,-0.09069777149639643,-0.06977475702092799,0.03342384267073796,1.078086256980896,6.186896324157715,0.8966430425643921
1730866790.752151,-1.782823920249939,0.9510672688484192,-9.816654205322266,-0.0998618973727497,-0.06979530494959595,0.026797268459524112,1.0793640613555908,6.1761579513549805,0.8958888649940491
1730866790.8022356,-1.7720415592193604,0.9428384900093079,-9.811007499694824,-0.09213333055457895,-0.053110009271357804,0.018384188501478976,1.0796316862106323,6.169051170349121,0.8957556486129761
1730866790.8511262,-1.7606288194656372,0.9291878938674927,-9.810073852539062,-0.0697325176704027,-0.025512628977474444,0.010094277729462331,1.079707384109497,6.161812782287598,0.8956557512283325
1730866790.90118,-1.7331546545028687,0.9371922016143799,-9.810145378112793,-0.03898031568793282,0.003927671829198014,0.003693590784974147,1.0796505212783813,6.154392242431641,0.895570695400238
1730866790.952093,-1.7051427364349365,0.9828043580055237,-9.814627647399902,-0.007192438638072144,0.026602430796395037,0.00019445089549500897,1.0795284509658813,6.146570682525635,0.8954857587814331
1730866791.00216,-1.6854075193405151,1.014271855354309,-9.81593132019043,0.020763912136612675,0.03693683643421113,-0.0004996819815740241,1.0805236101150513,6.16061544418335,0.8952997326850891
1730866791.0521328,-1.6746236085891724,1.0162750482559204,-9.837340354919434,0.04304486619392072,0.03311281646836349,0.0004967569813281796,1.0808299779891968,6.1569318771362305,0.8951925039291382
1730866791.102109,-1.6765577793121338,1.0368170738220215,-9.836478233337402,0.0584756945095284,0.017788085700386834,0.0014254771481412379,1.0812638998031616,6.153307914733887,0.8950875997543335
1730866791.1520827,-1.6747565269470215,1.0150097608566284,-9.855295181274414,0.0649892462751138,-0.0023717207003589773,0.0004823764854376967,1.0827051401138306,6.1469197273254395,0.8946248888969421
1730866791.2021508,-1.685914397239685,0.9965077638626099,-9.857038497924805,0.061273927922340155,-0.019700662804648994,-0.003310430050591513,1.0836015939712524,6.141918659210205,0.8944168090820312
1730866791.2521381,-1.691752314567566,0.94195955991745,-9.867265701293945,0.048645368366225544,-0.028393654508966103,-0.009280607310930623,1.084320306777954,6.130754470825195,0.8940371870994568
1730866791.302131,-1.6950345039367676,0.8853601813316345,-9.868308067321777,0.030644883120903382,-0.025431236190299467,-0.015233817312794594,1.0851210355758667,6.125146865844727,0.8937941193580627
1730866791.352004,-1.6651045083999634,0.8446730375289917,-9.883183479309082,0.01190379632641446,-0.010860694598636339,-0.018870247349137174,1.0866285562515259,6.114979267120361,0.8933073282241821
1730866791.402146,-1.6213170289993286,0.8299744129180908,-9.910224914550781,-0.002633926016692841,0.011944275402846791,-0.019337259365226622,1.0876938104629517,6.107918739318848,0.8929212689399719
1730866791.452027,-1.5467673540115356,0.8401041030883789,-9.929887771606445,-0.008539514821731231,0.036498968013138976,-0.017767706479923727,1.0883742570877075,6.100588321685791,0.8922686576843262
1730866791.502209,-1.4621217250823975,0.8885082006454468,-9.959823608398438,-0.0028694885095472884,0.05458730471376622,-0.016542543572678512,1.0892971754074097,6.093552589416504,0.8917418122291565
1730866791.5520563,-1.4561021327972412,0.9486505389213562,-9.95167350769043,0.014422384415758679,0.058946928796448056,-0.01757525799715684,1.090223789215088,6.086739540100098,0.891178548336029
1730866791.602035,-1.4670665264129639,0.9957454204559326,-9.94947624206543,0.03938030783826254,0.04552965395119747,-0.020894288641341404,1.0900460481643677,6.083049774169922,0.891295850276947
1730866791.6519976,-1.5297260284423828,1.0509449243545532,-9.91093635559082,0.06457716489449149,0.01488898925257165,-0.0245835781112173,1.0909446477890015,6.076513290405273,0.890813946723938
1730866791.7020152,-1.5968760251998901,1.0493192672729492,-9.870061874389648,0.08026890505955586,-0.026291739019418465,-0.02534324597160079,1.0923229455947876,6.069454193115234,0.8902499079704285
1730866791.7520247,-1.6959338188171387,1.0537300109863281,-9.804426193237305,0.07677679238304788,-0.06595851638076794,-0.01942666878581299,1.0941177606582642,6.056117534637451,0.8892642259597778
1730866791.8019445,-1.7786424160003662,1.013217568397522,-9.764373779296875,0.050017828470598144,-0.09153569878779744,-0.004992282015930223,1.0956363677978516,6.047101974487305,0.8885510563850403
1730866791.8519073,-1.806070327758789,0.9906717538833618,-9.716995239257812,0.005611686840729503,-0.09512847613813594,0.015814638976174265,1.0972709655761719,6.037579536437988,0.8878313899040222
1730866791.9020128,-1.829994559288025,0.9759562611579895,-9.720158576965332,-0.04421461965698434,-0.07581208059336,0.038188046242460104,1.0954560041427612,6.043028354644775,0.8891139030456543
1730866791.9518716,-1.8072052001953125,1.0022575855255127,-9.72582721710205,-0.08712585972159698,-0.03973204563247508,0.05748628641472977,1.0959417819976807,6.037579536437988,0.889060378074646
1730866792.0018523,-1.7495813369750977,1.0762972831726074,-9.76705551147461,-0.11316477806900657,0.0007777994010345277,0.0694464037990435,1.0969650745391846,6.029608249664307,0.8891048431396484
1730866792.0518467,-1.6919190883636475,1.1377240419387817,-9.813666343688965,-0.11484907629724117,0.030462308003748342,0.06959783010533839,1.0973360538482666,6.022983074188232,0.8892549276351929
1730866792.1018975,-1.6849099397659302,1.1730726957321167,-9.861412048339844,-0.09033271932740163,0.03799356200016961,0.055272920362248526,1.09834885597229,6.019676685333252,0.8889292478561401
1730866792.1519034,-1.6887506246566772,1.1872702836990356,-9.883528709411621,-0.04675023677975876,0.022024827453993458,0.02818323292245497,1.0987319946289062,6.013983726501465,0.8890455365180969
1730866792.2018988,-1.7165979146957397,1.179847240447998,-9.888619422912598,0.0014766471192095981,-0.008524128824633609,-0.0051457832348282655,1.0990561246871948,6.0083441734313965,0.8891898393630981
1730866792.2518106,-1.7549618482589722,1.136918306350708,-9.903511047363281,0.03839355710507721,-0.039331875022229845,-0.035569464938981304,1.0998624563217163,6.006758213043213,0.8885607123374939
1730866792.3018086,-1.7782094478607178,1.0997755527496338,-9.87797737121582,0.05303439789630212,-0.05742312109823683,-0.055366922997723084,1.1005347967147827,6.0014472007751465,0.8883439302444458
1730866792.3518305,-1.7673360109329224,1.0609372854232788,-9.85433292388916,0.04397478853807449,-0.056237815719696896,-0.060713698232167795,1.1015944480895996,5.996891975402832,0.8880581259727478
1730866792.4018326,-1.747424602508545,1.0557103157043457,-9.831680297851562,0.019373166938750987,-0.03703293067052083,-0.05143941508026745,1.1024686098098755,5.991647243499756,0.8876630663871765
1730866792.451721,-1.6930068731307983,1.0504809617996216,-9.842464447021484,-0.007514728770742432,-0.007566707776272162,-0.030916619271799055,1.1033947467803955,5.986119747161865,0.8871493935585022
1730866792.5018694,-1.6178373098373413,1.0181933641433716,-9.865334510803223,-0.023813397988768758,0.021416911211249424,-0.005981281118267544,1.1042745113372803,5.980652809143066,0.8865934610366821
1730866792.5517101,-1.5256282091140747,1.0217933654785156,-9.897706985473633,-0.02031783548874345,0.041521170136976995,0.015089486654761116,1.1029940843582153,5.985639572143555,0.8878675699234009
1730866792.6017108,-1.46007239818573,1.029094934463501,-9.919363975524902,0.006243297377419626,0.04996974907897177,0.025705728443863964,1.1033837795257568,5.982542991638184,0.8878037929534912
1730866792.6516569,-1.4486321210861206,1.0193029642105103,-9.915692329406738,0.049978269921519165,0.04820945099040639,0.02356280793701224,1.1047552824020386,5.971353530883789,0.888175904750824
1730866792.7016783,-1.4906806945800781,1.0272234678268433,-9.915599822998047,0.09557697380247465,0.039141434067753035,0.011521162027700675,1.10576331615448,5.965372562408447,0.8882821202278137
1730866792.7516057,-1.570600152015686,1.0004944801330566,-9.874351501464844,0.12447350760612379,0.026169099578293536,-0.0038875908798303325,1.107069730758667,5.9614667892456055,0.8883503675460815
1730866792.801705,-1.6495908498764038,0.991308331489563,-9.8259859085083,0.12316827627598939,0.01310756788986428,-0.015255151895639628,1.108612298965454,5.956099033355713,0.8883943557739258
1730866792.8516867,-1.7211582660675049,0.9733608365058899,-9.792771339416504,0.08903428077659609,0.0034629850617984006,-0.016977085181544213,1.110413670539856,5.950778484344482,0.8883976936340332
1730866792.9017296,-1.747120976448059,0.9720041155815125,-9.765241622924805,0.030726697542634754,-0.0006081288310240158,-0.006887241110911357,1.1085902452468872,5.94854736328125,0.8894845247268677
1730866792.9516797,-1.7669601440429688,0.959384560585022,-9.763827323913574,-0.0366123393891289,0.001130358803151044,0.013211297534376942,1.1100099086761475,5.93705415725708,0.8905080556869507
1730866793.001639,-1.7333219051361084,0.9669597744941711,-9.777955055236816,-0.09564906795567091,0.006881391911776045,0.03711974708686005,1.1107975244522095,5.930675983428955,0.8910370469093323
1730866793.0517135,-1.7076143026351929,0.9725514054298401,-9.819191932678223,-0.12996955854464906,0.013235920147680493,0.055302673951964296,1.1122196912765503,5.923849582672119,0.8919997215270996
1730866793.1015947,-1.6628526449203491,0.9877198338508606,-9.83602237701416,-0.12990462711642298,0.01657976073068207,0.05936491301636147,1.1128919124603271,5.9170427322387695,0.8928799033164978
1730866793.15165,-1.6406471729278564,0.9984049201011658,-9.867207527160645,-0.09762191060680789,0.01482008675887321,0.04694475423141228,1.1132878065109253,5.910182476043701,0.8939054012298584
1730866793.2015913,-1.6522260904312134,1.0155768394470215,-9.868661880493164,-0.04570763188039273,0.00798487787953649,0.022447864049004902,1.1133238077163696,5.912064075469971,0.8929388523101807
1730866793.2515404,-1.7127280235290527,1.018890142440796,-9.868837356567383,0.008804342109328083,-0.002318128959535856,-0.006128808603069391,1.1136534214019775,5.907464981079102,0.8934513330459595
1730866793.3015392,-1.7499147653579712,1.026310682296753,-9.843389511108398,0.04948463861313121,-0.013379447181827308,-0.030400342455841903,1.114052176475525,5.902891635894775,0.8939134478569031
1730866793.3515139,-1.8065112829208374,1.0066267251968384,-9.826428413391113,0.06397860240054176,-0.021909124151134263,-0.04347343735502063,1.114597201347351,5.8982319831848145,0.8942869305610657
1730866793.401415,-1.805925726890564,0.9989916086196899,-9.825135231018066,0.04749474033315805,-0.025224605093309038,-0.04182047505470415,1.1153565645217896,5.899433612823486,0.8935704827308655
1730866793.4514573,-1.7592601776123047,0.9665080904960632,-9.850400924682617,0.0056498095305334214,-0.022236326580773635,-0.026983509805177414,1.1160457134246826,5.895463466644287,0.8936911225318909
1730866793.5013976,-1.6866683959960938,0.947047233581543,-9.871377944946289,-0.04473309026376895,-0.013441131292346222,-0.005833022085033416,1.1173319816589355,5.8863067626953125,0.8943255543708801
1730866793.5513685,-1.5930132865905762,0.925303041934967,-9.893796920776367,-0.08057281405317315,-0.00048174001296939165,0.01196936640415906,1.117893099784851,5.88116455078125,0.8946155905723572
1730866793.6013868,-1.515468955039978,0.9335017204284668,-9.908673286437988,-0.08410308489577228,0.013931220583770183,0.01900816869024295,1.1195017099380493,5.322068214416504,0.895399808883667
1730866793.6514764,-1.4572160243988037,0.9685491919517517,-9.941940307617188,-0.05225373461630324,0.025996506700919308,0.013704009543926069,1.1201564073562622,5.136585712432861,0.8959088325500488
1730866793.7014432,-1.4429250955581665,1.0089815855026245,-9.943041801452637,0.003014654617454326,0.03139472316549413,-0.0003392307936489281,1.121287226676941,4.713829040527344,0.8963901400566101
1730866793.7514038,-1.4513304233551025,1.0278352499008179,-9.954571723937988,0.06125595121053739,0.02682192254677767,-0.01721994148628415,1.1223046779632568,4.430111885070801,0.8969221711158752
1730866793.801364,-1.5051658153533936,1.0513596534729004,-9.954071998596191,0.10240732543823731,0.012350966716751581,-0.031218930865097402,1.1235193014144897,4.148109436035156,0.8973909616470337
1730866793.8513932,-1.5606889724731445,1.0343660116195679,-9.9264554977417,0.11354907961558078,-0.0076717575915428785,-0.03834283823346434,1.1230725049972534,4.313967704772949,0.8969582915306091
1730866793.9014194,-1.624402642250061,1.0367671251296997,-9.894644737243652,0.09193254667083245,-0.026808978389672947,-0.036945366636348995,1.1241880655288696,4.1454691886901855,0.897099494934082
1730866793.9514143,-1.678975224494934,1.029953122138977,-9.840262413024902,0.04516087199111382,-0.039440172693063595,-0.027275186682748326,1.1246203184127808,3.864619255065918,0.8967036604881287
1730866794.0012867,-1.7280861139297485,0.9937403798103333,-9.773934364318848,-0.012090926421282974,-0.04232773401119941,-0.010555892636442046,1.1256064176559448,3.649496078491211,0.8966476321220398
1730866794.0512633,-1.7696841955184937,0.9652454257011414,-9.72879409790039,-0.06407691746166604,-0.03489906531130986,0.011328353459210825,1.1265088319778442,3.43161940574646,0.8965920805931091
1730866794.101235,-1.7981663942337036,0.9364919066429138,-9.694758415222168,-0.09978651163750377,-0.01849926888903175,0.036015211157872234,1.1272001266479492,3.2154479026794434,0.8965957760810852
1730866794.151196,-1.8158658742904663,0.9147766828536987,-9.67517375946045,-0.11649081172619682,0.0046227969609984485,0.061629348524098654,1.1261147260665894,3.4544107913970947,0.8956786394119263
1730866794.2011821,-1.8264830112457275,0.9262654185295105,-9.70899486541748,-0.11856611641655221,0.03118128624751401,0.08632375711760759,1.1273040771484375,3.0324947834014893,0.894779622554779
1730866794.251211,-1.825791358947754,0.9600672721862793,-9.770987510681152,-0.11152192667547181,0.055281053035522366,0.10496950320389191,1.1275379657745361,2.807035207748413,0.8947591185569763
1730866794.3011847,-1.8196063041687012,0.9949563145637512,-9.826309204101562,-0.09753037018027734,0.06853518940077508,0.10837075022985976,1.1296502351760864,2.49705171585083,0.8938135504722595
1730866794.351186,-1.7922136783599854,1.034574031829834,-9.887044906616211,-0.07683904251200183,0.06433374747711715,0.08917476679685454,1.1302058696746826,2.249978542327881,0.8938531875610352
1730866794.4013245,-1.7601650953292847,1.045655608177185,-9.907439231872559,-0.050811872930381655,0.042605145751886356,0.048745824857844997,1.13060462474823,2.0014841556549072,0.8940662741661072
1730866794.4511964,-1.748718500137329,1.035664677619934,-9.92148494720459,-0.022141731066024187,0.01019890163539627,-0.0025655107408355023,1.1309099197387695,1.7543725967407227,0.8943361639976501
1730866794.5013244,-1.725311279296875,0.9947020411491394,-9.911911964416504,0.00645390694464528,-0.02276068362124017,-0.051469217400856464,1.131772756576538,2.081295967102051,0.8928646445274353
1730866794.5511606,-1.727247953414917,0.9664031863212585,-9.905721664428711,0.03247829820912159,-0.046858936921240754,-0.08755501875488461,1.1323583126068115,1.936394453048706,0.8924670815467834
1730866794.6012268,-1.6693779230117798,0.9644677042961121,-9.89072322845459,0.052809121015154406,-0.05592264486335276,-0.10468753171029592,1.1342406272888184,1.626396656036377,0.8916953802108765
1730866794.6512325,-1.6110810041427612,0.9784464240074158,-9.891087532043457,0.06439929762742629,-0.04885070670562332,-0.10078400269061263,1.135473370552063,1.4069268703460693,0.890847384929657
1730866794.701133,-1.5070290565490723,1.017885446548462,-9.924562454223633,0.06738448017019508,-0.03060861991569929,-0.0791107156410242,1.1368602514266968,1.1890714168548584,0.8897822499275208
1730866794.7511837,-1.4726264476776123,1.0661969184875488,-9.941913604736328,0.06709895283506515,-0.010893089758067943,-0.048716920486089124,1.1358898878097534,1.2413756847381592,0.8908177018165588
1730866794.8010666,-1.444928765296936,1.0895146131515503,-9.943458557128906,0.07111388917308764,0.00022855625453552502,-0.02093081568397366,1.1368099451065063,1.1037218570709229,0.8902578353881836
1730866794.851148,-1.4795811176300049,1.081583857536316,-9.923242568969727,0.08185033023617959,-0.0019473037620511902,-0.0034921936296681754,1.1381500959396362,1.3120853900909424,0.8900541067123413
1730866794.9012337,-1.5600446462631226,1.0328956842422485,-9.877480506896973,0.09238854271942265,-0.013853981987890798,0.002987803501578262,1.139550805091858,1.2760556936264038,0.8895694017410278
1730866794.9511778,-1.669189453125,0.9893383979797363,-9.810596466064453,0.09075843729826642,-0.026040520724302105,0.0039042899999153285,1.1403950452804565,1.364275336265564,0.8892991542816162
1730866795.001177,-1.7375822067260742,0.9567947387695312,-9.735846519470215,0.06794812866375882,-0.028804971839103216,0.006788306348810132,1.1419187784194946,1.354926347732544,0.8888660073280334
1730866795.0511885,-1.7631850242614746,0.9144934415817261,-9.695735931396484,0.02424396066532445,-0.017718173410831276,0.017086425075138297,1.143559455871582,1.3455085754394531,0.888462245464325
1730866795.1011202,-1.7457727193832397,0.9001966118812561,-9.712566375732422,-0.029586895406214585,0.004634200425335713,0.035584010419782215,1.1418777704238892,1.3891065120697021,0.8886308073997498
1730866795.1510544,-1.6964397430419922,0.9163725972175598,-9.747302055358887,-0.07774570116603387,0.03136195977275715,0.05824162133401542,1.1425690650939941,1.3873358964920044,0.8884720206260681
1730866795.20199,-1.641541600227356,0.9648493528366089,-9.806821823120117,-0.10582429423872489,0.053857357277187504,0.07670144640623103,1.1451094150543213,1.3973158597946167,0.8889535665512085
1730866795.2520733,-1.6175599098205566,1.0122435092926025,-9.858835220336914,-0.10497273075857005,0.06338882553411761,0.0806727928536212,1.146165132522583,1.3972831964492798,0.8892290592193604
1730866795.3020093,-1.6115851402282715,1.0376043319702148,-9.902063369750977,-0.07610286710999437,0.05476424244206582,0.06403778274623548,1.1469850540161133,1.3973987102508545,0.8896833658218384
1730866795.3519711,-1.6391488313674927,1.0441770553588867,-9.926677703857422,-0.030929136879900662,0.02952425560361268,0.029135347862430768,1.1476718187332153,1.397619366645813,0.8902539014816284
1730866795.4019628,-1.6988489627838135,1.0431791543960571,-9.915407180786133,0.013534811097403916,-0.005244643627612587,-0.015487642769761407,1.1474896669387817,1.404427170753479,0.8891355395317078
1730866795.4519134,-1.7534266710281372,1.041386365890503,-9.899832725524902,0.04244110608156748,-0.040297611210086154,-0.05927349462616203,1.1481876373291016,1.4051458835601807,0.8891290426254272
1730866795.5019808,-1.7912213802337646,1.0238386392593384,-9.883611679077148,0.0479186120987892,-0.06649440330939142,-0.09134397571533033,1.1498339176177979,1.4099265336990356,0.8889138102531433
1730866795.5518935,-1.791463017463684,1.0202981233596802,-9.862752914428711,0.030947871456194063,-0.07682679984038553,-0.10258482596542412,1.1510497331619263,1.4115148782730103,0.8885334730148315
1730866795.6019044,-1.7647545337677002,1.0044630765914917,-9.858907699584961,0.0007928188961171395,-0.06931424547243406,-0.09010006817507615,1.1522988080978394,1.4129120111465454,0.8879141211509705
1730866795.6518931,-1.7026715278625488,1.0069912672042847,-9.855175971984863,-0.028263817320952282,-0.04810355327325648,-0.05943748782050037,1.1535133123397827,1.4141623973846436,0.8871084451675415
1730866795.7018921,-1.659342885017395,0.9944362044334412,-9.861957550048828,-0.04248455389644677,-0.02096708307746887,-0.021499869846556663,1.151095986366272,1.4150956869125366,0.8887360692024231
1730866795.7518423,-1.5912537574768066,1.0003902912139893,-9.86406135559082,-0.03428225688319761,0.004339027194847562,0.012598476368866417,1.151463508605957,1.4162966012954712,0.8885444402694702
1730866795.8019702,-1.583556056022644,0.9868680238723755,-9.861923217773438,-0.005547525877326469,0.022245165604861717,0.03505323055214737,1.153186559677124,1.4207217693328857,0.8889144659042358
1730866795.8519151,-1.5915809869766235,1.0022300481796265,-9.853265762329102,0.033039668147777826,0.030118367042952114,0.04290513832506952,1.1541569232940674,1.4231899976730347,0.8890103101730347
1730866795.9020653,-1.640397548675537,0.9892054200172424,-9.863682746887207,0.06664407341703338,0.02833412533156567,0.03809076623609218,1.1552542448043823,1.425736427307129,0.8892079591751099
1730866795.951874,-1.680298924446106,0.997536838054657,-9.841938972473145,0.08202866737572526,0.019668763758902984,0.025886875407008597,1.1565303802490234,1.4283281564712524,0.889484167098999
1730866796.0018826,-1.727184772491455,0.9813041687011719,-9.849190711975098,0.07204529495959261,0.00813043400404257,0.012443374574693914,1.1580020189285278,1.4309613704681396,0.8898088932037354
1730866796.0518975,-1.7236430644989014,0.9799819588661194,-9.829455375671387,0.037611703823367024,-0.0022961137620809715,0.002704895875228711,1.1549817323684692,1.4264410734176636,0.889069676399231
1730866796.1018727,-1.7364163398742676,0.9716700315475464,-9.822746276855469,-0.012629016876157442,-0.008702793070390973,-0.0008153533056255589,1.1555958986282349,1.4277801513671875,0.8891255855560303
1730866796.151826,-1.699140191078186,0.9614218473434448,-9.815225601196289,-0.06376610160706127,-0.009913675289178445,0.0015618873366328948,1.1561195850372314,1.4291082620620728,0.889182984828949
1730866796.2020662,-1.6764875650405884,0.9420576095581055,-9.816112518310547,-0.09876888249453392,-0.006356084608603111,0.0073298971860624364,1.1571791172027588,1.4323409795761108,0.8890442252159119
1730866796.2518864,-1.6367181539535522,0.9241689443588257,-9.814549446105957,-0.105958398872813,0.0006800170595821866,0.01335035339064831,1.1575745344161987,1.4343215227127075,0.8890913724899292
1730866796.301852,-1.5846518278121948,0.8974369168281555,-9.832322120666504,-0.08441856055186445,0.009550821273764214,0.01711773779300163,1.1588157415390015,1.4389928579330444,0.8890492916107178
1730866796.3517888,-1.5553874969482422,0.8950323462486267,-9.847944259643555,-0.04297130865019927,0.018423170234350007,0.017089269503151816,1.1591354608535767,1.4413646459579468,0.8891302943229675
1730866796.4017913,-1.5504058599472046,0.8995543718338013,-9.886140823364258,0.004662262905899146,0.025317586260894982,0.012653906338538124,1.1594057083129883,1.4437799453735352,0.8892480731010437
1730866796.4517865,-1.5434914827346802,0.9350510835647583,-9.888607025146484,0.04497406429100753,0.028099488122977054,0.003923568819753448,1.159738540649414,1.4462664127349854,0.8893867135047913
1730866796.5018086,-1.5881954431533813,0.9850040674209595,-9.91498851776123,0.06905241094588117,0.024690220420597563,-0.008590565219307825,1.1613507270812988,1.4465895891189575,0.889041543006897
1730866796.55179,-1.638936161994934,1.0397701263427734,-9.88611125946045,0.07420048671261856,0.013659297516171322,-0.023490173120213675,1.1622002124786377,1.4486759901046753,0.8890154957771301
1730866796.601824,-1.7044469118118286,1.0609158277511597,-9.88838005065918,0.061908444355441815,-0.00456929873122505,-0.037067866207874625,1.1632180213928223,1.4507694244384766,0.8889139294624329
1730866796.6517031,-1.7287285327911377,1.075377345085144,-9.8549165725708,0.03513388662742034,-0.02701724606293146,-0.04349978893120783,1.1640592813491821,1.4554355144500732,0.8889335989952087
1730866796.7017877,-1.7598203420639038,1.0491743087768555,-9.845969200134277,-0.0019107382054881616,-0.04895905996334301,-0.03833222954973117,1.1650538444519043,1.463657259941101,0.8888975977897644
1730866796.751634,-1.743246078491211,1.0137039422988892,-9.818344116210938,-0.04151392881421439,-0.06453837574591641,-0.022165761189083352,1.1658750772476196,1.4679793119430542,0.8887245655059814
1730866796.8017912,-1.755769968032837,0.9603694081306458,-9.811210632324219,-0.07232560805414559,-0.06751059154319287,-0.0005063198228310514,1.1663557291030884,1.4693769216537476,0.8889051675796509
1730866796.8516731,-1.731658935546875,0.9406065344810486,-9.800421714782715,-0.08451600707167828,-0.054293690383280316,0.019799779437330738,1.1668978929519653,1.4726765155792236,0.8888735771179199
1730866796.901664,-1.7512058019638062,0.9664363265037537,-9.805249214172363,-0.07555204713379693,-0.027589795335101575,0.03371200336390477,1.1672368049621582,1.475848913192749,0.8889086842536926
1730866796.9517045,-1.7657874822616577,1.0193852186203003,-9.822324752807617,-0.05105716566871122,0.003207766029056317,0.038861721309155675,1.1678234338760376,1.4823626279830933,0.8890277147293091
1730866797.0016816,-1.7702869176864624,1.0748765468597412,-9.834771156311035,-0.021335913503969656,0.02605935760665869,0.0353251108280988,1.1681262254714966,1.4860399961471558,0.8891860842704773
1730866797.051698,-1.7494590282440186,1.1060236692428589,-9.85410213470459,0.003650776839430705,0.03218195640979514,0.025074439061874974,1.1684067249298096,1.4897900819778442,0.8894201517105103
1730866797.1016781,-1.7074577808380127,1.1326903104782104,-9.892754554748535,0.01862526299807569,0.0195145028681269,0.010842502009370642,1.1702250242233276,1.4967494010925293,0.8890912532806396
1730866797.1516511,-1.650280237197876,1.1033844947814941,-9.896876335144043,0.024488706866966685,-0.007254473084935438,-0.004948855517673861,1.1710240840911865,1.5014933347702026,0.8891676068305969
1730866797.2016773,-1.6040245294570923,1.0846381187438965,-9.929455757141113,0.026360105765861494,-0.037709689184337265,-0.019958389186945473,1.1718823909759521,1.5061566829681396,0.8892124891281128
1730866797.2517042,-1.530792474746704,1.0533368587493896,-9.92027473449707,0.03046110224669034,-0.05846186692875996,-0.031576020426270814,1.1720249652862549,1.5077431201934814,0.8890033960342407
1730866797.3016248,-1.502678394317627,1.0228931903839111,-9.895480155944824,0.04144197067894293,-0.05948602153556652,-0.03778048092151237,1.172782063484192,1.5114223957061768,0.8888829350471497
1730866797.3516223,-1.4952075481414795,1.000932216644287,-9.865523338317871,0.05902286163172974,-0.039878651164828555,-0.03735901681336955,1.1746405363082886,1.518601894378662,0.888910174369812
1730866797.4016237,-1.5401482582092285,0.9865443706512451,-9.821708679199219,0.07633797783053914,-0.007709662610959432,-0.02938391062371663,1.1760414838790894,1.523735761642456,0.888735294342041
1730866797.451586,-1.6149951219558716,0.9925593733787537,-9.771032333374023,0.08328497174050539,0.025032557006310255,-0.01387438836882714,1.1765925884246826,1.5288457870483398,0.8888954520225525
1730866797.501597,-1.6910851001739502,0.98923259973526,-9.74107837677002,0.0720264238249674,0.04799510358645654,0.007208883588937292,1.177977442741394,1.534159541130066,0.888813316822052
1730866797.551593,-1.7667514085769653,0.9629797339439392,-9.726921081542969,0.04103503569960053,0.05612102907732604,0.029832467152143778,1.1814016103744507,1.5430411100387573,0.8889819979667664
1730866797.6016507,-1.8033510446548462,0.9620007276535034,-9.73973274230957,-0.0037376194234415624,0.050667814482042606,0.04857152830979408,1.1832278966903687,1.5488215684890747,0.8890968561172485
1730866797.651477,-1.8242155313491821,0.9612809419631958,-9.764026641845703,-0.05087553645708595,0.037110715242415014,0.05814611605254327,1.1865761280059814,1.5601037740707397,0.8891130089759827
1730866797.7013788,-1.8068299293518066,0.9645878076553345,-9.826356887817383,-0.0874995091953003,0.02151722253060079,0.05510464866010046,1.1886066198349,1.5676699876785278,0.8893721699714661
1730866797.7514617,-1.7545268535614014,0.9806873202323914,-9.876378059387207,-0.10366694795470624,0.00808656579665986,0.03880514573027448,1.1904250383377075,1.5753780603408813,0.8897526860237122
1730866797.8014631,-1.7246776819229126,0.9868714809417725,-9.934040069580078,-0.09508086408934062,-0.0015402677336997413,0.011090814578659496,1.191981315612793,1.5830358266830444,0.8901927471160889
1730866797.8514495,-1.6440595388412476,1.0111454725265503,-9.976526260375977,-0.06329546498259087,-0.007973971008071483,-0.025233185911441056,1.1933385133743286,1.590670108795166,0.8906146287918091
1730866797.9012969,-1.6146618127822876,1.0096666812896729,-9.992257118225098,-0.014104332079358553,-0.013160406120249043,-0.06744517034076034,1.190940499305725,1.5749502182006836,0.889092743396759
1730866797.9513903,-1.5864280462265015,1.0217225551605225,-9.989723205566406,0.04384300940285533,-0.0188945149161294,-0.1113629840087835,1.1950136423110962,1.589206576347351,0.8888680338859558
1730866798.001357,-1.5752391815185547,1.0284582376480103,-9.972569465637207,0.09820582208882553,-0.02519045883047357,-0.1478950631670916,1.1971797943115234,1.5961765050888062,0.8883680701255798
1730866798.0514343,-1.5740745067596436,1.0571670532226562,-9.943157196044922,0.1342384184379751,-0.03017732642301615,-0.16395092798846314,1.2013322114944458,1.6078795194625854,0.8885572552680969
1730866798.101261,-1.59675931930542,1.0697863101959229,-9.9138765335083,0.14172373361982393,-0.03208245155289688,-0.15058500813007844,1.2044752836227417,1.6158747673034668,0.8877726197242737
1730866798.1512592,-1.626312017440796,1.0789870023727417,-9.85972785949707,0.12056902996526606,-0.030779770078198487,-0.10988657421606145,1.207964539527893,1.6238361597061157,0.8866574168205261
1730866798.2012446,-1.6698873043060303,1.0645699501037598,-9.801170349121094,0.07908311935468487,-0.027339991745966626,-0.053002695483608905,1.2071714401245117,1.6170483827590942,0.8884754776954651
1730866798.2512891,-1.7371671199798584,1.014749526977539,-9.737845420837402,0.028646987845564287,-0.022688696523134884,0.006840041508917384,1.2116284370422363,1.68927001953125,0.8887309432029724
1730866798.3012483,-1.7910494804382324,0.9660142064094543,-9.68868637084961,-0.019963307794657714,-0.01644721539795295,0.0584985163605789,1.2145744562149048,1.715713381767273,0.8886790871620178
1730866798.3512266,-1.8124430179595947,0.9415401220321655,-9.667943954467773,-0.05822942634826195,-0.007049923164917912,0.0937369411372195,1.2174290418624878,1.7421865463256836,0.8888179659843445
1730866798.401227,-1.83695387840271,0.9297013878822327,-9.665119171142578,-0.08164036018527325,0.0067071870530204195,0.10892131549493522,1.2201013565063477,1.768589973449707,0.8892096281051636
1730866798.4513428,-1.816867709159851,0.9423250555992126,-9.697955131530762,-0.09098158056258338,0.024401839387262234,0.10647233986827911,1.2225650548934937,1.7951085567474365,0.8898723721504211
1730866798.5012395,-1.7869733572006226,0.9965085387229919,-9.74616813659668,-0.09071834008699416,0.0435419600450522,0.0925654582597259,1.224790096282959,1.821578860282898,0.8907797932624817
1730866798.5511658,-1.73721444606781,1.0301915407180786,-9.814620971679688,-0.08517738178326778,0.05947081792829489,0.07263478223447214,1.2170344591140747,1.7752118110656738,0.8883535861968994
1730866798.6012027,-1.691550850868225,1.0640913248062134,-9.865907669067383,-0.07580685082256378,0.06651464581390244,0.048947469291685926,1.2215828895568848,1.8445944786071777,0.8876578211784363
1730866798.6511478,-1.6422407627105713,1.0827258825302124,-9.915732383728027,-0.061383183254227175,0.06085267135212406,0.022159892294255572,1.2299085855484009,1.961946964263916,0.8864901065826416
1730866798.7011757,-1.620750069618225,1.1076611280441284,-9.952740669250488,-0.04073113884070074,0.04316887153710314,-0.005641493062339664,1.2350077629089355,2.0366504192352295,0.8859176635742188
1730866798.7513247,-1.594897985458374,1.105116367340088,-9.98176383972168,-0.015511953269526358,0.018626634838715257,-0.0304674317603691,1.2400774955749512,2.1120388507843018,0.8852948546409607
1730866798.8011928,-1.5761250257492065,1.1144839525222778,-9.982076644897461,0.009988016899082573,-0.005870697021589357,-0.04881356239480856,1.2311649322509766,2.018423557281494,0.8857370018959045
1730866798.8512278,-1.5641270875930786,1.115864634513855,-9.983433723449707,0.03146217459281896,-0.024725046205572636,-0.059417985579682045,1.2328674793243408,2.050778388977051,0.8852295875549316
1730866798.901099,-1.536668300628662,1.1380279064178467,-9.963765144348145,0.04606307748883873,-0.03505755992761615,-0.062224544421723926,1.232522964477539,2.0793392658233643,0.8850423097610474
1730866798.95111,-1.5425872802734375,1.1302698850631714,-9.932063102722168,0.05236899847374851,-0.03671548535891901,-0.05685414591059385,1.234248399734497,2.1180291175842285,0.8843903541564941
1730866799.001091,-1.5458320379257202,1.1435761451721191,-9.885204315185547,0.05034429368784113,-0.03159005252593888,-0.043074635899761474,1.2360928058624268,2.1564385890960693,0.8836173415184021
1730866799.0510688,-1.5810950994491577,1.139606237411499,-9.833024978637695,0.04105276699871516,-0.022585975718351532,-0.021587218355809352,1.2380520105361938,2.194805145263672,0.8827635049819946
1730866799.1010432,-1.6276878118515015,1.1050235033035278,-9.773472785949707,0.025893896049333894,-0.012567939578662854,0.006635627481466813,1.2401020526885986,2.2332701683044434,0.8818878531455994
1730866799.151098,-1.650246262550354,1.0402500629425049,-9.727765083312988,0.005848056241605587,-0.00296013008370905,0.04116381136787433,1.233669638633728,2.127174139022827,0.8844919800758362
1730866799.201103,-1.6900733709335327,0.9598448872566223,-9.705259323120117,-0.01811776693594122,0.007339561520172251,0.08056034943495104,1.2343049049377441,2.143220901489258,0.8844569325447083
1730866799.2511137,-1.7220770120620728,0.9370035529136658,-9.691682815551758,-0.043219165988477345,0.020727343311061245,0.1184221074388702,1.234861135482788,2.1592514514923096,0.8846720457077026
1730866799.3011167,-1.7568141222000122,0.919418215751648,-9.714037895202637,-0.06485228400872255,0.03831189055957283,0.14324386371027464,1.2331633567810059,2.189188241958618,0.8841731548309326
1730866799.35101,-1.7697973251342773,0.9518276453018188,-9.746415138244629,-0.07937849903234538,0.058300425370581055,0.1453677598089331,1.2330982685089111,2.212928056716919,0.8845688700675964
1730866799.400995,-1.788648247718811,0.9745360612869263,-9.800675392150879,-0.08527493795616557,0.074962044259077,0.12294595099534998,1.2328283786773682,2.23675537109375,0.8852974772453308
1730866799.4509814,-1.8061987161636353,1.018539547920227,-9.838265419006348,-0.08230961441346461,0.07958926019994304,0.08105777725735847,1.2329790592193604,2.2526276111602783,0.8842702507972717
1730866799.5009308,-1.7912774085998535,1.0382150411605835,-9.887364387512207,-0.07184139395533456,0.06578943480670543,0.028344815797385466,1.2326854467391968,2.2751834392547607,0.8846384286880493
1730866799.5509224,-1.7632502317428589,1.0613150596618652,-9.92665958404541,-0.0564395470649547,0.03518066121489313,-0.02477334086408675,1.2331959009170532,2.320284366607666,0.883914053440094
1730866799.6019306,-1.712557077407837,1.0485899448394775,-9.95093059539795,-0.03792572042155712,-0.002493547456700938,-0.067898367658123,1.2330245971679688,2.3519809246063232,0.8837892413139343
1730866799.6509478,-1.6678874492645264,1.021511435508728,-9.95937728881836,-0.016879338216089695,-0.03450216538085926,-0.09358677847270692,1.2327909469604492,2.382627248764038,0.8834704756736755
1730866799.7009223,-1.6344373226165771,0.9827129244804382,-9.947428703308105,0.006530466800720414,-0.050611779610209844,-0.09945463434370772,1.2325410842895508,2.413640260696411,0.882908046245575
1730866799.7519107,-1.6358721256256104,0.9491955041885376,-9.930668830871582,0.0321553737919571,-0.04606057819628755,-0.08833036267919551,1.2334494590759277,2.3091251850128174,0.8833819031715393
1730866799.8018954,-1.6608608961105347,0.9282518625259399,-9.898402214050293,0.05853654717713529,-0.02257769799753792,-0.06641439203374588,1.2335995435714722,2.3143277168273926,0.882917046546936
1730866799.8518538,-1.6823475360870361,0.9585382342338562,-9.849921226501465,0.08027272372530386,0.011485345617633036,-0.039991916830027834,1.2338967323303223,2.297402858734131,0.8839816451072693
1730866799.901778,-1.7141554355621338,1.002075433731079,-9.817384719848633,0.0887497243488345,0.04312304257739651,-0.013130842213381753,1.2317298650741577,2.293715000152588,0.8846218585968018
1730866799.951822,-1.7034597396850586,1.036320447921753,-9.782552719116211,0.07847949605681856,0.060091806317352364,0.011670022218188775,1.2313131093978882,2.294398069381714,0.8848204016685486
1730866800.001866,-1.6991266012191772,1.0619115829467773,-9.776214599609375,0.052625450994917514,0.056656899879411686,0.03182996057704101,1.2310596704483032,2.2952311038970947,0.88507479429245
1730866800.0518868,-1.670239806175232,1.0996173620224,-9.769041061401367,0.021629304933583123,0.035024039917429015,0.04511560350645789,1.2309006452560425,2.296175479888916,0.8854244351387024
1730866800.1018322,-1.612113356590271,1.097169041633606,-9.780665397644043,-0.002556318786275686,0.002238918471513151,0.05114716702665667,1.229468584060669,2.2918195724487305,0.8853440284729004
1730866800.1518934,-1.570892333984375,1.0983679294586182,-9.790990829467773,-0.011529587484411916,-0.03323016146582212,0.051200777383967756,1.2275704145431519,2.2912871837615967,0.8858616352081299
1730866800.201905,-1.5729037523269653,1.088749885559082,-9.810614585876465,-0.0037940356772399775,-0.062498122169624096,0.04648501917046358,1.226683259010315,2.291189193725586,0.886339545249939
1730866800.251912,-1.5948572158813477,1.0643541812896729,-9.822015762329102,0.014160130274452579,-0.07738802043689062,0.037272831102029,1.2258044481277466,2.2909152507781982,0.8869248628616333
1730866800.3019881,-1.6431443691253662,1.0617161989212036,-9.840821266174316,0.031069605077358405,-0.07358851812996534,0.023739184393546914,1.224984884262085,2.2904536724090576,0.8875846266746521
1730866800.3517864,-1.6928273439407349,1.0911502838134766,-9.855852127075195,0.03649625553402059,-0.05307543911007389,0.006832513121210387,1.2254053354263306,2.2766904830932617,0.8863288164138794
1730866800.40174,-1.7149401903152466,1.118661880493164,-9.877324104309082,0.025205489846496176,-0.023617310366942243,-0.011633449838208318,1.2249867916107178,2.273803234100342,0.886533796787262
1730866800.4517348,-1.712527871131897,1.1337614059448242,-9.892708778381348,-0.00017364622070934962,0.004087917022172965,-0.028904146940968222,1.2222394943237305,2.2600109577178955,0.8867577910423279
1730866800.5017042,-1.6858603954315186,1.1347980499267578,-9.926634788513184,-0.029660326333858778,0.02084117070647537,-0.041799793336817874,1.2209410667419434,2.253699779510498,0.8868979811668396
1730866800.5517433,-1.6590142250061035,1.1039360761642456,-9.9349946975708,-0.050946453772565695,0.02335529892673426,-0.04836376825343513,1.2213225364685059,2.2444863319396973,0.8872072100639343
1730866800.6017072,-1.6438376903533936,1.0499029159545898,-9.925304412841797,-0.055599804344586196,0.015702451489119765,-0.04874478138328421,1.2203600406646729,2.236973285675049,0.8872763514518738
1730866800.651675,-1.6210609674453735,0.9972695112228394,-9.907038688659668,-0.042659592025131865,0.006572786666042161,-0.04399158208675813,1.2192741632461548,2.2294797897338867,0.8872300982475281
1730866800.701627,-1.636009931564331,0.9354211688041687,-9.893609046936035,-0.01815487499026997,0.004971785325060317,-0.03457898199337312,1.220027208328247,2.2281811237335205,0.8870079517364502
1730866800.751705,-1.6223409175872803,0.9312883019447327,-9.871142387390137,0.008762218900425806,0.016301882088064434,-0.02078715982572867,1.2193948030471802,2.2226386070251465,0.8868732452392578
1730866800.8016465,-1.658825397491455,0.9151037931442261,-9.850125312805176,0.02982423431049664,0.03848731450523754,-0.004075202940295114,1.2198160886764526,2.2089297771453857,0.8869508504867554
1730866800.8516467,-1.6411075592041016,0.966576099395752,-9.82557201385498,0.03990733666307675,0.06151566395480444,0.012760265292164195,1.2195872068405151,2.200857162475586,0.8869144916534424
1730866800.9015,-1.6474710702896118,0.9852964282035828,-9.819921493530273,0.03830210479779384,0.07311330803706831,0.026732897377956553,1.219454050064087,2.1928694248199463,0.8869273662567139
1730866800.9515667,-1.6605446338653564,1.0082406997680664,-9.793376922607422,0.028574290455794446,0.06555123345269286,0.03592881200118923,1.2194050550460815,2.1850473880767822,0.8870192766189575
1730866801.001528,-1.7167505025863647,1.020538091659546,-9.771828651428223,0.01582483748618304,0.038574850323702656,0.040526293452379694,1.2189159393310547,2.1881113052368164,0.8870402574539185
1730866801.0515838,-1.765448808670044,1.0074604749679565,-9.74647045135498,0.0031967503865799334,-0.0009681965448240602,0.042669181601539694,1.2187037467956543,2.182111978530884,0.887217104434967
1730866801.1015513,-1.8037370443344116,0.9836859107017517,-9.747522354125977,-0.009098967785921027,-0.04087891471249123,0.044325282556296045,1.2178150415420532,2.1660964488983154,0.887126624584198
1730866801.1516056,-1.8064459562301636,0.9963465332984924,-9.739870071411133,-0.021849094437278713,-0.06767743407947406,0.045327377415990036,1.2184476852416992,2.146947145462036,0.8871500492095947
1730866801.2014859,-1.8075987100601196,0.9875872731208801,-9.762794494628906,-0.03410550922357186,-0.07341010582093856,0.04385125535178609,1.2183594703674316,2.1361939907073975,0.8873753547668457
1730866801.251558,-1.7743608951568604,1.0091122388839722,-9.786206245422363,-0.04230968557174211,-0.05975834858866145,0.03791907129725366,1.218173861503601,2.124905586242676,0.8877090811729431
1730866801.3014865,-1.78057062625885,1.0523827075958252,-9.824125289916992,-0.04243342779857013,-0.035774893541527554,0.02617872036365417,1.217882513999939,2.1135125160217285,0.88812255859375
1730866801.3515944,-1.7310893535614014,1.0931687355041504,-9.866081237792969,-0.03276197108502123,-0.013040704973783533,0.008060003785769241,1.2248291969299316,2.1181480884552,0.8870546221733093
1730866801.40149,-1.6818628311157227,1.0883888006210327,-9.913583755493164,-0.014617089886659572,-0.0010584130075903901,-0.015812195893880568,1.2259138822555542,2.1102027893066406,0.8871113061904907
1730866801.451541,-1.6496034860610962,1.0913028717041016,-9.954957008361816,0.008528786362875768,-0.0027092534177362974,-0.04246162791403151,1.231411099433899,2.0910754203796387,0.8867862820625305
1730866801.5014637,-1.6416963338851929,1.0761454105377197,-9.969290733337402,0.03204562339062054,-0.012911815376011894,-0.0664301403035143,1.2336891889572144,2.0797691345214844,0.8865737318992615
1730866801.551518,-1.6124651432037354,1.0279465913772583,-9.974382400512695,0.05092373000703759,-0.022720946680900106,-0.0818067031166205,1.2361067533493042,2.068247079849243,0.8861705660820007
1730866801.601425,-1.5658072233200073,1.0193390846252441,-9.955974578857422,0.06140496235901142,-0.024551215551021324,-0.08468231128801972,1.238631248474121,2.056823253631592,0.8855653405189514
1730866801.6514337,-1.5289725065231323,1.0317769050598145,-9.941719055175781,0.06368195131789518,-0.014897102448609551,-0.07468463849670262,1.2348120212554932,2.074295997619629,0.8864486813545227
1730866801.701445,-1.5058424472808838,1.0717270374298096,-9.879508018493652,0.062127483573539505,0.004303527639463063,-0.054761268292584125,1.2381253242492676,2.0600643157958984,0.8863635659217834
1730866801.751489,-1.5089446306228638,1.082741379737854,-9.858641624450684,0.06079160061929066,0.025626446075752325,-0.029349743350288886,1.2402328252792358,2.0515174865722656,0.8860329389572144
1730866801.8015044,-1.5072604417800903,1.0713555812835693,-9.80262565612793,0.05927627375324994,0.03978153795840473,-0.0029023477711083963,1.2429003715515137,2.0406360626220703,0.886289119720459
1730866801.8514664,-1.540307879447937,1.0250111818313599,-9.785675048828125,0.05412758103127771,0.04172193422291,0.02071114682408872,1.2452516555786133,2.031933546066284,0.8861700296401978
1730866801.9014547,-1.578718662261963,0.98587965965271,-9.745641708374023,0.042592988659438134,0.03393974274683903,0.038628558395035664,1.2477089166641235,2.0233798027038574,0.8861255645751953
1730866801.9515076,-1.6337708234786987,0.9663457870483398,-9.741700172424316,0.023811373118848123,0.02448251391588494,0.04951256556234594,1.2471987009048462,2.0236587524414062,0.8863635659217834
1730866802.0014443,-1.6682071685791016,0.9595379829406738,-9.732755661010742,-0.0014794492543327405,0.021453464751756687,0.05388812514761439,1.2536901235580444,2.007636547088623,0.8863562941551208
1730866802.0514357,-1.7193717956542969,0.9295024871826172,-9.752285957336426,-0.029937594773928544,0.027348184102648818,0.0529998239369806,1.2571839094161987,1.9976387023925781,0.8865455985069275
1730866802.101439,-1.7016441822052002,0.9382516741752625,-9.799241065979004,-0.05531362102092,0.03793819393371777,0.04688015378521332,1.2612653970718384,1.9917118549346924,0.8863204121589661
1730866802.151368,-1.7464407682418823,0.9520794153213501,-9.836647987365723,-0.07143041953091454,0.04650181429277522,0.03443620597373541,1.2648121118545532,1.9828991889953613,0.8865053057670593
1730866802.2013445,-1.7200977802276611,0.9743372201919556,-9.886265754699707,-0.07563198549581149,0.04800903293707923,0.01551654166876865,1.2681829929351807,1.9741839170455933,0.8867532014846802
1730866802.2513628,-1.7071348428726196,1.056365966796875,-9.90944766998291,-0.06922084315851063,0.03993021293966135,-0.008077557987442734,1.2663801908493042,1.9757719039916992,0.886081874370575
1730866802.301355,-1.6915746927261353,1.05266273021698,-9.955455780029297,-0.05556951907864071,0.02198771732572282,-0.03342096317783142,1.2682465314865112,1.9698179960250854,0.886030375957489
1730866802.3513746,-1.6976311206817627,1.0443445444107056,-9.958841323852539,-0.03826334591514685,-0.002430439311980606,-0.05676389680329155,1.2699896097183228,1.9639062881469727,0.8858660459518433
1730866802.4013748,-1.6995201110839844,1.075706124305725,-9.968870162963867,-0.020435661921109505,-0.025728686949248566,-0.07371180368092098,1.2716559171676636,1.9579716920852661,0.8855392932891846
1730866802.4514465,-1.7366068363189697,1.054137110710144,-9.936412811279297,-0.00496467271229202,-0.040145718010249756,-0.08117049201613585,1.2722129821777344,1.9580632448196411,0.8856356143951416
1730866802.5012887,-1.7128597497940063,1.0710500478744507,-9.913506507873535,0.005606302287730754,-0.04262182161209358,-0.07867581434316265,1.2739285230636597,1.9527020454406738,0.8852179050445557
1730866802.5514588,-1.6892571449279785,1.0452755689620972,-9.8819580078125,0.01041576500276337,-0.03531030222934271,-0.06716147092320886,1.2732971906661987,1.9853296279907227,0.8854127526283264
1730866802.6013455,-1.6924233436584473,1.0149418115615845,-9.844097137451172,0.011354365967182294,-0.022783601135267263,-0.04779118075985857,1.2743659019470215,1.99091374874115,0.885017991065979
1730866802.6514013,-1.6783335208892822,1.0066343545913696,-9.80730152130127,0.011323669623714698,-0.00899502094731134,-0.022618954620003354,1.274819254875183,2.0134761333465576,0.8853275775909424
1730866802.7012913,-1.6848970651626587,1.0154141187667847,-9.769814491271973,0.011608124366701406,0.0038238417731762822,0.004780475555781961,1.2758827209472656,2.0238826274871826,0.8851121068000793
1730866802.751413,-1.7067714929580688,0.9966291189193726,-9.754636764526367,0.011545791612168075,0.014087833830673198,0.029980184480475052,1.2797937393188477,2.043595790863037,0.8853604197502136
1730866802.801348,-1.7669216394424438,0.9942600131034851,-9.715543746948242,0.009478515943119516,0.020157801111477996,0.04898944964976839,1.2820144891738892,2.0575177669525146,0.8853955864906311
1730866802.8514001,-1.7910869121551514,1.0098081827163696,-9.729537010192871,0.003398869048117755,0.021172185198344115,0.05947095838801254,1.284259557723999,2.0715434551239014,0.8855663537979126
1730866802.9013565,-1.7951241731643677,1.0151089429855347,-9.743128776550293,-0.008252551625261218,0.017540111559945264,0.061148099320616364,1.2797279357910156,2.0806093215942383,0.8854766488075256
1730866802.951239,-1.7419753074645996,0.9975849986076355,-9.802370071411133,-0.024773353586935335,0.010629729268238488,0.054997192071094034,1.2802757024765015,2.0920209884643555,0.8857265114784241
1730866803.0012407,-1.698406457901001,1.007409691810608,-9.841071128845215,-0.040778364716386,0.002749579478001335,0.04175327229700876,1.280747890472412,2.103590488433838,0.8861008882522583
1730866803.051335,-1.650882601737976,1.009086012840271,-9.895438194274902,-0.04665119368397298,-0.003285501713709642,0.02102274213321992,1.2791690826416016,2.1224114894866943,0.885439395904541
1730866803.1011794,-1.6064960956573486,1.0410641431808472,-9.924018859863281,-0.03436458094363108,-0.005789554248274488,-0.007256974119628842,1.2791849374771118,2.136336326599121,0.8855412602424622
1730866803.151306,-1.5476281642913818,1.0653738975524902,-9.962756156921387,-0.004189802693492802,-0.00568890717170832,-0.0395723751661526,1.279152750968933,2.150426149368286,0.8855852484703064
1730866803.2011852,-1.5187677145004272,1.0683561563491821,-9.975190162658691,0.03519588377526432,-0.006207716064944226,-0.06854923940333653,1.2817203998565674,2.190880060195923,0.8851592540740967
1730866803.2512689,-1.5252400636672974,1.1285508871078491,-9.953487396240234,0.07265007006523348,-0.010687113490828392,-0.08712042345658806,1.2825868129730225,2.2116458415985107,0.884848952293396
1730866803.301152,-1.5726370811462402,1.170599341392517,-9.921629905700684,0.0983688934713193,-0.0204846966058302,-0.09125488638843007,1.2807798385620117,2.262422800064087,0.8848452568054199
1730866803.3513222,-1.6292190551757812,1.1809477806091309,-9.863584518432617,0.10442766430462008,-0.03447063691851063,-0.07943740529782671,1.278254747390747,2.3222970962524414,0.8847106099128723
1730866803.4011443,-1.669907569885254,1.1018719673156738,-9.836579322814941,0.08750974130999276,-0.048610688054357844,-0.05326857055322658,1.2778574228286743,2.356452226638794,0.8842714428901672
1730866803.4511862,-1.702710747718811,1.0234196186065674,-9.795205116271973,0.051995882688900555,-0.05529800420074236,-0.018652652131804726,1.2776352167129517,2.390403985977173,0.8837432861328125
1730866803.5010796,-1.6853996515274048,0.974080502986908,-9.794532775878906,0.008193553327294082,-0.04542748960968305,0.016197447029672598,1.2753230333328247,2.408590316772461,0.8847600817680359
1730866803.5511172,-1.6924875974655151,0.9399674534797668,-9.802739143371582,-0.03248102476309096,-0.014298588155178248,0.044319905885976923,1.274585485458374,2.438281774520874,0.8847372531890869
1730866803.601071,-1.6487274169921875,0.9430475234985352,-9.821200370788574,-0.06068382852916204,0.03224311534809653,0.06100660559762543,1.2722980976104736,2.4880056381225586,0.8850089311599731
1730866803.6510115,-1.6418641805648804,0.9942145943641663,-9.854891777038574,-0.07063497769540031,0.07802956963895537,0.06332591579324374,1.2708929777145386,2.525120496749878,0.8852488398551941
1730866803.7009993,-1.6438310146331787,1.048930048942566,-9.871220588684082,-0.06193097143809251,0.10477020829714102,0.05110198055323979,1.269324541091919,2.5624117851257324,0.8856310844421387
1730866803.7510881,-1.6473432779312134,1.0809696912765503,-9.89801025390625,-0.0402392670038051,0.10095351614391213,0.027723032706043274,1.2676267623901367,2.600001573562622,0.8861121535301208
1730866803.8009834,-1.669473648071289,1.1241239309310913,-9.881085395812988,-0.014787561848516163,0.0655893419809618,-0.0012008709020019243,1.265863299369812,2.6377365589141846,0.8866254687309265
1730866803.8510644,-1.6916029453277588,1.1016298532485962,-9.85451602935791,0.005553440290235798,0.0071441451351741715,-0.02963423370947496,1.2693990468978882,2.534315586090088,0.8851227164268494
1730866803.9009273,-1.7474948167800903,1.0539997816085815,-9.818138122558594,0.014895610782145435,-0.05924867642928343,-0.05170122494335329,1.2673962116241455,2.578310966491699,0.884978711605072
1730866803.9509652,-1.7862236499786377,0.9769389629364014,-9.7913818359375,0.011488675179283502,-0.11412290063253075,-0.06205415474055784,1.2663381099700928,2.6025214195251465,0.8847711086273193
1730866804.000958,-1.835958480834961,0.9155861735343933,-9.738426208496094,-0.002337263655715063,-0.13847062963195986,-0.057409203671809475,1.2645717859268188,2.641590118408203,0.8848405480384827
1730866804.0510082,-1.8490251302719116,0.8971691727638245,-9.723233222961426,-0.02163016741080989,-0.12271052802503549,-0.038486617707153926,1.2632817029953003,2.669650077819824,0.8845695853233337
1730866804.1009197,-1.8435821533203125,0.973113477230072,-9.737277030944824,-0.040385597826036214,-0.0738029958563063,-0.010811029924444488,1.2662758827209473,2.6250412464141846,0.8847334980964661
1730866804.151031,-1.7943824529647827,1.061345100402832,-9.781245231628418,-0.05244196198359057,-0.013542209052114607,0.01643803395103563,1.266152024269104,2.630225658416748,0.8846081495285034
1730866804.20088,-1.7436370849609375,1.099963903427124,-9.847291946411133,-0.052652751646692225,0.03226220143637798,0.033465322415517626,1.268229365348816,2.607616662979126,0.8847318887710571
1730866804.2509425,-1.6618947982788086,1.1332602500915527,-9.900044441223145,-0.03841451777317331,0.046754443814963714,0.033513951311357405,1.268524408340454,2.6065375804901123,0.8847898840904236
1730866804.300945,-1.5864489078521729,1.1284030675888062,-9.938526153564453,-0.010785729625329388,0.029245848467432937,0.015850211394421797,1.2670432329177856,2.566032886505127,0.884685754776001
1730866804.351057,-1.527786135673523,1.0940485000610352,-9.95830249786377,0.025477813971526965,-0.006547863614277531,-0.013497127530868146,1.2666436433792114,2.551503896713257,0.8846829533576965
1730866804.4008586,-1.5140912532806396,1.0712286233901978,-9.954444885253906,0.06277032266878807,-0.041063704725888855,-0.04423156893515854,1.2663559913635254,2.5369932651519775,0.8846083283424377
1730866804.450862,-1.5081217288970947,1.0396565198898315,-9.925285339355469,0.09250240442944668,-0.05824908561578216,-0.06596907417651482,1.2662627696990967,2.507209300994873,0.8846024870872498
1730866804.500833,-1.5485506057739258,1.0450024604797363,-9.882854461669922,0.10812874684076065,-0.05151939436525607,-0.07199054646417712,1.2663931846618652,2.49174427986145,0.8843197226524353
1730866804.550807,-1.5798888206481934,1.1074258089065552,-9.838173866271973,0.10641083296249695,-0.02596188645053876,-0.06083155161778515,1.2683006525039673,2.777822732925415,0.8844992518424988
1730866804.6007779,-1.6360132694244385,1.163387417793274,-9.811859130859375,0.0867650503790881,0.00421536787713466,-0.035628177606343445,1.2693167924880981,2.8608362674713135,0.8842044472694397
1730866804.6508758,-1.685312032699585,1.2180308103561401,-9.778185844421387,0.05199275518485802,0.023392653324107407,-0.003021187104959553,1.2705117464065552,2.944208860397339,0.8838598132133484
1730866804.7007334,-1.7431252002716064,1.2206097841262817,-9.770234107971191,0.008364462721016392,0.022313605943990122,0.02874987468389817,1.2717676162719727,3.026639938354492,0.8835510015487671
1730866804.750779,-1.764493465423584,1.2010791301727295,-9.757133483886719,-0.037443540447443364,0.0008081759012471242,0.053303476181498034,1.2698588371276855,3.000765323638916,0.8845956325531006
1730866804.8008137,-1.775014877319336,1.136772871017456,-9.772846221923828,-0.0801446052363947,-0.03301451543447441,0.0680052653018359,1.270181655883789,3.0583183765411377,0.8847673535346985
1730866804.8517973,-1.7479575872421265,1.038690209388733,-9.796424865722656,-0.1133059015349182,-0.06435263145791588,0.07213683290980791,1.2691919803619385,3.2379753589630127,0.8848293423652649
1730866804.9007714,-1.666696310043335,1.0102245807647705,-9.839709281921387,-0.1280271702581211,-0.07663882906826838,0.06486573329634363,1.2687710523605347,3.338757038116455,0.8851514458656311
1730866804.9508238,-1.602743148803711,1.0436054468154907,-9.866927146911621,-0.11702938253037704,-0.061640916953316416,0.046286244183236964,1.2680284976959229,3.443002939224243,0.8856238722801208
1730866805.001782,-1.5759062767028809,1.062682032585144,-9.90506649017334,-0.07927878883265767,-0.02634455601729433,0.018943161601358678,1.2670385837554932,3.546884536743164,0.8861780166625977
1730866805.0508127,-1.5734912157058716,1.072648048400879,-9.924606323242188,-0.020828997278713714,0.012006292754403153,-0.013105566464527155,1.265946626663208,3.648479461669922,0.8867276310920715
1730866805.1007743,-1.6206141710281372,1.0448596477508545,-9.934700965881348,0.0468140320543404,0.037423013893432014,-0.046080805918540024,1.2688695192337036,3.4054017066955566,0.884856641292572
1730866805.151676,-1.6619726419448853,1.0188539028167725,-9.933266639709473,0.10876950932364386,0.0431942167896975,-0.07636575500940776,1.2689604759216309,3.452897071838379,0.8847199082374573
1730866805.2016852,-1.659531593322754,1.0420520305633545,-9.91443157196045,0.14918824229863256,0.03291765374397993,-0.09856551937516886,1.2693692445755005,3.4989259243011475,0.884369969367981
1730866805.251711,-1.6567227840423584,1.0599254369735718,-9.891203880310059,0.156264873254907,0.015718299309869642,-0.10563117322848006,1.273010015487671,3.5925493240356445,0.884516716003418
1730866805.3016872,-1.649315595626831,1.0573378801345825,-9.869314193725586,0.12902390052373075,-0.00010811225160994907,-0.0932284017095534,1.2745976448059082,3.658586263656616,0.8840391635894775
1730866805.351806,-1.667824387550354,1.0151246786117554,-9.842863082885742,0.07918485466455309,-0.009995123321834956,-0.06380810546513742,1.2764739990234375,3.7256884574890137,0.8833554983139038
1730866805.401679,-1.6932827234268188,0.9838268756866455,-9.807384490966797,0.02486131800648292,-0.011994574071597142,-0.025493071475911525,1.2765711545944214,3.7783188819885254,0.8844181895256042
1730866805.4516585,-1.7182481288909912,0.96570885181427,-9.787827491760254,-0.018705969350740204,-0.005522043028772924,0.012456775524401154,1.277834415435791,3.8418595790863037,0.8842135667800903
1730866805.5016425,-1.73580002784729,0.9434107542037964,-9.763721466064453,-0.044439393621886376,0.007773885156944471,0.04273279182396863,1.2814387083053589,4.048523902893066,0.884739100933075
1730866805.5517387,-1.7538913488388062,0.9284999370574951,-9.759772300720215,-0.05302104060775138,0.02348182628585743,0.06077918021488887,1.2833940982818604,4.163968563079834,0.8849146366119385
1730866805.6017115,-1.7615134716033936,0.9064168930053711,-9.765748977661133,-0.04955086165744724,0.03642829611672186,0.06516055377755237,1.2852118015289307,4.278931617736816,0.885246753692627
1730866805.651646,-1.731896162033081,0.9068719148635864,-9.806818008422852,-0.040026868389306657,0.04340331509513781,0.05729531982236957,1.2869105339050293,4.393494606018066,0.8857291340827942
1730866805.701583,-1.7131459712982178,0.9053838849067688,-9.82618522644043,-0.028890402418281638,0.044300973384782796,0.04017085775342395,1.2885323762893677,4.5087690353393555,0.8863354921340942
1730866805.7515202,-1.713521957397461,0.9039684534072876,-9.865653991699219,-0.018084836828110767,0.04132419200492576,0.016973781010160158,1.2851299047470093,4.26212739944458,0.8850527405738831
1730866805.8015127,-1.6910346746444702,0.9127197265625,-9.88732624053955,-0.007784913529083446,0.037059547027124815,-0.009238759937848302,1.2859700918197632,4.316077709197998,0.8851964473724365
1730866805.8514569,-1.69404935836792,0.9323779940605164,-9.903688430786133,0.0020609030590649025,0.03252504996305271,-0.03450320111384849,1.286807656288147,4.370394706726074,0.8852861523628235
1730866805.9013581,-1.6975953578948975,0.9504978656768799,-9.913945198059082,0.010880276315193088,0.026513837538290754,-0.05386557665715074,1.2899532318115234,4.494437217712402,0.8850284218788147
1730866805.9515274,-1.7212674617767334,0.9594179391860962,-9.912575721740723,0.017488515763807146,0.017162543612962263,-0.06365572462164487,1.291571021080017,4.575109958648682,0.8848531246185303
1730866806.0013745,-1.72246253490448,0.9747301340103149,-9.885385513305664,0.020263220012842646,0.004446672753154563,-0.06291907589819387,1.2944289445877075,4.737490177154541,0.8848650455474854
1730866806.0514998,-1.7225892543792725,0.9675291180610657,-9.863912582397461,0.017870207951984837,-0.009034811042409063,-0.0525549514120113,1.2961323261260986,4.824787616729736,0.8845744132995605
1730866806.10136,-1.7129566669464111,0.9235614538192749,-9.82402229309082,0.010804259130828988,-0.019277280480065755,-0.034647261824695866,1.2997134923934937,4.706735610961914,0.884816586971283
1730866806.1514375,-1.6989433765411377,0.8878693580627441,-9.803365707397461,0.0019966079531932492,-0.02244007508098309,-0.012453290310305362,1.302019715309143,4.725259304046631,0.8846201300621033
1730866806.2014298,-1.6600720882415771,0.8574495315551758,-9.80130672454834,-0.004541466360341901,-0.01641566611362686,0.009863566326383622,1.3046295642852783,4.669588088989258,0.8848941922187805
1730866806.2514315,-1.6348086595535278,0.8389185667037964,-9.82079792022705,-0.00560395402663454,-0.0021887101138073875,0.027725056996419504,1.3070611953735352,4.6707940101623535,0.8848966956138611
1730866806.30133,-1.6163662672042847,0.863571047782898,-9.855145454406738,-0.00014303549964182543,0.015922245569207315,0.036945152731486894,1.3094829320907593,4.67201566696167,0.8849800229072571
1730866806.351429,-1.5904488563537598,0.9397866129875183,-9.900623321533203,0.010463418409473433,0.031153416802425955,0.03457854117884115,1.3119345903396606,4.673305511474609,0.8851541876792908
1730866806.4012568,-1.5625076293945312,0.9811192750930786,-9.943236351013184,0.023886862185256583,0.03605597396711205,0.01940984913942407,1.310616135597229,4.642522811889648,0.8850281834602356
1730866806.451329,-1.539092779159546,0.9946919679641724,-9.966882705688477,0.03826351747650616,0.02568517061454188,-0.007113535899287359,1.3125309944152832,4.639983177185059,0.885105311870575
1730866806.5013025,-1.528515100479126,0.9814580678939819,-9.96123218536377,0.05144852817714668,0.0018394432027043512,-0.03905147477506129,1.3162556886672974,4.62680721282959,0.8849827647209167
1730866806.551302,-1.5340180397033691,0.9373180270195007,-9.934931755065918,0.06012444804397834,-0.025857316294604898,-0.06620361604681034,1.3186804056167603,4.62259578704834,0.884818971157074
1730866806.6012337,-1.5561283826828003,0.8677763342857361,-9.884902954101562,0.06096073474488845,-0.0446607095354126,-0.07843124770115076,1.3212394714355469,4.6183247566223145,0.8844757676124573
1730866806.651204,-1.5832241773605347,0.8202002048492432,-9.832531929016113,0.052224002281089206,-0.044686093637423784,-0.07010897854697726,1.321688175201416,4.607727527618408,0.8848150968551636
1730866806.7012012,-1.627614140510559,0.8003814220428467,-9.785164833068848,0.03444240478468971,-0.02280715007503827,-0.04179812244565513,1.323822259902954,4.602209091186523,0.8844948410987854
1730866806.751298,-1.6952365636825562,0.7988695502281189,-9.755937576293945,0.010253059378046573,0.014664131891404092,-0.000514575086760503,1.3271782398223877,4.592948913574219,0.8848409652709961
1730866806.8011332,-1.7372362613677979,0.7976134419441223,-9.750743865966797,-0.01658654883995078,0.053413610396314766,0.04198200399196385,1.3298295736312866,4.586306571960449,0.8847938776016235
1730866806.851203,-1.7800114154815674,0.8343343734741211,-9.776012420654297,-0.042070327230977075,0.07858195591232912,0.0734770128841805,1.326388955116272,4.579620361328125,0.8851587176322937
1730866806.901106,-1.8010774850845337,0.8753777742385864,-9.789542198181152,-0.062274344006073526,0.08200304806258722,0.0856525316825225,1.326982855796814,4.573266983032227,0.8854882121086121
1730866806.9511535,-1.7762478590011597,0.9270778894424438,-9.823275566101074,-0.07381722180320385,0.06391640563699164,0.07670277143926434,1.3274085521697998,4.567075252532959,0.8860217928886414
1730866807.001159,-1.7364511489868164,0.9664216041564941,-9.855615615844727,-0.07423645252994673,0.030272403388722623,0.051126288659625665,1.3254808187484741,4.564753532409668,0.8854576349258423
1730866807.0512369,-1.7196502685546875,0.9798133373260498,-9.87679386138916,-0.0626724343040302,-0.010671064228981246,0.016857435566060685,1.3253450393676758,4.559083938598633,0.8857691884040833
1730866807.1010485,-1.6902509927749634,0.9906731843948364,-9.884690284729004,-0.04112539924378823,-0.049477025702823176,-0.0173459715576177,1.3260176181793213,4.548960208892822,0.8854746222496033
1730866807.1511052,-1.6936835050582886,0.9792918562889099,-9.876590728759766,-0.014666609577257468,-0.07639018945998756,-0.04345997691866572,1.3261598348617554,4.541236877441406,0.8855045437812805
1730866807.200999,-1.6843382120132446,0.9737933278083801,-9.885198593139648,0.010056877511122869,-0.08474169632387125,-0.05612213414310495,1.3262953758239746,4.533361434936523,0.8854104280471802
1730866807.2510805,-1.7062832117080688,0.9566625356674194,-9.882539749145508,0.027048253140125714,-0.07392604466884126,-0.05429739734647472,1.3264782428741455,4.525239944458008,0.8851776123046875
1730866807.3009102,-1.715030550956726,0.9367551207542419,-9.867260932922363,0.03295625412259207,-0.04886485853894955,-0.04125097060998867,1.326788306236267,4.53628396987915,0.8853644132614136
1730866807.3510065,-1.7087405920028687,0.9246942400932312,-9.866271018981934,0.028041427555565154,-0.01731830618761043,-0.022715096048647722,1.3270853757858276,4.532155990600586,0.8851990699768066
1730866807.4009352,-1.6984732151031494,0.9122095108032227,-9.855585098266602,0.01602967433156653,0.012598004585803829,-0.004499907601979049,1.327136754989624,4.521324157714844,0.8854526877403259
1730866807.4510093,-1.678272008895874,0.9222651124000549,-9.850526809692383,0.0028280313914388518,0.03422046962428775,0.009193212188677061,1.3273835182189941,4.514744281768799,0.8854407668113708
1730866807.5009472,-1.646531581878662,0.9287723302841187,-9.854398727416992,-0.005870907394387387,0.04375487503844755,0.016513422327313447,1.327418327331543,4.505446910858154,0.8856306076049805
1730866807.551015,-1.6317895650863647,0.9078540205955505,-9.861723899841309,-0.006795607797671377,0.041045830104610874,0.017730289636928985,1.3275892734527588,4.4977521896362305,0.885736882686615
1730866807.6008782,-1.6107221841812134,0.9060937166213989,-9.867035865783691,-0.00010762157367029358,0.029698911426936633,0.014325195433126006,1.327425479888916,4.4926371574401855,0.8857739567756653
1730866807.6509922,-1.6092365980148315,0.9238526225090027,-9.870099067687988,0.010972901227684021,0.015716255098038298,0.008186188297958651,1.3275076150894165,4.486838340759277,0.885880172252655
1730866807.7008805,-1.6072579622268677,0.9356204867362976,-9.85897445678711,0.02179945041445866,0.004102857414517974,0.0013325405673565572,1.3278838396072388,4.477032661437988,0.884030282497406
1730866807.750905,-1.621726632118225,0.9512816667556763,-9.846404075622559,0.028224966072106644,-0.0036350301308680118,-0.004150939785685051,1.3249528408050537,4.465514183044434,0.8822177648544312
1730866807.8008168,-1.6358951330184937,0.9644789695739746,-9.842390060424805,0.027982793217084696,-0.00855065452750432,-0.006594538782126246,1.3238720893859863,4.456578731536865,0.8811938166618347
1730866807.8509374,-1.6471667289733887,0.9628987908363342,-9.831621170043945,0.02118743733290797,-0.01188674353955086,-0.0054957313631417365,1.3228577375411987,4.447657108306885,0.8801592588424683
1730866807.9008865,-1.655463457107544,0.9589827656745911,-9.8350830078125,0.00980887230194345,-0.014070219350250966,-0.0016525197401796722,1.3218845129013062,4.438725471496582,0.8791183829307556
1730866807.950857,-1.6611692905426025,0.9506097435951233,-9.837821006774902,-0.003482454158438356,-0.014982597912344148,0.0034500459562004076,1.322494626045227,4.451185703277588,0.8807741403579712
1730866808.00079,-1.660892367362976,0.9290807843208313,-9.852906227111816,-0.016142714348183384,-0.014271391295290764,0.008163554831506638,1.3218135833740234,4.446239948272705,0.8803017735481262
1730866808.0509171,-1.6441295146942139,0.9206033945083618,-9.87423324584961,-0.025644949823481995,-0.011383724100482768,0.010718675375526019,1.32107675075531,4.441237926483154,0.8798508048057556
1730866808.1008167,-1.6301547288894653,0.9216465950012207,-9.88998031616211,-0.029360227726482512,-0.005797441306413904,0.00928525656542616,1.3202776908874512,4.436256408691406,0.8794285655021667
1730866808.1509025,-1.6127660274505615,0.9463446140289307,-9.896759986877441,-0.025459639721297535,0.0022273306795829962,0.002567428710239527,1.3244562149047852,4.43760871887207,0.8794668316841125
1730866808.2008402,-1.6139346361160278,0.9660769104957581,-9.902690887451172,-0.014253422137445397,0.010869433371419854,-0.00907871061177098,1.3245676755905151,4.433169364929199,0.8790337443351746
1730866808.2508967,-1.6142551898956299,0.9920147061347961,-9.88084888458252,0.001031817150068471,0.01684598464431633,-0.022594688500181783,1.3277450799942017,4.422049522399902,0.8777573108673096
1730866808.300742,-1.643462061882019,0.9754555225372314,-9.860489845275879,0.014957474375242783,0.017049883161567164,-0.03271788219238033,1.3286293745040894,4.415990829467773,0.8770168423652649
1730866808.3508563,-1.6610522270202637,0.9660632610321045,-9.826951026916504,0.022170816885375373,0.011227339046490821,-0.03458301670665017,1.3298650979995728,4.40329647064209,0.8756871819496155
1730866808.4008164,-1.698811411857605,0.9293820261955261,-9.814014434814453,0.01971661569463444,0.0030608346564089837,-0.026394538301694078,1.3323179483413696,4.392178535461426,0.8740463256835938
1730866808.4508507,-1.6963813304901123,0.8906240463256836,-9.776195526123047,0.008355233803193654,-0.002156669129210623,-0.010328278185942997,1.3337661027908325,4.383820056915283,0.8728638887405396
1730866808.5007358,-1.7245973348617554,0.8560696840286255,-9.776714324951172,-0.007460564954477213,-0.0008026335801921125,0.008683338732389799,1.3352038860321045,4.37552547454834,0.8716888427734375
1730866808.550779,-1.741698980331421,0.8665880560874939,-9.77662467956543,-0.021960325565728814,0.007885656305801082,0.025622089391837844,1.3366180658340454,4.367162227630615,0.8705458641052246
1730866808.6006858,-1.7786059379577637,0.8944564461708069,-9.793980598449707,-0.03174837316962016,0.022121593254530766,0.03736172790763752,1.3347278833389282,4.374981880187988,0.8724901676177979
1730866808.6507075,-1.7887704372406006,0.93133944272995,-9.822565078735352,-0.0371624084584754,0.03764308252328967,0.0425664374624614,1.3353643417358398,4.369779586791992,0.8720811009407043
1730866808.700676,-1.7997881174087524,0.9678439497947693,-9.840277671813965,-0.039914374299295424,0.04798439821904158,0.04050918829043403,1.3359016180038452,4.364705562591553,0.8717779517173767
1730866808.7506933,-1.7931711673736572,0.9977505207061768,-9.873114585876465,-0.04047322209550391,0.04644204978380626,0.030556265171142828,1.3363382816314697,4.359747886657715,0.8715637922286987
1730866808.8007739,-1.763936161994934,1.0108686685562134,-9.886380195617676,-0.038189882658588636,0.029342975561823824,0.012790284181787537,1.3372050523757935,4.3595194816589355,0.8712421655654907
1730866808.8507261,-1.7239190340042114,1.0034931898117065,-9.886672019958496,-0.03237295217557518,-0.0011788068308577117,-0.010758944606009284,1.3377541303634644,4.354990005493164,0.8708767890930176
1730866808.9016345,-1.6781185865402222,0.9831058979034424,-9.88830852508545,-0.02231614690314407,-0.036143734038356926,-0.034893953679157444,1.3402903079986572,4.339415550231934,0.869438648223877
1730866808.951763,-1.658297061920166,0.9251114726066589,-9.889106750488281,-0.007538622054340834,-0.06238632065009855,-0.052236099973875266,1.3415447473526,4.3222832679748535,0.8694966435432434
1730866809.0016797,-1.6178475618362427,0.9076458811759949,-9.869379997253418,0.010694534293744428,-0.069342797325464,-0.05720108881240659,1.3425296545028687,4.31212854385376,0.868958592414856
1730866809.0517714,-1.5754616260528564,0.9173162579536438,-9.85954761505127,0.02891814232601779,-0.05522141136917162,-0.048988881145921634,1.3431916236877441,4.301205635070801,0.8694800734519958
1730866809.1015508,-1.5481256246566772,0.9640222787857056,-9.865416526794434,0.043703505392362715,-0.027729783966338656,-0.03118192529409058,1.3441561460494995,4.291370868682861,0.869115948677063
1730866809.1516948,-1.5472297668457031,0.9921426773071289,-9.880261421203613,0.05326918437031381,0.00021226389752496914,-0.01004705079120213,1.3452448844909668,4.28147554397583,0.8686991930007935
1730866809.2015417,-1.5406501293182373,1.005997657775879,-9.87330150604248,0.05688530950627286,0.016433615836881035,0.007429053991716896,1.3464633226394653,4.27166748046875,0.8682818412780762
1730866809.25153,-1.5725760459899902,1.0115010738372803,-9.8765869140625,0.054630145925767676,0.014354881701059034,0.016227161337591875,1.344664216041565,4.284766674041748,0.8695673942565918
1730866809.3014598,-1.5992531776428223,0.9749926328659058,-9.857892990112305,0.047418238644927155,-0.004470904193717177,0.015441516962306265,1.3454254865646362,4.279115200042725,0.8695334792137146
1730866809.3515146,-1.639161229133606,0.9480125904083252,-9.837403297424316,0.03601349226060982,-0.03030648188339003,0.008448403273558704,1.3459668159484863,4.269751071929932,0.86974036693573
1730866809.401465,-1.676146149635315,0.9452409744262695,-9.810586929321289,0.020554649868793545,-0.04935574933326005,0.0010407439157996245,1.3467159271240234,4.263271808624268,0.8697589635848999
1730866809.4515035,-1.7133910655975342,0.9384689331054688,-9.789962768554688,0.0016434349639920702,-0.052037955120608145,-0.0016793481532874886,1.3475043773651123,4.256566047668457,0.8697769641876221
1730866809.5014422,-1.7292745113372803,0.928425133228302,-9.795273780822754,-0.01892346699798878,-0.03846123991279149,0.002370588250834596,1.3459420204162598,4.251806735992432,0.8700252771377563
1730866809.5514703,-1.7072786092758179,0.9348706603050232,-9.80052661895752,-0.038528639203819964,-0.016111253728692737,0.011885095564748129,1.3460652828216553,4.245602130889893,0.870103120803833
1730866809.6013772,-1.6599669456481934,0.9629538655281067,-9.839341163635254,-0.053084140889396454,0.005662220743661769,0.02266058064171664,1.3476758003234863,4.232934474945068,0.8704306483268738
1730866809.6514196,-1.6293082237243652,1.0080029964447021,-9.86135482788086,-0.05686961257707175,0.019238876006964816,0.028940643192939486,1.3481500148773193,4.224599361419678,0.8706638813018799
1730866809.7014136,-1.6351770162582397,1.0239614248275757,-9.889650344848633,-0.04629901834772239,0.02050631219763936,0.02638829842505412,1.3485275506973267,4.214422225952148,0.8708184361457825
1730866809.7513115,-1.655250906944275,1.0354019403457642,-9.911762237548828,-0.02416447554712857,0.009828221419997497,0.014640965101769132,1.3488357067108154,4.205587863922119,0.8710890412330627
1730866809.801323,-1.7044956684112549,1.0202020406723022,-9.901130676269531,0.0007675960200403181,-0.007938149615107415,-0.002669433665068329,1.3491175174713135,4.196680068969727,0.8713767528533936
1730866809.8514102,-1.7327117919921875,1.0032047033309937,-9.89342975616455,0.01779839088390966,-0.02508270419738148,-0.019753201102170742,1.3498876094818115,4.1961283683776855,0.8709705471992493
1730866809.901261,-1.7461968660354614,0.9913021326065063,-9.87571907043457,0.01936585882810336,-0.03449028650655452,-0.031120945794068454,1.3505679368972778,4.180872917175293,0.8710492253303528
1730866809.951381,-1.7271615266799927,0.9794332981109619,-9.844263076782227,0.0056137159783801825,-0.032992668251392555,-0.03353567374738413,1.3510661125183105,4.172104358673096,0.8710231781005859
1730866810.0013185,-1.7020496129989624,0.968098521232605,-9.83957576751709,-0.014909692715436206,-0.022228648321065327,-0.026616805306922352,1.3515639305114746,4.1630682945251465,0.8709226846694946
1730866810.0513902,-1.6754310131072998,0.94977867603302,-9.832839965820312,-0.030215781524581712,-0.006680672805778433,-0.012450148035814937,1.3520060777664185,4.153985977172852,0.8707734942436218
1730866810.1013103,-1.6653850078582764,0.9477525353431702,-9.820792198181152,-0.031468380186750196,0.009242944505742243,0.005383810348274105,1.3523738384246826,4.144843101501465,0.8706144094467163
1730866810.1513557,-1.673950433731079,0.92807537317276,-9.822208404541016,-0.016522250279999113,0.022951028725248124,0.02318708537134735,1.3514411449432373,4.163679122924805,0.8712133765220642
