Timestamp,IMU_Linear_Acc_X,IMU_Linear_Acc_Y,IMU_Linear_Acc_Z,Filtered_X,Filtered_Y,Filtered_Z,Pose_X,Pose_Y,Pose_Z
1731474136.1591787,-0.33983662724494934,0.4336758553981781,-9.985615730285645,-4.9448610556766605e-06,-1.1650351852943837e-05,-1.113321867472955e-05,2.445849494224433,8.100000536774889,0.8809999822120455
1731474136.2091148,-0.3425276577472687,0.41691985726356506,-9.980188369750977,-7.611908772966432e-06,-1.8838414321073033e-05,-1.7961216257172688e-05,2.445924803172782,8.1000005432289,0.8809999820521853
1731474136.25901,-0.34130141139030457,0.4240894317626953,-9.983531951904297,-1.116147678814908e-05,-2.8591040188676735e-05,-2.736968120082383e-05,2.4459538670742447,8.100000545682606,0.8809999819550816
1731474136.3090398,-0.3349152207374573,0.42120271921157837,-9.987563133239746,-1.5773521924990185e-05,-4.1103477379461315e-05,-3.980397350358697e-05,2.445110229872071,8.10000073725613,0.8809999817026327
1731474136.3588867,-0.27416113018989563,0.43637028336524963,-9.988398551940918,-2.1735231927937594e-05,-5.6420254417913886e-05,-5.570566357674735e-05,2.445086618696137,8.100000802707354,0.8809999814361986
1731474136.408835,-0.46316227316856384,0.3740302622318268,-9.99268913269043,-2.950537718439384e-05,-7.444925948229083e-05,-7.554122701140719e-05,2.4450475242916565,8.100000809500333,0.880999981159857
1731474136.4588637,-0.7430660724639893,0.23497319221496582,-10.004386901855469,-3.9102417145455594e-05,-9.471055682545618e-05,-9.983795946610154e-05,2.4447111797881513,8.100000864380663,0.8809999750392393
1731474136.5088224,-0.1835746020078659,0.5284029841423035,-9.957141876220703,-4.887168708857388e-05,-0.00011587907699851411,-0.00012919476347311119,2.4426858201466053,8.100001030395738,0.880999756036476
1731474136.5587819,-0.1835746020078659,0.5284029841423035,-9.957141876220703,-5.56357878122504e-05,-0.00013602235712352896,-0.00016417010048465567,2.440658323856432,8.100000881341318,0.8809991696877029
1731474136.5587819,-0.32869449257850647,0.37620213627815247,-10.047292709350586,-5.6675411154877555e-05,-0.00015360561179540363,-0.00020514976105959751,2.4406446698416566,8.100000879182014,0.8809991643433341
1731474136.6086814,-0.3212164640426636,0.5026140809059143,-9.98022747039795,-5.094073950115928e-05,-0.0001679475764557746,-0.0002524686968494824,2.4389245219119813,8.100000490019918,0.8809980677787623
1731474136.6586556,-0.3097893297672272,0.373074471950531,-9.942727088928223,-3.857289138593738e-05,-0.00017888226535853107,-0.0003065791022988459,2.4369889389590376,8.09999954142113,0.880996265821715
1731474136.7085814,-0.3097893297672272,0.373074471950531,-9.942727088928223,-2.0285725230876797e-05,-0.00018635369653448755,-0.00036785011285563724,2.4365774956199138,8.099998236814532,0.8809936280090892
1731474136.7085814,-0.36415764689445496,0.45885133743286133,-10.01577377319336,2.8166031440274284e-06,-0.00019009812355397983,-0.0004362742880043932,2.4365641332260517,8.099998223768926,0.880993603261239
1731474136.7586725,-0.3174515664577484,0.43460458517074585,-9.97563648223877,2.9414648938320262e-05,-0.00018961533346922692,-0.0005115510070414291,2.4348923779748732,8.099996354427871,0.8809898678937719
1731474136.808501,-0.37348827719688416,0.42250683903694153,-9.971975326538086,5.818518679156515e-05,-0.00018446101518448458,-0.0005933419918713926,2.433679963969177,8.099994126579158,0.8809847688203842
1731474136.858473,-0.3333224654197693,0.4560640752315521,-10.020543098449707,8.792506943251349e-05,-0.00017441072036261014,-0.0006813527670524805,2.432006833287429,8.09999133871799,0.8809780545677136
1731474136.9084017,-0.3716474175453186,0.4254069924354553,-9.993083000183105,0.00011761980723624275,-0.00015945005781781935,-0.0007753762263087896,2.432349683162337,8.099988821468903,0.8809692623963254
1731474136.9583972,-0.30855798721313477,0.4505065679550171,-9.975634574890137,0.00014645085547072403,-0.0001397741475710837,-0.0008753752916735881,2.4309538129834465,8.099985393395233,0.8809589441993945
1731474137.0092394,-0.33945232629776,0.44332513213157654,-10.006049156188965,0.00017368957952229128,-0.00011578477503644376,-0.000981440534100659,2.4299190472059187,8.099981795357166,0.8809458401766403
1731474137.0592687,-0.30693483352661133,0.45724576711654663,-9.974886894226074,0.00019853637162170167,-8.80990573372908e-05,-0.0010936968735724066,2.4284565530862543,8.099977692880236,0.8809302746763825
1731474137.1091747,-0.3404017686843872,0.42924872040748596,-9.97957992553711,0.00022002958564582085,-5.7560721391967685e-05,-0.001212260438921191,2.42914095318553,8.0999737527464,0.8809118975960067
1731474137.159192,-0.33027854561805725,0.4503231644630432,-9.993732452392578,0.00023707362266661784,-2.518775361174305e-05,-0.001337188327085264,2.4278839318134042,8.099969373410207,0.8808902639322497
1731474137.2090607,-0.3312438130378723,0.4298307001590729,-9.984983444213867,0.0002485306546733498,7.91483011450838e-06,-0.0014684649760303087,2.426630161757431,8.099964981668187,0.8808651713037583
1731474137.2591295,-0.32849225401878357,0.44427555799484253,-9.991825103759766,0.0002532814043697745,4.061584199880643e-05,-0.0016060476332763313,2.427881285193912,8.099961073795104,0.8808362341378358
1731474137.308942,-0.32849225401878357,0.44427555799484253,-9.991825103759766,0.0002502287612326771,7.178334824561492e-05,-0.0017498978396433711,2.4268209835098022,8.099956906975562,0.8808032242235412
1731474137.308942,-0.3466336131095886,0.43178790807724,-9.988767623901367,0.00023830817099997607,0.0001002870246132708,-0.0018999909299387283,2.4268143048906294,8.09995688128773,0.8808030024731734
1731474137.3589773,-0.3226473927497864,0.4400995373725891,-9.986501693725586,0.00021653559138377267,0.00012501668090631894,-0.0020563121473529326,2.4274016564395926,8.099953394144725,0.8807652941108147
1731474137.4088914,-0.3401765823364258,0.42628738284111023,-10.006254196166992,0.0001840381687978597,0.00014493140725386306,-0.0022188487100407335,2.426421254582694,8.099949795802528,0.8807219389051079
1731474137.4588525,-0.3401765823364258,0.42628738284111023,-10.006254196166992,0.00014005360291503724,0.00015911394616655448,-0.002387631490620205,2.427559830777302,8.099947079816058,0.8806732354059339
1731474137.4588525,-0.32638588547706604,0.4399968981742859,-9.992179870605469,8.394218794192586e-05,0.0001668097255454793,-0.0025628049083461523,2.427554787579421,8.099947061558078,0.8806729189402592
1731474137.50879,-0.32638588547706604,0.4399968981742859,-9.992179870605469,1.5175772760848542e-05,0.0001674079501308367,-0.00274462010615089,2.426735304625094,8.099944300748364,0.8806181175335458
1731474137.50879,-0.3352645933628082,0.4304140508174896,-9.980989456176758,-6.671497249718258e-05,0.00016037848266893122,-0.00293334107240504,2.4267288454685403,8.099944280613613,0.8806176588923383
1731474137.5588923,-0.33292460441589355,0.43939563632011414,-9.997173309326172,-0.00016215469344220366,0.00014524771025384235,-0.0031291564923563173,2.4258997783025515,8.099941880192988,0.8805548594375734
1731474137.6086698,-0.3363683819770813,0.4308415949344635,-9.980420112609863,-0.0002714855332364191,0.00012161542222981582,-0.003332152049009255,2.4301337428118717,8.099939801351837,0.8804836740744599
1731474137.6586838,-0.3302421271800995,0.4421899914741516,-9.979595184326172,-0.00039493963419083176,8.916041584803258e-05,-0.0035423039530293795,2.4297239831974906,8.099938023575728,0.8804053132923126
1731474137.7086177,-0.3302421271800995,0.4421899914741516,-9.979595184326172,-0.0005326468519886389,4.761970032497351e-05,-0.0037594434444776564,2.430845661773984,8.099936402481708,0.8803172427600882
1731474137.7086177,-0.3371421694755554,0.43059173226356506,-9.996553421020508,-0.0006846549295553598,-3.239315753078493e-06,-0.003983238718353498,2.4308282874302427,8.099936335565157,0.8803132714067333
1731474137.758543,-0.3371421694755554,0.43059173226356506,-9.996553421020508,-0.0008509249511628678,-6.360585602725289e-05,-0.004213259472629836,2.4304358213584365,8.09993475470162,0.880218754030712
1731474137.758543,-0.3301190137863159,0.4375700056552887,-9.977168083190918,-0.001031308846210007,-0.00013357757575659476,-0.004449063369518154,2.430432547694497,8.099934740930044,0.8802179270105586
1731474137.8085432,-0.3301190137863159,0.4375700056552887,-9.977168083190918,-0.0012255573331989163,-0.00021315003185518315,-0.004690187738934019,2.4300242631021662,8.09993276684216,0.8801093655903874
1731474137.8085432,-0.34019094705581665,0.43010377883911133,-9.982741355895996,-0.0014333500044068034,-0.0003022459450274035,-0.00493606744087297,2.4300216159821515,8.099932752385318,0.8801086269009849
1731474137.8584952,-0.33192288875579834,0.43809831142425537,-9.991263389587402,-0.0016542955689949966,-0.00040072576138820487,-0.005186008949197133,2.4296072420416666,8.099930000416443,0.8799870891420556
1731474137.9083514,-0.34595686197280884,0.4304082989692688,-9.981121063232422,-0.0018879056057360725,-0.0005083797299666618,-0.005439246389539654,2.4309080041953717,8.099926042374173,0.87984996617038
1731474137.9583144,-0.34595686197280884,0.4304082989692688,-9.981121063232422,-0.00213356239028819,-0.0006249228067382135,-0.005694985745826204,2.4305220422288065,8.099920851789685,0.8797042780410228
1731474137.9583144,-0.3420066237449646,0.443705290555954,-9.989968299865723,-0.002390483972360903,-0.0007499951697781424,-0.0059524025278640084,2.4305193589330925,8.099920810750353,0.8797032246106544
1731474138.0092392,-0.3420066237449646,0.443705290555954,-9.989968299865723,-0.0026577194580756063,-0.0008831984705309919,-0.0062106547132529345,2.430767090171387,8.099913545249299,0.8795375519556758
1731474138.0092392,-0.34163692593574524,0.42966023087501526,-9.989768028259277,-0.0029341852928222983,-0.0010241519981138373,-0.006468929820769842,2.4307647689324257,8.099913503591889,0.8795366917336487
1731474138.0592258,-0.33824580907821655,0.44014066457748413,-9.97556209564209,-0.003218707712425905,-0.0011724948082276704,-0.006726464880792351,2.430296981405914,8.099903709912654,0.8793563888846917
1731474138.1091983,-0.341629296541214,0.4363786280155182,-9.98953914642334,-0.003510056545904736,-0.0013278511835125451,-0.006982513295735191,2.4298198904229538,8.099890765408015,0.8791585748649816
1731474138.1591976,-0.3402191698551178,0.43175989389419556,-9.978646278381348,-0.003806969229905961,-0.001489819456482693,-0.007236311748065889,2.429334414760961,8.099874317247142,0.8789432930322404
1731474138.209059,-0.3402191698551178,0.43175989389419556,-9.978646278381348,-0.004108162866439107,-0.0016579627941957996,-0.007487074622944899,2.4288428446091768,8.099854104980745,0.8787114526056972
1731474138.209059,-0.3476492762565613,0.432100772857666,-9.985774040222168,-0.004412337853393185,-0.0018317851077501088,-0.007733990233025593,2.4288397465734417,8.09985396608354,0.8787099485878994
1731474138.2590916,-0.33999305963516235,0.4344528317451477,-9.983550071716309,-0.004718172273786995,-0.0020107235925576413,-0.007976230337923069,2.430080376171014,8.099829142249522,0.8784586253482956
1731474138.3088815,-0.34422069787979126,0.4327370822429657,-9.9750337600708,-0.005024320878622396,-0.0021941647031258884,-0.008212974938255646,2.429631632663082,8.099799149646975,0.8781872638842799
1731474138.3589008,-0.3437175154685974,0.44072937965393066,-9.988846778869629,-0.005329430186438085,-0.002381468937478152,-0.008443416209835394,2.429167131276509,8.099763263141101,0.8778934178478555
1731474138.4087975,-0.34332624077796936,0.4315757751464844,-9.98684024810791,-0.005632152580889003,-0.0025719975904899698,-0.00866676716597884,2.4297035721988776,8.099721014830155,0.8775774267691984
1731474138.458818,-0.33988749980926514,0.436118483543396,-9.992659568786621,-0.005931157706869544,-0.0027651259794706194,-0.008882308851793816,2.429235975825537,8.099672436225188,0.8772415058509364
1731474138.5087607,-0.3460216820240021,0.428290456533432,-9.99396800994873,-0.006225150833605421,-0.002960231735721889,-0.009089443485024041,2.4287502623565045,8.099616386707245,0.8768810005098173
1731474138.5588555,-0.32766076922416687,0.4385663866996765,-9.993430137634277,-0.0065128967127891495,-0.0031566779190250367,-0.00928772607420399,2.4290790565893485,8.099552874034925,0.876499393564288
1731474138.6086557,-0.3306537866592407,0.4353063106536865,-9.987985610961914,-0.006793268005039243,-0.0033538192499236123,-0.009476868331622106,2.428576424650886,8.099480271768735,0.8760883880997042
1731474138.6586676,-0.3333236277103424,0.4373985528945923,-9.995209693908691,-0.007065309756924673,-0.0035510294702094515,-0.009656715006568185,2.4283810580478877,8.099401111544088,0.8756655411534626
1731474138.7086084,-0.3319365978240967,0.4339129328727722,-9.97912311553955,-0.007328261820715192,-0.003747719895859008,-0.00982720985894751,2.4279599508405623,8.099311767058524,0.8752123965316625
1731474138.758562,-0.333381712436676,0.4398839473724365,-9.9823637008667,-0.00758153513073487,-0.003943339977742722,-0.009988348342212256,2.427373047537239,8.099213145646942,0.874735379895834
1731474138.8085184,-0.3302189111709595,0.438150554895401,-9.991358757019043,-0.007824687786662928,-0.0041373817198078755,-0.01014012704909991,2.4267646911632186,8.09910406915876,0.8742314393956405
1731474138.8586066,-0.3308621346950531,0.44120118021965027,-9.983616828918457,-0.00805741612022231,-0.004329395582421935,-0.010282538376009138,2.4261344920464087,8.098984021208754,0.8737002821989991
1731474138.8586066,-0.3308621346950531,0.44120118021965027,-9.983616828918457,-0.008279550971263434,-0.004519005453103159,-0.01041559252797995,2.4268342282695308,8.0989443029714,0.8735310716865167
1731474139.2399957,-0.3376094102859497,0.43933042883872986,-9.987139701843262,-0.008491042894181337,-0.004705914666158985,-0.010539314911707632,2.4231820302006417,8.097689023906936,0.8688050824148033
1731474139.2900891,-0.3423849642276764,0.43753117322921753,-9.985186576843262,-0.008691919785405365,-0.004889897525032072,-0.010653738353773423,2.4225049320460603,8.097467323506477,0.8680455580252437
1731474139.3398674,-0.34360605478286743,0.4366273581981659,-9.992426872253418,-0.008882222923846536,-0.005070775732224762,-0.010758916879240245,2.422646478765373,8.097235972355277,0.867273282959389
1731474139.389985,-0.3389294445514679,0.4368346929550171,-9.979833602905273,-0.009061957694723781,-0.005248393099944208,-0.010854942564592029,2.4219538960552116,8.096988659176784,0.8664592713689022
1731474139.4397805,-0.3331068754196167,0.42958614230155945,-9.990646362304688,-0.009231094771627944,-0.005422594658152958,-0.010941942249642185,2.4212216666887727,8.096721783820115,0.8655982764571923
1731474139.4898527,-0.335146963596344,0.4248596131801605,-9.98840618133545,-0.00938961510432197,-0.005593193793785157,-0.011020067972917987,2.4205071978598327,8.096456255244947,0.8647580806255977
1731474139.539713,-0.3328384459018707,0.4296468496322632,-9.984148025512695,-0.009537554349088727,-0.005759927126974456,-0.011089503023420379,2.421258090444409,8.096170779294887,0.8638789056985581
1731474139.5897124,-0.3308675289154053,0.4361976087093353,-9.986226081848145,-0.009675022393842252,-0.005922440936374691,-0.0111504610877275,2.420550820250664,8.095868482929433,0.862957883041519
1731474139.639718,-0.3300713300704956,0.44613346457481384,-9.986385345458984,-0.00980221305793575,-0.006080344035744108,-0.011203169442376327,2.4205143933142192,8.095550918184777,0.8620161884849926
1731474139.6895943,-0.3355879783630371,0.4400116503238678,-9.9830961227417,-0.009919408189664861,-0.006233297094912328,-0.011247859695963166,2.419775252527028,8.095218924639703,0.8610414335889598
1731474139.7396622,-0.3371192514896393,0.4425605237483978,-9.980547904968262,-0.010026957308300792,-0.006381071288438763,-0.01128475874784043,2.419007933902336,8.094869686647764,0.8600342533010847
1731474139.789675,-0.33719924092292786,0.4419511556625366,-9.980554580688477,-0.010125236512911385,-0.006523552438600147,-0.011314066317982017,2.4182203132481495,8.094506558029666,0.8590052249182799
1731474139.8395355,-0.3354564905166626,0.445912629365921,-9.973817825317383,-0.01021461780046503,-0.006660728112979707,-0.011335929202497878,2.4174047439086896,8.094125792307022,0.8579445795194354
1731474139.8896139,-0.3405797779560089,0.44538143277168274,-9.989174842834473,-0.010295459847968164,-0.00679268762442751,-0.01135042904486946,2.418516376091953,8.093728864835377,0.8568707059042449
1731474139.9394777,-0.3405797779560089,0.44538143277168274,-9.989174842834473,-0.010368098815660962,-0.006919626231304491,-0.01135761190824681,2.4177545578765276,8.093314147018692,0.8557535506068328
1731474139.9394777,-0.33414551615715027,0.4462050497531891,-9.99086856842041,-0.010432835772497867,-0.007041839393698937,-0.011357557374436342,2.4177488228807347,8.093311013111954,0.8557451764837063
1731474139.9894018,-0.3440423011779785,0.44702938199043274,-9.984944343566895,-0.01048993942162587,-0.00715971036411098,-0.011350426628253873,2.418243925028615,8.092884044843053,0.8546289404903565
1731474140.0392613,-0.32870543003082275,0.43953606486320496,-9.982325553894043,-0.010539659668346557,-0.007273693272974742,-0.011336451658234586,2.4174987557817675,8.092435016915163,0.8534586601293392
1731474140.089296,-0.34796392917633057,0.4402678906917572,-9.993621826171875,-0.010582238614901329,-0.007384278644996545,-0.011315900800248035,2.4167238933711803,8.091965680129409,0.8522549137418773
1731474140.1402464,-0.34796392917633057,0.4402678906917572,-9.993621826171875,-0.010617896036689221,-0.007491948264985472,-0.01128908081938471,2.415908970044429,8.09146946082606,0.8510022135543307
1731474140.1402464,-0.33399584889411926,0.432169646024704,-9.98773193359375,-0.010646788578699726,-0.0075971412881429235,-0.011256372281193028,2.4159039657503585,8.091466405547665,0.850994560583983
1731474140.1902158,-0.339699923992157,0.42898687720298767,-9.98838996887207,-0.010669010587789286,-0.007700219233450326,-0.011218235331276371,2.416952919210635,8.090963582355789,0.8497658780131477
1731474140.2401154,-0.34191736578941345,0.42445263266563416,-9.988052368164062,-0.010684641478958052,-0.007801414594808792,-0.011175176234427537,2.416208920907758,8.090437331119956,0.8484786321430794
1731474140.2900033,-0.32970547676086426,0.4250764548778534,-9.985917091369629,-0.010693773106249832,-0.007900785205661395,-0.01112771698550527,2.4165466851639277,8.089894491722365,0.8471955390487177
1731474140.3400288,-0.32910072803497314,0.4251329004764557,-9.99003791809082,-0.010696534952427674,-0.007998198758553912,-0.011076381124271732,2.4163619619967127,8.089327580978502,0.8458768364934668
1731474140.3900661,-0.3384392559528351,0.42610400915145874,-9.983735084533691,-0.010693137056941452,-0.008093348230121537,-0.011021687162504522,2.4156035862643326,8.088742637084334,0.8445093454641878
1731474140.439955,-0.3384392559528351,0.42610400915145874,-9.983735084533691,-0.010683870504101294,-0.008185783981043778,-0.010964137385133521,2.4148170524633934,8.088136236243075,0.8431118059780817
1731474140.439955,-0.3377346694469452,0.435489296913147,-9.978569030761719,-0.010669058609566427,-0.00827495549491433,-0.01090419097854756,2.414812112792926,8.08813242825621,0.8431030914174333
1731474140.4899478,-0.33423569798469543,0.4322376847267151,-9.991771697998047,-0.010649024221167556,-0.008360268306400295,-0.010842241592517912,2.4154006984624865,8.087506169222541,0.841713221773088
1731474140.5398195,-0.3368098735809326,0.4413033127784729,-9.979137420654297,-0.010624094877107387,-0.008441146820981075,-0.010778627133334173,2.414672280464167,8.086866280888351,0.8402803108855516
1731474140.5896668,-0.32903242111206055,0.43979355692863464,-9.979314804077148,-0.010594620466709951,-0.008517087290394812,-0.010713643352284618,2.413914602270172,8.086202754965088,0.8388147253884423
1731474140.6397073,-0.33598414063453674,0.4474576413631439,-9.982017517089844,-0.010560989711936614,-0.008587701911079281,-0.01064752613796157,2.413122844822125,8.085511161872486,0.8373076767998161
1731474140.6897366,-0.341476172208786,0.44930747151374817,-9.990230560302734,-0.010523628379345092,-0.008652758788838364,-0.010580443836233312,2.4140512452172422,8.084799259982617,0.8358196438574228
1731474140.7397206,-0.3397352695465088,0.44789478182792664,-9.97748851776123,-0.010482961206187158,-0.008712212862147434,-0.010512528888539166,2.4133161605476285,8.084064420795347,0.8342605249865601
1731474140.7895658,-0.3397352695465088,0.44789478182792664,-9.97748851776123,-0.010439368069442415,-0.008766211650582268,-0.010443891478949446,2.412559720540382,8.083312509201397,0.8326852450754583
1731474140.7895658,-0.3330007493495941,0.44037196040153503,-9.997563362121582,-0.010393177955941036,-0.0088150658649793,-0.01037460426745275,2.4125536326187804,8.083306473644035,0.8326726787241353
1731474140.8395772,-0.03880907967686653,0.5903394818305969,-9.978856086730957,-0.01034496470951978,-0.008859327513903758,-0.010304725491036629,2.411771579255636,8.082532891855724,0.8310722040204674
1731474140.8895676,-0.0758434385061264,0.5316457748413086,-10.008713722229004,-0.010296566762898236,-0.008900193121019086,-0.010234358158041738,2.4127242919452163,8.08173793589397,0.8295024302840999
1731474140.9393978,0.48951706290245056,0.8079436421394348,-9.981762886047363,-0.010252859156951826,-0.008940211727151887,-0.010163697704840116,2.4119850570543493,8.080919628756035,0.8278507617412764
1731474140.9892786,0.7771492004394531,0.6103816628456116,-10.015816688537598,-0.01022438642735284,-0.008984080346933121,-0.010093062314903098,2.41237220986357,8.080080024269861,0.8262373390123807
1731474141.0394018,0.7771492004394531,0.6103816628456116,-10.015816688537598,-0.010230580354966894,-0.00903896208067893,-0.010022939066080266,2.411632059055346,8.079206310111603,0.8245152413192246
1731474141.0394018,0.1431780755519867,0.499295175075531,-10.044015884399414,-0.010301137560262267,-0.00911379393309593,-0.009954092036959118,2.411626610718689,8.079199906744384,0.8245026924447721
1731474141.0892773,0.413790225982666,0.48516714572906494,-9.909783363342285,-0.010473572481433659,-0.00921802331312644,-0.009887590244486755,2.410877583399788,8.078323365971109,0.8227949135008819
1731474141.1401522,0.038903508335351944,0.3011943995952606,-9.996171951293945,-0.01078899283623272,-0.009360405029840124,-0.009824525891864925,2.411207571149296,8.07739528819163,0.8210807174224867
1731474141.1902132,0.038903508335351944,0.3011943995952606,-9.996171951293945,-0.01128880182047665,-0.009547839071525977,-0.009765684692978319,2.410452402980293,8.07645776943741,0.8192975884758149
1731474141.1902132,0.22217567265033722,0.33590275049209595,-10.001534461975098,-0.012012582919176177,-0.009784427635574494,-0.00971159458215698,2.410447719602098,8.07645198947963,0.8192866596437236
1731474141.2402446,0.017560504376888275,0.20069876313209534,-9.97430419921875,-0.012997124829598715,-0.010071146372160564,-0.009662741030579272,2.410296663422568,8.075493289327357,0.8175675254839356
1731474141.2901216,-0.7728275656700134,-0.02461777999997139,-9.977519989013672,-0.01427543775565815,-0.01040560613419459,-0.0096195767878325,2.4094970628060395,8.074510767334871,0.8157466912510796
1731474141.3400016,-1.2074174880981445,-0.021463442593812943,-10.009428024291992,-0.015873059920567076,-0.010781147812389874,-0.009582431348992412,2.4094051071562146,8.073497516466155,0.81398498734837
1731474141.3900766,-0.23980385065078735,0.27316224575042725,-9.937684059143066,-0.01780314595319369,-0.011186147087138918,-0.00955149715118148,2.408563727971347,8.07245795931173,0.812111612740027
1731474141.4400213,-0.7082184553146362,0.12128511071205139,-10.163931846618652,-0.020065650425569345,-0.011604892569779993,-0.009526949358625043,2.4076733008281628,8.071387843995867,0.810210701199918
1731474141.4898539,-0.29287877678871155,0.4290388226509094,-9.929959297180176,-0.02265073504771223,-0.01201950921922168,-0.009509276681190958,2.408057970058293,8.0702960503157,0.8084059650321855
1731474141.5398967,-0.5628702044487,0.09986446797847748,-10.001678466796875,-0.025541957795364573,-0.012411552572668717,-0.009499438266559334,2.407152145796086,8.06916401696415,0.8064556356487877
1731474141.5897396,-0.3513105511665344,0.46714502573013306,-10.08678913116455,-0.028717897100229255,-0.012762851210754027,-0.009498597949746375,2.406186359257812,8.068009974975476,0.8044976536745435
1731474141.6397777,-0.5107159614562988,0.16161222755908966,-9.946783065795898,-0.032153187594659995,-0.013055945100623348,-0.009508003015040954,2.4051365276272874,8.06681430875649,0.8026236048666066
1731474141.6896517,-0.4068586826324463,0.43703973293304443,-9.962201118469238,-0.03581928822644241,-0.013274442293930135,-0.00952896735071667,2.4040102982314764,8.06559503418939,0.8006191378743301
1731474141.7396317,-0.49801453948020935,0.2526971399784088,-10.004266738891602,-0.039685071907613875,-0.013403297790623925,-0.009562547144824591,2.402779984732839,8.06433210919253,0.798573950393686
1731474141.789641,-0.37864023447036743,0.4197238087654114,-9.953781127929688,-0.04371737948467509,-0.013429046814788535,-0.009609321491500396,2.4014543667962087,8.063044542800942,0.7965190981604308
1731474141.8394883,-0.42949461936950684,0.29616859555244446,-9.941106796264648,-0.047881696646467235,-0.013339999487180265,-0.009669412809275621,2.400015005528887,8.061723543317317,0.7945897167489073
1731474141.8893626,-0.41107162833213806,0.3372349739074707,-10.000696182250977,-0.052142884069215065,-0.013126260324446755,-0.009742446744947921,2.3984547770717093,8.06037266568946,0.7926497076416674
1731474141.9393225,-0.41107162833213806,0.3372349739074707,-10.000696182250977,-0.05646571982762855,-0.012779568524046051,-0.009827625536789016,2.396750977884315,8.058982335564599,0.7905192483458358
1731474141.9393225,-0.3805420398712158,0.7001015543937683,-9.957939147949219,-0.060815292375881916,-0.01229348660055397,-0.009923985420987247,2.3967380609804634,8.058972100335314,0.7905036537653943
1731474141.9893405,-0.4000968039035797,0.667378306388855,-9.877378463745117,-0.06515741166358516,-0.011664601953139517,-0.010030402281739147,2.3948910208497556,8.057575844491515,0.7885308822683161
1731474142.0393183,-0.4000968039035797,0.667378306388855,-9.877378463745117,-0.069458967472645,-0.010894077983053545,-0.010145155688124612,2.392860111666774,8.05612222584312,0.7863454135242777
1731474142.0393183,-0.4872780740261078,1.1421082019805908,-9.997286796569824,-0.07368805539710382,-0.009988594918320055,-0.010265553337258473,2.392845946846755,8.056112416078387,0.7863307175178739
1731474142.0892508,-0.4872780740261078,1.1421082019805908,-9.997286796569824,-0.07781380662064427,-0.008961439590957552,-0.010388208877126787,2.3906630226694516,8.054655801593423,0.784152307962663
1731474142.0892508,-0.4453103244304657,0.9864438772201538,-9.849359512329102,-0.08180615672391142,-0.007833819404169877,-0.0105096261442963,2.39064768607194,8.054645923245742,0.7841375594229043
1731474142.139246,-0.5104879140853882,0.7967690229415894,-10.028023719787598,-0.08563588799263999,-0.006634456600410375,-0.010626317017949914,2.3882480064445333,8.053178530548694,0.7821147696897314
1731474142.1901712,-0.3782177269458771,0.7711344957351685,-9.996058464050293,-0.08927492799400112,-0.0053970434446411674,-0.010734767263085981,2.3855632975120886,8.05164050435505,0.7798152356269832
1731474142.2401364,-0.3782177269458771,0.7711344957351685,-9.996058464050293,-0.09269685047876848,-0.004157446647776477,-0.010831803010599748,2.3827006382028753,8.050138195390288,0.7777464368345371
1731474142.2401364,-0.4499201774597168,0.7072227597236633,-10.010408401489258,-0.09587747625006006,-0.0029519448303619317,-0.01091493275175279,2.3826826318202596,8.050128974827581,0.7777325736592025
1731474142.2900872,-0.3696022629737854,0.713841438293457,-10.044113159179688,-0.09879515252752737,-0.0018162371253967013,-0.010982408646189157,2.3796085387412487,8.048615003434096,0.7754461356076713
1731474142.3400176,-0.42195576429367065,0.5679761171340942,-9.984193801879883,-0.10143071840108744,-0.0007845985781102379,-0.011033259200220167,2.3762458614277833,8.047078926699076,0.7731036929572375
1731474142.3899982,-0.30900314450263977,0.6061761379241943,-10.027217864990234,-0.10376757521850234,0.00011104983359938874,-0.011067249029418417,2.372649672417351,8.04555206470461,0.7707490649398447
1731474142.4399173,-0.36433690786361694,0.5541598200798035,-9.993165969848633,-0.10579193880870877,0.000841967859605822,-0.011084714618379251,2.368777323276338,8.044039150833058,0.768609807987261
1731474142.4898849,-0.36433690786361694,0.5541598200798035,-9.993165969848633,-0.10749302772338201,0.0013830478506772518,-0.011086407514609322,2.364663330149477,8.042519334573425,0.7662074745876495
1731474142.4898849,-0.3449501693248749,0.5600143671035767,-10.049895286560059,-0.10886298144016905,0.001712941127970254,-0.01107339971628058,2.364635794625556,8.042509493785369,0.7661918124162626
1731474142.5398262,-0.3449501693248749,0.5600143671035767,-10.049895286560059,-0.10989665912919916,0.0018139977526493247,-0.011047151055483002,2.3602582776350083,8.04101399103905,0.7640394794456294
1731474142.5398262,-0.3187732696533203,0.5636372566223145,-10.002037048339844,-0.11059154975118125,0.0016720644648291116,-0.011009673079995796,2.3602301796250824,8.0410045849577,0.7640243107310297
1731474142.5898345,-0.30297085642814636,0.5662887096405029,-10.012564659118652,-0.11094776983514935,0.0012762341847262582,-0.010963469523554707,2.355586955841406,8.039514736252773,0.7618625644833763
1731474142.6396751,-0.30297085642814636,0.5662887096405029,-10.012564659118652,-0.11096807189149545,0.00061860620086571,-0.010911267950248698,2.3506217603515167,8.037995669356905,0.7593683438150196
1731474142.6396751,-0.3056734502315521,0.5174658894538879,-10.006267547607422,-0.11065778430302887,-0.0003058945546880151,-0.010855836108684853,2.350585758408435,8.03798496222149,0.7593506573260164
1731474142.689624,-0.32618317008018494,0.5069574117660522,-9.982719421386719,-0.11002460604342681,-0.0014995427759704177,-0.010799895993460443,2.3454107932547044,8.036484296927737,0.7568615477578454
1731474142.7396877,-0.273434042930603,0.514680802822113,-9.964303016662598,-0.10907832501389547,-0.0029617434850359057,-0.01074597318379963,2.3398665715995386,8.034950622757997,0.7542999740615841
1731474142.7895157,-0.2996521592140198,0.5227103233337402,-9.985552787780762,-0.10783062491263282,-0.004689099032162277,-0.010696198873295416,2.3341396146977744,8.033448693395115,0.7520836637581657
1731474142.8395174,-0.2996521592140198,0.5227103233337402,-9.985552787780762,-0.10629496412845268,-0.006675684128813311,-0.010652228836318807,2.3280562612465894,8.031891838485803,0.749472807285334
1731474142.8395174,-0.3358599841594696,0.5379204750061035,-9.958097457885742,-0.10448633100979819,-0.008913396033420711,-0.010615295127022023,2.328017865296109,8.031882173313537,0.7494566031726474
1731474142.8894358,-0.336078017950058,0.4931144118309021,-9.98670482635498,-0.10242083838081234,-0.011392254173928322,-0.010586238581618258,2.322106839209878,8.030336868173421,0.7472402765671131
1731474142.939421,-0.33337661623954773,0.5128029584884644,-10.005820274353027,-0.10011532016687102,-0.014100575199276127,-0.01056554475872325,2.3155144537817507,8.028723910644977,0.744577553549326
1731474142.989331,-0.3498041331768036,0.4721747934818268,-9.94282341003418,-0.09758705474193913,-0.017025047199998828,-0.010553454917379367,2.3087629548497772,8.027093473560745,0.741923526496421
1731474143.0392566,-0.32534632086753845,0.5132566094398499,-9.986802101135254,-0.09485359844267319,-0.020150819401663876,-0.010549989544537534,2.3017339647068122,8.025407580113491,0.7392282872497928
1731474143.0892653,-0.3674081265926361,0.5218324065208435,-10.014200210571289,-0.09193266051130314,-0.023461719873033804,-0.010554914026354965,2.294754308594867,8.023670539140133,0.7369352590102979
1731474143.1392438,-0.40713658928871155,0.5078936219215393,-9.99518871307373,-0.08884190480067419,-0.026940607675172895,-0.010567884402478304,2.28724764403291,8.021860648493572,0.7341814411490519
1731474143.1901145,-0.3748840391635895,0.5032426118850708,-9.95654582977295,-0.0855986184090837,-0.030569682678824,-0.010588609329181422,2.279970401882929,8.019956082675106,0.731824216498351
1731474143.2401328,-0.41319382190704346,0.513997495174408,-10.000679969787598,-0.0822194327210002,-0.03433064712139587,-0.0106167770901617,2.27286054965916,8.017994429733536,0.7294972136388963
1731474143.2901106,-0.4174082279205322,0.5009680390357971,-9.988465309143066,-0.07872020060233607,-0.038204831457224385,-0.010651953328388695,2.2647916937234776,8.015945960105983,0.7266820663827357
1731474143.3401623,-0.4119400978088379,0.5024043917655945,-9.968817710876465,-0.0751159057511609,-0.04217333864206307,-0.010693620705125676,2.2564987821126143,8.013788706811532,0.7238293377672221
1731474143.3899338,-0.3861069083213806,0.4877097010612488,-9.973749160766602,-0.07142063707081862,-0.04621715198277285,-0.010741185224254133,2.2481110119488696,8.011544550756877,0.7209798689829667
1731474143.4400024,-0.3813762664794922,0.4656544327735901,-10.00214672088623,-0.06764773643603904,-0.050317179874338765,-0.010793923999493672,2.2401195067808377,8.0091478773194,0.7186095650800661
1731474143.489819,-0.3586125075817108,0.4547431170940399,-9.964475631713867,-0.06381004205811801,-0.054454232216195136,-0.010851022978594315,2.2314115626405324,8.00665346196094,0.7157110911597272
1731474143.5397732,-0.3363964855670929,0.4302753210067749,-9.970362663269043,-0.059920126993940726,-0.05860895547002727,-0.01091162032318059,2.222470971282386,8.003995414166427,0.7127594327033064
1731474143.5897393,-0.3230259418487549,0.4246014356613159,-10.018203735351562,-0.05599052792339234,-0.06276177786453074,-0.010974788741013292,2.2142958549611182,8.001199854922325,0.7104013368653395
1731474143.6397502,-0.3230259418487549,0.4246014356613159,-10.018203735351562,-0.05203393207240865,-0.06689290998767558,-0.011039648043069011,2.2050843962857085,7.998224071251861,0.7073969018167577
1731474143.6397502,-0.3195480704307556,0.4174511432647705,-9.99730110168457,-0.04806324860925156,-0.07098243635997914,-0.011105593207705312,2.2050069225986424,7.998198512301513,0.7073716954867972
1731474143.6896462,-0.29733991622924805,0.400546669960022,-9.969202995300293,-0.044091584174408546,-0.07501045837366563,-0.011172335326315421,2.1958266967212303,7.995095753864619,0.704388785978437
1731474143.7396011,-0.2849956750869751,0.3818894624710083,-10.001726150512695,-0.040132233290786974,-0.07895718997124042,-0.0112397143495797,2.1875861711790288,7.991750327488426,0.7020006319147353
1731474143.789569,-0.2620607912540436,0.3989132344722748,-10.011852264404297,-0.036198735539534496,-0.08280300275429057,-0.011307579561334918,2.17813171929307,7.988220279547522,0.6989348198072018
1731474143.8395295,-0.3114404082298279,0.37750130891799927,-9.98075008392334,-0.032304903187817695,-0.08652851802035763,-0.011375852748194536,2.1701547554301457,7.984471240940618,0.6965513417850908
1731474143.8895874,-0.29066282510757446,0.38888999819755554,-10.001361846923828,-0.028464674309902568,-0.09011476349002721,-0.011444569918496808,2.1605525733767967,7.980500383826645,0.6934277852101456
1731474143.939539,-0.29066282510757446,0.38888999819755554,-10.001361846923828,-0.024691850555892937,-0.09354334154434547,-0.011513834342949196,2.150878939577386,7.976297664274202,0.6902738941083287
1731474143.939539,-0.31284046173095703,0.36997202038764954,-10.00731372833252,-0.0209999005025482,-0.09679659083009373,-0.0115838175828836,2.1508176979733187,7.976270399294255,0.6902538999380989
1731474143.9893997,-0.27976566553115845,0.3753986358642578,-10.026233673095703,-0.01740183290327829,-0.09985770311768802,-0.011654830163879496,2.141189953137918,7.971870445290635,0.6871032691916457
1731474144.0392823,-0.2954639196395874,0.3394887149333954,-9.958551406860352,-0.013910109331169571,-0.10271076158547382,-0.011727352932779812,2.1330906299495775,7.967189029062195,0.6847175419098813
1731474144.089266,-0.5322554707527161,-0.19363191723823547,-10.011695861816406,-0.010536393443648654,-0.10534023248490673,-0.011801931395902354,2.123343476376141,7.962240729558797,0.6814889052856256
1731474144.139285,-0.4975226819515228,-0.47324222326278687,-10.109478950500488,-0.0072907044807487675,-0.10772882989892062,-0.011879144367445157,2.115841288119965,7.957005289577425,0.6790867741333588
1731474144.1902807,-0.6517626047134399,-0.1517183631658554,-10.05496883392334,-0.004180199741969251,-0.1098543827774279,-0.011959951956617036,2.105910239474978,7.951405822439629,0.6757402862892021
1731474144.2401178,-0.7958483099937439,-0.4603233337402344,-10.047149658203125,-0.0012081253668864995,-0.1116883892715814,-0.01204607731096623,2.0987933345237195,7.9456416607317495,0.6733548969537722
1731474144.2899477,-0.3774668574333191,0.1904527246952057,-9.920002937316895,0.0016267300959182441,-0.1131971900039952,-0.012139828788038603,2.0891748314464134,7.93963822377011,0.670046425416061
1731474144.3399312,-0.7103548049926758,-0.2533815801143646,-10.023809432983398,0.004329480534648575,-0.11434450625438863,-0.0122434636342567,2.0824380838033,7.933273228982267,0.6676439123096395
1731474144.389945,-0.5084047317504883,0.20593859255313873,-9.930323600769043,0.006907943321629606,-0.11509397679911124,-0.012358687647272382,2.0728196983031806,7.926648835422658,0.6642552582365078
1731474144.4399543,-0.6116470098495483,0.06604569405317307,-9.929553985595703,0.009371957825442078,-0.11541102684079158,-0.012486468531172303,2.06671105589847,7.919730076833774,0.6618697265344032
1731474144.489831,-0.5259138345718384,0.24936124682426453,-9.96333122253418,0.011733016940710092,-0.11526439232154043,-0.012626909217252336,2.0609242141974673,7.912523384041533,0.6594875123217228
1731474144.5398407,-0.5633005499839783,0.1612505167722702,-9.892698287963867,0.014003758682579494,-0.11462734792943448,-0.012779179244033254,2.051524233790983,7.905037829291348,0.6560239101904298
1731474144.5897121,-0.5227437615394592,0.1753193736076355,-9.91405963897705,0.016197484813031675,-0.11347823334123734,-0.012941517771316519,2.0422025996347366,7.8973017844713596,0.6525434557461989
1731474144.6397834,-0.530639111995697,0.1455938071012497,-9.948212623596191,0.018327759845273565,-0.11180034616358563,-0.013111235020844613,2.03286947144137,7.8892390335987495,0.6490100646403362
1731474144.6897333,-0.4877649247646332,0.19532594084739685,-9.93302059173584,0.020408041614385145,-0.1095815880240929,-0.013284879597919429,2.027737568071298,7.880910328865513,0.6466437608402659
1731474144.7396362,-0.4850020408630371,0.15887004137039185,-9.961091995239258,0.022451307233685505,-0.1068142186234829,-0.013458558968692426,2.018576580354518,7.872299121286113,0.643053642651876
1731474144.7895703,-0.4850020408630371,0.15887004137039185,-9.961091995239258,0.02446971154178175,-0.10349469232335738,-0.013628211903121131,2.0095379461938414,7.863487521654831,0.6394551030869633
1731474144.7895703,-0.042006008327007294,0.42955347895622253,-9.968608856201172,0.026473989730894744,-0.09962363440591457,-0.013789817377806275,2.00947288704367,7.8634229523895005,0.6394289910972317
1731474144.8395107,0.20982344448566437,0.5299987196922302,-9.996824264526367,0.028471654702867628,-0.09520655592006724,-0.013939579247611229,2.0045989542869393,7.854351289644536,0.6370932864874842
1731474144.8894217,-0.2961362600326538,0.27400559186935425,-10.028383255004883,0.03046452795235489,-0.09025498635739003,-0.014074138506939851,1.9957236558963487,7.8450210954535695,0.6334200493302722
1731474144.9395008,-0.07620701938867569,0.45252323150634766,-9.962984085083008,0.032448224635359596,-0.0847865599477671,-0.014190788558120533,1.9912797677426293,7.835426697765658,0.6310660838732939
1731474144.989377,-0.3626199960708618,0.24273060262203217,-10.05359172821045,0.03441401494228005,-0.07882393452801764,-0.014287542675299417,1.9826665599697393,7.825710729518886,0.627347323882083
1731474145.0394049,-0.3626199960708618,0.24273060262203217,-10.05359172821045,0.03635100607681027,-0.07239350844435748,-0.01436317115292479,1.9787704988131725,7.815733797505562,0.625010469946796
1731474145.0394049,-0.1496284306049347,0.48473837971687317,-10.041500091552734,0.03824760778297568,-0.06552439714425898,-0.014417383723198974,1.978699326264785,7.81564920666174,0.6249786399186374
1731474145.0892012,-0.3409866988658905,0.2217046469449997,-10.007319450378418,0.04009201308929246,-0.05824806291529899,-0.014450895229364186,1.9704139571804626,7.805671948804207,0.6212335548559464
1731474145.1393504,-0.3409866988658905,0.2217046469449997,-10.007319450378418,0.041872175161311025,-0.05059809070265973,-0.014465169709274523,1.9670714706822583,7.795351237261877,0.618895085624426
1731474145.1393504,-0.19522902369499207,0.4383619427680969,-10.02239990234375,0.04357613682653062,-0.042609433518826595,-0.014462086015266797,1.967018231108124,7.795284027366871,0.6188700705397002
1731474145.1891997,-0.3174585700035095,0.26658883690834045,-9.997493743896484,0.04519226435921166,-0.034317990011018706,-0.014443760479700385,1.9590017043740944,7.785051760909123,0.615059662151738
1731474145.2401588,-0.2567730247974396,0.41878947615623474,-9.975645065307617,0.046709138573010144,-0.025760772569182935,-0.014412435871661924,1.950837618059114,7.774404208377936,0.6110862391794611
1731474145.290124,-0.31867489218711853,0.322895348072052,-10.004502296447754,0.048115669567190794,-0.01697588111790791,-0.014370310406755474,1.9429843420622115,7.763952980987641,0.6071700145951003
1731474145.3400424,-0.2900391221046448,0.4151308536529541,-9.99188232421875,0.04940140347059658,-0.00800227130650642,-0.014319423356005412,1.9409014639351585,7.753415925994003,0.6048888526262577
1731474145.390102,-0.2900391221046448,0.4151308536529541,-9.99188232421875,0.050556727444866126,0.001120401445793682,-0.014261669527924733,1.9333424986542478,7.742879231697604,0.6008971667840428
1731474145.390102,-0.331870973110199,0.35072141885757446,-9.961592674255371,0.05157296956455896,0.010351919486667683,-0.014198791825384836,1.9332959506621725,7.742813804920772,0.6008722657089897
1731474145.4399805,-0.31109046936035156,0.4003080129623413,-9.982954025268555,0.052442512426847485,0.01965182143050152,-0.014132277903150412,1.931987793821058,7.73239923814571,0.5986549435682269
1731474145.4899025,-0.3297779858112335,0.40445318818092346,-9.977746963500977,0.053158940830320425,0.028979838815122783,-0.014063281316684623,1.9247782620757437,7.7219539587106745,0.594608234017519
1731474145.5398126,-0.3312694728374481,0.4171616733074188,-9.975252151489258,0.053717123373510006,0.038296142806459293,-0.013992645906178875,1.917722392676955,7.711622276511878,0.5905381648241091
1731474145.589731,-0.3365127444267273,0.42672958970069885,-9.98169231414795,0.05411323828599958,0.04756143680025665,-0.013920962740343679,1.9174164966004708,7.701404106437178,0.5883467970127422
1731474145.6397784,-0.6444383859634399,0.252627432346344,-9.986760139465332,0.054345062344006975,0.056737243235632985,-0.01384861759610995,1.9106770214615567,7.691243335236101,0.5841951322880308
1731474145.6896195,-0.5891392230987549,0.3251998722553253,-9.954066276550293,0.05441295565191033,0.06578662621508552,-0.013775828706637214,1.9041222832569653,7.681309416598152,0.5800394059985188
1731474145.739691,-0.7718563675880432,0.09749940782785416,-9.974160194396973,0.05432120630149784,0.07467518634501008,-0.013702619570707574,1.897653367056694,7.67147506362589,0.5758170419642032
1731474145.7895942,-0.46285444498062134,0.407083123922348,-9.982929229736328,0.05407867022147646,0.08337182605738794,-0.013628777301810252,1.8987910534991987,7.66192502944569,0.5737137337248865
1731474145.839546,0.17480438947677612,0.5993920564651489,-9.956948280334473,0.05369744287449642,0.09184845150278226,-0.013553895991014375,1.892700404555104,7.652520537078919,0.5694444073893455
1731474145.8895202,-0.4296962022781372,0.3416212499141693,-10.036373138427734,0.053189500888255685,0.100078489642142,-0.013477480649041761,1.8927778291578228,7.64342213708982,0.5673802369670871
1731474145.9394314,-0.10667605698108673,0.5735830664634705,-9.944799423217773,0.05256415433761901,0.10803577909330558,-0.013399081375103056,1.8870088655565143,7.634494123493035,0.5630477894531808
1731474145.9893925,-0.4261827766895294,0.25164923071861267,-9.998679161071777,0.05182823071726705,0.11569474581343626,-0.013318356248262655,1.8865600578432251,7.625955371679697,0.5610398486616246
1731474146.0393891,-0.4261827766895294,0.25164923071861267,-9.998679161071777,0.05098744968536159,0.12303134849615936,-0.013235023719676366,1.881118321548008,7.617625924844564,0.556667158828823
1731474146.0393891,-0.1757666915655136,0.5858380794525146,-10.030649185180664,0.05004747435176743,0.1300240539027646,-0.013148921041537883,1.8810832138010485,7.617572559380056,0.5566384998047069
1731474146.0892906,-0.36952340602874756,0.26452311873435974,-9.984543800354004,0.049014054672566226,0.136653854598389,-0.013060175940114275,1.8758485740616528,7.609691939321081,0.5523001736642201
1731474146.1392066,-0.2180897742509842,0.5275964140892029,-9.984308242797852,0.047892511287431425,0.14290363951181648,-0.012969218738730241,1.8706849312567826,7.602083669597632,0.5478890883838656
1731474146.1892066,-0.35027265548706055,0.3020928204059601,-9.998504638671875,0.046687522574110206,0.14875803443386057,-0.01287661216503206,1.8656293675109574,7.594824560212423,0.5434373634357383
1731474146.2392662,-0.24522694945335388,0.4789474606513977,-9.97572135925293,0.04540326681533417,0.15420355984700085,-0.012782919070229035,1.8672780026241802,7.58790891208175,0.541536892467146
1731474146.2900531,-0.32880857586860657,0.3587845265865326,-9.992473602294922,0.04404355193908701,0.15922869899773454,-0.012688664991889849,1.8624533181047165,7.581321123181869,0.5369684781835543
1731474146.3401139,-0.28920209407806396,0.4533703923225403,-9.996732711791992,0.04261192647458478,0.16382388089675165,-0.012594331130872086,1.862923971846493,7.5752129762648455,0.5351291100817297
1731474146.3900425,-0.32036682963371277,0.38436904549598694,-9.975886344909668,0.04111181578486913,0.16798142335886004,-0.012500374390410825,1.8584504944950575,7.569561829514336,0.5305979476164107
1731474146.4399643,-0.3222068250179291,0.4288286566734314,-9.992498397827148,0.03954666682132799,0.1716955067639432,-0.01240722934475683,1.8540451809675165,7.564295591839318,0.5260018860110008
1731474146.4898868,-0.3282969295978546,0.4256960153579712,-9.982223510742188,0.037920076315173204,0.174962150907793,-0.012315275662326174,1.849775915558987,7.559508040206113,0.5214164408405596
1731474146.5398424,-0.3282969295978546,0.4256960153579712,-9.982223510742188,0.036235891903693314,0.17777913334072287,-0.012224823974290137,1.851675590965503,7.5551324627021454,0.5197466001059794
1731474146.5398424,-0.3342430889606476,0.41899538040161133,-9.977553367614746,0.034498258043463355,0.1801458970436788,-0.012136104370730618,1.8516415444852006,7.555097893096199,0.5197079774912141
1731474146.5898244,-0.3272224962711334,0.4375999867916107,-9.990431785583496,0.03271161553518578,0.18206351223541675,-0.012049248856722773,1.8520092566597235,7.551219150839571,0.5181146522005674
1731474146.6398294,-0.3272224962711334,0.4375999867916107,-9.990431785583496,0.030880669331745866,0.1835346234487871,-0.011964316642539746,1.8480657143983485,7.54773686947638,0.5134336513229087
1731474146.6398294,-0.348007470369339,0.42216381430625916,-9.980985641479492,0.029010345811366557,0.18456335597920326,-0.011881348703716398,1.8480303872400212,7.547707477537879,0.5133911571458185
1731474146.6897447,-0.3311549723148346,0.43346843123435974,-9.981561660766602,0.027105788998966988,0.18515526930959772,-0.011800378749290501,1.8442452571232533,7.544756586047606,0.5087839271493483
1731474146.7396312,-0.3635404109954834,0.40990909934043884,-9.988479614257812,0.025172386814568237,0.18531736578745273,-0.011721402845427876,1.840460699272476,7.542214835056476,0.5040693929987278
1731474146.789546,-0.32311975955963135,0.4552238881587982,-9.978585243225098,0.023215777309906278,0.18505807402825517,-0.011644370265279112,1.8367643168846421,7.540149877218208,0.4993613149434995
1731474146.8395026,-0.3543110489845276,0.4205108880996704,-9.987153053283691,0.021241799497606573,0.18438714875614812,-0.011569194180113901,1.8386443726547936,7.5385212710547185,0.49794291827983117
1731474146.8894835,-0.33690303564071655,0.44204410910606384,-9.983466148376465,0.01925641038616749,0.1833155370085096,-0.011495757698177532,1.8350849655316337,7.5373606514795135,0.49316391474896565
1731474146.939377,-0.3456494212150574,0.4204249382019043,-9.974058151245117,0.017265627305911753,0.18185530135588096,-0.011423915017494532,1.8350939963712358,7.536650672903875,0.49183900593911684
1731474146.9893372,-0.32335811853408813,0.44455331563949585,-9.994388580322266,0.015275470874871551,0.18001957626393897,-0.01135348415752411,1.8316535923146253,7.536398169759292,0.4870322899500489
1731474147.0392928,-0.3419918715953827,0.4153200089931488,-9.980100631713867,0.01329186893958718,0.17782250171527528,-0.011284258793801254,1.8282500885669761,7.536591826630628,0.48219915665033913
1731474147.0892532,-0.33232659101486206,0.44813141226768494,-9.970808982849121,0.0113205773032613,0.17527914559305716,-0.011216027516650698,1.824869638879126,7.5372274913837085,0.4773269196384637
1731474147.1392598,-0.3414287269115448,0.42118310928344727,-9.989472389221191,0.009367158744478427,0.17240541548420318,-0.01114854853079883,1.8256929119674,7.537590746668589,0.476210038557465
1731474147.1892078,-0.32821929454803467,0.43675288558006287,-9.983247756958008,0.007436978093736535,0.1692179618906062,-0.011081536030495824,1.8224078973667435,7.539081221731453,0.47131924922254514
1731474147.239118,-0.3308393657207489,0.41653814911842346,-9.989508628845215,0.005535167268944673,0.16573410834588162,-0.011014708659510423,1.8191405396353695,7.540988036341531,0.4664031914189644
1731474147.2890556,-0.3233639597892761,0.44228991866111755,-9.99915599822998,0.003666564593319785,0.1619717952284712,-0.01094784944322827,1.8190396447669224,7.542584170624415,0.46546841473927003
1731474147.34003,-0.3317860960960388,0.42187803983688354,-9.981391906738281,0.001835663578132381,0.15794948821154756,-0.01088084651166537,1.815745961319769,7.545359609470758,0.460413267495143
1731474147.389953,-0.3199501931667328,0.43816444277763367,-9.984302520751953,4.6591835612783356e-05,0.15368606271158525,-0.010813687274978329,1.8125220777421724,7.548471417365612,0.4554342018831856
1731474147.4399762,-0.3348630368709564,0.410004585981369,-9.995926856994629,-0.0016968905147989872,0.14920071717929054,-0.01074641003503973,1.8092903813475913,7.5519679013789425,0.4504192757409319
1731474147.4898822,-0.31965500116348267,0.4335654675960541,-9.987404823303223,-0.0033913826636543212,0.14451292763349344,-0.010679091485516058,1.8085972202201395,7.555073801526097,0.4497495749034217
1731474147.5398347,-0.33629316091537476,0.42236918210983276,-9.98745346069336,-0.0050338284581694995,0.13964239180204235,-0.0106118675406152,1.8053803076151813,7.559275201986144,0.444726477494413
1731474147.5897639,-0.32917505502700806,0.4344494938850403,-9.999245643615723,-0.00662149365571469,0.13460892211355244,-0.010544932849391477,1.8019949622932743,7.5630641245856,0.4441795943077362
1731474147.6397233,-0.3516184091567993,0.42074695229530334,-9.990751266479492,-0.008151916456211359,0.12943232522551062,-0.010478545159747138,1.7987292385209082,7.567935174379129,0.4391301070880155
1731474147.6896822,-0.3454195261001587,0.43337929248809814,-9.982441902160645,-0.00962282464968799,0.1241323123347828,-0.01041303136497784,1.7954414044370133,7.573122089247942,0.4340546455639801
1731474147.739603,-0.3505779504776001,0.42843934893608093,-9.977140426635742,-0.011032055328238742,0.11872842221542995,-0.010348735503032405,1.7924737530667316,7.577820383334645,0.433687810854018
1731474147.7895708,-0.3442579209804535,0.44717955589294434,-10.014467239379883,-0.012377526585327292,0.11323991975702828,-0.010285961955913948,1.7891107234767363,7.5836266369368905,0.42856331522532876
1731474147.839557,-0.2940550446510315,0.5944892764091492,-9.976007461547852,-0.013657310482074133,0.10768552579787946,-0.010225011296411082,1.7832183659260643,7.5888945801440455,0.4282847858809023
1731474147.889536,-0.20518560707569122,0.54371577501297,-9.946371078491211,-0.014869934414464199,0.10208281223939426,-0.010166186887609148,1.7797645338993424,7.5952107450418485,0.4231618007876561
1731474147.939503,-0.43645983934402466,0.24578015506267548,-9.995434761047363,-0.016014752078424867,0.09644786469903972,-0.01010965001032393,1.7721585458755733,7.600993324744016,0.42297383544210737
1731474147.9893682,-0.2412494719028473,0.5809628963470459,-10.00178050994873,-0.01709185866677916,0.09079590930687374,-0.010055356484018736,1.7685965992153634,7.60774032317002,0.417867320628799
1731474148.0393229,-0.4226839542388916,0.305077463388443,-9.972904205322266,-0.01810165770810065,0.08514204882512136,-0.010003208083129884,1.7649656581094288,7.614753957804013,0.41269972437192576
1731474148.0892675,-0.17636924982070923,0.6643232107162476,-9.994385719299316,-0.01904470448826172,0.07950115866364829,-0.009953160846708907,1.7612974046114174,7.621955250621044,0.40751996980657884
1731474148.1391916,-0.017241640016436577,0.4965020716190338,-10.021503448486328,-0.01992224560609129,0.07388722437152759,-0.009905229675415673,1.7570801175943624,7.628521101060322,0.4076535091968002
1731474148.1891968,0.08745230734348297,0.6030604839324951,-10.011589050292969,-0.02073764190018475,0.06831263279330899,-0.009859584969683744,1.7531736542000258,7.635266610932486,0.4077931072575637
1731474148.2391913,-0.9778934717178345,0.07814757525920868,-9.990920066833496,-0.021497031145633318,0.06278827122838915,-0.009816669580496509,1.7493329711304524,7.643026415307318,0.40258200511999914
1731474148.289004,-0.13256236910820007,0.6477596163749695,-9.916261672973633,-0.02220714311485847,0.05732475318692497,-0.009777073150340933,1.7454560898906888,7.650898980258946,0.3973712163250788
1731474148.3390393,-0.5607509613037109,0.18505153059959412,-10.030675888061523,-0.022872576206853342,0.05193334029872067,-0.009741213151570465,1.7415062159461894,7.65894189593409,0.39211366286801097
1731474148.3899746,-0.24053697288036346,0.6703055500984192,-9.993346214294434,-0.02349565213865349,0.04662568995972111,-0.009709246221305392,1.736924411443485,7.666354718193168,0.39248507390148374
1731474148.4399455,-0.4149532914161682,0.18424800038337708,-9.922703742980957,-0.02407751498249451,0.04141329303514931,-0.009681236228162542,1.7328431316666346,7.674645903546739,0.38720276580248403
1731474148.4898977,-0.32263457775115967,0.564312756061554,-10.011099815368652,-0.024618714291034533,0.036307319609570746,-0.009657134056318042,1.7281776438811933,7.682126660364875,0.38776943043290896
1731474148.539939,-0.4096713662147522,0.33358514308929443,-9.978320121765137,-0.02511938383816775,0.0313186767985659,-0.009636669428874658,1.7239740470373863,7.690584189041576,0.3824817288097064
1731474148.5898108,-0.33266475796699524,0.4822407364845276,-9.983787536621094,-0.02557923433858941,0.02645787714598003,-0.00961946206753893,1.7191886436523793,7.698178068722926,0.3831769763322589
1731474148.6398258,-0.33266475796699524,0.4822407364845276,-9.983787536621094,-0.02599762085371884,0.021734746497091305,-0.009605138469182564,1.714858073009544,7.7067529104381265,0.3778840485479936
1731474148.6398258,-0.36633315682411194,0.4079146981239319,-10.017582893371582,-0.02637377767697375,0.01715814950622167,-0.009593355388498908,1.7148349389534623,7.706798519071724,0.37785592135747187
1731474148.6896837,-0.37975364923477173,0.41329842805862427,-9.984230041503906,-0.026706930634377922,0.012735943300911157,-0.009583879796701656,1.7099442561803242,7.714440539749691,0.3786879524847354
1731474148.7397082,-0.3236582279205322,0.45023560523986816,-9.957239151000977,-0.02699621790907803,0.008475222836967743,-0.009576616788544061,1.7054714303906797,7.723090242712607,0.3733778604156728
1731474148.7895982,-0.4094269871711731,0.40006208419799805,-10.010847091674805,-0.02724066638955986,0.004382467729558415,-0.009571481448017801,1.700405415377109,7.730796208735416,0.3742974109437936
1731474148.8395123,-0.3341081142425537,0.49790847301483154,-9.974881172180176,-0.027439226319090355,0.00046345840278059103,-0.009568322538355281,1.6952524099220936,7.738501682192065,0.37521675237540325
1731474148.8895173,-0.40162166953086853,0.3858509361743927,-9.979796409606934,-0.027590756757505618,-0.0032768512409844545,-0.009566970455246852,1.6905649078602056,7.747162537609127,0.3699082156744825
1731474148.9394271,-0.33520281314849854,0.49349677562713623,-9.995915412902832,-0.027694043714334773,-0.006834393558537687,-0.009567247703310102,1.6858060550524026,7.755814428051489,0.36457340204067556
1731474148.989394,-0.39363962411880493,0.3769837021827698,-9.9759521484375,-0.027747868467590735,-0.01020594243482271,-0.009568956688470623,1.6809937291007513,7.76441645134481,0.3592323383717012
1731474149.0393794,-0.32641667127609253,0.49767252802848816,-9.984671592712402,-0.027751084616319893,-0.013389040192977153,-0.009571892633297855,1.6755957236462307,7.772049241084121,0.36047445936665756
1731474149.0893095,-0.39658495783805847,0.40310895442962646,-9.991823196411133,-0.027702692079075025,-0.016381982065939674,-0.009575838881097257,1.670647351955157,7.780569566230925,0.3551310599070142
1731474149.139286,-0.39658495783805847,0.40310895442962646,-9.991823196411133,-0.027601817737909234,-0.019183779493204746,-0.009580586121658177,1.6656274798004145,7.789050307110744,0.34976090982051
1731474149.139286,-0.31508591771125793,0.49019932746887207,-9.974615097045898,-0.02744762291214226,-0.02179403239571785,-0.009585969775664551,1.665595322844502,7.789104109712184,0.3497266679112558
1731474149.1892076,-0.31508591771125793,0.49019932746887207,-9.974615097045898,-0.027239442758311576,-0.024213000691296952,-0.009591836460468323,1.6600561595914258,7.797465951701912,0.35122344520704896
1731474149.1892076,-0.3865351676940918,0.38851404190063477,-9.984769821166992,-0.026977114605760126,-0.02644187116124197,-0.009597966571349193,1.6600300237528283,7.797508761869408,0.35119608258234214
1731474149.2392628,-0.3284973204135895,0.4553205966949463,-9.989445686340332,-0.026661027499758176,-0.02848268909809371,-0.009604065584843146,1.6548730482955383,7.80586568026203,0.34581992197042893
1731474149.2891707,-0.36882221698760986,0.4021817743778229,-9.976908683776855,-0.026291930231310746,-0.03033800625485076,-0.00960982373109779,1.649647716610247,7.814153449563993,0.3404172706629313
1731474149.3390863,-0.36882221698760986,0.4021817743778229,-9.976908683776855,-0.025870815165157712,-0.03201065843585004,-0.0096149388226907,1.6443547327231438,7.822367854865585,0.33498789174997506
1731474149.3390863,-0.339903861284256,0.46282950043678284,-9.997218132019043,-0.025398858691146192,-0.03350368733673947,-0.009619095664750586,1.6443241688132937,7.822414769440191,0.3349566618868085
1731474149.3890233,-0.36403632164001465,0.4146801829338074,-9.983406066894531,-0.024877404991663344,-0.03482039952072408,-0.009621992073230305,1.6385554695380413,7.830483295916871,0.33679714878925127
1731474149.4399798,-0.36403632164001465,0.4146801829338074,-9.983406066894531,-0.024307993624418912,-0.035964476262113174,-0.009623389846833641,1.6329997921266,7.838723995637323,0.3312263063629642
1731474149.4399798,-0.3282560706138611,0.4430561661720276,-9.990992546081543,-0.02369235339750744,-0.036939940277550126,-0.009623114169004434,1.6329534996590591,7.838791874099029,0.33118004863693384
1731474149.489963,-0.3282560706138611,0.4430561661720276,-9.990992546081543,-0.023032456393393186,-0.0377511229662721,-0.009621042983140355,1.6275091004576057,7.84668634278585,0.32575634000363346
1731474149.489963,-0.34830936789512634,0.4099680185317993,-9.985173225402832,-0.0223306456894055,-0.038402729256561574,-0.009617124819953454,1.6274817444232348,7.846725570350373,0.3257291701487198
1731474149.5398574,-0.34830936789512634,0.4099680185317993,-9.985173225402832,-0.021589641804079643,-0.038899790732188,-0.00961137621665693,1.6215575362241437,7.854522882225583,0.32778801037340455
1731474149.5398574,-0.3367198407649994,0.4484230577945709,-9.979958534240723,-0.020812420497999664,-0.039247519787638685,-0.009603843127035402,1.6215281570611253,7.854564068664497,0.3277592259064749
1731474149.5898209,-0.3511849343776703,0.42940324544906616,-9.9827299118042,-0.020002126898616565,-0.03945130331126408,-0.00959455989254473,1.6159628256188352,7.862282360558958,0.3223189584505484
1731474149.639785,-0.3449540138244629,0.44740235805511475,-9.993281364440918,-0.019162040703555573,-0.039516817330316756,-0.009583537838559177,1.6103168213503456,7.869946700062365,0.3168236007944524
1731474149.689714,-0.348348468542099,0.4309273660182953,-9.968509674072266,-0.01829552847968806,-0.03945007962434262,-0.009570781658592944,1.604244032474923,7.877501243970662,0.31910422676860706
1731474149.7397473,-0.3465837836265564,0.4344233572483063,-9.99363899230957,-0.017405998935427353,-0.03925741021667402,-0.009556287263729304,1.5984869283069245,7.884990686600711,0.31358832780968443
1731474149.7896135,-0.35121646523475647,0.43669408559799194,-9.989757537841797,-0.016496874672780944,-0.03894535853636037,-0.009540038079754638,1.5923411698602847,7.892339015118623,0.3159822318583064
1731474149.839714,-0.3436480164527893,0.4485608637332916,-9.986307144165039,-0.015571566119362619,-0.03852065796683155,-0.009522047268698243,1.586088146244857,7.899626083352447,0.3183149088595516
1731474149.8895714,-0.3596985638141632,0.44395580887794495,-9.989258766174316,-0.01463344583386831,-0.037990236620587065,-0.009502391723521606,1.5802421037232075,7.906779008691307,0.31284987824149846
1731474149.9394937,-0.3440133035182953,0.440993994474411,-9.989282608032227,-0.01368581642697329,-0.03736122914734341,-0.009481203394350518,1.5743228444214445,7.913883886615908,0.3073257710232522
1731474149.9894161,-0.3629949986934662,0.4327376186847687,-9.978323936462402,-0.012731876082505426,-0.03664092724074899,-0.009458650811618646,1.5684092084358832,7.920850601038814,0.3018140184693763
1731474150.0394707,-0.35161831974983215,0.4358040392398834,-9.977865219116211,-0.011774688640173411,-0.035836682220982595,-0.009434900460798094,1.5621431315385983,7.927768200878352,0.3045275558152503
1731474150.0892787,-0.3588835597038269,0.44195646047592163,-9.983288764953613,-0.010817156404108125,-0.03495582459557948,-0.009410062997024897,1.5561751869378593,7.934549825507866,0.2990196599025881
1731474150.1392915,-0.3588835597038269,0.44195646047592163,-9.983288764953613,-0.009862004453524266,-0.034005641931623275,-0.009384179004469317,1.550136492509836,7.941296239776487,0.2934468276870399
1731474150.1392915,-0.3525645434856415,0.4376795291900635,-9.988021850585938,-0.008911777105817469,-0.03299338396434064,-0.00935725209398936,1.5500995828319528,7.941337128479757,0.2934127632304147
1731474150.1892414,-0.3610277473926544,0.4366692900657654,-9.989734649658203,-0.007968844426974368,-0.03192623971573622,-0.009329293083287098,1.5438720927781615,7.94792175653011,0.29643683596452286
1731474150.239233,-0.35390523076057434,0.44004589319229126,-9.980785369873047,-0.007035412686566226,-0.030811288697251624,-0.009300348281740927,1.537771535067694,7.954527669055195,0.29084611837433477
1731474150.2891834,-0.34808841347694397,0.4356316924095154,-9.990507125854492,-0.006113538182446501,-0.029655462866590165,-0.009270497360315311,1.5317172584643226,7.960990545837798,0.2852897096870735
1731474150.3391497,-0.34808841347694397,0.4356316924095154,-9.990507125854492,-0.005205166079214068,-0.028465520193383914,-0.00923984539313826,1.525436746963081,7.96741034502889,0.288509106879661
1731474150.3391497,-0.3495331108570099,0.4318283796310425,-9.987534523010254,-0.004312176874768269,-0.027248010036381106,-0.009208537757449533,1.5253981983680296,7.967450664959905,0.2884739349040281
1731474150.3889644,-0.34229859709739685,0.43807172775268555,-9.979005813598633,-0.003436405855278703,-0.026009237967393198,-0.009176761650983568,1.5193564218843802,7.973733653199292,0.28295395937293216
1731474150.4399717,-0.35194361209869385,0.43843650817871094,-9.987793922424316,-0.002579644994170842,-0.0247552546942966,-0.009144708171438453,1.5129173842187877,7.980159765588849,0.28614536421031717
1731474150.4899325,-0.3497510850429535,0.43838438391685486,-9.9824857711792,-0.0017436301126638987,-0.023491869399141746,-0.00911254018363287,1.5065951386154537,7.986382081459643,0.28940641649607196
1731474150.5399475,-0.3440338671207428,0.4448617100715637,-9.980924606323242,-0.0009300139640814402,-0.022224666100641513,-0.009080388721962889,1.5004603085398684,7.992560017323876,0.28384482103656333
1731474150.5898569,-0.3435697555541992,0.4436219334602356,-9.993441581726074,-0.0001403620131339805,-0.02095901925303291,-0.009048357614515503,1.4943411186573614,7.998667026698205,0.2782760173109646
1731474150.6397717,-0.3434273302555084,0.4445556402206421,-9.981748580932617,0.0006238241338301886,-0.019700109005451,-0.009016541615846085,1.4881474316383134,8.004719944372896,0.2817893328722562
1731474150.6896904,-0.34205594658851624,0.4357181191444397,-9.985618591308594,0.0013610923817193098,-0.01845291391108101,-0.008985045514467568,1.4820382795796463,8.010721740097901,0.2762303054479633
1731474150.7397027,-0.3368449807167053,0.4365089237689972,-9.985532760620117,0.0020700381856972815,-0.01722216749647273,-0.00895397598619621,1.4758059437014661,8.016726779657052,0.2797907121208169
1731474150.7896504,-0.3368449807167053,0.4365089237689972,-9.985532760620117,0.002749293670170856,-0.016012303478409488,-0.008923429988649052,1.4696985479086584,8.022650503121156,0.2742277833289442
1731474150.7896504,-0.3370206654071808,0.44003918766975403,-9.988101959228516,0.003397513234577313,-0.014827429099353428,-0.008893500438673142,1.4696582200329933,8.02268950777353,0.2741909559761648
1731474150.839731,-0.34878137707710266,0.4350849390029907,-9.995030403137207,0.0040133865287150135,-0.013671330332649737,-0.00886429439498859,1.4635264350218586,8.0285641228176,0.277888484735304
1731474150.8894904,-0.34958556294441223,0.43955448269844055,-9.992443084716797,0.004595698281560223,-0.012547480389721092,-0.008835965964394323,1.4574681163898255,8.034389189456089,0.2723572444305106
1731474150.9395454,-0.33814793825149536,0.4347154200077057,-9.992836952209473,0.00514339649819569,-0.011459039986705347,-0.008808744841630831,1.4513604210964108,8.04024341438296,0.2667477051702712
1731474150.9894862,-0.33814793825149536,0.4347154200077057,-9.992836952209473,0.005655598467194543,-0.010408853384570645,-0.008782936496983928,1.4452973829411806,8.046040452762469,0.26114483911000663
1731474150.9894862,-0.3534073531627655,0.43426117300987244,-9.98823356628418,0.006131554683337327,-0.00939943970604918,-0.008758901454925227,1.4452657480105984,8.046070667141874,0.2611155135903382
1731474151.0393903,-0.35689619183540344,0.43784937262535095,-9.982269287109375,0.006570669660506904,-0.00843299055590105,-0.008737019081201586,1.4393489834558728,8.051817888368172,0.2652338916012373
1731474151.089344,-0.34376397728919983,0.4424741268157959,-9.984296798706055,0.006972573733631609,-0.007511392117776912,-0.008717635109407346,1.4333218137301007,8.05756891500995,0.2596403121910049
1731474151.1394033,-0.34501925110816956,0.4349685609340668,-9.980411529541016,0.007337136853036776,-0.006636263199447725,-0.008701016459650192,1.4273725559118517,8.06333620456896,0.26377870189908537
1731474151.1892505,-0.35001081228256226,0.4367660880088806,-9.98748779296875,0.007664414864883982,-0.005808973619207644,-0.008687336315041348,1.4213973097015797,8.069040135792124,0.25820566018301505
1731474151.2393665,-0.35077399015426636,0.4410512447357178,-9.983784675598145,0.00795461905488548,-0.0050306389757078206,-0.008676687786306446,1.4153901160475357,8.074779673662162,0.25256277697864227
1731474151.2891529,-0.3346041738986969,0.4414082169532776,-9.978825569152832,0.008208115333676404,-0.004302130838575427,-0.008669101534611737,1.4096720084449488,8.080462729170149,0.2569863252200328
1731474151.339152,-0.3532467186450958,0.44168803095817566,-9.982125282287598,0.00842539596608232,-0.0036241088912669795,-0.008664540299621312,1.4037275550513646,8.086161614143915,0.2513702982032713
1731474151.38902,-0.3444956839084625,0.44681721925735474,-9.989038467407227,0.008607051659288004,-0.0029970498686530678,-0.008662892324320562,1.3980315614970198,8.091830044553912,0.2558603602545557
1731474151.4390323,-0.3412024676799774,0.45108357071876526,-9.988518714904785,0.008753776319206128,-0.0024212776757461772,-0.008664003334527381,1.3921216971287165,8.097523401206864,0.250243144169656
1731474151.4888942,-0.35135704278945923,0.44728460907936096,-9.988907814025879,0.008866363852714717,-0.0018970018614474751,-0.008667726377678795,1.3864702734997585,8.103198009271404,0.2547830241382978
1731474151.5399947,-0.3428148031234741,0.43845781683921814,-9.985496520996094,0.00894569805039643,-0.0014243299944522135,-0.008673944261635688,1.3804921191272004,8.108992742158376,0.2490642137925505
1731474151.589838,-0.35130253434181213,0.43799132108688354,-9.989453315734863,0.008992758477608394,-0.0010032258161508448,-0.008682562661040134,1.374694102153635,8.11463161064058,0.24347445833842216
1731474151.6397727,-0.34227749705314636,0.4340595602989197,-9.994230270385742,0.009008622115155015,-0.0006334448226686976,-0.008693507328521241,1.369262554131139,8.120294443547639,0.24825591230871696
1731474151.6898038,-0.345090389251709,0.4354267120361328,-9.992863655090332,0.008994447780632664,-0.0003144935943981804,-0.008706745801149588,1.363471358855704,8.125969904467862,0.24263570548301935
1731474151.7628806,-0.345090389251709,0.4354267120361328,-9.992863655090332,0.008951451685617453,-4.562252564666352e-05,-0.008722311934126863,1.3554215834133903,8.134245409203771,0.2448951274043128
1731474151.7628806,-0.3515869379043579,0.4293767511844635,-9.992466926574707,0.008880897609382932,0.0001741642447449044,-0.008740306864506078,1.3553914030946035,8.134275223072654,0.24486565154286583
1731474151.7896523,-0.3438718020915985,0.40278133749961853,-9.977875709533691,0.008784109867669143,0.0003461291864125107,-0.008760870763927057,1.3523518119684188,8.1372811139582,0.24189084687281365
1731474151.839626,-0.3230764865875244,0.15276339650154114,-9.979936599731445,0.008662455908407968,0.00047212271307719436,-0.008784119477318181,1.347019655893082,8.142954689897856,0.2467788308192809
1731474151.8895721,-0.22208143770694733,0.187400683760643,-10.070066452026367,0.008517155718832,0.000555529241750688,-0.008810153202517927,1.3413447296980427,8.148609042563377,0.24119866172008803
1731474151.939552,-0.22208143770694733,0.187400683760643,-10.070066452026367,0.008348808270296042,0.0006023418166085685,-0.008839337880791462,1.335681195981265,8.154274450626204,0.23558699165053687
1731474151.939552,-0.3626958727836609,-0.3957504630088806,-10.0033597946167,0.008156994378969096,0.0006219746809567189,-0.008872678498434311,1.3356515585464013,8.154304156777355,0.23555751303591566
1731474151.989412,-0.49128592014312744,-0.6028002500534058,-10.101073265075684,0.007940691672701079,0.0006290285054674741,-0.008911881038030135,1.3305883150120954,8.159913082502255,0.24074340274666872
1731474152.039409,-0.33004650473594666,0.15001556277275085,-9.991525650024414,0.007699380310648138,0.00064551535329478,-0.008959195755769249,1.3254151328711596,8.165594794619798,0.24573215414876953
1731474152.0893848,-0.33004650473594666,0.15001556277275085,-9.991525650024414,0.007433610334955425,0.0006999698851102427,-0.009017195357669577,1.319804714308564,8.171277487485124,0.24014699741678608
1731474152.0893848,-0.42409035563468933,-0.23452405631542206,-9.928579330444336,0.007144654811764828,0.0008236476313162134,-0.009088332009389874,1.319775869107625,8.171306757686134,0.24011817553722595
1731474152.139399,-0.3635537326335907,0.16380023956298828,-9.96257495880127,0.006834222213857588,0.0010481961383206726,-0.009174415559374736,1.3142146853701477,8.176959829478145,0.23454154064977276
1731474152.1892323,-0.3265819549560547,0.03705446049571037,-9.926668167114258,0.006504498070097578,0.0014052285113952915,-0.00927633105060056,1.308670974204854,8.182614989835546,0.2289429733140246
1731474152.2392316,-0.34383344650268555,0.2610261142253876,-9.951214790344238,0.00615795646069113,0.001925351627516636,-0.009394007388631753,1.3031129181905188,8.18830508821009,0.22329060757750813
1731474152.2891235,-0.35642221570014954,0.23940710723400116,-9.95168685913086,0.005797042023647189,0.002636656274110914,-0.009526512815236714,1.2983498658858375,8.193970325099935,0.22888993155911613
1731474152.3392637,-0.35642221570014954,0.23940710723400116,-9.95168685913086,0.005424109304389977,0.0035636035472082963,-0.009672221523805763,1.2928044505603178,8.19969605420492,0.22322300228187442
1731474152.3392637,-0.3735845685005188,0.305618554353714,-9.976515769958496,0.005041532271498171,0.004726504648285524,-0.009829009508920246,1.2927754204011592,8.199726089305964,0.22319323476919037
1731474152.389072,-0.3662432134151459,0.2762035131454468,-9.98367977142334,0.004651799525768489,0.006141413509875496,-0.009994466490994704,1.288051887210011,8.20537402203626,0.22890089147646295
1731474152.4390504,-0.3662432134151459,0.2762035131454468,-9.98367977142334,0.004257553970111983,0.00782017761692401,-0.010166121100698056,1.2825591830288199,8.211104225245265,0.22326417964574655
1731474152.4390504,-0.3853393793106079,0.2848801612854004,-9.992253303527832,0.003861584937148807,0.009770666081560755,-0.010341609589898495,1.2825387809330524,8.211125566814726,0.22324317475067795
1731474152.4890246,-0.3745778203010559,0.2969180941581726,-9.987142562866211,0.0034668268657911975,0.011997094358421872,-0.010518757729134121,1.2778310945389941,8.216856636248957,0.22895775479812042
1731474152.539969,-0.36941108107566833,0.32635197043418884,-10.017279624938965,0.0030763597225112217,0.014500243404730957,-0.010695636336836793,1.272256337057778,8.222756068784063,0.22321552419663937
1731474152.5898287,-0.36941108107566833,0.32635197043418884,-10.017279624938965,0.0026933447507832995,0.01727757107935134,-0.010870656761234589,1.2668202775220347,8.22855621903636,0.2175816415303106
1731474152.5898287,-0.3613957464694977,0.32036691904067993,-9.987659454345703,0.002320918392821528,0.02032334203584911,-0.011042662340313546,1.2667928823240504,8.228585575766921,0.21755316357034163
1731474152.6398501,-0.3613957464694977,0.32036691904067993,-9.987659454345703,0.001962100124601729,0.023628885440768674,-0.011210873564692678,1.2622547226449174,8.23445766069592,0.22344029026529022
1731474152.6398501,-0.3558109700679779,0.3377763330936432,-10.017905235290527,0.0016197178856052097,0.027182935867500323,-0.011374734786102136,1.26222206604555,8.234493081510697,0.22340644069521282
1731474152.6896672,-0.3558109700679779,0.3377763330936432,-10.017905235290527,0.0012963492318648741,0.030971925806739027,-0.011533889486670883,1.256863438412919,8.240344732844264,0.2178363593185685
1731474152.6896672,0.11172740161418915,0.9410831928253174,-9.988750457763672,0.000993864154604206,0.034979676865651614,-0.0116882651487512,1.2568333181948104,8.240377846306252,0.21780496230442212
1731474152.7397246,0.6022413969039917,1.6053311824798584,-9.950591087341309,0.0007113606170622198,0.0391849786029826,-0.011838001328333722,1.2522906530468214,8.24640908807519,0.2237060033660478
1731474152.7897217,0.45707929134368896,1.1785728931427002,-9.883322715759277,0.0004414297792796409,0.043557160404189714,-0.01198308882029244,1.2468429354624389,8.25256018794702,0.21802997470620927
1731474152.8396256,0.18722468614578247,0.8254978060722351,-10.014012336730957,0.00016766738898555712,0.04805383791388926,-0.012122958094267097,1.2414228876807734,8.258795163767058,0.21235191409767878
1731474152.889567,-0.2138817459344864,0.33085402846336365,-10.020838737487793,-0.00013382888646072598,0.05262414863749739,-0.012256521944280398,1.2360111407294951,8.26514562126392,0.20665223948758898
1731474152.939633,-0.2138817459344864,0.33085402846336365,-10.020838737487793,-0.0004900361049636318,0.057215162404361974,-0.012382721862455608,1.231701985027296,8.271674802116001,0.21290907789386918
1731474152.939633,-0.84199458360672,-0.42900434136390686,-10.077438354492188,-0.0009263491096811266,0.06177776029376803,-0.012501035922781945,1.231675369408927,8.271707094614765,0.21288106961662623
1731474152.9894435,-1.1347620487213135,-0.6553553342819214,-10.159132957458496,-0.001462254572390308,0.06627163359469615,-0.01261182552429841,1.2263220954007361,8.278280949098331,0.20723415548369792
1731474153.0395005,-1.1347620487213135,-0.6553553342819214,-10.159132957458496,-0.0021071248436249873,0.07066976835032837,-0.012716804891536971,1.2219468508897604,8.285171648020112,0.21346184789711914
1731474153.0395005,-0.5375619530677795,0.026560742408037186,-10.053828239440918,-0.0028582640513336046,0.07496009075586188,-0.01281936648875784,1.221914276953127,8.28521320810046,0.21342754624923072
1731474153.0893981,-0.6419805884361267,-0.14039817452430725,-10.018117904663086,-0.003703131628471125,0.07914254771844528,-0.01292421955177286,1.2165367357000736,8.29216589912453,0.20775365861294612
1731474153.13939,-0.6419805884361267,-0.14039817452430725,-10.018117904663086,-0.004623499700880624,0.0832244170903968,-0.013036508062235651,1.2110823011487213,8.29940711818151,0.20197722446724933
1731474153.13939,-0.48468977212905884,0.17504572868347168,-9.904268264770508,-0.005598202995291891,0.08721727500518962,-0.013161003282746286,1.2110515598361271,8.299448477665305,0.20194461055791949
1731474153.1893013,-0.5061772465705872,0.20886747539043427,-9.975037574768066,-0.006604502067768542,0.09113502227090857,-0.01330152486445289,1.20564455074197,8.306824555595197,0.19620046203097785
1731474153.2392278,-0.504601240158081,0.35937514901161194,-9.961531639099121,-0.007619243012998885,0.09499154384438556,-0.013460623618456603,1.2001706506853342,8.314499246773087,0.19037076624116944
1731474153.2890863,-0.5235366225242615,0.4285810589790344,-9.942535400390625,-0.008619619749502176,0.09879860392647295,-0.013639636337011407,1.1961777978124541,8.322697475703434,0.1972385727992489
1731474153.3391986,-0.5182399153709412,0.41647854447364807,-9.95583724975586,-0.009583401343690482,0.10256454432894892,-0.013838862160414665,1.1906557021795903,8.330886914611511,0.19138535034440882
1731474153.3890479,-0.5182399153709412,0.41647854447364807,-9.95583724975586,-0.010489025436042208,0.10629377052027636,-0.014057661883972374,1.186563194569318,8.339632274970032,0.19820589892809098
1731474153.3890479,-0.5484158992767334,0.4480695128440857,-9.937871932983398,-0.01131571431009025,0.10998691502398329,-0.014294568418337813,1.1865361702261508,8.339674067945777,0.1981774414329726
1731474153.4390175,-0.5478430390357971,0.4370619058609009,-9.939542770385742,-0.012043536400125567,0.11364124675826248,-0.014547383673168712,1.1810060843099563,8.348344628979662,0.19235175862202092
1731474153.4889638,-0.5263280868530273,0.4694240391254425,-9.992203712463379,-0.012653430650952695,0.11725103472868889,-0.014813271439762988,1.1769324220618644,8.357664336453821,0.19914241486564477
1731474153.5389593,-0.5467596054077148,0.46723413467407227,-9.985711097717285,-0.013127319571525168,0.12080787743372949,-0.015089004861724863,1.1713229795634224,8.366961509642447,0.19327523099548954
1731474153.5898702,-0.551529049873352,0.4757702946662903,-9.996859550476074,-0.013448265346665305,0.12430102589729426,-0.015371315476753182,1.167158375798688,8.37704759737376,0.19994027465288985
1731474153.6398945,-0.5152885317802429,0.4587487578392029,-9.976001739501953,-0.013600570455447472,0.12771774653421966,-0.01565710836524634,1.161464518383276,8.387019275164707,0.1940273387681484
1731474153.6898081,-0.5710768699645996,0.47691261768341064,-10.003650665283203,-0.013569876780799229,0.1310437492940713,-0.015943501240325442,1.1574155454363417,8.397522584285838,0.20080140698663965
1731474153.7397523,-0.5710768699645996,0.47691261768341064,-10.003650665283203,-0.01334320352480433,0.13426359962965104,-0.016227843908315435,1.1532754855360037,8.408389907636204,0.20734195027809385
1731474153.7397523,-0.525538980960846,0.48766395449638367,-9.994609832763672,-0.01290887981550268,0.137361040644491,-0.016507788366993476,1.1532344305675297,8.408466893596849,0.20729992038957523
1731474153.789613,-0.5084438323974609,0.5185731053352356,-9.965476989746094,-0.012256626375562763,0.1403192253503777,-0.016781292029918703,1.1475469195137238,8.41927675325469,0.20147213639340283
1731474153.8396065,-0.5292466878890991,0.4623800218105316,-9.98769760131836,-0.01137784409972599,0.1431209142599972,-0.017046487447298385,1.1417671357364605,8.430558951701887,0.1955378320116313
1731474153.88953,-0.48913973569869995,0.46731847524642944,-9.979022026062012,-0.010265825792739233,0.14574878724901624,-0.017301561993570403,1.1359765241634472,8.442169689102526,0.18957729814073315
1731474153.9395475,-0.4685397744178772,0.5056860446929932,-9.99309253692627,-0.008915855920261801,0.14818585948447643,-0.01754476222064727,1.1320009132450417,8.454500696400169,0.19642048325834613
1731474153.9894257,-0.45702219009399414,0.4998912811279297,-9.956080436706543,-0.0073253655935883455,0.15041572785645804,-0.01777443382885368,1.1279938266030507,8.467117887069138,0.20308211676229992
1731474154.0394197,-0.4022035002708435,0.5028836131095886,-9.970311164855957,-0.005494128953161991,0.15242261474305724,-0.01798897571734611,1.122149628338918,8.479879178729165,0.1970915035431036
1731474154.089314,-0.42270535230636597,0.48164358735084534,-9.983999252319336,-0.0034244285807348623,0.15419146316654364,-0.018186763781899262,1.1163076073577307,8.492993752198883,0.1910694160776469
1731474154.1392968,-0.38456615805625916,0.5007065534591675,-9.960416793823242,-0.0011211327778024153,0.1557081531890127,-0.018366165377860438,1.1104499914328787,8.506517568300294,0.18499145792766322
1731474154.1892097,-0.3837924003601074,0.4896668791770935,-10.00211238861084,0.0014083511179209464,0.1569597069621373,-0.01852561295773015,1.1046128532673065,8.520383660667097,0.1788885150939347
1731474154.2391903,-0.3806689977645874,0.47306615114212036,-10.001392364501953,0.004154196062342759,0.1579344353565616,-0.01866370663237136,1.0987552250390125,8.534708566373892,0.17271038617203663
1731474154.2891269,-0.5227342247962952,0.9770021438598633,-9.972333908081055,0.0071044689038405676,0.15862164904495085,-0.018779339860972327,1.0952422172307688,8.549654674664287,0.18005635037152434
1731474154.3391964,-0.6536251306533813,1.1910713911056519,-9.957026481628418,0.010246006758549496,0.15900990319362976,-0.018871686483140693,1.0894322005444301,8.564778184100598,0.17384443274057276
1731474154.389024,-0.5680765509605408,0.5152410864830017,-9.884139060974121,0.013565753712222019,0.1590846103153022,-0.01893993825730405,1.0836722871550921,8.580245211977896,0.16760719363333917
1731474154.438984,-0.8518714904785156,1.0223649740219116,-10.114818572998047,0.017051912269898117,0.15882789803210862,-0.018983082733206556,1.0804185968951536,8.596328438311334,0.17507053837586967
1731474154.4890203,-0.5428992509841919,0.5303182005882263,-9.948053359985352,0.02069462793639224,0.15822056113759989,-0.01900016564734869,1.0747183901318464,8.612701003553218,0.1687571627269204
1731474154.4890203,-0.5428992509841919,0.5303182005882263,-9.948053359985352,0.024485900468333037,0.15724398079452298,-0.01899067716734485,1.0729491318780016,8.617896643268022,0.16677537958668867
1731474154.8706543,-0.253031849861145,0.3442539572715759,-9.981415748596191,0.028418275961214916,0.15588209545983583,-0.018954400926086867,1.0409656811208143,8.75072043241681,0.16015357431336832
1731474154.9205117,-0.23775433003902435,1.9156547784805298,-9.855184555053711,0.03248280477197208,0.1541220223650424,-0.018891002753252187,1.038756513247191,8.77069399585214,0.1676323109890093
1731474154.9705315,-0.4001409411430359,0.5899046659469604,-9.77047061920166,0.036667491844473564,0.15195097877548305,-0.018799569537469307,1.0338891748234214,8.790511670743514,0.1612108794029475
1731474155.020408,-0.1947299689054489,1.112312912940979,-10.022409439086914,0.040957048127782406,0.14935318557151445,-0.01867808695648711,1.0318964770773034,8.811259561933936,0.16861206659097308
1731474155.0704117,-0.1947299689054489,1.112312912940979,-10.022409439086914,0.045333273922847354,0.14631058789891116,-0.018523675038718698,1.027248166329683,8.831809523692163,0.16216185662480828
1731474155.0704117,-0.21322882175445557,0.8714746236801147,-10.088143348693848,0.04977508617857146,0.14280447498792026,-0.01833377499839268,1.02721839090937,8.831943922613481,0.16211988982055056
1731474155.1203022,-0.2239534556865692,0.9041865468025208,-9.905142784118652,0.05425859262903658,0.13881627710505798,-0.018107056229827875,1.0226247343695585,8.85316434916958,0.15552566367368562
1731474155.1704328,-1.3943976163864136,-0.5810168385505676,-10.084527969360352,0.05875872367596346,0.13433015386471076,-0.01784335539745714,1.0182440009738136,8.874377532926081,0.14899378359699622
1731474155.2202253,-0.5982986688613892,0.3721615672111511,-10.063822746276855,0.06325325598946577,0.12933829854055873,-0.01754340280445006,1.0138352313377201,8.89683504974047,0.14213811501679888
1731474155.2702136,-0.46314603090286255,0.03619835898280144,-10.011496543884277,0.0677259721054884,0.12384516451190307,-0.01720895064369768,1.0131012063359774,8.91833501528907,0.15038485008696878
1731474155.320184,-0.5183843374252319,0.10595713555812836,-10.015792846679688,0.07216538440696318,0.11786724047631948,-0.016842806371043545,1.0090246886760867,8.941626660987705,0.14344917623722675
1731474155.3702235,-0.5183843374252319,0.10595713555812836,-10.015792846679688,0.07656177421896465,0.11143086564154978,-0.016448482695707402,1.0086932978777916,8.963462278933434,0.15168553146585304
1731474155.3702235,-0.11161405593156815,0.15249505639076233,-10.028287887573242,0.08090573501393926,0.10457071143949535,-0.01602989798765681,1.00867614882694,8.963570203283261,0.15165400234797663
1731474155.4200754,-0.11161405593156815,0.15249505639076233,-10.028287887573242,0.08518682258122563,0.09732832870692995,-0.01559130080384774,1.0051727763283995,8.986403077820684,0.14499951394728167
1731474155.4200754,0.01588253118097782,0.03391246125102043,-10.020575523376465,0.08939155623765949,0.08975072176978491,-0.01513725060557244,1.005074315651307,8.987068828868567,0.1448059537369355
1731474155.469965,-0.25383296608924866,0.3448643088340759,-9.974748611450195,0.09350234854263748,0.081889236262292,-0.01467250690989715,1.0018722310895423,9.009584289665966,0.13827094653096936
1731474155.5198517,-0.10165785253047943,0.2227284014225006,-9.922452926635742,0.09749811614134024,0.0737981469482573,-0.014201712128443855,0.9988070120464262,9.032982732991886,0.13149970528763394
1731474155.5699394,-0.1839110553264618,0.4192267656326294,-9.99095344543457,0.1013555974443934,0.06553281812525985,-0.01372896210671445,0.9994001500938849,9.056637386702736,0.1398131397545476
1731474155.6198208,-0.19280876219272614,0.3612631559371948,-9.950533866882324,0.10505032797801875,0.05714808065467611,-0.013257603461028016,0.9967879654969126,9.081078764618377,0.1328357177181765
1731474155.6698928,-0.00384950777515769,0.6912849545478821,-9.922014236450195,0.10855716224181249,0.04869684974082984,-0.012790281673329096,1.2162080611060058,9.104171838359127,0.14132784923532074
1731474155.7207956,0.744889497756958,1.6483407020568848,-9.939879417419434,0.11184959613049969,0.04022760334506653,-0.01232891439531171,1.2153070866901097,9.128766585292604,0.14912988413695727
1731474155.770732,0.3141680657863617,1.1341841220855713,-10.00156307220459,0.11489715527266978,0.03177987327184487,-0.011874663729187131,1.2147214317883384,9.152570121426056,0.14246482669725988
1731474155.8206358,-0.22723086178302765,1.8611536026000977,-9.893811225891113,0.1176637919920942,0.023380130541744246,-0.01142812130004574,1.2144168870237606,9.17695158537157,0.13562800279992357
1731474155.8706558,-0.4820658564567566,1.1263463497161865,-9.909140586853027,0.12011092680365604,0.015040618139567058,-0.010989387028771157,1.2144132668064471,9.200987927490678,0.1288734767966806
1731474155.9206085,-0.49431735277175903,1.4234706163406372,-9.892594337463379,0.12220317186899277,0.006760884789333161,-0.010557841222293318,1.2147082874871746,9.22504687918393,0.1373102345346929
1731474155.970523,-0.07631285488605499,0.5004467964172363,-10.070384979248047,0.12391182893388422,-0.0014686309073049103,-0.010132114167326772,1.215308624414371,9.24917906719153,0.14543472709735042
1731474156.0204434,-0.24069371819496155,-0.35270124673843384,-10.206377029418945,0.1252145373637673,-0.009660546027372225,-0.0097108492974793,1.2162226135154224,9.273369886932795,0.1386960588963397
1731474156.0704284,-0.6625279188156128,-0.9579870700836182,-10.202309608459473,0.12609379306740964,-0.017821643331203514,-0.009294118969208537,1.2174569162833317,9.297639150577295,0.1319020059556653
1731474156.1203353,-0.7205891013145447,-0.26662561297416687,-10.021163940429688,0.12653762283999193,-0.025944369425397348,-0.008884390377966695,1.2189897641515866,9.321571899933558,0.12516448065552202
1731474156.170457,-0.7205891013145447,-0.26662561297416687,-10.021163940429688,0.1265418375635381,-0.034004329320829196,-0.008486110281989114,1.2208507566320623,9.345651233125745,0.1336843860321564
1731474156.170457,-0.539745032787323,-0.3440362215042114,-10.02015209197998,0.1261109748079383,-0.04196376932827531,-0.008104480423998743,1.2208685910678594,9.345863117362812,0.13362474394628882
1731474156.220292,-0.539745032787323,-0.3440362215042114,-10.02015209197998,0.12525711988703306,-0.049775665085502394,-0.0077446175372694,1.223021687924586,9.369544339867863,0.12693200952629405
1731474156.220292,-0.7099660634994507,-0.18074804544448853,-9.97559928894043,0.12399810537076834,-0.057386020419084374,-0.007411288374402527,1.2230436451750546,9.369769062780994,0.12686824224917276
1731474156.270222,-0.4648881256580353,-0.01231425255537033,-9.95477294921875,0.12235642039210852,-0.06473604643628876,-0.0071087117214629824,1.2254956630043423,9.393275884851196,0.13543146676443477
1731474156.320121,-0.6345815658569336,0.11943099647760391,-9.89240837097168,0.12035850622895657,-0.07176518124880919,-0.006840204638314609,1.2283179421994146,9.417182763752049,0.12861549998739946
1731474156.370157,-0.4727819561958313,0.4156271815299988,-9.890789985656738,0.11803382854528129,-0.07841441386880249,-0.006607764779249722,1.2313547969848364,9.44027481647447,0.1371485606089231
1731474156.419992,-0.4746846556663513,0.4383656084537506,-9.960733413696289,0.1154138930459658,-0.08462943853672433,-0.006411834221049668,1.234733117315997,9.46352179963431,0.1304419215523899
1731474156.4700122,-0.4082532823085785,0.4868992269039154,-9.922954559326172,0.11253122873391191,-0.09036311186910886,-0.00625147706029203,1.2383855629025007,9.486482038433502,0.12373930597098408
1731474156.5199811,-0.4082532823085785,0.4868992269039154,-9.922954559326172,0.10941837543694966,-0.09557661838034907,-0.006124760444431345,1.242298329352711,9.509159593647997,0.1324016345689972
1731474156.5199811,-0.42095184326171875,0.46034306287765503,-9.94420051574707,0.1061071811368674,-0.10023949430881843,-0.00602897654884448,1.242335132403257,9.50936427194925,0.13234134309149467
1731474156.5699735,-0.3570947051048279,0.568742036819458,-9.979055404663086,0.10262843485708154,-0.10432918337216518,-0.005960810870428327,1.2465059864941148,9.531721443794064,0.1257100877773979
1731474156.6198468,-0.35170891880989075,0.5658196806907654,-10.006991386413574,0.09901157565379012,-0.10783067584632583,-0.005916690147691297,1.2509624991143025,9.55404063515511,0.13427671784849202
1731474156.6698449,-0.35522300004959106,0.5524300336837769,-9.985919952392578,0.09528435763045895,-0.11073630695051939,-0.005893197235065083,1.2556378523150729,9.575931487604768,0.12766069927320087
1731474156.7197773,-0.3219449818134308,0.549161434173584,-9.999293327331543,0.09147262193958983,-0.11304534219959037,-0.005887308467506987,1.2605698943119488,9.597653585977199,0.12099656552219158
1731474156.7707493,-0.28970977663993835,0.5290778875350952,-9.999696731567383,0.08760017070980573,-0.11476323648429157,-0.005896427120048571,1.2658287621286994,9.619505976085582,0.11418725080643774
1731474156.8206139,-0.3143123984336853,0.5126650929450989,-10.002466201782227,0.08368861278788443,-0.1159007953696577,-0.005918366774209862,1.2712606385803888,9.64092439770691,0.12313226176543174
1731474156.870688,-0.2599155902862549,0.5240530371665955,-9.9974946975708,0.07975726209195613,-0.1164733750238455,-0.005951344704916803,1.2768131951937773,9.661725992568364,0.13187373135663713
1731474156.9205627,-0.2969132363796234,0.4891177713871002,-9.995007514953613,0.07582314351670018,-0.1165001740100909,-0.005993943753783641,1.2825112854798029,9.682013410195278,0.12536936938704804
1731474156.9705002,-0.2292598932981491,0.49995648860931396,-10.004132270812988,0.0719010295942753,-0.11600360496120539,-0.006045050710343496,1.2883568698200125,9.701975617233337,0.13413798723711634
1731474157.0204966,-0.2579132318496704,0.4924958348274231,-10.007848739624023,0.06800346040982211,-0.11500871842032691,-0.006103825435780075,1.2945488229430044,9.722158814732929,0.12751593796688376
1731474157.0704823,-0.24598565697669983,0.4703907370567322,-10.037233352661133,0.06414078290054451,-0.1135427008184695,-0.0061697399271328016,1.3008265005965736,9.741795954073247,0.12096380262528922
1731474157.1203732,-0.2604096531867981,0.4892358183860779,-9.96359920501709,0.06032130729422673,-0.1116344218808715,-0.0062426223818587995,1.3072656360328394,9.761172661662206,0.11438950778866713
1731474157.1703653,-0.2412901222705841,0.49372807145118713,-10.008519172668457,0.05655155699133882,-0.10931405036115258,-0.006322555913850774,1.3137629720254747,9.780111461066845,0.12355674820561477
1731474157.2202988,-0.25269076228141785,0.49582356214523315,-9.967084884643555,0.05283648737537475,-0.10661279848521872,-0.006409669879475902,1.3204377426806868,9.798909575215163,0.13236899074513384
1731474157.2702527,-0.29472479224205017,0.49913355708122253,-9.967273712158203,0.049179701459315814,-0.10356272882393067,-0.0065039810458251066,1.32731500868254,9.817566799967441,0.1258482817558504
1731474157.3201697,-0.2970694601535797,0.489962100982666,-10.00029182434082,0.04558378843122761,-0.10019653184858887,-0.006605307141058378,1.334253530398044,9.83581755786114,0.11936485899336835
1731474157.370167,-0.34497785568237305,0.48454904556274414,-9.985206604003906,0.0420507638327679,-0.09654725858907663,-0.0067132912374304856,1.341358783516749,9.853971757278668,0.11281151306721386
1731474157.4200604,-0.34497785568237305,0.48454904556274414,-9.985206604003906,0.038582492218567736,-0.09264802749135055,-0.006827514329361897,1.3484330793422403,9.871679659692955,0.12207448079104127
1731474157.4200604,-0.33604687452316284,0.4833928644657135,-9.957088470458984,0.03518099592789474,-0.08853175403706695,-0.006947516785178146,1.348737563665672,9.872426612189772,0.12180114560680927
1731474157.4700716,-0.3997398614883423,0.48361581563949585,-10.031452178955078,0.03184861601791751,-0.0842309362519042,-0.007072746190658207,1.3557054612882997,9.889324935543376,0.11557200724311399
1731474157.5199513,-0.34380197525024414,0.5006750226020813,-9.992836952209473,0.02858811673042508,-0.07977749814087047,-0.007202640680959415,1.3631478564997481,9.907120786079021,0.12456501118293942
1731474157.570007,-0.40116724371910095,0.47793707251548767,-9.987176895141602,0.025402754579428914,-0.07520268026594873,-0.0073367885674291335,1.370412913784888,9.924015871066414,0.11822291666333122
1731474157.6199002,-0.3695700168609619,0.49243950843811035,-9.979872703552246,0.022296263359288672,-0.07053692382109317,-0.007474913098913492,1.3779203424431643,9.941304661924713,0.127184663998302
1731474157.6698487,-0.41193339228630066,0.5345649719238281,-9.984530448913574,0.01927282515984806,-0.06580977137608153,-0.007616726533740009,1.385286802070932,9.95784130060186,0.12087512209492596
1731474157.7197323,-0.39578092098236084,0.5249258279800415,-9.9964017868042,0.016337070062489092,-0.061049902829263314,-0.007761864097283102,1.3927398591115066,9.974494215728908,0.12987349536446655
1731474157.7697887,-0.4148857295513153,0.5152393579483032,-10.009360313415527,0.013494068651537582,-0.05628522103776924,-0.007909944129590252,1.4003378371623043,9.991069614351325,0.1234596115594663
1731474157.8206913,-0.38384121656417847,0.5252273082733154,-9.947656631469727,0.010749268103055773,-0.05154278888455209,-0.008060636734720782,1.4081576295524552,10.008113480453066,0.13212011962994688
1731474157.8705866,-0.37471675872802734,0.512197732925415,-9.963825225830078,0.008108314474338098,-0.046848658514204417,-0.008213565729536588,1.415672001279293,10.024136822814642,0.1258432497562317
1731474157.9205194,-0.39332878589630127,0.548274040222168,-9.980907440185547,0.005576802193883288,-0.0422277435828808,-0.008368114771001453,1.423385956781128,10.040438211293534,0.11939319846447585
1731474157.970504,-0.3940364420413971,0.5331264734268188,-9.951216697692871,0.003160110489499087,-0.037703786124021046,-0.008523379800969224,1.430967991127863,10.056339781869731,0.11304169715306396
1731474158.0204077,-0.3720216453075409,0.5273372530937195,-10.012054443359375,0.0008633608939601025,-0.033299351396218924,-0.008678263650868118,1.4387704352864095,10.072602893352432,0.10648795661904177
1731474158.070431,-0.36154696345329285,0.5203379988670349,-9.981355667114258,-0.0013086688362618523,-0.02903573511367495,-0.008831623519113865,1.4461743252348593,10.088233576606273,0.1161389094440526
1731474158.1203873,-0.33269548416137695,0.5211107134819031,-9.980409622192383,-0.003351755132734928,-0.024932798792350292,-0.008982415864362636,1.4540112105840681,10.104439446986698,0.10957134792258345
1731474158.170318,-0.3207956552505493,0.5135068893432617,-9.99845027923584,-0.005262491107291554,-0.021008835029622468,-0.00912973264955155,1.4613517586664624,10.119887510964169,0.11914512385439224
1731474158.2202368,-0.30687013268470764,0.5224953889846802,-9.994780540466309,-0.007038522178500428,-0.017280489739590992,-0.009272792519150756,1.468992234578235,10.135962197712455,0.1281073725033734
1731474158.2701979,-0.3119085729122162,0.5182780623435974,-9.960308074951172,-0.00867869108943736,-0.013762733076660868,-0.009410953631853635,1.476454329018257,10.151356494368132,0.12187158118360002
1731474158.3202002,-0.3232634663581848,0.5220323204994202,-9.994431495666504,-0.010183041742344173,-0.010468869362041132,-0.009543652161743178,1.4842161170669292,10.167387959674887,0.1153410211889172
1731474158.3702445,-0.28144803643226624,0.5371149778366089,-9.997028350830078,-0.011552724694115127,-0.007410574481033922,-0.009670340755976605,1.4913965244370422,10.18263935067341,0.12474216583406647
1731474158.4200966,-0.28144803643226624,0.5371149778366089,-9.997028350830078,-0.012789957935720676,-0.004597974760294962,-0.009790560465461222,1.4988963471823313,10.198217158678226,0.11839818339670972
1731474158.4200966,-0.31811031699180603,0.5085797905921936,-9.998974800109863,-0.013898044944778597,-0.0020397212712019294,-0.0099040423829806,1.4991262243136592,10.198695499536292,0.11820292621079273
1731474158.4701083,-0.2963423728942871,0.5248386859893799,-9.973089218139648,-0.014881257492832657,0.0002570336636388247,-0.010010708153846094,1.5062253427754608,10.213940404680688,0.12750038872215386
1731474158.5199509,-0.2880183458328247,0.5108221173286438,-10.006240844726562,-0.0157446215190645,0.0022867102264593144,-0.010110594092320038,1.5136429619094252,10.2295031106259,0.1211758640664349
1731474158.5699735,-0.2980497181415558,0.49068212509155273,-9.973512649536133,-0.016493805924191543,0.004045340640238341,-0.01020379308155581,1.5210575489963403,10.24515142813533,0.11479449334528757
1731474158.6198955,-0.2980497181415558,0.49068212509155273,-9.973512649536133,-0.01713506636383767,0.005530621144793125,-0.010290417252221505,1.528464647070612,10.260885045375717,0.10835751799035093
1731474158.6198955,-0.31672346591949463,0.5230117440223694,-9.992152214050293,-0.017675112841347165,0.006741941328281778,-0.0103705324966369,1.528508745291346,10.260979032532282,0.10831900509552847
1731474158.6698563,-0.3087119460105896,0.5085582733154297,-10.039146423339844,-0.018120922276188323,0.007680259245459448,-0.01044418869296929,1.5354838704174658,10.27646409529781,0.11789042281998782
1731474158.719787,-0.37044280767440796,0.5171928405761719,-9.983965873718262,-0.018479525638687672,0.008347886009506478,-0.010511614628184361,1.5427741180353987,10.292185957932679,0.11148686570943082
1731474158.769825,-0.35450124740600586,0.50801682472229,-9.950888633728027,-0.018757728714637864,0.008748340075905038,-0.010573283088558115,1.5497048337123747,10.307871516182093,0.1208779325031226
1731474158.8206687,-0.35450124740600586,0.50801682472229,-9.950888633728027,-0.01896184305551256,0.008886281122365478,-0.010629639933513568,1.5570093367586726,10.32388469899885,0.11438598480011988
1731474158.8206687,-0.3457523584365845,0.5308553576469421,-10.02107048034668,-0.01909760367394986,0.008767442725866926,-0.010680833700707264,1.557068539200086,10.3240150182477,0.11433307739614859
1731474158.8708599,-0.3598632216453552,0.5240755081176758,-9.973990440368652,-0.0191702452881999,0.008398500883069778,-0.010726802579325918,1.5642281000775917,10.339839070938133,0.10789951515369929
1731474158.9206185,-0.37419551610946655,0.5006221532821655,-9.971975326538086,-0.019184548247127856,0.007786932041222511,-0.010767487014352727,1.5712702009543404,10.355528483379857,0.10150223464918945
1731474158.970634,-0.3892771303653717,0.5268489718437195,-10.022506713867188,-0.019144773478840443,0.006940966676652548,-0.010802869169707224,1.5779379120386945,10.371295100316686,0.11125470528628846
1731474159.0204418,-0.3892771303653717,0.5268489718437195,-10.022506713867188,-0.019054547252923656,0.005869560152651013,-0.010833034008818333,1.5848695274178515,10.38699481812545,0.10487976793194428
1731474159.0204418,-0.42074161767959595,0.5047159194946289,-9.953629493713379,-0.01891677026255585,0.004582290070700176,-0.01085831628736356,1.5849291834753045,10.38713046000908,0.10482459953333223
1731474159.0705018,-0.4061630666255951,0.5313308238983154,-9.978107452392578,-0.0187335549696094,0.003089272699634233,-0.010879215395430589,1.5914251020169587,10.402819718264558,0.11449851354335853
1731474159.1203768,-0.40526318550109863,0.5140536427497864,-10.022367477416992,-0.01850621851572867,0.0014011157596890752,-0.010896168451745635,1.5979181694579687,10.41866506147603,0.12375852376646307
1731474159.170345,-0.3965300917625427,0.502784788608551,-9.966509819030762,-0.018235392783249756,-0.00047113832725568204,-0.010909549787342541,1.6047432327594588,10.434483159474539,0.11739137714185481
1731474159.2203305,-0.38581791520118713,0.508468508720398,-9.955740928649902,-0.017921219754226333,-0.0025160251795945275,-0.010919732068027474,1.6115321945959442,10.450318299299903,0.11098866582102948
1731474159.2702694,-0.3934820294380188,0.535594642162323,-9.982986450195312,-0.017563548806406752,-0.004721677229621581,-0.010926949458860039,1.6182804322266557,10.46615271816508,0.10455532646706027
1731474159.3201983,-0.35386738181114197,0.5342658758163452,-9.970437049865723,-0.017162111360246597,-0.007075974200645815,-0.01093118499079545,1.6244785619095592,10.481897754415536,0.11419420842182011
1731474159.3701587,-0.3599652647972107,0.5136325359344482,-9.988588333129883,-0.01671671522453535,-0.009566741103291632,-0.010932239672803984,1.6311296075366524,10.497685271177561,0.10777671529913908
1731474159.4200087,-0.32312655448913574,0.5253065824508667,-10.006949424743652,-0.016227474227102787,-0.012181820594799518,-0.0109298666348793,1.6372301026535434,10.513443759643355,0.11726862894327356
1731474159.4701254,-0.32851725816726685,0.5242536067962646,-9.958294868469238,-0.015695023263527313,-0.014909057077115104,-0.010923882910994635,1.6437938024081067,10.529172096360941,0.11086088580413637
1731474159.5200732,-0.2989529073238373,0.5134327411651611,-9.978981018066406,-0.015120684001922156,-0.01773631336413777,-0.010914160840067095,1.650327298128402,10.544879520967624,0.10441776337178933
1731474159.5699933,-0.2976040542125702,0.528435468673706,-10.035711288452148,-0.014506582851204753,-0.020651508495870375,-0.010900568880587408,1.6568185118296412,10.560526299656972,0.09795261997297884
1731474159.6201284,-0.2584826648235321,0.5214108228683472,-9.999695777893066,-0.013855748412021088,-0.023642658573269762,-0.01088310092570077,1.6626542361447332,10.57045789999545,0.10780507366920057
1731474159.6698892,-0.29298895597457886,0.5123870372772217,-9.98195743560791,-0.01317218716022691,-0.0266979278408132,-0.010862050975173834,1.6690663365787444,10.585969108204297,0.10135399356386134
1731474159.7198591,-0.2805013358592987,0.5189118385314941,-9.997715950012207,-0.012460845177569312,-0.02980564828751295,-0.010837945234247751,1.675471514723847,10.601470465398295,0.09485029279283211
1731474159.7697053,-0.25231388211250305,0.526025652885437,-9.983038902282715,-0.011727458272353511,-0.03295432996600915,-0.010811372047963171,1.681048100072283,10.610880090228498,0.10489779219678663
1731474159.8196115,-0.2625800669193268,0.5331252813339233,-9.989421844482422,-0.010978456726885008,-0.03613273265096647,-0.010782909002756351,1.687488530961878,10.626451632078847,0.09830187730696316
1731474159.870672,-0.25197145342826843,0.5226522088050842,-10.016423225402832,-0.01022094045013216,-0.039329971164694943,-0.010753127834734333,1.6938078530198113,10.64169966315357,0.09177506321779691
1731474159.9206076,-0.2829984724521637,0.5082409381866455,-9.991646766662598,-0.00946257471110461,-0.04253555583958189,-0.010722660176302534,1.7000765589932807,10.656782511524291,0.08524814692674873
1731474159.9705005,-0.28480449318885803,0.5353925824165344,-9.947487831115723,-0.008711355403069197,-0.04573935698808687,-0.010692208253808042,1.705495726296411,10.665808240590414,0.09558155373123255
1731474160.0204332,-0.2747306227684021,0.5366898775100708,-10.02096939086914,-0.007975332790064188,-0.048931618066796634,-0.010662402631163744,1.7114644427501235,10.676099495340752,0.10491164753347941
1731474160.0705328,-0.2890772521495819,0.5572153329849243,-9.990310668945312,-0.0072624189181821446,-0.052103086653383875,-0.010633739163904159,1.7170520837672407,10.689375690896858,0.09906426808788912
1731474160.120394,-0.30816128849983215,0.5108066201210022,-9.969518661499023,-0.006580260553585789,-0.055245140590658944,-0.010606679429521353,1.7232344564354087,10.703975776699757,0.09255190432324051
1731474160.1703773,-0.3075338900089264,0.5318730473518372,-9.989680290222168,-0.0059360676652752626,-0.058349760982002286,-0.010581652295453584,1.7293877039768946,10.718401900740053,0.08602719564445736
1731474160.220353,-0.3376113772392273,0.514896035194397,-9.994827270507812,-0.00533640905420126,-0.06140940053188637,-0.01055897367633152,1.7345981081836133,10.726658084852705,0.09628241393539082
1731474160.2703774,-0.34983736276626587,0.5286862254142761,-9.962014198303223,-0.004787015223363729,-0.06441690254191783,-0.010538854196980817,1.7406828985054787,10.740693066307701,0.08980552370143988
1731474160.3201654,-0.3544542193412781,0.5517596006393433,-9.99022388458252,-0.004292589259539293,-0.06736552854937222,-0.01052140032198029,1.7457472854138805,10.754471610398452,0.09998366191498799
1731474160.370143,-0.3516252934932709,0.5374683141708374,-9.990341186523438,-0.0038566929191875495,-0.07024907103715959,-0.010506588744253954,1.750802496269678,10.768170504523734,0.10974316242742231
1731474160.4202018,-0.35329899191856384,0.519231379032135,-9.9598970413208,-0.0034817611982327487,-0.07306193579655677,-0.010494296832788436,1.756885956907322,10.781810535654019,0.10326484022661572
1731474160.4702244,-0.3345542550086975,0.5284436941146851,-9.966591835021973,-0.003169211758525376,-0.07579907871433873,-0.010484287004407485,1.7629419332214753,10.79522104932989,0.09678061170934271
1731474160.5200076,-0.3611922562122345,0.5078816413879395,-10.020652770996094,-0.002919590331805851,-0.07845587417259989,-0.010476160107333545,1.7689763323743202,10.808408221466765,0.09028521401726741
1731474160.570008,-0.3498118817806244,0.5143244862556458,-10.008946418762207,-0.0027326750968538344,-0.08102801963497425,-0.010469494307023866,1.773856747153708,10.821387530052949,0.10037594848821751
1731474160.6198819,-0.33152875304222107,0.5191381573677063,-9.96742057800293,-0.0026075413104084968,-0.0835114846745689,-0.010464061645639167,1.7798386557169021,10.834115936595168,0.09392311844482593
1731474160.6699362,-0.3189314603805542,0.520063042640686,-9.994635581970215,-0.002542704225781226,-0.08590252193300425,-0.01045981321509437,1.7846275085680305,10.846665801341718,0.1038847387162242
1731474160.7198498,-0.31146132946014404,0.49782794713974,-9.991044998168945,-0.0025363551920316273,-0.088197703234444,-0.010456729226537061,1.7906433311963115,10.859091328546754,0.09738109695207055
1731474160.7696915,-0.27925825119018555,0.5191643238067627,-9.976333618164062,-0.0025865982520871965,-0.09039390309239646,-0.01045477503754669,1.7952596058959103,10.871056814320598,0.10728884190527736
1731474160.8196826,-0.26903486251831055,0.5131709575653076,-9.989280700683594,-0.0026916795288702096,-0.09248827603255415,-0.010453903094177411,1.8012232179299101,10.882980667800451,0.10082618509734606
1731474160.8696597,-0.2614664137363434,0.5186227560043335,-10.001703262329102,-0.002850208801819169,-0.09447829729846371,-0.010454044777263468,1.8058070525487007,10.89462888023768,0.11052522420589168
1731474160.9207711,-0.2614664137363434,0.5186227560043335,-10.001703262329102,-0.0030612926070024008,-0.09636182116129093,-0.010455172176541334,1.81191005208815,10.90640212881915,0.10389191192497892
1731474160.9207711,-0.2740640342235565,0.5009732246398926,-9.956851959228516,-0.00332453131511996,-0.09813709575825275,-0.01045735165682856,1.8119604376135552,10.906498331271385,0.103836996465088
1731474160.9705622,-0.274027019739151,0.5083372592926025,-10.000702857971191,-0.003639906129639566,-0.09980271971381031,-0.010460662615522923,1.8163622108956763,10.917515437604742,0.11350173397688332
1731474161.02048,-0.274027019739151,0.5083372592926025,-10.000702857971191,-0.004007625715478155,-0.10135758229527077,-0.010465120807543995,1.8207772900726547,10.928403509889879,0.12274933934652706
1731474161.02048,-0.2422710508108139,0.5382094979286194,-10.02502155303955,-0.004428036857138877,-0.10280087823544766,-0.010470784112640219,1.8208242153352996,10.928489862674548,0.12269836463864223
1731474161.070523,-0.2966766655445099,0.5066756010055542,-9.966814994812012,-0.004901616615651628,-0.10413220520516647,-0.010477897070913723,1.8266291874470413,10.939055304097566,0.11637301714580486
1731474161.1204453,-0.24885393679141998,0.5543649792671204,-9.974495887756348,-0.005428927653668222,-0.10535165101764044,-0.010486826908955037,1.832543014692766,10.949578832225514,0.10988848795824657
1731474161.1704516,-0.2737577557563782,0.5325854420661926,-10.017370223999023,-0.006010529852291693,-0.10645985525115174,-0.010497879056090152,1.8383755314553338,10.959718282907673,0.10345119842310603
1731474161.2202854,-0.2737577557563782,0.5325854420661926,-10.017370223999023,-0.0066469352170929474,-0.10745805920783517,-0.010511309554573361,1.8425005011338225,10.969515875321422,0.11307304816145665
1731474161.2202854,-0.2906055152416229,0.5151991844177246,-9.989680290222168,-0.007338541398416113,-0.1083480595666919,-0.01052750941196057,1.842548705650565,10.969596941835457,0.11301967766704164
1731474161.2703397,-0.3137006163597107,0.5183002948760986,-9.986680030822754,-0.008085474208497562,-0.10913205767243907,-0.010547036346536379,1.8482778924420715,10.979114212979539,0.1066525090739558
1731474161.3202085,-0.3137006163597107,0.5183002948760986,-9.986680030822754,-0.008887388050131333,-0.109812519952633,-0.010570459016987836,1.8523124070172512,10.988451194401131,0.11610030766850034
1731474161.3202085,-0.3133438229560852,0.5345419645309448,-10.003192901611328,-0.009743313169925865,-0.11039212728408046,-0.010598245003365942,1.852361322371048,10.988529659836239,0.11604567966737359
1731474161.370244,-0.3098906874656677,0.528404951095581,-10.000290870666504,-0.010651624384103166,-0.11087380886768826,-0.010630788574326602,1.8562636768336143,10.997510509675651,0.12521024322862317
1731474161.4202275,-0.3098906874656677,0.528404951095581,-10.000290870666504,-0.011610110025960522,-0.1112607875656145,-0.010668489657251647,1.8619631039382867,11.006331174885188,0.11880180881639756
1731474161.4202275,-0.33454248309135437,0.49304723739624023,-9.936529159545898,-0.01261604230147131,-0.11155653952237699,-0.010711730991376942,1.8620085067317897,11.00640049966259,0.11875051816049918
1731474161.470167,-0.3619610667228699,0.5299280881881714,-10.047443389892578,-0.013666145911044121,-0.11176466119287168,-0.010760747139552553,1.8675758354549115,11.014790188772594,0.11242924556695437
1731474161.5199888,-0.36124423146247864,0.5293492674827576,-9.995766639709473,-0.014756452153054624,-0.1118887915134818,-0.010815645856882238,1.8731926053283678,11.023030428161722,0.10598512712673532
1731474161.570011,-0.3769206404685974,0.5511707663536072,-9.91990852355957,-0.01588216504516038,-0.11193269780016796,-0.010876536659583217,1.8767653538683697,11.03094951359977,0.11545706951712045
1731474161.6198852,-0.3783719837665558,0.543317973613739,-9.976374626159668,-0.01703763349381085,-0.11190042579057113,-0.010943365708640886,1.8823092208795487,11.03866681629233,0.10899219984507476
1731474161.6698837,-0.24439649283885956,0.7247949242591858,-9.980547904968262,-0.018216523981772675,-0.11179653681835468,-0.01101564845007112,1.8877727707738103,11.046054487861284,0.10254232429852767
1731474161.7198694,0.5133981704711914,1.6614665985107422,-9.919093132019043,-0.019413068998960933,-0.11162754703168118,-0.011092481628446803,1.8910507502175085,11.053151463632782,0.11211232614385547
1731474161.769799,0.2999531030654907,1.1952157020568848,-10.016883850097656,-0.020625258444983908,-0.11140550982935032,-0.011172638171823594,1.8964040368793318,11.059992048875964,0.10566297814173392
1731474161.8197489,0.4892212450504303,1.505788803100586,-9.938413619995117,-0.021858236778035032,-0.11115136321830849,-0.011254643413732295,1.9016884294494998,11.066535791100039,0.09920529221536137
1731474161.8706505,-0.516516387462616,-0.022402653470635414,-9.965340614318848,-0.023124596992489324,-0.11089411164442012,-0.011336880466532381,1.9047199513891382,11.072917405486189,0.10875847316061459
1731474161.9206002,-0.9550522565841675,-0.21024510264396667,-10.16689682006836,-0.024439987621421203,-0.11066443715466552,-0.011417781141112292,1.9075318809521349,11.078903212236863,0.11808465108018164
1731474161.9705899,-0.7593311667442322,-0.04050649330019951,-10.03207015991211,-0.025816078996865725,-0.11048599661381643,-0.01149639146386857,1.9126297543538098,11.084655134803556,0.11162378529439651
1731474162.0203743,-0.5015047788619995,0.2697582244873047,-10.028075218200684,-0.027256095384799332,-0.11037083424976221,-0.011572915131207515,1.9151189204055215,11.090016125427482,0.1209172965460232
1731474162.0706327,-0.6376875638961792,0.10086476802825928,-9.939265251159668,-0.028755376639355318,-0.11032078915115404,-0.011648463416955891,1.920122468254064,11.095284098738185,0.1143766981757652
1731474162.1203902,-0.4812456965446472,0.29825708270072937,-9.977543830871582,-0.030303923107856654,-0.1103306654266657,-0.011724293939433451,1.9249506184825524,11.100169166248246,0.10793960480416101
1731474162.1703827,-0.5795964598655701,0.24074093997478485,-9.958183288574219,-0.03188811678544465,-0.11039034038770712,-0.01180127789657991,1.9297005492331052,11.104779818021965,0.10147507346863649
1731474162.2203078,-0.508014976978302,0.46040502190589905,-9.957934379577637,-0.03349168738278428,-0.110486330148671,-0.011879760022227855,1.2985130465747023,11.10912688497224,0.11098966216097714
1731474162.2702415,-0.508804440498352,0.4490143060684204,-9.982624053955078,-0.03509644328205752,-0.11060346652454016,-0.011959606825484376,1.2978379212007078,11.113172791306194,0.10455535984855534
1731474162.320172,-0.48865872621536255,0.4541880786418915,-9.978496551513672,-0.036682947711333604,-0.11072644066751172,-0.012040327185757102,1.2970688789977471,11.116973035489737,0.09804517103371223
1731474162.370213,-0.5410983562469482,0.4174778163433075,-9.919493675231934,-0.038231120900115365,-0.11084066692261219,-0.01212117776527235,1.2898636317324221,11.120493804058826,0.10764708663225572
1731474162.4201007,-0.47556886076927185,0.47924375534057617,-9.938119888305664,-0.03972062167738294,-0.1109324616096948,-0.012201079927343424,1.2891317963414344,11.123734013637769,0.10115308956711991
1731474162.47022,-0.47460830211639404,0.529241681098938,-10.030539512634277,-0.04113117203319888,-0.11098916157432048,-0.012278522255843126,1.2882929147424185,11.126720418426945,0.09457888783951895
1731474162.5199964,-0.4850676357746124,0.5224998593330383,-9.974165916442871,-0.04244299631053022,-0.11099952225160982,-0.012351810907176942,1.2863355790175377,11.129368880976658,0.10436427077130726
1731474162.5699408,-0.48955443501472473,0.4771479666233063,-9.996931076049805,-0.04363717573924296,-0.11095405969473096,-0.0124194491635577,1.2855048161573703,11.131784950647472,0.09783438822557378
1731474162.6199024,-0.4665283262729645,0.4885329604148865,-9.979948997497559,-0.04469581016594969,-0.11084497830007112,-0.012480239601969492,1.2847697766173833,11.133903689618025,0.10742062207792999
1731474162.669962,-0.46965348720550537,0.5105751752853394,-9.998185157775879,-0.045602163845990154,-0.11066588530348759,-0.012533214927833951,1.2838877644408833,11.135734377263738,0.1166863601253681
1731474162.7198188,-0.4509274959564209,0.5246589779853821,-10.004263877868652,-0.046340872150653856,-0.11041168350189312,-0.012577629274686773,1.2830295360517339,11.13732711128823,0.11017114834159156
1731474162.7698064,-0.4414564073085785,0.5083518624305725,-9.974061965942383,-0.046898145189891056,-0.1100786393186215,-0.012612990516556774,1.2820523310477432,11.138646494383275,0.10360991356938956
1731474162.8197534,-0.41812509298324585,0.5166147947311401,-9.975350379943848,-0.04726195986672031,-0.10966438655555878,-0.012639008248803513,1.281899267083025,11.139651231300318,0.11298827495210133
1731474162.8696876,-0.38708367943763733,0.5227304100990295,-9.974908828735352,-0.0474222730874469,-0.1091678190470016,-0.012655451487417837,1.2808542278206672,11.140418169877654,0.1064605591533247
1731474162.9196005,-0.38708367943763733,0.5227304100990295,-9.974908828735352,-0.047371248353269696,-0.10858898898047313,-0.012662050097532605,1.2802776574940338,11.140882090211187,0.11569267249531312
1731474162.9196005,-0.36882284283638,0.5231413841247559,-9.979649543762207,-0.04710341678100838,-0.10792903552598207,-0.012658489021217665,1.2802688471659387,11.140884892984108,0.11564191028183453
1731474162.970591,-0.3273898661136627,0.5379171371459961,-10.020581245422363,-0.04661575058873475,-0.10719010736087128,-0.012644478265865948,1.2790497971200212,11.141112160617018,0.10895489356132305
1731474163.0204976,-0.3707225024700165,0.505232036113739,-9.976547241210938,-0.04590770168912629,-0.10637527185198412,-0.012619891625774848,1.2777426634892497,11.141064959723122,0.10239251746752305
1731474163.070438,-0.3476724922657013,0.5362069010734558,-9.949875831604004,-0.04498112549858575,-0.10548838619487853,-0.012584805408846642,1.2763300312452137,11.140756225767404,0.09583316478578142
1731474163.1203568,-0.3835640251636505,0.5246970653533936,-9.991329193115234,-0.04384001752257698,-0.10453396402770516,-0.012539328841913938,1.2770274511157014,11.140155464157402,0.10543688488987409
1731474163.1703653,-0.3614824414253235,0.5287243723869324,-9.99287223815918,-0.04249017891743316,-0.10351709941191323,-0.012483489579571646,1.2756064232688562,11.13932535826695,0.09883819605116469
