Timestamp,IMU_Linear_Acc_X,IMU_Linear_Acc_Y,IMU_Linear_Acc_Z,Filtered_X,Filtered_Y,Filtered_Z,Pose_X,Pose_Y,Pose_Z
1731474136.1591787,-0.33983662724494934,0.4336758553981781,-9.985615730285645,-4.9448610556766605e-06,-1.1650351852943837e-05,-1.113321867472955e-05,2.445842850771108,8.100072387430671,0.8809999822413129
1731474136.2091148,-0.3425276577472687,0.41691985726356506,-9.980188369750977,-7.611908772966432e-06,-1.8838414321073033e-05,-1.7961216257172688e-05,2.445911651380332,8.100074644409956,0.8809999821216873
1731474136.25901,-0.34130141139030457,0.4240894317626953,-9.983531951904297,-1.116147678814908e-05,-2.8591040188676735e-05,-2.736968120082383e-05,2.445046716014713,8.100200401043033,0.8809999820268127
1731474136.3090398,-0.3349152207374573,0.42120271921157837,-9.987563133239746,-1.5773521924990185e-05,-4.1103477379461315e-05,-3.980397350358697e-05,2.444993076527614,8.100207282705112,0.8809999819060006
1731474136.3588867,-0.27416113018989563,0.43637028336524963,-9.988398551940918,-2.1735231927937594e-05,-5.6420254417913886e-05,-5.570566357674735e-05,2.444978713210422,8.10028173811542,0.8809999817134629
1731474136.408835,-0.46316227316856384,0.3740302622318268,-9.99268913269043,-2.950537718439384e-05,-7.444925948229083e-05,-7.554122701140719e-05,2.4449479534710092,8.100286088450215,0.880999981571894
1731474136.4588637,-0.7430660724639893,0.23497319221496582,-10.004386901855469,-3.9102417145455594e-05,-9.471055682545618e-05,-9.983795946610154e-05,2.444410295990388,8.100362122908578,0.8809999729572117
1731474136.5088224,-0.1835746020078659,0.5284029841423035,-9.957141876220703,-4.887168708857388e-05,-0.00011587907699851411,-0.00012919476347311119,2.441936281011442,8.100711812773241,0.8809997449896618
1731474136.5587819,-0.32869449257850647,0.37620213627815247,-10.047292709350586,-5.5505399601006024e-05,-0.00013588560677025313,-0.00016425109975930902,2.439457124627594,8.101061895671966,0.8809991491533103
1731474136.6086814,-0.3212164640426636,0.5026140809059143,-9.98022747039795,-5.566043078405136e-05,-0.00015264763926549954,-0.0002057242000565964,2.437592194360264,8.10161873939879,0.8809980952493769
1731474136.6586556,-0.3097893297672272,0.373074471950531,-9.942727088928223,-4.702211507785685e-05,-0.00016454536078587247,-0.00025443623560242584,2.435251569204591,8.10198788749957,0.8809964558376805
1731474136.7085814,-0.3097893297672272,0.373074471950531,-9.942727088928223,-2.8244352529379192e-05,-0.00017030645717960394,-0.00031106875735893496,2.4348529697606622,8.102521933835341,0.8809941332928779
1731474136.7085814,-0.36415764689445496,0.45885133743286133,-10.01577377319336,1.2653174355491283e-06,-0.00016866871975801124,-0.0003758737293280927,2.4348395972618326,8.10252435662091,0.8809941153291609
1731474136.7586725,-0.3174515664577484,0.43460458517074585,-9.97563648223877,4.155162234797908e-05,-0.0001583326814338428,-0.00044876126270178095,2.4328155213863045,8.102890883361045,0.8809908357443919
1731474136.808501,-0.3174515664577484,0.43460458517074585,-9.97563648223877,9.23020685950237e-05,-0.00013824713269887287,-0.0005295625594408757,2.43175106617468,8.103456586569594,0.8809863465370248
1731474136.808501,-0.37348827719688416,0.42250683903694153,-9.971975326538086,0.00015289195480674487,-0.00010775694969155388,-0.0006180809923172014,2.431737961211991,8.103459032054582,0.880986312230182
1731474136.858473,-0.3333224654197693,0.4560640752315521,-10.020543098449707,0.00022247891731732008,-6.653416518871886e-05,-0.0007140447908640553,2.4297664281399745,8.103826903213891,0.8809802563588017
1731474136.9084017,-0.3716474175453186,0.4254069924354553,-9.993083000183105,0.0003001900708439878,-1.4545309401749237e-05,-0.0008172100738071662,2.430388590194323,8.105726787400648,0.8809720931737707
1731474136.9583972,-0.30855798721313477,0.4505065679550171,-9.975634574890137,0.0003851972803465017,4.793595912751322e-05,-0.0009274882002224802,2.42874801560091,8.10621499109576,0.8809621881448663
1731474137.0092394,-0.33945232629776,0.44332513213157654,-10.006049156188965,0.00047662857294005287,0.00012034345055193868,-0.0010449054441719207,2.4279971477931204,8.107404904708613,0.8809493867668425
1731474137.0592687,-0.30693483352661133,0.45724576711654663,-9.974886894226074,0.0005734236502147882,0.00020182080596595575,-0.0011695116143445557,2.4263114071478356,8.107921453801609,0.8809338166042949
1731474137.1091747,-0.3404017686843872,0.42924872040748596,-9.97957992553711,0.0006742581999945338,0.00029122054796061766,-0.0013013387033861483,2.427310070909736,8.109194490896778,0.8809154928648257
1731474137.159192,-0.33027854561805725,0.4503231644630432,-9.993732452392578,0.0007775863726038948,0.00038716608232265443,-0.0014403523110920182,2.4258803368334636,8.109720911804772,0.8808935346602588
1731474137.2090607,-0.33027854561805725,0.4503231644630432,-9.993732452392578,0.0008817450741120387,0.0004881295126279031,-0.0015864474209947358,2.4244595621525127,8.110245883369227,0.8808679154443038
1731474137.2090607,-0.3312438130378723,0.4298307001590729,-9.984983444213867,0.0009850272740271127,0.0005924616272487503,-0.0017395114398790006,2.4244495376004958,8.110249594603552,0.8808677205255354
1731474137.2591295,-0.32849225401878357,0.44427555799484253,-9.991825103759766,0.0010857030809075395,0.0006984369013598907,-0.0018994502295994005,2.4261339550090155,8.111814393395202,0.8808378278226482
1731474137.308942,-0.3466336131095886,0.43178790807724,-9.988767623901367,0.0011820467848427491,0.000804334351622643,-0.0020661675371141004,2.424947297866356,8.112366632219,0.8808029341023442
1731474137.3589773,-0.3226473927497864,0.4400995373725891,-9.986501693725586,0.0012723905872048821,0.0009084894415413953,-0.002239552547006313,2.4258225758354066,8.11399126549371,0.8807625276975197
1731474137.4088914,-0.3401765823364258,0.42628738284111023,-10.006254196166992,0.0013551565878455415,0.001009321603950128,-0.002419486898307388,2.4247416720050827,8.114571777753556,0.8807161621667631
1731474137.4588525,-0.3401765823364258,0.42628738284111023,-10.006254196166992,0.0014288619631807763,0.001105377924002535,-0.0026058947889971824,2.4261446188880256,8.116333995807475,0.8806640680971247
1731474137.4588525,-0.32638588547706604,0.4399968981742859,-9.992179870605469,0.0014921389859840152,0.0011953763305865262,-0.0027988139423740207,2.426139921428497,8.116337134117659,0.8806637793850983
1731474137.50879,-0.3352645933628082,0.4304140508174896,-9.980989456176758,0.0015437392243580826,0.0012781990290127105,-0.0029983797019398697,2.4252412717462635,8.116940370645162,0.8806047161421197
1731474137.5588923,-0.33292460441589355,0.43939563632011414,-9.997173309326172,0.0015825079038181054,0.0013528490528371643,-0.0032047180564740638,2.4243325908508826,8.117556307767876,0.8805369077461376
1731474137.6086698,-0.3363683819770813,0.4308415949344635,-9.980420112609863,0.0016073836472090344,0.0014184255505893702,-0.0034178708138124735,2.428760008565938,8.11816875424069,0.8804616584699787
1731474137.6586838,-0.3302421271800995,0.4421899914741516,-9.979595184326172,0.0016174187304369275,0.0014741187592882908,-0.00363777423443647,2.428280358378905,8.118782984041733,0.8803778344670068
1731474137.7086177,-0.3302421271800995,0.4421899914741516,-9.979595184326172,0.0016117779965865748,0.0015191926579984478,-0.0038642235199504577,2.429602671677958,8.119403123375136,0.8802845313630334
1731474137.7086177,-0.3371421694755554,0.43059173226356506,-9.996553421020508,0.0015897246136960745,0.0015529601918707024,-0.004096854707287015,2.4295836332428857,8.119429218870964,0.8802804015077109
1731474137.758543,-0.3301190137863159,0.4375700056552887,-9.977168083190918,0.0015506235793857825,0.0015747926158236932,-0.004335191751182998,2.429149635880705,8.120028520467091,0.8801806753364668
1731474137.8085432,-0.34019094705581665,0.43010377883911133,-9.982741355895996,0.0014939600116613194,0.0015841588978970627,-0.004578688536511157,2.4286986079500728,8.120660402008486,0.8800651942442581
1731474137.8584952,-0.33192288875579834,0.43809831142425537,-9.991263389587402,0.0014193539695940022,0.001580648215425417,-0.004826723734858755,2.428252429930711,8.121294582163326,0.8799382168397037
1731474137.9083514,-0.34595686197280884,0.4304082989692688,-9.981121063232422,0.0013265743155933547,0.0015639680647603904,-0.005078610647530376,2.4296989850008366,8.121937439619542,0.8797980147812624
1731474137.9583144,-0.3420066237449646,0.443705290555954,-9.989968299865723,0.00121556312233948,0.0015339309688262583,-0.005333629621567078,2.429302803214301,8.122568997635282,0.8796480822528866
1731474138.0092392,-0.3420066237449646,0.443705290555954,-9.989968299865723,0.0010864631679522701,0.0014904207130276522,-0.0055910490340850124,2.42968360156696,8.123222020525754,0.8794801989296112
1731474138.0092392,-0.34163692593574524,0.42966023087501526,-9.989768028259277,0.0009396195962414521,0.0014333528382460103,-0.005850149601622368,2.4296815070851414,8.123225068101629,0.8794793840125553
1731474138.0592258,-0.33824580907821655,0.44014066457748413,-9.97556209564209,0.0007755515798543839,0.0013626797663626729,-0.006110235733056885,2.4292375343267496,8.123874206531804,0.8792985783910955
1731474138.1091983,-0.341629296541214,0.4363786280155182,-9.98953914642334,0.0005949173816336538,0.0012784242266869765,-0.006370604439495464,2.4287968496838106,8.124524323297488,0.8791028723593011
1731474138.1591976,-0.3402191698551178,0.43175989389419556,-9.978646278381348,0.0003984888467545865,0.0011806891149408216,-0.006630514218888495,2.428354281125012,8.125182149070227,0.878889437996399
1731474138.209059,-0.3476492762565613,0.432100772857666,-9.985774040222168,0.00018714420183247536,0.001069664899058302,-0.0068891877860594265,2.42791607637138,8.125837377781064,0.8786609181915951
1731474138.2590916,-0.33999305963516235,0.4344528317451477,-9.983550071716309,-3.812563665391664e-05,0.0009456490584938758,-0.00714582628987004,2.429230687254328,8.126498650336025,0.878414123825257
1731474138.3088815,-0.34422069787979126,0.4327370822429657,-9.9750337600708,-0.00027622048043714046,0.0008090468599846639,-0.007399615959609519,2.428848665197477,8.127154631844823,0.8781517073150908
1731474138.3589008,-0.3437175154685974,0.44072937965393066,-9.988846778869629,-0.0005259509584971027,0.0006603486525985512,-0.007649723895202155,2.428460037974529,8.127822065222002,0.8778665908481559
1731474138.4087975,-0.34332624077796936,0.4315757751464844,-9.98684024810791,-0.0007860562857298138,0.0005001002170694601,-0.007895309962734305,2.4290810874256024,8.128486367967371,0.8775647147420778
1731474138.458818,-0.33988749980926514,0.436118483543396,-9.992659568786621,-0.0010552194776975929,0.00032888657335560005,-0.008135577066967239,2.428702492649019,8.129151335483096,0.8772424049975994
1731474138.5087607,-0.3460216820240021,0.428290456533432,-9.99396800994873,-0.001332089653868959,0.00014734066871736038,-0.008369827217244337,2.428319023509607,8.129820207139122,0.876897818935604
1731474138.5588555,-0.32766076922416687,0.4385663866996765,-9.993430137634277,-0.0016153099325733862,-4.3842795345984213e-05,-0.008597495919564631,2.4286866056983745,8.130488241416256,0.8765334652421024
1731474138.6086557,-0.3306537866592407,0.4353063106536865,-9.987985610961914,-0.0019035699672783682,-0.00024391667762454223,-0.008818158714527652,2.4282967793769945,8.131160964971524,0.8761433460445159
1731474138.6586676,-0.3333236277103424,0.4373985528945923,-9.995209693908691,-0.0021956745839421007,-0.0004521118498059515,-0.009031509989013373,2.4281301745185484,8.131820417717698,0.8757395271047362
1731474138.7086084,-0.3319365978240967,0.4339129328727722,-9.97912311553955,-0.002490570390302786,-0.0006676588383729912,-0.009237331284242702,2.4277594018385895,8.132485737289421,0.8753085711617598
1731474138.758562,-0.333381712436676,0.4398839473724365,-9.9823637008667,-0.002787326250872066,-0.0008897914588319184,-0.009435446171899337,2.427289875813238,8.133145732978248,0.8748555069883169
1731474138.8085184,-0.333381712436676,0.4398839473724365,-9.9823637008667,-0.003085110717321644,-0.001117755837875095,-0.009625663672759781,2.42681086200525,8.133806263739505,0.8743765813867311
1731474138.8085184,-0.3302189111709595,0.438150554895401,-9.991358757019043,-0.003383179775698998,-0.001350831001186196,-0.00980775887763288,2.42680767090783,8.133810619361103,0.8743733364891014
1731474138.8586066,-0.3308621346950531,0.44120118021965027,-9.983616828918457,-0.003680875022563969,-0.0015883411456685558,-0.009981505499269249,2.426321714527315,8.134465652457084,0.8738713854125041
1731474138.8586066,-0.3308621346950531,0.44120118021965027,-9.983616828918457,-0.003977628066771877,-0.0018296579806438445,-0.010146704777736739,2.426890534276888,8.134670995187772,0.8737105319025291
1731474139.2399957,-0.3308621346950531,0.44120118021965027,-9.983616828918457,-0.004272957976718152,-0.002074205681666882,-0.010303176925561623,2.4240768510762027,8.139313932860082,0.869195387128813
1731474139.2399957,-0.3376094102859497,0.43933042883872986,-9.987139701843262,-0.004566454922365301,-0.0023214622565425214,-0.010450746700076136,2.424073914792561,8.139317638299971,0.8691911016068471
1731474139.2900891,-0.3423849642276764,0.43753117322921753,-9.985186576843262,-0.004857742111612372,-0.0025709469923274513,-0.010589251862818587,2.42358103691493,8.139928739958426,0.8684673620116149
1731474139.3398674,-0.34360605478286743,0.4366273581981659,-9.992426872253418,-0.005146417825702456,-0.0028221977864297454,-0.010718564952234208,2.423517351778553,8.140531509560947,0.8677247898993641
1731474139.389985,-0.3389294445514679,0.4368346929550171,-9.979833602905273,-0.0054320112609157565,-0.0030747498077076546,-0.010838609904403506,2.4229999461549645,8.141132236042738,0.8669431118010713
1731474139.4397805,-0.3331068754196167,0.42958614230155945,-9.990646362304688,-0.005713988626277321,-0.003328118372508185,-0.01094935850571455,2.422459847319397,8.141734355519139,0.8661207698782277
1731474139.4898527,-0.335146963596344,0.4248596131801605,-9.98840618133545,-0.005991802839508297,-0.003581769668353064,-0.011050820543819426,2.4219269662211076,8.142304024979069,0.8653042994149854
1731474139.539713,-0.3328384459018707,0.4296468496322632,-9.984148025512695,-0.006264942453670614,-0.003835079030612136,-0.011143049551617563,2.422372904347033,8.142874307649768,0.8644552117107668
1731474139.5897124,-0.3328384459018707,0.4296468496322632,-9.984148025512695,-0.006532953692400079,-0.004087314698501305,-0.011226139757976622,2.4218456556634433,8.143437579903736,0.863565481234172
1731474139.5897124,-0.3308675289154053,0.4361976087093353,-9.986226081848145,-0.006795448475548772,-0.004337668106404641,-0.011300203493300956,2.422115562126364,8.143439020643374,0.8635727693033117
1731474139.639718,-0.3300713300704956,0.44613346457481384,-9.986385345458984,-0.007052112885017966,-0.004585318253193953,-0.011365361580907769,2.4215578966362052,8.143992615050024,0.862652942750484
1731474139.6895943,-0.3355879783630371,0.4400116503238678,-9.9830961227417,-0.007302710057275253,-0.004829511387611394,-0.011421749836708607,2.420984934178552,8.144531850026471,0.8617089951080679
1731474139.7396622,-0.3371192514896393,0.4425605237483978,-9.980547904968262,-0.007547061497485145,-0.005069615869905972,-0.011469513671877523,2.420390095601011,8.145061682251997,0.8607309846467364
1731474139.789675,-0.33719924092292786,0.4419511556625366,-9.980554580688477,-0.007785009853343448,-0.005305127481054852,-0.011508784774893414,2.4197806869709138,8.145574567990039,0.8597317941631538
1731474139.8395355,-0.33719924092292786,0.4419511556625366,-9.980554580688477,-0.008016390282945117,-0.005535654013113148,-0.011539660589882952,2.4191492443306624,8.146075879275841,0.8587000452164245
1731474139.8395355,-0.3354564905166626,0.445912629365921,-9.973817825317383,-0.008241024768534761,-0.0057609065926220605,-0.01156219464323209,2.4191452764380843,8.146078936849625,0.8586935740004669
1731474139.8896139,-0.3405797779560089,0.44538143277168274,-9.989174842834473,-0.008458726974244364,-0.005980701234334172,-0.011576394408079047,2.4199042301434575,8.14656386699927,0.8576530998923836
1731474139.9394777,-0.33414551615715027,0.4462050497531891,-9.99086856842041,-0.008669303372021866,-0.006194964852079953,-0.01158225324819654,2.419310681856803,8.147035647136255,0.8565636774293051
1731474139.9894018,-0.3440423011779785,0.44702938199043274,-9.984944343566895,-0.008872550684581273,-0.006403734570936112,-0.011579816757561392,2.4194754448362032,8.1474914468187,0.8554647202634538
1731474140.0392613,-0.32870543003082275,0.43953606486320496,-9.982325553894043,-0.009068257232499795,-0.00660714310960353,-0.011569213796792427,2.4188784492699065,8.147929987606206,0.8543213551225943
1731474140.089296,-0.34796392917633057,0.4402678906917572,-9.993621826171875,-0.009256211344861083,-0.006805383549760713,-0.011550635921423216,2.418255609665452,8.148353876434419,0.853143483120846
1731474140.1402464,-0.34796392917633057,0.4402678906917572,-9.993621826171875,-0.009436189424584166,-0.006998663953454803,-0.011524337192859837,2.4175984844606675,8.148766988965653,0.8519165594532508
1731474140.1402464,-0.33399584889411926,0.432169646024704,-9.98773193359375,-0.009607917489453452,-0.007187173163835435,-0.01149066738210295,2.417594544390425,8.148769366703332,0.8519092497019451
1731474140.1902158,-0.339699923992157,0.42898687720298767,-9.98838996887207,-0.009771074111818386,-0.0073710454308248885,-0.011450075683543458,2.41825758151745,8.149156434336847,0.8507030498725398
1731474140.2401154,-0.34191736578941345,0.42445263266563416,-9.988052368164062,-0.009925339662782466,-0.007550308599474158,-0.011403075288251727,2.4176452932740107,8.149525651932986,0.8494400537144234
1731474140.2900033,-0.32970547676086426,0.4250764548778534,-9.985917091369629,-0.010070425339455884,-0.00772483799995204,-0.011350211127150954,2.417691068502348,8.149876434646997,0.8481787089887584
1731474140.3400288,-0.32910072803497314,0.4251329004764557,-9.99003791809082,-0.01020609979762887,-0.00789434044394004,-0.011292043914422567,2.4173180060930455,8.150210590706731,0.84688117808904
1731474140.3900661,-0.3384392559528351,0.42610400915145874,-9.983735084533691,-0.010332233317806281,-0.00805836908131841,-0.011229141897530326,2.416655181080616,8.150520691907909,0.8455367748138176
1731474140.439955,-0.3377346694469452,0.435489296913147,-9.978569030761719,-0.010448799968187898,-0.008216363322696141,-0.011162063432003438,2.41596443160487,8.150811302518289,0.8441604758795606
1731474140.4899478,-0.33423569798469543,0.4322376847267151,-9.991771697998047,-0.010555834584372377,-0.008367710921847996,-0.011091327314910384,2.416325735191974,8.151084919614835,0.8427823894664472
1731474140.5398195,-0.3368098735809326,0.4413033127784729,-9.979137420654297,-0.010653408207041443,-0.008511815523716448,-0.011017404930347984,2.4156731548727053,8.15133039111493,0.8413699597900259
1731474140.5896668,-0.32903242111206055,0.43979355692863464,-9.979314804077148,-0.010741636593799833,-0.008648151944921464,-0.010940726329354646,2.41499095308966,8.151555989642327,0.8399233767481411
1731474140.6397073,-0.33598414063453674,0.4474576413631439,-9.982017517089844,-0.010820697262084279,-0.00877631141702219,-0.010861661745412327,2.414275282339484,8.151761933920042,0.8384357519934361
1731474140.6897366,-0.341476172208786,0.44930747151374817,-9.990230560302734,-0.010890828094564299,-0.00889604257013835,-0.010780513194351924,2.4149502680407653,8.151948644335073,0.8369648623716343
1731474140.7397206,-0.3397352695465088,0.44789478182792664,-9.97748851776123,-0.01095228950049004,-0.009007283255454909,-0.010697545447934859,2.414272404186181,8.152109941536574,0.8354240115078915
1731474140.7895658,-0.3330007493495941,0.44037196040153503,-9.997563362121582,-0.011005326722382726,-0.00911016032002274,-0.010613017107083017,2.4135717124601013,8.152247631152438,0.8338668524450594
1731474140.8395772,-0.03880907967686653,0.5903394818305969,-9.978856086730957,-0.01105044524049747,-0.009205076470766346,-0.010527199118260767,2.4128381031296313,8.152363387461293,0.8322714946282697
1731474140.8895676,-0.0758434385061264,0.5316457748413086,-10.008713722229004,-0.0110894308600336,-0.009293109159842819,-0.010440401003129882,2.413512211932466,8.152459131287525,0.8307162902360954
1731474140.9393978,0.48951706290245056,0.8079436421394348,-9.981762886047363,-0.011127123763374654,-0.009376715540084556,-0.01035300602240949,2.4128067129753976,8.15252800989474,0.8290798861778866
1731474140.9892786,0.7771492004394531,0.6103816628456116,-10.015816688537598,-0.01117405144839537,-0.009460526380935511,-0.010265502464193731,2.4130104152413416,8.152577924264323,0.8274789828324751
1731474141.0394018,0.1431780755519867,0.499295175075531,-10.044015884399414,-0.011249076788406386,-0.009551562843217554,-0.010178556067968077,2.412290794553707,8.152599989418349,0.825772420750927
1731474141.0892773,0.413790225982666,0.48516714572906494,-9.909783363342285,-0.01137940324702968,-0.009658247050064416,-0.010093070286683544,2.4115541080976852,8.152597839540903,0.8240668876936637
1731474141.1401522,0.038903508335351944,0.3011943995952606,-9.996171951293945,-0.011597707312757943,-0.009788800367422867,-0.010009985088779694,2.4117135218939088,8.152575762959886,0.8223659298475641
1731474141.1902132,0.22217567265033722,0.33590275049209595,-10.001534461975098,-0.01193911489897492,-0.009949875348451435,-0.009929983418640686,2.410963375477062,8.15252421425333,0.8205949844211953
1731474141.2402446,0.017560504376888275,0.20069876313209534,-9.97430419921875,-0.012439184297266525,-0.010145553382023486,-0.009853524619378131,2.410679136966652,8.15245280514019,0.8188732050510903
1731474141.2901216,-0.7728275656700134,-0.02461777999997139,-9.977519989013672,-0.01313174783430546,-0.010376486433116462,-0.009780995559250326,2.4098855412134235,8.15235106770847,0.8170666049699862
1731474141.3400016,-1.2074174880981445,-0.021463442593812943,-10.009428024291992,-0.014044628232091193,-0.010638808242514253,-0.009712705985914907,2.409704356828223,8.152228534707218,0.8153126745079056
1731474141.3900766,-0.23980385065078735,0.27316224575042725,-9.937684059143066,-0.015194545395309116,-0.01092345007312902,-0.009648869461479014,2.408874552353928,8.152073599879404,0.8134544986757987
1731474141.4400213,-0.7082184553146362,0.12128511071205139,-10.163931846618652,-0.016586129604732717,-0.011217029671310476,-0.009589718199928416,2.4080005518999856,8.151890083446316,0.8115625033594319
1731474141.4898539,-0.29287877678871155,0.4290388226509094,-9.929959297180176,-0.01821516927015812,-0.011503785322850128,-0.00953582924263911,2.4083061829986745,8.151686273910189,0.809765093824109
1731474141.5398967,-0.5628702044487,0.09986446797847748,-10.001678466796875,-0.020071651166260664,-0.01176718053620005,-0.009488277002804458,2.4074314310481046,8.151445284727997,0.80782678361176
1731474141.5897396,-0.3513105511665344,0.46714502573013306,-10.08678913116455,-0.022141245929409133,-0.011990756767052456,-0.009448363453165173,2.4065127599255955,8.15117716148671,0.8058835901835169
1731474141.6397777,-0.3513105511665344,0.46714502573013306,-10.08678913116455,-0.02440635818026221,-0.012158856338749458,-0.009417618896259196,2.405526462763689,8.150882734845291,0.8040136705969436
1731474141.6397777,-0.5107159614562988,0.16161222755908966,-9.946783065795898,-0.026847088133778927,-0.012257520010053697,-0.009398124476718334,2.4055209038421026,8.150881005763836,0.8040027571911723
1731474141.6896517,-0.4068586826324463,0.43703973293304443,-9.962201118469238,-0.02944172267155622,-0.012274611832806067,-0.009392278228020821,2.4044806108407535,8.150553578190925,0.8020200810659103
1731474141.7396317,-0.49801453948020935,0.2526971399784088,-10.004266738891602,-0.0321667684247434,-0.012199244739914891,-0.009402125026468923,2.403349254816736,8.150191138113218,0.7999872706537705
1731474141.789641,-0.37864023447036743,0.4197238087654114,-9.953781127929688,-0.03499715781683308,-0.012021652808270914,-0.009429061733599689,2.402144869625377,8.149801937336758,0.7979497150508164
1731474141.8394883,-0.42949461936950684,0.29616859555244446,-9.941106796264648,-0.03790681142362795,-0.011733412987782693,-0.00947387159064563,2.4008446414883764,8.149388715452778,0.7960212608058677
1731474141.8893626,-0.41107162833213806,0.3372349739074707,-10.000696182250977,-0.040869262590812,-0.011327490836002181,-0.00953669743516624,2.3994536159534787,8.148949363641488,0.7940887244358795
1731474141.9393225,-0.41107162833213806,0.3372349739074707,-10.000696182250977,-0.04385810298889246,-0.010798106218969306,-0.009617127728920458,2.3979478168247597,8.148472217636344,0.7919719684146199
1731474141.9393225,-0.3805420398712158,0.7001015543937683,-9.957939147949219,-0.046847287062342556,-0.010140946545914695,-0.009714465996211478,2.397938135970989,8.148469174302695,0.7919587659142022
1731474141.9893405,-0.4000968039035797,0.667378306388855,-9.877378463745117,-0.049811462593510686,-0.009354392119941001,-0.009827747888498831,2.3963239901557514,8.213418430337665,0.7899922479322401
1731474142.0393183,-0.4872780740261078,1.1421082019805908,-9.997286796569824,-0.05272617779423502,-0.008441516764538953,-0.009955423769817937,2.3945656124532975,8.213627664593915,0.7878197161644754
1731474142.0892508,-0.4453103244304657,0.9864438772201538,-9.849359512329102,-0.05556775724478827,-0.007412120535694932,-0.010095165995843857,2.3926897763571744,8.213815173676375,0.7856433291154714
1731474142.139246,-0.5104879140853882,0.7967690229415894,-10.028023719787598,-0.05831305280995015,-0.006283712723223713,-0.010243953285596644,2.3906590082846004,8.263313386189497,0.7836118945444925
1731474142.1901712,-0.3782177269458771,0.7711344957351685,-9.996058464050293,-0.06093944128178586,-0.005080338737800089,-0.010398379496597363,2.3884405940431095,8.264016753052738,0.7813334671638145
1731474142.2401364,-0.4499201774597168,0.7072227597236633,-10.010408401489258,-0.06342518304728881,-0.0038300545595972065,-0.010555184995867141,2.386101812196869,8.301225623112177,0.7792687349071329
1731474142.2900872,-0.3696022629737854,0.713841438293457,-10.044113159179688,-0.06574992933080033,-0.0025628408161362027,-0.010711689111042673,2.383612145215716,8.302271697771939,0.7769870467343056
1731474142.3400176,-0.42195576429367065,0.5679761171340942,-9.984193801879883,-0.06789509082442349,-0.001309261286997454,-0.010865923201794529,2.3809403201008736,8.30331907487646,0.7746648958600585
1731474142.3899982,-0.30900314450263977,0.6061761379241943,-10.027217864990234,-0.0698440781476682,-9.930687720885602e-05,-0.011016573680566957,2.3781185342451714,8.304356413418047,0.7723339273192243
1731474142.4399173,-0.36433690786361694,0.5541598200798035,-9.993165969848633,-0.07158258488672523,0.001038618981685341,-0.011162833707770325,2.3751022035143072,8.33499735011478,0.7701995912244124
1731474142.4898849,-0.36433690786361694,0.5541598200798035,-9.993165969848633,-0.07309880727194755,0.0020783294825535447,-0.011304261190348051,2.371922071755929,8.336339614045537,0.7678134785409736
1731474142.4898849,-0.3449501693248749,0.5600143671035767,-10.049895286560059,-0.07438339426807236,0.0029961477343757826,-0.011440697881589463,2.3719024146028493,8.33634769527589,0.7677990557580513
1731474142.5398262,-0.3449501693248749,0.5600143671035767,-10.049895286560059,-0.07542927851812808,0.0037710034035796907,-0.011572349421964428,2.3685481187730946,8.355967041706501,0.765651686223985
1731474142.5398262,-0.3187732696533203,0.5636372566223145,-10.002037048339844,-0.07623161875697779,0.00438437777925283,-0.011699960862120246,2.3685253097425676,8.355976925193756,0.7656356873900447
1731474142.5898345,-0.30297085642814636,0.5662887096405029,-10.012564659118652,-0.07678782989855615,0.004820190959969548,-0.011824767796083822,2.3649897254759487,8.368210554573325,0.7634774645924857
1731474142.6396751,-0.3056734502315521,0.5174658894538879,-10.006267547607422,-0.07709762118856424,0.005064734458222775,-0.011948232070408828,2.3612195340621596,8.36977963092635,0.7609935381445134
1731474142.689624,-0.32618317008018494,0.5069574117660522,-9.982719421386719,-0.07716294268081526,0.005106744033022143,-0.012071829756095557,2.3572866643624173,8.371349314431098,0.7584988176170471
1731474142.7396877,-0.273434042930603,0.514680802822113,-9.964303016662598,-0.07698780330868943,0.004937564967992037,-0.012196888941844942,2.3531133243048856,8.372950156899888,0.755944116112034
1731474142.7895157,-0.2996521592140198,0.5227103233337402,-9.985552787780762,-0.0765781131602531,0.004551182262338683,-0.012324406167899907,2.3488228262198043,8.384567525195218,0.7537187378702304
1731474142.8395174,-0.3358599841594696,0.5379204750061035,-9.958097457885742,-0.07594154802657171,0.003944023564439547,-0.01245494341175412,2.3442603390052743,8.386261225026592,0.7511027391538986
1731474142.8894358,-0.336078017950058,0.4931144118309021,-9.98670482635498,-0.07508722984147045,0.0031146940888297243,-0.012588637684497063,2.339870752158234,8.387918513525795,0.7488477799896287
1731474142.939421,-0.33337661623954773,0.5128029584884644,-10.005820274353027,-0.07402529591341153,0.002063830821912849,-0.012725291766109117,2.3349539691132613,8.389623494000476,0.7461780857035394
1731474142.989331,-0.3498041331768036,0.4721747934818268,-9.94282341003418,-0.07276659861656413,0.000794076833726435,-0.012864510262293283,2.329916593600202,8.391310732859758,0.7435100101190736
1731474143.0392566,-0.32534632086753845,0.5132566094398499,-9.986802101135254,-0.07132254247927702,-0.0006899583365165356,-0.01300572521866313,2.324657005486626,8.393012312698067,0.7407871728860107
1731474143.0892653,-0.3674081265926361,0.5218324065208435,-10.014200210571289,-0.06970496213658535,-0.0023818729214280607,-0.013148163416305106,2.3194884463888084,8.39468906833924,0.7384440804042963
1731474143.1392438,-0.40713658928871155,0.5078936219215393,-9.99518871307373,-0.06792592645190411,-0.004273787879589298,-0.013290993316885196,2.3138787309788045,8.39638108497456,0.7356548674330575
1731474143.1901145,-0.3748840391635895,0.5032426118850708,-9.95654582977295,-0.06599740895335501,-0.006356625454882659,-0.01343348781160819,2.308540871906041,8.398048988985227,0.7332358365257111
1731474143.2401328,-0.41319382190704346,0.513997495174408,-10.000679969787598,-0.06393101004435278,-0.008620245081804563,-0.013574951640676023,2.303359884232982,8.399666552452285,0.7308330544223579
1731474143.2901106,-0.4174082279205322,0.5009680390357971,-9.988465309143066,-0.061737834726072895,-0.011053548865000961,-0.013714619183852146,2.2973224017927225,8.401294479368488,0.7279612474188929
1731474143.3401623,-0.4119400978088379,0.5024043917655945,-9.968817710876465,-0.0594284018267313,-0.013644610454070066,-0.0138516938548041,2.2911037392249134,8.402899161309696,0.7250410404765845
1731474143.3899338,-0.3861069083213806,0.4877097010612488,-9.973749160766602,-0.05701261760345783,-0.01638077213057673,-0.013985353863215325,2.2848144957146195,8.404447739171468,0.7221209131439351
1731474143.4400024,-0.3813762664794922,0.4656544327735901,-10.00214672088623,-0.05449992209062698,-0.019248683121628442,-0.014114699147401266,2.2789286042460235,8.405936545154509,0.7196436639878803
1731474143.489819,-0.3586125075817108,0.4547431170940399,-9.964475631713867,-0.051899530408133096,-0.022234273630813997,-0.01423878801590569,2.272379815244794,8.407390335788206,0.7166560904380447
1731474143.5397732,-0.3363964855670929,0.4302753210067749,-9.970362663269043,-0.049220668585620964,-0.02532269125442364,-0.014356679220388696,2.265643993347445,8.408798178555125,0.7136050908800975
1731474143.5897393,-0.3230259418487549,0.4246014356613159,-10.018203735351562,-0.04647279904196672,-0.028498251001430545,-0.01446741277941647,2.2596365956906905,8.41008343282626,0.7111194901578458
1731474143.6397502,-0.3230259418487549,0.4246014356613159,-10.018203735351562,-0.04366580361521965,-0.03174444387832694,-0.014570120847590795,2.2526736266120855,8.411350489843915,0.7079956025098043
1731474143.6397502,-0.3195480704307556,0.4174511432647705,-9.99730110168457,-0.04081005049145521,-0.035044039360690976,-0.014664253933501238,2.2526400240286506,8.411356363895427,0.707980557331624
1731474143.6896462,-0.29733991622924805,0.400546669960022,-9.969202995300293,-0.037916364716416184,-0.03837924187281978,-0.014749619861282336,2.24566764700698,8.412519735410806,0.7048615076468066
1731474143.7396011,-0.2849956750869751,0.3818894624710083,-10.001726150512695,-0.03499601306241732,-0.04173180239373646,-0.014826194414413227,2.239630096597482,8.413538093745697,0.7023139657499466
1731474143.789569,-0.2620607912540436,0.3989132344722748,-10.011852264404297,-0.03206075516369481,-0.04508308163369959,-0.01489399960745344,2.232459518091696,8.414501273164811,0.6991049836950715
1731474143.8395295,-0.3114404082298279,0.37750130891799927,-9.98075008392334,-0.02912286463615881,-0.04841416204110751,-0.014953164571656371,2.2266555912269905,8.415278083046179,0.6965369755841107
1731474143.8895874,-0.29066282510757446,0.38888999819755554,-10.001361846923828,-0.026194975254031812,-0.05170602617288489,-0.015003964924976645,2.219356682567089,8.416000676171674,0.6932520996582306
1731474143.939539,-0.31284046173095703,0.36997202038764954,-10.00731372833252,-0.02328979144383009,-0.054939731030906734,-0.015046778762590978,2.2119905652004834,8.416590334248388,0.6899272397737551
1731474143.9893997,-0.27976566553115845,0.3753986358642578,-10.026233673095703,-0.020419857125863958,-0.058096550679898155,-0.015082117418082228,2.2046083199811157,8.417036539657243,0.6865821867805663
1731474144.0392823,-0.2954639196395874,0.3394887149333954,-9.958551406860352,-0.017597464038793042,-0.06115807698308168,-0.015110688338080007,2.1986639070325005,8.417259943182563,0.6839760821129307
1731474144.089266,-0.5322554707527161,-0.19363191723823547,-10.011695861816406,-0.014834401735234126,-0.06410576982563908,-0.015133306744951813,2.1912005800317926,8.417402198220657,0.680552391664405
1731474144.139285,-0.4975226819515228,-0.47324222326278687,-10.109478950500488,-0.012141090213972914,-0.06691886775530839,-0.015150859901293626,2.1858159908604704,8.41728364607519,0.6779210422879726
1731474144.1902807,-0.6517626047134399,-0.1517183631658554,-10.05496883392334,-0.00952534195994954,-0.06957130014330565,-0.015164650837903028,2.1781728505008164,8.417084784196666,0.6743525229732489
1731474144.2401178,-0.7958483099937439,-0.4603233337402344,-10.047149658203125,-0.006991292742308338,-0.07203028575772347,-0.015176775970451173,2.1730977584897637,8.416603912112356,0.6717187769407311
1731474144.2899477,-0.3774668574333191,0.1904527246952057,-9.920002937316895,-0.004538835679176919,-0.07425754926714423,-0.015189943283919241,2.1656834878866835,8.41605210668866,0.6681833934928362
1731474144.3399312,-0.7103548049926758,-0.2533815801143646,-10.023809432983398,-0.0021641573890725145,-0.07621190154438587,-0.015206832169829676,2.16094138509988,8.415184104740591,0.665515088352697
1731474144.389945,-0.5084047317504883,0.20593859255313873,-9.930323600769043,0.00013908153624962087,-0.07785181740907932,-0.015229589397885133,2.153509389530883,8.414246015644595,0.6618830209042559
1731474144.4399543,-0.6116470098495483,0.06604569405317307,-9.929553985595703,0.0023790829805067676,-0.07913734415519738,-0.015259638935993861,2.149308501233056,8.412973879169435,0.6592166772153001
1731474144.489831,-0.5259138345718384,0.24936124682426453,-9.96333122253418,0.004565560207253507,-0.08003166407630428,-0.01529755189525556,2.145420458780075,8.411497887440829,0.6565623598167191
1731474144.5398407,-0.5633005499839783,0.1612505167722702,-9.892698287963867,0.0067092462497453315,-0.08050235922685822,-0.0153429746967178,2.1381323698602266,8.409960128984787,0.6528295601183296
1731474144.5897121,-0.5227437615394592,0.1753193736076355,-9.91405963897705,0.008821428737889617,-0.08052197290018047,-0.015394629037141604,2.1308913389242385,8.408227799239679,0.6490727061683177
1731474144.6397834,-0.530639111995697,0.1455938071012497,-9.948212623596191,0.010913564494659559,-0.08006793623179236,-0.015450310448106167,2.123636992406447,8.406285296540842,0.6452574984311071
1731474144.6897333,-0.4877649247646332,0.19532594084739685,-9.93302059173584,0.012996925078021172,-0.0791222463346115,-0.015507052903922425,2.1202659006448727,8.403992437803,0.642583769535575
1731474144.7396362,-0.4850020408630371,0.15887004137039185,-9.961091995239258,0.015082237077468775,-0.07767125074045284,-0.015561446753561942,2.113167079353568,8.401661064632664,0.6387145017446219
1731474144.7895703,-0.042006008327007294,0.42955347895622253,-9.968608856201172,0.017178956235755192,-0.07570575589910593,-0.015609915540287091,2.106127897221068,8.399145739085302,0.6348172230550087
1731474144.8395107,0.20982344448566437,0.5299987196922302,-9.996824264526367,0.0192933281342241,-0.07322181037624273,-0.01564896719867227,2.1028849048845344,8.396275265010546,0.6321351604483062
1731474144.8894217,-0.2961362600326538,0.27400559186935425,-10.028383255004883,0.021425870813961134,-0.07022180091497426,-0.015675486094097944,2.0959810798916716,8.39338678482986,0.6281593342492803
1731474144.9395008,-0.07620701938867569,0.45252323150634766,-9.962984085083008,0.02357086324657942,-0.0667145296775759,-0.015686979749939593,2.0931528397288233,8.3901531711131,0.6254740378318328
1731474144.989377,-0.3626199960708618,0.24273060262203217,-10.05359172821045,0.025718212942300266,-0.06271415943089978,-0.01568164797277724,2.0864477415848905,8.386939920778438,0.6214423980326119
1731474145.0394049,-0.1496284306049347,0.48473837971687317,-10.041500091552734,0.027855452674677778,-0.058239171071420306,-0.01565841072821227,2.0840986739613894,8.383393858937266,0.6187737613117716
1731474145.0892012,-0.3409866988658905,0.2217046469449997,-10.007319450378418,0.02996884122071912,-0.05331174065608852,-0.015617030564406328,2.0776111398029284,8.379898261918896,0.6146849506136448
1731474145.1393504,-0.3409866988658905,0.2217046469449997,-10.007319450378418,0.03204407781030805,-0.04795701121009335,-0.015558077916938423,2.075715971844025,8.376052565316664,0.6119961266807346
1731474145.1393504,-0.19522902369499207,0.4383619427680969,-10.02239990234375,0.03406694528887512,-0.042202122503781934,-0.015482680173354666,2.075673577273703,8.376027788816387,0.6119683096931458
1731474145.1891997,-0.3174585700035095,0.26658883690834045,-9.997493743896484,0.036023553752341377,-0.03607579195300471,-0.015392332437162929,2.0694542490913066,8.372322916466437,0.6078396526932411
1731474145.2401588,-0.2567730247974396,0.41878947615623474,-9.975645065307617,0.037900240957870826,-0.029608483063048877,-0.01528877516345619,2.06312968639986,8.368415239328598,0.603539185941219
1731474145.290124,-0.31867489218711853,0.322895348072052,-10.004502296447754,0.03968369584829577,-0.022832376734608955,-0.015173812415391228,2.0570360383542514,8.364523941954356,0.5992911080888899
1731474145.3400424,-0.2900391221046448,0.4151308536529541,-9.99188232421875,0.04136127352881021,-0.015781134321251777,-0.015049187274607223,2.0562565482048556,8.360391476333824,0.5966679745910676
1731474145.390102,-0.2900391221046448,0.4151308536529541,-9.99188232421875,0.04292120795406926,-0.008489734070114515,-0.014916586666463299,2.050421906676518,8.356405515389701,0.5923419315247561
1731474145.390102,-0.331870973110199,0.35072141885757446,-9.961592674255371,0.04435271894214177,-0.000994323682599498,-0.014777624788344209,2.0503854158744397,8.356380285831728,0.5923145035821411
1731474145.4399805,-0.31109046936035156,0.4003080129623413,-9.982954025268555,0.04564613236881247,0.006668110213438398,-0.01463373115331526,2.050279316325017,8.352242211032948,0.5897514384266392
1731474145.4899025,-0.3297779858112335,0.40445318818092346,-9.977746963500977,0.04679303388457062,0.014460192703342385,-0.01448606362597191,2.044764555432088,8.348289694727827,0.5853779662467055
1731474145.5398126,-0.3312694728374481,0.4171616733074188,-9.975252151489258,0.04778635600954684,0.02234442305986035,-0.014335525180519147,2.039344599445298,8.344366285374889,0.5809494462890893
1731474145.589731,-0.3312694728374481,0.4171616733074188,-9.975252151489258,0.04862040421465373,0.030283293332132265,-0.014182807905160532,2.04017372123284,8.340352882292395,0.5784327534857201
1731474145.589731,-0.3365127444267273,0.42672958970069885,-9.98169231414795,0.04929086024438192,0.038239461958742435,-0.01402841282497544,2.0401401628470763,8.340328006239073,0.5784036726537858
1731474145.6397784,-0.6444383859634399,0.252627432346344,-9.986760139465332,0.04979502952833262,0.046176129803440394,-0.013872690010946898,2.0350016813519476,8.336530843230678,0.5738773262009533
1731474145.6896195,-0.5891392230987549,0.3251998722553253,-9.954066276550293,0.050132804312737964,0.054057799272917276,-0.013715881522158009,2.030142632190201,8.332972275961676,0.5694558469101094
1731474145.739691,-0.7718563675880432,0.09749940782785416,-9.974160194396973,0.05030800968510148,0.061851274614115985,-0.013558088734208025,2.0252878979248785,8.329469854671185,0.5648901521480576
1731474145.7895942,-0.46285444498062134,0.407083123922348,-9.982929229736328,0.050329046175653584,0.06952642154885177,-0.013399223102721486,2.02741713979834,8.325955959283968,0.5624463251763112
1731474145.839546,-0.46285444498062134,0.407083123922348,-9.982929229736328,0.05020813693916356,0.07705603842421396,-0.013239065802997035,2.022917398564073,8.322808805452384,0.5578408962622385
1731474145.839546,0.17480438947677612,0.5993920564651489,-9.956948280334473,0.04995905333475654,0.08441463017045019,-0.0130773599420164,2.0228887780306275,8.322789130813778,0.5578110759293213
1731474145.8895202,0.17480438947677612,0.5993920564651489,-9.956948280334473,0.04959355364278186,0.09157685396080528,-0.012913778863860479,2.0240533830315717,8.31967669634422,0.5554415788545253
1731474145.8895202,-0.4296962022781372,0.3416212499141693,-10.036373138427734,0.04911844636896557,0.09851673193925203,-0.012747883303406737,2.024018994401904,8.319653846698928,0.5554040363231497
1731474145.9394314,-0.10667605698108673,0.5735830664634705,-9.944799423217773,0.04853591861861199,0.10520811935646847,-0.012579257301481413,2.0198593966772007,8.316981172492019,0.5507809281303077
1731474145.9893925,-0.4261827766895294,0.25164923071861267,-9.998679161071777,0.04784609251811968,0.11162576823429274,-0.012407637867487695,2.020479912293476,8.314355721332626,0.5484352983197723
1731474146.0393891,-0.4261827766895294,0.25164923071861267,-9.998679161071777,0.047048988422634636,0.11774639823694691,-0.012232884640328305,2.0165753635240025,8.312218582521648,0.5437305732192089
1731474146.0393891,-0.1757666915655136,0.5858380794525146,-10.030649185180664,0.046145493774150614,0.1235495996022655,-0.012055028797131577,2.0165489218348527,8.312204912994257,0.5436981112858902
1731474146.0892906,-0.36952340602874756,0.26452311873435974,-9.984543800354004,0.045137428232308756,0.12901778400840558,-0.011874435899660326,2.012825626323347,8.310409582516334,0.5390446001269545
1731474146.1392066,-0.2180897742509842,0.5275964140892029,-9.984308242797852,0.0440269532964364,0.13413549357557927,-0.011691809857281993,2.0091697340381027,8.308919454851067,0.5343081402772034
1731474146.1892066,-0.35027265548706055,0.3020928204059601,-9.998504638671875,0.04281628907600312,0.13888918489995944,-0.011508015214093524,2.005621995911068,8.307769398623574,0.5295427601855082
1731474146.2392662,-0.24522694945335388,0.4789474606513977,-9.97572135925293,0.04150778998870047,0.14326733529618502,-0.011323937961428113,2.0081781515817934,8.306720813590848,0.5273296640992279
1731474146.2900531,-0.32880857586860657,0.3587845265865326,-9.992473602294922,0.040104011731906086,0.14726046394553446,-0.011140441781139024,2.0048567780145787,8.306279905038721,0.5224497482914447
1731474146.3401139,-0.32880857586860657,0.3587845265865326,-9.992473602294922,0.038607798641540896,0.15086115740670095,-0.010958351437616773,2.0062851981040346,8.305967036296696,0.5203055220721371
1731474146.3401139,-0.28920209407806396,0.4533703923225403,-9.996732711791992,0.03702243712844518,0.15406415342634522,-0.010778475472703324,2.006266425754761,8.305967825495337,0.5202760705156307
1731474146.3900425,-0.32036682963371277,0.38436904549598694,-9.975886344909668,0.03535171531017662,0.1568662599513612,-0.010601636459844691,2.003256599015317,8.306289906060096,0.5154724036558311
1731474146.4399643,-0.3222068250179291,0.4288286566734314,-9.992498397827148,0.033599850118349386,0.1592660799969925,-0.01042863768689364,2.0002959137951515,8.307011204432396,0.5105833145984746
1731474146.4898868,-0.3282969295978546,0.4256960153579712,-9.982223510742188,0.031771481457656535,0.16126383197346178,-0.010260209974572772,1.9974356093611307,8.30812720754706,0.505699713340958
1731474146.5398424,-0.3282969295978546,0.4256960153579712,-9.982223510742188,0.02987173098845812,0.16286124278644376,-0.010096995072145157,2.000138544585193,8.30938106720953,0.5037491004903784
1731474146.5398424,-0.3342430889606476,0.41899538040161133,-9.977553367614746,0.02790620876324183,0.1640614341087071,-0.009939532051741407,2.000121311494951,8.309392112269208,0.503717656123799
1731474146.5898244,-0.3272224962711334,0.4375999867916107,-9.990431785583496,0.025880976420886027,0.16486886640059983,-0.00978823801147665,2.001341490242186,8.311032124672218,0.5018465400280678
1731474146.6398294,-0.3272224962711334,0.4375999867916107,-9.990431785583496,0.023802481491065147,0.16528927160484597,-0.009643431939823543,1.998765105244615,8.313383230561703,0.49689477494430917
1731474146.6398294,-0.348007470369339,0.42216381430625916,-9.980985641479492,0.021677483872991798,0.1653295484097798,-0.009505388155766854,1.9987486564017956,8.313399772900386,0.4968627070553775
1731474146.6897447,-0.348007470369339,0.42216381430625916,-9.980985641479492,0.019513038997253592,0.16499771763731547,-0.009374345924835185,1.9962701026661565,8.316118585898645,0.49197251872420805
1731474146.6897447,-0.3311549723148346,0.43346843123435974,-9.981561660766602,0.017316512193153197,0.1643029331521455,-0.009250470829825374,1.996254692945737,8.316136922196069,0.4919417475167652
1731474146.7396312,-0.3635404109954834,0.40990909934043884,-9.988479614257812,0.015095535915784084,0.1632554569243166,-0.009133835857757358,1.9938022913447138,8.319280002793716,0.4869958408248744
1731474146.789546,-0.32311975955963135,0.4552238881587982,-9.978585243225098,0.01285793077696852,0.16186658437524204,-0.009024442581764618,1.991384531357772,8.322823810262932,0.48202788210391834
1731474146.8395026,-0.3543110489845276,0.4205108880996704,-9.987153053283691,0.010611620806929326,0.16014852463552678,-0.00892224080824298,1.9939256000607646,8.32649728493973,0.4803776235294218
1731474146.8894835,-0.33690303564071655,0.44204410910606384,-9.983466148376465,0.008364538825983604,0.1581142663882633,-0.008827133820151236,1.9915953529425858,8.330864557312355,0.47535163945243203
1731474146.939377,-0.33690303564071655,0.44204410910606384,-9.983466148376465,0.006124551034555075,0.15577748396031882,-0.008738987418653792,1.992310199499947,8.335299619989133,0.47381795136703947
1731474146.939377,-0.3456494212150574,0.4204249382019043,-9.974058151245117,0.0038993895227101565,0.15315246501751545,-0.008657628008276174,1.9922935194128266,8.335335820591945,0.4737811462504526
1731474146.9893372,-0.32335811853408813,0.44455331563949585,-9.994388580322266,0.0016965789759297418,0.15025406001442643,-0.00858282678252266,1.9900304931464237,8.34043851274559,0.4687723550972597
1731474147.0392928,-0.3419918715953827,0.4153200089931488,-9.980100631713867,-0.0004766364417128463,0.14709765466979302,-0.00851431430976803,1.987758013524371,8.345935218261312,0.46371806747354644
1731474147.0892532,-0.3419918715953827,0.4153200089931488,-9.980100631713867,-0.0026133462852723937,0.14369915078791662,-0.008451811709043426,1.9854781431800272,8.35180334726619,0.45863475090742617
1731474147.0892532,-0.33232659101486206,0.44813141226768494,-9.970808982849121,-0.004706978195374468,0.14007494606304477,-0.008395012097541177,1.9854635407803563,8.351842032769975,0.4586021717846068
1731474147.1392598,-0.3414287269115448,0.42118310928344727,-9.989472389221191,-0.006751301086218306,0.13624183345748944,-0.008343536336279968,1.9867877533550704,6.2064207695244145,0.4573203237410634
1731474147.1892078,-0.32821929454803467,0.43675288558006287,-9.983247756958008,-0.008740462954039782,0.13221684679989829,-0.008296944761928226,1.984515260492389,6.196642236042205,0.45223064677881547
1731474147.239118,-0.3308393657207489,0.41653814911842346,-9.989508628845215,-0.010669038835893804,0.12801717698258452,-0.008254799981538065,1.9822173276959112,6.187182201790921,0.4471175080489873
1731474147.2890556,-0.3233639597892761,0.44228991866111755,-9.99915599822998,-0.012532084054714857,0.12366013481666836,-0.00821672618713978,1.9825119280166514,5.0981059454329065,0.4460234738580225
1731474147.34003,-0.3317860960960388,0.42187803983688354,-9.981391906738281,-0.014325177387439368,0.11916308029581657,-0.008182449422366555,1.980121055916592,5.080906239418621,0.44078308166671226
1731474147.389953,-0.3199501931667328,0.43816444277763367,-9.984302520751953,-0.016044433575991845,0.11454332940320121,-0.008151791448055954,1.9777397471961158,5.064345839098069,0.43562698838562164
1731474147.4399762,-0.3348630368709564,0.410004585981369,-9.995926856994629,-0.017686495899126756,0.10981809108728233,-0.008124621176432785,1.975312651980252,5.048041590293857,0.4304428184544105
1731474147.4898822,-0.31965500116348267,0.4335654675960541,-9.987404823303223,-0.019248518599158597,0.10500444659823151,-0.00810084211301102,1.9748491205370566,4.390696484152355,0.4296435297840308
1731474147.5398347,-0.33629316091537476,0.42236918210983276,-9.98745346069336,-0.02072814254291105,0.10011931934966715,-0.008080413233738407,1.97234690001929,4.37032768250464,0.4244599502885212
1731474147.5897639,-0.32917505502700806,0.4344494938850403,-9.999245643615723,-0.022123462563626923,0.09517939435968947,-0.008063348642275817,1.9692280421243413,3.9435007424165396,0.42379783938073173
1731474147.6397233,-0.3516184091567993,0.42074695229530334,-9.990751266479492,-0.023432967921443303,0.09020102477641687,-0.008049722160191917,1.9665960603345793,3.9208016492346793,0.41860289147038643
1731474147.6896822,-0.3454195261001587,0.43337929248809814,-9.982441902160645,-0.024655449280339164,0.08520016956336422,-0.008039673672189544,1.9639104168514763,3.898373120690539,0.41339998308065545
1731474147.739603,-0.3505779504776001,0.42843934893608093,-9.977140426635742,-0.025789908208641934,0.08019234412846396,-0.00803335748641875,1.9610347073258316,3.5966230124977803,0.41291994227008344
1731474147.7895708,-0.3442579209804535,0.44717955589294434,-10.014467239379883,-0.026835518680108885,0.07519254651839648,-0.008030885947791848,1.9581974714246486,3.572568691046715,0.4076777125087217
1731474147.839557,-0.2940550446510315,0.5944892764091492,-9.976007461547852,-0.02779168990558018,0.07021501483061765,-0.00803236574256841,1.9524459635636309,3.354072481168928,0.40731337667087497
1731474147.889536,-0.20518560707569122,0.54371577501297,-9.946371078491211,-0.028658357675844223,0.06527264969682682,-0.008037904991316711,1.9494356854681654,3.3292099593853988,0.4020755986080579
1731474147.939503,-0.43645983934402466,0.24578015506267548,-9.995434761047363,-0.02943634545578116,0.06037670397208758,-0.008047468897614027,1.94197226363095,3.164063437600687,0.4018271474040356
1731474147.9893682,-0.2412494719028473,0.5809628963470459,-10.00178050994873,-0.030127269903389556,0.05553743612069331,-0.008060816910815291,1.9387759750155114,3.1388321787720086,0.39661013809310125
1731474148.0393229,-0.4226839542388916,0.305077463388443,-9.972904205322266,-0.03073309825988614,0.050764872373404366,-0.008077654698117307,1.9354830761441701,3.1135698865453887,0.3913391857112724
1731474148.0892675,-0.17636924982070923,0.6643232107162476,-9.994385719299316,-0.031255982584480584,0.04606872813303157,-0.008097743017646935,1.9321219471095872,3.0884972559602244,0.3860624819370634
1731474148.1391916,-0.017241640016436577,0.4965020716190338,-10.021503448486328,-0.031698790414787646,0.04145777012144764,-0.008120902880929351,1.927716071236682,2.9615604783444516,0.38615043104849167
1731474148.1891968,0.08745230734348297,0.6030604839324951,-10.011589050292969,-0.03206651911629517,0.03693913137809271,-0.008147112753365115,1.9235565383918225,2.8633100281659027,0.38624110867710254
1731474148.2391913,-0.9778934717178345,0.07814757525920868,-9.990920066833496,-0.032366950342958695,0.032518433378185246,-0.008176626059430635,1.919933736738729,2.837569167215902,0.3809545166625258
1731474148.289004,-0.13256236910820007,0.6477596163749695,-9.916261672973633,-0.03260845722344117,0.028201033802022036,-0.008209846065896573,1.9162455093794852,2.812013045614206,0.3756699795069699
1731474148.3390393,-0.5607509613037109,0.18505153059959412,-10.030675888061523,-0.0327972734947677,0.023992969457624986,-0.00824700744645782,1.9124576018725556,2.786397937154511,0.37033918708918867
1731474148.3899746,-0.24053697288036346,0.6703055500984192,-9.993346214294434,-0.032937341091929286,0.01990072389482268,-0.008288088123482338,1.9074941999238875,2.709635602648951,0.37068205030450124
1731474148.4399455,-0.4149532914161682,0.18424800038337708,-9.922703742980957,-0.03303140248895961,0.015930683990622717,-0.008332977819149155,1.903526778414837,2.6839001670921556,0.36533976705105486
1731474148.4898977,-0.32263457775115967,0.564312756061554,-10.011099815368652,-0.03308157754339842,0.012089003464059205,-0.008381458298839165,1.8984108901692118,2.6265084916422805,0.3658896682119992
1731474148.539939,-0.4096713662147522,0.33358514308929443,-9.978320121765137,-0.03308953637878727,0.008381677309895141,-0.008433095626474187,1.8942694232214177,2.6008516923048535,0.360543426958376
1731474148.5898108,-0.33266475796699524,0.4822407364845276,-9.983787536621094,-0.03305648667317964,0.004814425656349853,-0.008487351726879505,1.888969736487369,2.5543845932572644,0.3612300415753396
1731474148.6398258,-0.36633315682411194,0.4079146981239319,-10.017582893371582,-0.0329832058133236,0.0013924827055099953,-0.008543731898802745,1.8846566318268936,2.5288420580197934,0.35588228597037286
1731474148.6896837,-0.37975364923477173,0.41329842805862427,-9.984230041503906,-0.032870173365748885,-0.001879480111767449,-0.008601864778992043,1.8791764482286866,2.492199410638915,0.35669180573570775
1731474148.7397082,-0.3236582279205322,0.45023560523986816,-9.957239151000977,-0.032717654394634775,-0.004997344837314502,-0.008661514577197766,1.8746851640659559,2.46676224822088,0.35133307508544415
1731474148.7895982,-0.4094269871711731,0.40006208419799805,-10.010847091674805,-0.032525754336230825,-0.007957541326709406,-0.008722459393719188,1.8689965302770195,2.438616821823894,0.3522602630999484
1731474148.8395123,-0.3341081142425537,0.49790847301483154,-9.974881172180176,-0.03229445097164639,-0.010757116301339601,-0.008784415516303903,1.8631950691461674,2.4160436965945187,0.35319049364755106
1731474148.8895173,-0.40162166953086853,0.3858509361743927,-9.979796409606934,-0.03202357754364328,-0.013393847282882346,-0.008847085924802121,1.8584445791440716,2.3910603637742907,0.3478454363606031
1731474148.9394271,-0.33520281314849854,0.49349677562713623,-9.995915412902832,-0.03171283887176274,-0.01586629030355078,-0.008910171264201999,1.85361574147059,2.3660478117436456,0.3424797412221792
1731474148.989394,-0.39363962411880493,0.3769837021827698,-9.9759521484375,-0.03136187797417046,-0.018173724480518155,-0.008973358079501451,1.8487187261480034,2.3410470975833406,0.33710338963499403
1731474149.0393794,-0.32641667127609253,0.49767252802848816,-9.984671592712402,-0.03097035173717989,-0.02031606952511806,-0.00903633212044724,1.842586182684006,2.325757020175635,0.3383671996408572
1731474149.0893095,-0.39658495783805847,0.40310895442962646,-9.991823196411133,-0.03053800383640494,-0.022293862065818168,-0.00909877398310544,1.837529228774964,2.3009635459748434,0.3329892656372588
1731474149.139286,-0.31508591771125793,0.49019932746887207,-9.974615097045898,-0.03006471782570396,-0.024108290254381246,-0.009160363161246934,1.8323863181164932,2.276061379694366,0.3275775346643702
1731474149.1892076,-0.3865351676940918,0.38851404190063477,-9.984769821166992,-0.029550567575887372,-0.02576119080269293,-0.00922078094700426,1.8260255617359662,2.2511635435340147,0.3290685967713184
1731474149.2392628,-0.3284973204135895,0.4553205966949463,-9.989445686340332,-0.028995861717769533,-0.027254931587311168,-0.009279695306108015,1.8207123887010415,2.2260717585209977,0.3236374211275186
1731474149.2891707,-0.36882221698760986,0.4021817743778229,-9.976908683776855,-0.028401153009501738,-0.02859224605531425,-0.009336771819016603,1.8153500455174756,2.201016116703495,0.31820592838391987
1731474149.3390863,-0.36882221698760986,0.4021817743778229,-9.976908683776855,-0.02776721093458291,-0.02977609868458308,-0.009391679535279134,1.8099154181238484,2.1758768124148373,0.31274873527787656
1731474149.3390863,-0.339903861284256,0.46282950043678284,-9.997218132019043,-0.027094964525765527,-0.03080960328480098,-0.009444071529737022,1.809882381446642,2.1757247390231433,0.312715701321418
1731474149.3890233,-0.36403632164001465,0.4146801829338074,-9.983406066894531,-0.026385488406730388,-0.031696079193988126,-0.009493611970209821,1.8032529404505426,2.150683818232124,0.3145872436297127
1731474149.4399798,-0.3282560706138611,0.4430561661720276,-9.990992546081543,-0.025640064702997713,-0.03243918455019536,-0.009540034862023511,1.797540835781168,2.1247756779410434,0.308992060977947
1731474149.489963,-0.34830936789512634,0.4099680185317993,-9.985173225402832,-0.02486025215521741,-0.0330429241929328,-0.009583158418051841,1.7918896798247077,2.099350754657638,0.3034949382221988
1731474149.5398574,-0.3367198407649994,0.4484230577945709,-9.979958534240723,-0.02404792706815862,-0.033511571232985586,-0.009622859722550156,1.7849889878958833,2.0737695963102305,0.3055238636017507
1731474149.5898209,-0.3511849343776703,0.42940324544906616,-9.9827299118042,-0.0232052705545866,-0.033849648103595656,-0.00965903596492074,1.7792461853970882,2.0483463467682386,0.3000576239153252
1731474149.639785,-0.3449540138244629,0.44740235805511475,-9.993281364440918,-0.0223347018847126,-0.03406196693662189,-0.009691581408985312,1.7734205943343662,2.0227226112435686,0.29454238028553403
1731474149.689714,-0.348348468542099,0.4309273660182953,-9.968509674072266,-0.02143880686070079,-0.03415365343494638,-0.009720397403606635,1.7663824333475793,1.9970488044141421,0.2968636537643475
1731474149.7397473,-0.3465837836265564,0.4344233572483063,-9.99363899230957,-0.02052029027832559,-0.0341301134001063,-0.00974538997488181,1.7604119739490183,1.971130563925985,0.29131715015870147
1731474149.7896135,-0.35121646523475647,0.43669408559799194,-9.989757537841797,-0.019581944766516642,-0.03399696566428286,-0.009766465824100984,1.7532554271191219,1.9453086148609569,0.2937483371697325
1731474149.839714,-0.3436480164527893,0.4485608637332916,-9.986307144165039,-0.018626621721686318,-0.03376000213616158,-0.009783574211580028,1.745977397152743,1.9193061451371387,0.29612520376831775
1731474149.8895714,-0.3596985638141632,0.44395580887794495,-9.989258766174316,-0.01765720254626907,-0.03342520379446369,-0.009796740578482701,1.7398873496282177,1.89331834970023,0.2906325628809304
1731474149.9394937,-0.3440133035182953,0.440993994474411,-9.989282608032227,-0.016676563448597553,-0.0329987574323336,-0.009806057468351882,1.7337206233588396,1.8671034050945912,0.2850849604649314
1731474149.9894161,-0.3629949986934662,0.4327376186847687,-9.978323936462402,-0.015687537803386296,-0.03248701081464783,-0.009811665616990175,1.7275406540538438,1.8409219151943634,0.27953726866448986
1731474150.0394707,-0.35161831974983215,0.4358040392398834,-9.977865219116211,-0.014692883047774129,-0.03189637962367483,-0.009813714868573926,1.7201665661752805,1.8145735114501487,0.28229301520093153
1731474150.0892787,-0.3588835597038269,0.44195646047592163,-9.983288764953613,-0.013695250290119823,-0.031233271094652917,-0.009812309909445921,1.7139157871269382,1.7882800353463006,0.2767518497900345
1731474150.1392915,-0.3525645434856415,0.4376795291900635,-9.988021850585938,-0.012697171097615038,-0.030504061831945983,-0.009807499780107438,1.707589533249641,1.7617306815864264,0.2711484958058763
1731474150.1892414,-0.3610277473926544,0.4366692900657654,-9.989734649658203,-0.011701059265887527,-0.029715094612542646,-0.009799324055289247,1.700157752929491,1.7352937115902953,0.27417778347738136
1731474150.239233,-0.35390523076057434,0.44004589319229126,-9.980785369873047,-0.010709206700469629,-0.028872653965709268,-0.009787858588378029,1.693761153473479,1.708582349266691,0.268569408682956
1731474150.2891834,-0.34808841347694397,0.4356316924095154,-9.990507125854492,-0.009723787225651297,-0.027982934927410913,-0.009773218869298798,1.6873744363934577,1.681947724552537,0.2629676514189172
1731474150.3391497,-0.3495331108570099,0.4318283796310425,-9.987534523010254,-0.008746891771805024,-0.0270520132465022,-0.009755549114701424,1.6798654740030428,1.65524227633149,0.2662286907424354
1731474150.3889644,-0.34229859709739685,0.43807172775268555,-9.979005813598633,-0.007780575291695449,-0.0260858065224568,-0.009735021627763548,1.6734049462999043,1.628381664444361,0.26060686857760595
1731474150.4399717,-0.35194361209869385,0.43843650817871094,-9.987793922424316,-0.0068268818486615455,-0.02509005026321041,-0.009711820534043483,1.6657234960764717,1.601118986246991,0.26387098025558914
1731474150.4899325,-0.3497510850429535,0.43838438391685486,-9.9824857711792,-0.005887834153734067,-0.02407030471187846,-0.009686118538763087,1.6580733411347277,1.5741130578223081,0.26714316922187764
1731474150.5399475,-0.3440338671207428,0.4448617100715637,-9.980924606323242,-0.004965402938409279,-0.023031969201042973,-0.009658071962754646,1.6515472287452861,1.5470654697895718,0.261543201314558
1731474150.5898569,-0.3435697555541992,0.4436219334602356,-9.993441581726074,-0.004061499104942768,-0.02198029558806445,-0.009627824038804,1.6450665320762436,1.5201967384022423,0.2559679591837384
1731474150.6397717,-0.3434273302555084,0.4445556402206421,-9.981748580932617,-0.003177993620704766,-0.020920401210879482,-0.009595521756838012,1.6375113332148294,1.4931858837149434,0.25951764605578387
1731474150.6896904,-0.34205594658851624,0.4357181191444397,-9.985618591308594,-0.0023167284320209187,-0.019857259168734848,-0.00956133372530608,1.6309852119215105,1.4661220342438008,0.253924077460926
1731474150.7397027,-0.3368449807167053,0.4365089237689972,-9.985532760620117,-0.0014795151030946212,-0.01879565235323377,-0.009525440821062233,1.623361783010084,1.4388773360237939,0.25753021685757393
1731474150.7896504,-0.3370206654071808,0.44003918766975403,-9.988101959228516,-0.0006681423358794698,-0.017740119203726392,-0.00948802573245341,1.616802850518072,1.4116466286425005,0.2519224892315397
1731474150.839731,-0.34878137707710266,0.4350849390029907,-9.995030403137207,0.00011562372800507942,-0.01669492887234478,-0.009449290292796335,1.6092018221604325,1.3843812994964397,0.25562730281552587
1731474150.8894904,-0.34958556294441223,0.43955448269844055,-9.992443084716797,0.0008700863316240717,-0.01566407934527712,-0.009409491053996445,1.602667416834522,1.3571987866633763,0.2500480995506648
1731474150.9395454,-0.33814793825149536,0.4347154200077057,-9.992836952209473,0.0015936863921533848,-0.014651294862370118,-0.00936896664203277,1.596068980876133,1.3296991165149736,0.2443880794582757
1731474150.9894862,-0.3534073531627655,0.43426117300987244,-9.98823356628418,0.0022850275315932406,-0.013660017873215996,-0.00932813276469842,1.5895104245313372,1.3023101352195154,0.23873477633968485
1731474151.0393903,-0.35689619183540344,0.43784937262535095,-9.982269287109375,0.002942887030167169,-0.01269339876747139,-0.009287443408465702,1.5820609392767815,1.27504087173544,0.24287052231711945
1731474151.089344,-0.34376397728919983,0.4424741268157959,-9.984296798706055,0.003566257052741464,-0.011754302622210907,-0.009247334694733465,1.5755134221225195,1.2476012330353812,0.23722401208792734
1731474151.1394033,-0.34501925110816956,0.4349685609340668,-9.980411529541016,0.004154352794491221,-0.010845338336211992,-0.009208177984464713,1.5680306462472464,1.2201449926048047,0.24141272048080883
1731474151.1892505,-0.35001081228256226,0.4367660880088806,-9.98748779296875,0.00470656479809575,-0.00996887332423714,-0.009170262940987885,1.5615110602513802,1.1927100341669812,0.2357829338109366
1731474151.2393665,-0.35077399015426636,0.4410512447357178,-9.983784675598145,0.005222434115887997,-0.009127024701457275,-0.009133809296258918,1.554949086077504,1.165020325696878,0.2300828241785371
1731474151.2891529,-0.3346041738986969,0.4414082169532776,-9.978825569152832,0.0057016567030363004,-0.008321666006026823,-0.009098982688507895,1.5476501285867947,1.1377043152042006,0.2345563148521393
1731474151.339152,-0.3532467186450958,0.44168803095817566,-9.982125282287598,0.0061440599524666606,-0.007554456000894384,-0.009065887515991924,1.5411370482657731,1.1100838197762388,0.22888519773462745
1731474151.38902,-0.3444956839084625,0.44681721925735474,-9.989038467407227,0.0065495791957221675,-0.006826864405971283,-0.009034558795978243,1.5338371372689608,1.0827241189116126,0.23342825462962513
1731474151.4390323,-0.3412024676799774,0.45108357071876526,-9.988518714904785,0.006918266488914463,-0.006140198954700466,-0.00900499268435681,1.5273327019327925,1.054992877017511,0.22774801142496306
1731474151.4888942,-0.35135704278945923,0.44728460907936096,-9.988907814025879,0.00725029107190282,-0.005495640955556464,-0.008977194957843488,1.5200742991973222,1.0276062513899717,0.2323608844364435
1731474151.5399947,-0.3428148031234741,0.43845781683921814,-9.985496520996094,0.007545932546356641,-0.004894254911316429,-0.008951202196792392,1.5134668665451498,0.9992747905779484,0.22657028609116123
1731474151.589838,-0.35130253434181213,0.43799132108688354,-9.989453315734863,0.007805589712054268,-0.004336944075709525,-0.008927073733337568,1.507061391988243,0.9717150563135111,0.22091734111372985
1731474151.6397727,-0.34227749705314636,0.4340595602989197,-9.994230270385742,0.008029784814662457,-0.0038243836034542213,-0.008904887799262733,1.4999654630762944,0.9442196828228703,0.22575410992622386
1731474151.6898038,-0.345090389251709,0.4354267120361328,-9.992863655090332,0.008219150248431614,-0.0033569776150298085,-0.008884762261026741,1.4935552939987833,0.916468784445172,0.2200740430592826
1731474151.7628806,-0.3515869379043579,0.4293767511844635,-9.992466926574707,0.008374411918745018,-0.0029348443951483427,-0.00886687791443655,1.483545799695688,0.8762074113093118,0.22237115932012413
1731474151.7896523,-0.3438718020915985,0.40278133749961853,-9.977875709533691,0.008496390705027381,-0.0025577850881245917,-0.008851464530723158,1.4801337035764215,0.8613304900866885,0.21932969410791134
1731474151.839626,-0.3230764865875244,0.15276339650154114,-9.979936599731445,0.00858598638925215,-0.002224961814162723,-0.008838736085412954,1.473120330093263,0.8338014475315884,0.2242865646569096
1731474151.8895721,-0.22208143770694733,0.187400683760643,-10.070066452026367,0.008643991195031038,-0.0019339522750260237,-0.008828896244624827,1.466812013857038,0.8061431501338587,0.21864756648960437
1731474151.939552,-0.3626958727836609,-0.3957504630088806,-10.0033597946167,0.008670743431030475,-0.0016791505743380779,-0.008822358212145838,1.460508082028803,0.7784047909464274,0.21297112851362418
1731474151.989412,-0.49128592014312744,-0.6028002500534058,-10.101073265075684,0.008666204746019233,-0.0014492823485260107,-0.00882003438435823,1.4537169878678915,0.7510566433455509,0.21819742559569247
1731474152.039409,-0.33004650473594666,0.15001556277275085,-9.991525650024414,0.008630729614382411,-0.001225077168843735,-0.008823466168969079,1.446840695431576,0.7234773971906998,0.22325442998285108
1731474152.0893848,-0.42409035563468933,-0.23452405631542206,-9.928579330444336,0.008565632947295898,-0.0009798924159745376,-0.008834624357988012,1.4405938197679988,0.6957314389634549,0.21761839074140932
1731474152.139399,-0.3635537326335907,0.16380023956298828,-9.96257495880127,0.008473049755412819,-0.0006829349288245447,-0.008855320520334085,1.4343604148940474,0.6679484306763639,0.21195308915601005
1731474152.1892323,-0.3265819549560547,0.03705446049571037,-9.926668167114258,0.008355594659612605,-0.0003020618559827199,-0.008886647939201704,1.428182881288083,0.6403199916307347,0.20629750432610494
1731474152.2392316,-0.34383344650268555,0.2610261142253876,-9.951214790344238,0.008216023125506983,0.0001943831042124849,-0.008928822098735047,1.4219791042551266,0.6124811401963816,0.2005765410105521
1731474152.2891235,-0.35642221570014954,0.23940710723400116,-9.95168685913086,0.00805693254075206,0.0008359964661372419,-0.008981264768597584,1.4155094442649492,0.5851367039440808,0.20626295916496576
1731474152.3392637,-0.35642221570014954,0.23940710723400116,-9.95168685913086,0.007880719292937327,0.0016491418236765107,-0.009042760002212526,1.4093488537680876,0.5573259963120271,0.20055708764319694
1731474152.3392637,-0.3735845685005188,0.305618554353714,-9.976515769958496,0.007689704723348723,0.0026563738418294907,-0.009111640114193575,1.4093039369875198,0.5571229153841611,0.20051533518131004
1731474152.389072,-0.3662432134151459,0.2762035131454468,-9.98367977142334,0.007486245535626728,0.0038762786848403003,-0.009185988451172276,1.4028953543893814,0.5300186604912124,0.20632424777323718
1731474152.4390504,-0.3853393793106079,0.2848801612854004,-9.992253303527832,0.007272804635742285,0.005323468334070415,-0.009263863817346098,1.396769659148926,0.5022260409923,0.20062773247767848
1731474152.4890246,-0.3745778203010559,0.2969180941581726,-9.987142562866211,0.007051995122515748,0.007008730403956019,-0.009343478641665846,1.3903571137618127,0.4748388432799693,0.20642449461676954
1731474152.539969,-0.36941108107566833,0.32635197043418884,-10.017279624938965,0.006826581972981644,0.008939243081308881,-0.00942329822600252,1.3841594556790136,0.44660377012778285,0.20063819912701128
1731474152.5898287,-0.3613957464694977,0.32036691904067993,-9.987659454345703,0.006599409669446623,0.011118693795604737,-0.009502111197902112,1.3781186021647909,0.4190313491377233,0.19495875756516884
1731474152.6398501,-0.3613957464694977,0.32036691904067993,-9.987659454345703,0.006373281760384453,0.01354739837134757,-0.00957904004495502,1.3718841242774862,0.3916445843338098,0.20093707511040557
1731474152.6398501,-0.3558109700679779,0.3377763330936432,-10.017905235290527,0.0061508592204189624,0.016222527523329013,-0.009653472408004212,1.3718410768759022,0.39144770159191655,0.20089659153191403
1731474152.6896672,0.11172740161418915,0.9410831928253174,-9.988750457763672,0.005934177196362845,0.019137825726775293,-0.009725031872058964,1.3658978383760476,0.3642557198272321,0.19528858949584266
1731474152.7397246,0.6022413969039917,1.6053311824798584,-9.950591087341309,0.0057225565238426465,0.02228117045204289,-0.009793544820835477,1.359677425813478,0.3369455833360336,0.2012892059166897
1731474152.7897217,0.45707929134368896,1.1785728931427002,-9.883322715759277,0.005508850137644756,0.02563011077902554,-0.009858766570992111,1.353684045752399,0.3095125642103379,0.19561525798328136
1731474152.8396256,0.18722468614578247,0.8254978060722351,-10.014012336730957,0.005276948119222437,0.02914962207297928,-0.009919988430435577,1.347688158490475,0.2820748504799794,0.1899013925073036
1731474152.889567,-0.2138817459344864,0.33085402846336365,-10.020838737487793,0.005003274303546862,0.032795369701795966,-0.009976067869765164,1.3417319574874838,0.25483728592957766,0.18418837396351503
1731474152.939633,-0.84199458360672,-0.42900434136390686,-10.077438354492188,0.00466177299493339,0.0365208316078503,-0.01002601415989325,1.3357959725784931,0.22789039667960037,0.1905915046299821
1731474152.9894435,-1.1347620487213135,-0.6553553342819214,-10.159132957458496,0.004230428128809841,0.040285347182476054,-0.010069703132042602,1.3299000849955107,0.2010048553426408,0.18492152990839206
1731474153.0395005,-1.1347620487213135,-0.6553553342819214,-10.159132957458496,0.0036970995259789606,0.04406065079445251,-0.010108491156983725,1.3239237690081795,0.17412772646265956,0.191307354241981
1731474153.0395005,-0.5375619530677795,0.026560742408037186,-10.053828239440918,0.0030619011980774925,0.04783305988672649,-0.010145532114090436,1.3238781179436456,0.17392030220313084,0.19126349373373921
1731474153.0893981,-0.6419805884361267,-0.14039817452430725,-10.018117904663086,0.0023349767485285893,0.05160057537864487,-0.010185401305991763,1.3180162734407972,0.147336237134868,0.1856162775974549
1731474153.13939,-0.6419805884361267,-0.14039817452430725,-10.018117904663086,0.001532340201534081,0.05536821248287943,-0.010233199830065017,1.3120731470701241,0.12049514807312542,0.17986065137350782
1731474153.13939,-0.48468977212905884,0.17504572868347168,-9.904268264770508,0.0006731236537065447,0.05914498922174155,-0.010293734484043755,1.3120177972915883,0.12024574360661726,0.17980690950689315
1731474153.1893013,-0.5061772465705872,0.20886747539043427,-9.975037574768066,-0.0002217889990053626,0.0629419744593839,-0.010370927177000295,1.3061670363080709,0.09396092453478787,0.17411361600263692
1731474153.2392278,-0.504601240158081,0.35937514901161194,-9.961531639099121,-0.0011309253679791314,0.06676996934157421,-0.010467486897253138,1.3002420519252842,0.06751121463289383,0.1683238777731917
1731474153.2890863,-0.5235366225242615,0.4285810589790344,-9.942535400390625,-0.0020329909572241213,0.07063742455873667,-0.010584954584117524,1.2946940833992622,2.7357782035806455,0.17537763650087665
1731474153.3391986,-0.5182399153709412,0.41647854447364807,-9.95583724975586,-0.0029071010417816515,0.07454916096480663,-0.010723870361019709,1.2887433368341652,2.732127246648682,0.16957757965404766
1731474153.3890479,-0.5484158992767334,0.4480695128440857,-9.937871932983398,-0.0037328519428357736,0.07850584946396713,-0.01088384834510907,1.2831281920772242,4.239696605937333,0.1765987666149714
1731474153.4390175,-0.5478430390357971,0.4370619058609009,-9.939542770385742,-0.004490366048096852,0.08250412590085264,-0.01106363521940635,1.2771716388418437,4.248833260137166,0.17081456311514684
1731474153.4889638,-0.5263280868530273,0.4694240391254425,-9.992203712463379,-0.005160342962208155,0.08653698272062603,-0.011261229876271137,1.2716119229124583,5.220715438432497,0.1778228438854271
1731474153.5389593,-0.5467596054077148,0.46723413467407227,-9.985711097717285,-0.005724206050076706,0.0905941699534628,-0.011474147536373203,1.2656426097271258,5.238011471029965,0.172051882506218
1731474153.5898702,-0.551529049873352,0.4757702946662903,-9.996859550476074,-0.006164285221039303,0.09466257501808228,-0.011699771583014202,1.2600083890686313,5.9180465311814645,0.1789389934577277
1731474153.6398945,-0.5152885317802429,0.4587487578392029,-9.976001739501953,-0.006463943016795126,0.09872664031241055,-0.01193557170677547,1.253985481187808,5.941151960076666,0.17314352235757044
1731474153.6898081,-0.5710768699645996,0.47691261768341064,-10.003650665283203,-0.006607697995456855,0.10276884399177591,-0.012179146170691062,1.2485102265698793,6.442533826910916,0.18015289932761136
1731474153.7397523,-0.525538980960846,0.48766395449638367,-9.994609832763672,-0.006581326650960234,0.1067701527834483,-0.012428236478399367,1.2429898263447838,6.825553184313786,0.1869574632270339
1731474153.789613,-0.5084438323974609,0.5185731053352356,-9.965476989746094,-0.006371949322679652,0.11071033731590159,-0.012680751725032339,1.2369547286846316,6.855698829958348,0.181216005024404
1731474153.8396065,-0.5292466878890991,0.4623800218105316,-9.98769760131836,-0.005968213002663783,0.11456820916719544,-0.01293471011005349,1.23088875599605,6.8862032712348125,0.1754278270652041
1731474153.88953,-0.48913973569869995,0.46731847524642944,-9.979022026062012,-0.005360484016631598,0.11832199166462887,-0.013188149328122517,1.2248000423097287,6.91704274120738,0.16959874124180058
1731474153.9395475,-0.4685397744178772,0.5056860446929932,-9.99309253692627,-0.004540985109513219,0.12194980990085784,-0.01343913251153303,1.2194912368284632,7.223350793089668,0.17675197585280242
1731474153.9894257,-0.45702219009399414,0.4998912811279297,-9.956080436706543,-0.003503985161091953,0.1254300072133434,-0.013685789930622302,1.2141445878636732,7.469519573688484,0.1837020695431604
1731474154.0394197,-0.4022035002708435,0.5028836131095886,-9.970311164855957,-0.002246027773744135,0.12874125500666778,-0.01392627489348265,1.2080475288453145,7.504783824090664,0.17790076266426422
1731474154.089314,-0.42270535230636597,0.48164358735084534,-9.983999252319336,-0.0007661264403446648,0.13186271003174033,-0.01415868949339993,1.2019655438244097,7.540263484094302,0.17208241917892153
1731474154.1392968,-0.38456615805625916,0.5007065534591675,-9.960416793823242,0.0009341307907647889,0.13477428903274136,-0.014381101103358537,1.1958589699642843,7.576221163328326,0.1662046697424118
1731474154.1892097,-0.3837924003601074,0.4896668791770935,-10.00211238861084,0.002850602901781024,0.13745692824501105,-0.014591618109603096,1.189782686740016,7.612367051445753,0.16031548215145358
1731474154.2391903,-0.3806689977645874,0.47306615114212036,-10.001392364501953,0.0049766923457922685,0.13989278074378636,-0.014788494616778594,1.1836931384117027,7.648996528151776,0.15436725273090696
1731474154.2891269,-0.5227342247962952,0.9770021438598633,-9.972333908081055,0.007303637882541888,0.1420649745975871,-0.01497025831427205,1.1788204179489792,7.848041127532651,0.16202884228951
1731474154.3391964,-0.6536251306533813,1.1910713911056519,-9.957026481628418,0.009821372234909375,0.14395590106606093,-0.015135699702600305,1.1727706025311317,7.886538796428082,0.1560633711486692
1731474154.389024,-0.5680765509605408,0.5152410864830017,-9.884139060974121,0.012519842033765896,0.14554486748439968,-0.015283611830442191,1.1667668650739391,7.925281783508113,0.15007790307513058
1731474154.438984,-0.8518714904785156,1.0223649740219116,-10.114818572998047,0.01539014438976775,0.14680799167759068,-0.015412570357469712,1.1621426592527793,8.08617939517548,0.15787122630177347
1731474154.4890203,-0.5428992509841919,0.5303182005882263,-9.948053359985352,0.018425198392370983,0.14772018739111759,-0.015521198120116432,1.1561932872264782,8.126641620779983,0.15184020983263893
1731474154.4890203,-0.5428992509841919,0.5303182005882263,-9.948053359985352,0.021619644994182605,0.14825711367670621,-0.015608553515457138,1.1543305081764605,8.139455545114101,0.14993363906512416
1731474154.8706543,-0.253031849861145,0.3442539572715759,-9.981415748596191,0.024968529361740596,0.14839717292952648,-0.01567398163417515,1.1168472032553087,8.673355224174795,0.14577922681012154
1731474154.9205117,-0.23775433003902435,1.9156547784805298,-9.855184555053711,0.028465250611269033,0.14812215651286648,-0.015716705041112645,1.1131973427976098,8.745982596458457,0.15361706395392558
1731474154.9705315,-0.4001409411430359,0.5899046659469604,-9.77047061920166,0.0321000054153927,0.14741418730439365,-0.015735364628519034,1.1079633738192363,8.79038283330751,0.1475344204661113
1731474155.020408,-0.1947299689054489,1.112312912940979,-10.022409439086914,0.035859534089934926,0.14625264181961145,-0.015727499271969213,1.104515211771106,8.849505452687518,0.15529610959663637
1731474155.0704117,-0.1947299689054489,1.112312912940979,-10.022409439086914,0.03972749991658428,0.14461488677434367,-0.01568978324574508,1.0994690432641279,8.894454789638303,0.14919765026369372
1731474155.0704117,-0.21322882175445557,0.8714746236801147,-10.088143348693848,0.043684513643465275,0.14247791230164447,-0.015619214834108476,1.0994249481584768,8.894853005586485,0.14914366548607066
1731474155.1203022,-0.2239534556865692,0.9041865468025208,-9.905142784118652,0.047708205977591296,0.13981913990430178,-0.015514025018921806,1.0944244467476005,8.940733905025873,0.14292810768604128
1731474155.1704328,-1.3943976163864136,-0.5810168385505676,-10.084527969360352,0.051774858896713835,0.13661901948783645,-0.01537361817590051,1.0896117910409169,8.986354503536894,0.13675589097074412
1731474155.2202253,-0.5982986688613892,0.3721615672111511,-10.063822746276855,0.05586342967842131,0.1328663402322789,-0.015198299958694926,1.0847665347259916,9.03394701406915,0.13032446525596897
1731474155.2702136,-0.46314603090286255,0.03619835898280144,-10.011496543884277,0.05995871185114924,0.12856246155615608,-0.014989406971573119,1.0824830748619618,9.072996379410249,0.13887350801839693
1731474155.320184,-0.5183843374252319,0.10595713555812836,-10.015792846679688,0.06405006138199584,0.12372109092222905,-0.014749341468228644,1.0779439272263862,9.12104420124341,0.13241358056699487
1731474155.3702235,-0.11161405593156815,0.15249505639076233,-10.028287887573242,0.06812807328371766,0.11836605800178772,-0.014481233796521243,1.076007348892483,9.150498751395217,0.14088482489800405
1731474155.4200754,-0.11161405593156815,0.15249505639076233,-10.028287887573242,0.07218209209292874,0.11252967690815321,-0.014188675771214243,1.0719446162756139,9.197338598206287,0.13459843241699232
1731474155.4200754,0.01588253118097782,0.03391246125102043,-10.020575523376465,0.07619825591513535,0.10625134070580403,-0.013875654533219518,1.0718282316995216,9.198715957064278,0.134413610373789
1731474155.469965,-0.25383296608924866,0.3448643088340759,-9.974748611450195,0.08015848638925903,0.09957623631009317,-0.013546440614933217,1.0680758645291668,9.244386117464519,0.12828511924081412
1731474155.5198517,-0.10165785253047943,0.2227284014225006,-9.922452926635742,0.0840411020960848,0.09255383584590834,-0.01320526535041884,1.0644002940382538,9.291816206932147,0.12191925814757983
1731474155.5699394,-0.1839110553264618,0.4192267656326294,-9.99095344543457,0.08782213952566961,0.08523596323824185,-0.012855886187779756,1.0633190864322253,9.307609844952733,0.1305599204222998
1731474155.6198208,-0.19280876219272614,0.3612631559371948,-9.950533866882324,0.09147633235912206,0.07767508012922894,-0.012501378996141024,1.0599945572960063,9.356398752083102,0.12398838160807611
1731474155.6698928,-0.19280876219272614,0.3612631559371948,-9.950533866882324,0.09497780760376331,0.06992311181234577,-0.01214420694761633,1.2172188270276696,9.402217967231461,0.1327812912211202
1731474155.6698928,-0.00384950777515769,0.6912849545478821,-9.922014236450195,0.09830056720169039,0.06203054085273753,-0.011786245787561838,1.2172065042940006,9.402575744126342,0.13273351849625234
1731474155.7207956,0.744889497756958,1.6483407020568848,-9.939879417419434,0.10141763291772962,0.054044194347558035,-0.011428685479782352,1.2156693004716121,9.451090589334378,0.14089331949668044
1731474155.770732,0.3141680657863617,1.1341841220855713,-10.00156307220459,0.10429828267585027,0.04600269420818047,-0.011072054097846085,1.214434645492779,9.498277670593213,0.1346383754315969
1731474155.8206358,-0.22723086178302765,1.8611536026000977,-9.893811225891113,0.10690640570601402,0.0379322281596666,-0.010716434928227866,1.2134395822693544,9.546605955960326,0.12821868654052912
1731474155.8706558,-0.4820658564567566,1.1263463497161865,-9.909140586853027,0.10920351422891889,0.0298453311851584,-0.01036153497451114,1.2127319097316647,9.594056877664954,0.12190059820973981
1731474155.9206085,-0.49431735277175903,1.4234706163406372,-9.892594337463379,0.1111544395615272,0.021742369718629292,-0.010006447264781962,1.2122919415437572,9.641901571256396,0.1305847666001212
1731474155.970523,-0.07631285488605499,0.5004467964172363,-10.070384979248047,0.11273080504703446,0.013615077944983157,-0.009649611135985572,1.2121298713635809,9.689720916488103,0.138986948319666
1731474156.0204434,-0.24069371819496155,-0.35270124673843384,-10.206377029418945,0.11391065130990594,0.005452566168288374,-0.0092895665529298,1.2122506187104043,9.737717296670864,0.13266812815515724
1731474156.0704284,-0.6625279188156128,-0.9579870700836182,-10.202309608459473,0.11467693451291056,-0.0027498334901026747,-0.008926361485366924,1.2126569206618547,9.785752333092944,0.12632191437261728
1731474156.1203353,-0.7205891013145447,-0.26662561297416687,-10.021163940429688,0.11501818203698953,-0.010982107761833133,-0.008562509862584191,1.2133489060441565,9.83369732048383,0.11996353812608633
1731474156.170457,-0.539745032787323,-0.3440362215042114,-10.02015209197998,0.11493056642831606,-0.019217027946537468,-0.008202567852036324,1.2143314216605954,9.881818120703276,0.12871737669905545
1731474156.220292,-0.539745032787323,-0.3440362215042114,-10.02015209197998,0.11441837224099241,-0.027413474476070586,-0.007851899580730395,1.2155949768141812,9.929601821088626,0.12239118490260749
1731474156.220292,-0.7099660634994507,-0.18074804544448853,-9.97559928894043,0.11349273626711179,-0.035520614381108054,-0.007515789157668917,1.215605598846854,9.92996236721216,0.12234334284113171
1731474156.270222,-0.4648881256580353,-0.01231425255537033,-9.95477294921875,0.1121705229448142,-0.04348100577248017,-0.007199039795480391,1.2171396872730702,9.97732887325936,0.13111490906207968
1731474156.320121,-0.6345815658569336,0.11943099647760391,-9.89240837097168,0.11047352949357842,-0.0512338012480134,-0.006905609651090451,1.2189911700406224,10.025622067037606,0.12472136614257194
1731474156.370157,-0.4727819561958313,0.4156271815299988,-9.890789985656738,0.10842747248406112,-0.05871824599877715,-0.006638184414672992,1.2210602970957942,10.072483831801987,0.13346695069878223
1731474156.419992,-0.4727819561958313,0.4156271815299988,-9.890789985656738,0.10606092073554071,-0.06587697664073426,-0.006397869210456447,1.2234198901785698,10.11973651702579,0.1272030334343306
1731474156.419992,-0.4746846556663513,0.4383656084537506,-9.960733413696289,0.10340425683886277,-0.07265853267892083,-0.006184213468645268,1.2234428904211045,10.120171820922772,0.12714515374199134
1731474156.4700122,-0.4082532823085785,0.4868992269039154,-9.922954559326172,0.10048875938061341,-0.07901851763797318,-0.005995595092423874,1.226050513318921,10.16706241793504,0.12088990492392053
1731474156.5199811,-0.4082532823085785,0.4868992269039154,-9.922954559326172,0.09734590677702193,-0.08491978552218193,-0.005829645496365334,1.2289133044932508,10.213979110615098,0.129730674230664
1731474156.5199811,-0.42095184326171875,0.46034306287765503,-9.94420051574707,0.09400680301021201,-0.09033229569539845,-0.005683447357366495,1.2289389842965894,10.214381431695047,0.1296770077369956
1731474156.5699735,-0.3570947051048279,0.568742036819458,-9.979055404663086,0.09050177065472832,-0.09523280538975505,-0.005553678435026624,1.232024700660807,10.260845608422954,0.12345638663635979
1731474156.6198468,-0.35170891880989075,0.5658196806907654,-10.006991386413574,0.08686002292555994,-0.0996046378111108,-0.00543693644228214,1.2353379108692262,10.307240540247895,0.13224533768217817
1731474156.6698449,-0.35522300004959106,0.5524300336837769,-9.985919952392578,0.08310929453671548,-0.1034376020241872,-0.0053301322513563554,1.2388818195567448,10.353589787085943,0.12600994972527166
1731474156.7197773,-0.3219449818134308,0.549161434173584,-9.999293327331543,0.07927558220645275,-0.10672769248186212,-0.00523070692851384,1.2426127377635368,10.399482657202268,0.11978767136957787
1731474156.7707493,-0.28970977663993835,0.5290778875350952,-9.999696731567383,0.0753829896223037,-0.10947645516451478,-0.005136646159796272,1.2466344808361771,10.446226932010788,0.11339888370358535
1731474156.8206139,-0.3143123984336853,0.5126650929450989,-10.002466201782227,0.0714535466335909,-0.1116902490268635,-0.005046445837299602,1.2507825064476759,10.492059734631754,0.12253723677777896
1731474156.870688,-0.2599155902862549,0.5240530371665955,-9.9974946975708,0.06750708334868173,-0.1133795393737286,-0.004959088877410388,1.2550540969388044,10.537067330985032,0.1314482398016841
1731474156.9205627,-0.2969132363796234,0.4891177713871002,-9.995007514953613,0.06356121396181488,-0.11455827660795213,-0.004873991694805419,1.2594561409480711,10.581406498792994,0.12536331149773713
1731474156.9705002,-0.2292598932981491,0.49995648860931396,-10.004132270812988,0.059631353400208524,-0.11524334858175628,-0.004790928311927528,1.2640448875195829,10.625899785321891,0.13420298644172313
1731474157.0204966,-0.2579132318496704,0.4924958348274231,-10.007848739624023,0.05573071918024318,-0.1154540790481298,-0.004709986296834542,1.2688215330541723,10.670434817758789,0.1280510243452767
1731474157.0704823,-0.24598565697669983,0.4703907370567322,-10.037233352661133,0.051870354494662506,-0.11521179439640658,-0.00463159368598109,1.2737031946607895,10.714408995129824,0.12192511470119616
1731474157.1203732,-0.2604096531867981,0.4892358183860779,-9.96359920501709,0.048059270182570744,-0.1145394341781206,-0.004556551910678455,1.2787034994774698,10.758048497941978,0.11579466325414019
1731474157.1703653,-0.2412901222705841,0.49372807145118713,-10.008519172668457,0.04430468178528893,-0.11346122453641284,-0.004485924337500108,1.2838074716974728,10.801443214477292,0.1250332517222869
1731474157.2202988,-0.25269076228141785,0.49582356214523315,-9.967084884643555,0.04061221707461097,-0.11200247513508045,-0.004420818340707151,1.289004958043005,10.844431817615684,0.1339852532708577
1731474157.2702527,-0.29472479224205017,0.49913355708122253,-9.967273712158203,0.03698612186623575,-0.11018943352002568,-0.004362218098767674,1.2943332036142896,10.88732619066972,0.12793400741556876
1731474157.3201697,-0.2970694601535797,0.489962100982666,-10.00029182434082,0.03342959008925248,-0.1080491053801913,-0.004310890615151616,1.2997468157733354,10.929929331380752,0.12187466803388687
1731474157.370167,-0.34497785568237305,0.48454904556274414,-9.985206604003906,0.029945196756305685,-0.10560902533984656,-0.004267403374729072,1.3052482323313241,10.972333727729485,0.11579492796624406
1731474157.4200604,-0.34497785568237305,0.48454904556274414,-9.985206604003906,0.026535314596227003,-0.10289699758962492,-0.004232230959365054,1.3107550744989982,11.014180155500531,0.12515594397039673
1731474157.4200604,-0.33604687452316284,0.4833928644657135,-9.957088470458984,0.023202417897334814,-0.09994085512820272,-0.004205771263083656,1.31096835183262,11.015778656972069,0.12492642732692394
1731474157.4700716,-0.3997398614883423,0.48361581563949585,-10.031452178955078,0.01994923953047088,-0.09676827094837004,-0.004188288787250427,1.3163924463508692,11.056133659235147,0.11911033145413971
1731474157.5199513,-0.34380197525024414,0.5006750226020813,-9.992836952209473,0.016778872446323652,-0.09340662341077509,-0.004179994075243925,1.3221350351393404,11.098516620353973,0.12824887091600923
1731474157.570007,-0.40116724371910095,0.47793707251548767,-9.987176895141602,0.013694836660093579,-0.08988290522319316,-0.004181200056661425,1.3277169402988098,11.138990605512145,0.12239152734323357
1731474157.6199002,-0.3695700168609619,0.49243950843811035,-9.979872703552246,0.010701062951683741,-0.08622362258006583,-0.004192304104870738,1.333453067039863,11.180417539635727,0.1315274173064804
1731474157.6698487,-0.41193339228630066,0.5345649719238281,-9.984530448913574,0.007801863299339944,-0.08245470783049902,-0.004213639948987974,1.339144453911819,11.220886925883033,0.12565055207346482
1731474157.7197323,-0.39578092098236084,0.5249258279800415,-9.9964017868042,0.005001930654959685,-0.07860156440813687,-0.004245409980828159,1.3448524914246034,11.26148921672822,0.13477090476715808
1731474157.7697887,-0.4148857295513153,0.5152393579483032,-10.009360313415527,0.002306332132662501,-0.07468915868128759,-0.004287744227711471,1.3506291147253084,11.302004879406768,0.12887130606022718
1731474157.8206913,-0.38384121656417847,0.5252273082733154,-9.947656631469727,-0.0002795536873613561,-0.0707419606686745,-0.004340768269979946,1.3565725864793563,11.343851583409739,0.13768518335663346
1731474157.8705866,-0.37471675872802734,0.512197732925415,-9.963825225830078,-0.00275021277363623,-0.06678377453471906,-0.0044045048689939454,1.3622145889176684,11.383090283611713,0.13195901821774675
1731474157.9205194,-0.39332878589630127,0.548274040222168,-9.980907440185547,-0.005100244031517392,-0.06283760988738368,-0.004478680153549569,1.3680636858166528,11.423675359907016,0.12600140918384556
1731474157.970504,-0.3940364420413971,0.5331264734268188,-9.951216697692871,-0.007324520378730606,-0.0589256456535022,-0.004562676473462018,1.3737456637358916,11.46305671948911,0.12018731724500445
1731474158.0204077,-0.3720216453075409,0.5273372530937195,-10.012054443359375,-0.009418228417979518,-0.05506922006651299,-0.004655627733390842,1.3795507582135274,11.503294267911839,0.11421393072628512
1731474158.070431,-0.36154696345329285,0.5203379988670349,-9.981355667114258,-0.011376951417524848,-0.05128873133076316,-0.004756567891333976,1.3850761961885791,11.542197101611917,0.12395691410350983
1731474158.1203873,-0.33269548416137695,0.5211107134819031,-9.980409622192383,-0.013196876387100974,-0.04760346485422638,-0.004864577137440726,1.3908762502558072,11.582551646012606,0.11796780723680879
1731474158.170318,-0.3207956552505493,0.5135068893432617,-9.99845027923584,-0.01487505304046426,-0.04403144902100806,-0.004978819661593109,1.3962680422212392,11.62081409382573,0.1276764266356396
1731474158.2202368,-0.30687013268470764,0.5224953889846802,-9.994780540466309,-0.01640962573710677,-0.04058936667407229,-0.005098536566658512,1.4018730956003658,11.660786427145002,0.13679371083959493
1731474158.2701979,-0.3119085729122162,0.5182780623435974,-9.960308074951172,-0.017799974696510016,-0.03729251418370148,-0.005223060625109311,1.4072797832627428,11.698910613733032,0.13117394897417767
1731474158.3202002,-0.3232634663581848,0.5220323204994202,-9.994431495666504,-0.019046715944455915,-0.034154798553703236,-0.0053517568685171185,1.41291807047072,11.738908481612437,0.1252510880768492
1731474158.3702445,-0.28144803643226624,0.5371149778366089,-9.997028350830078,-0.02015160286692343,-0.031188761165026235,-0.0054839632754419484,1.4181189009554345,11.776889445205514,0.13475913817475735
1731474158.4200966,-0.28144803643226624,0.5371149778366089,-9.997028350830078,-0.021117483023989546,-0.028405642292091485,-0.005619065052681723,1.4235069836250638,11.815679472045813,0.1290264795635236
1731474158.4200966,-0.31811031699180603,0.5085797905921936,-9.998974800109863,-0.02194831224003373,-0.0258154404583859,-0.005756598723851331,1.4236405296091972,11.81664481848432,0.12888350351458877
1731474158.4701083,-0.2963423728942871,0.5248386859893799,-9.973089218139648,-0.022649033476738342,-0.023426873523006177,-0.005896255170894882,1.4287107540579762,11.854402588716079,0.13831044163011674
1731474158.5199509,-0.2963423728942871,0.5248386859893799,-9.973089218139648,-0.02322535134442727,-0.021247301735015253,-0.006037776557046268,1.4339787695863386,11.89302626055634,0.13261625871475125
1731474158.5199509,-0.2880183458328247,0.5108221173286438,-10.006240844726562,-0.02368360488819906,-0.019282725963076078,-0.006180845801241668,1.434010550242235,11.893260392849415,0.13258167202215088
1731474158.5699735,-0.2980497181415558,0.49068212509155273,-9.973512649536133,-0.02403072307133458,-0.017537787917233448,-0.006325094894572412,1.439233141521927,11.931935356496421,0.1268573443901897
1731474158.6198955,-0.2980497181415558,0.49068212509155273,-9.973512649536133,-0.024274139583952137,-0.016015683301880922,-0.006470152152574382,1.44442397057208,11.970781426243724,0.1210854289643217
1731474158.6198955,-0.31672346591949463,0.5230117440223694,-9.992152214050293,-0.02442164226388526,-0.014718104033483158,-0.00661560418223648,1.4444560414330558,11.971022733696566,0.12104950491162585
1731474158.6698563,-0.3087119460105896,0.5085582733154297,-10.039146423339844,-0.024481190314182232,-0.01364535136856129,-0.006761026269022688,1.4493068071488822,12.008984143594644,0.13075641595650137
1731474158.719787,-0.37044280767440796,0.5171928405761719,-9.983965873718262,-0.024460705878871582,-0.012796539138854477,-0.006906177565464148,1.4543585264772623,12.047652594019615,0.12502918993635379
1731474158.769825,-0.35450124740600586,0.50801682472229,-9.950888633728027,-0.02436779905849812,-0.012169726969267321,-0.007051066535192814,1.4591280550377856,12.08597009558659,0.13455955341646703
1731474158.8206687,-0.35450124740600586,0.50801682472229,-9.950888633728027,-0.024209502937479813,-0.011761973663472976,-0.007195680454158815,1.464129437458418,12.12516366432045,0.1287719372101001
1731474158.8206687,-0.3457523584365845,0.5308553576469421,-10.02107048034668,-0.023992195197713305,-0.011569391639796478,-0.007339715503830568,1.4641630930049445,12.125428970805,0.12873268158891576
1731474158.8708599,-0.3598632216453552,0.5240755081176758,-9.973990440368652,-0.023721678135431218,-0.011587265449670677,-0.007482664281088715,1.4690332570277256,12.164041682958947,0.12300781985472274
1731474158.9206185,-0.3598632216453552,0.5240755081176758,-9.973990440368652,-0.023403241102209697,-0.011810201857523066,-0.007624030786732641,1.473803401183396,12.202294461252944,0.11731335567266997
1731474158.9206185,-0.37419551610946655,0.5006221532821655,-9.971975326538086,-0.02304164903770776,-0.012232199561963853,-0.007763330221500017,1.473838155591776,12.202574762665314,0.11727154355719488
1731474158.970634,-0.3892771303653717,0.5268489718437195,-10.022506713867188,-0.022641086534442377,-0.012846627344346568,-0.00790002438896545,1.4782859889577706,12.240468629836288,0.12717723592233998
1731474159.0204418,-0.3892771303653717,0.5268489718437195,-10.022506713867188,-0.02220507930206917,-0.013646240573899902,-0.00803366430954857,1.482951007006641,12.278746563415678,0.12149309722477668
1731474159.0204418,-0.42074161767959595,0.5047159194946289,-9.953629493713379,-0.021736417033991776,-0.014623279698545542,-0.008164085299979178,1.482981842979186,12.279000977659216,0.12145523428602789
1731474159.0705018,-0.4061630666255951,0.5313308238983154,-9.978107452392578,-0.021237089748238708,-0.01576954238592204,-0.008291320167753826,1.4873152501910805,12.316921796044813,0.1312213757510584
1731474159.1203768,-0.4061630666255951,0.5313308238983154,-9.978107452392578,-0.020708279035762535,-0.017076434809077265,-0.008415330996487214,1.491595115127773,12.354904265564024,0.14063292124637997
1731474159.1203768,-0.40526318550109863,0.5140536427497864,-10.022367477416992,-0.020150457274434506,-0.01853507112979454,-0.008535944599242694,1.4916266990428677,12.35517071234551,0.14059374485258153
1731474159.170345,-0.3965300917625427,0.502784788608551,-9.966509819030762,-0.01956354945003773,-0.020136319598030528,-0.008653010321331263,1.4961211476647893,12.39326664788953,0.1349779711975519
1731474159.2203305,-0.3965300917625427,0.502784788608551,-9.966509819030762,-0.01894709170499969,-0.02187073465542222,-0.008766458688275476,1.500591407381659,12.431511192776387,0.12931092926504606
1731474159.2203305,-0.38581791520118713,0.508468508720398,-9.955740928649902,-0.01830038189117605,-0.023728498714358635,-0.008876138701967925,1.5006200006871524,12.431756949002748,0.12927441642786122
1731474159.2702694,-0.3934820294380188,0.535594642162323,-9.982986450195312,-0.017622614927315098,-0.025699487733845283,-0.008981657434943134,1.5050217374365444,12.469745630517357,0.12361441570828942
1731474159.3201983,-0.35386738181114197,0.5342658758163452,-9.970437049865723,-0.016913009658562232,-0.027773462895140686,-0.009082400748716295,1.5090536624671496,12.50744432624315,0.133339752784537
1731474159.3701587,-0.3599652647972107,0.5136325359344482,-9.988588333129883,-0.016170977559435182,-0.029940265669611294,-0.009177654965705002,1.5133896406177667,12.545491019518503,0.12766700261823283
1731474159.4200087,-0.32312655448913574,0.5253065824508667,-10.006949424743652,-0.015396337106945851,-0.03218987538139534,-0.009266734757496124,1.5173403903691538,12.583234204604075,0.1372331890599256
1731474159.4701254,-0.32851725816726685,0.5242536067962646,-9.958294868469238,-0.014589514667929756,-0.03451237864163095,-0.009349088990685234,1.5215806857166683,12.620992709249233,0.13159425566671318
1731474159.5200732,-0.32851725816726685,0.5242536067962646,-9.958294868469238,-0.013751670533656484,-0.036897981271026066,-0.009424267910352929,1.5258102394046127,12.658881663223703,0.12589905191787892
1731474159.5200732,-0.2989529073238373,0.5134327411651611,-9.978981018066406,-0.012884728253320814,-0.039337045994053785,-0.009491754939287974,1.525835946255207,12.659112612477179,0.12586422201065967
1731474159.5699933,-0.2976040542125702,0.528435468673706,-10.035711288452148,-0.011991386331007693,-0.04182010065039671,-0.009550953533519983,1.529985557793336,12.696473862711095,0.12021015669585605
1731474159.6201284,-0.2584826648235321,0.5214108228683472,-9.999695777893066,-0.011075190897802041,-0.044337855084444024,-0.00960144984207558,1.5337390371587134,9.592886234776401,0.1300683322380773
1731474159.6698892,-0.29298895597457886,0.5123870372772217,-9.98195743560791,-0.010140613941795294,-0.04688123849688443,-0.00964322920818434,1.5378429693363684,9.603774623912612,0.12440901642747139
1731474159.7198591,-0.29298895597457886,0.5123870372772217,-9.98195743560791,-0.009193001289575321,-0.04944139866219967,-0.009676584939983829,1.5419613987063243,9.614645106798863,0.11867218374869754
1731474159.7198591,-0.2805013358592987,0.5189118385314941,-9.997715950012207,-0.008238363646786985,-0.05200967508833481,-0.009701912612959364,1.541986708382547,9.61471171450679,0.11863675303878693
1731474159.7697053,-0.25231388211250305,0.526025652885437,-9.983038902282715,-0.0072832021431758365,-0.05457762449932726,-0.00971964143948288,1.5455398725327048,7.806967128308119,0.12868462960360055
1731474159.8196115,-0.2625800669193268,0.5331252813339233,-9.989421844482422,-0.006334497617213981,-0.05713711266659346,-0.009730250146420745,1.5496745229050408,7.802368159019832,0.12287810888968964
1731474159.870672,-0.25197145342826843,0.5226522088050842,-10.016423225402832,-0.0053997326137352145,-0.0596804123427135,-0.009734282381653536,1.5537270872233957,7.797696481969485,0.11714145526015389
1731474159.9206076,-0.25197145342826843,0.5226522088050842,-10.016423225402832,-0.0044868252331672935,-0.062200240323425526,-0.009732426926025984,1.5577620628894748,7.792878452894372,0.11138786321896516
1731474159.9206076,-0.2829984724521637,0.5082409381866455,-9.991646766662598,-0.003603985217541332,-0.0646897185316579,-0.009725623871706873,1.5577897529085565,7.7928448050340045,0.11134823981991558
1731474159.9705005,-0.28480449318885803,0.5353925824165344,-9.947487831115723,-0.0027594810998958644,-0.06714231936994688,-0.009714992195462928,1.5612270201975016,6.596160573623401,0.1216726449282122
1731474160.0204332,-0.2747306227684021,0.5366898775100708,-10.02096939086914,-0.0019613655874612633,-0.06955188974021961,-0.009701589487386822,1.565052343089017,5.777115798848226,0.13105238722766457
1731474160.0705328,-0.2890772521495819,0.5572153329849243,-9.990310668945312,-0.001217297029510687,-0.07191277712589259,-0.009686319664910417,1.5686906051748204,5.757624018004499,0.12587067277745068
1731474160.120394,-0.2890772521495819,0.5572153329849243,-9.990310668945312,-0.0005344537725072413,-0.0742199822140867,-0.00967005156835012,1.5726844380158258,5.7360423427839615,0.1201566031390494
1731474160.120394,-0.30816128849983215,0.5108066201210022,-9.969518661499023,8.056604220839754e-05,-0.07646921678387866,-0.009653655000352798,1.5727140070231524,5.735881842946819,0.12011420118833004
1731474160.1703773,-0.3075338900089264,0.5318730473518372,-9.989680290222168,0.0006218779169684013,-0.07865677659419304,-0.009637889563722583,1.5766984330904499,5.714160466189971,0.11438960637085153
1731474160.220353,-0.3075338900089264,0.5318730473518372,-9.989680290222168,0.0010844230442905655,-0.08077934638147968,-0.009623344818287746,1.5800633358158054,5.093953199406331,0.12457961747175225
1731474160.220353,-0.3376113772392273,0.514896035194397,-9.994827270507812,0.0014640361629170036,-0.08283392009354482,-0.009610496965780372,1.5800902044431502,5.093772525437877,0.12454116206755517
1731474160.2703774,-0.34983736276626587,0.5286862254142761,-9.962014198303223,0.0017575376627787015,-0.08481778604927231,-0.009599762228799383,1.5840622803117677,5.066972291527749,0.11884737785514263
1731474160.3201654,-0.3544542193412781,0.5517596006393433,-9.99022388458252,0.0019628785707437864,-0.08672852568117043,-0.009591453085620396,1.5873738942393778,5.039918692973368,0.12892703113352869
1731474160.370143,-0.3516252934932709,0.5374683141708374,-9.990341186523438,0.002079230711778319,-0.08856409708679716,-0.009585731989872654,1.5906871584043007,5.0125097105403595,0.13861778831495405
1731474160.4202018,-0.35329899191856384,0.519231379032135,-9.9598970413208,0.002106949298960596,-0.09032291116373722,-0.009582642532618438,1.5946966699745315,4.984794557174735,0.13292276578555373
1731474160.4702244,-0.3345542550086975,0.5284436941146851,-9.966591835021973,0.0020474422089985793,-0.09200376281074861,-0.009582094558793884,1.5987023854941973,4.956913230156079,0.12721652043351683
1731474160.5200076,-0.3611922562122345,0.5078816413879395,-10.020652770996094,0.001903004786050833,-0.09360569439564603,-0.009583818320960011,1.6027260390638822,4.928708246116017,0.12146769955318595
1731474160.570008,-0.3498118817806244,0.5143244862556458,-10.008946418762207,0.0016766971403511161,-0.09512789607144678,-0.009587504156294674,1.6059276284220139,4.900539151594546,0.13148843010089328
1731474160.6198819,-0.33152875304222107,0.5191381573677063,-9.96742057800293,0.0013722626218798987,-0.09656965119970694,-0.009593019853848606,1.6099274243395456,4.872023836308662,0.12578800829691192
1731474160.6699362,-0.3189314603805542,0.520063042640686,-9.994635581970215,0.0009939693947247515,-0.09793034437010857,-0.00960039664789984,1.6131213070072465,4.843186208897272,0.13562581474683125
1731474160.7198498,-0.31146132946014404,0.49782794713974,-9.991044998168945,0.0005463601776523671,-0.099209495236156,-0.009609680116354203,1.6171362774488875,4.814041609317168,0.12991213549017983
1731474160.7696915,-0.27925825119018555,0.5191643238067627,-9.976333618164062,3.40027898355161e-05,-0.10040674039730331,-0.009620887041801486,1.620221547303294,4.785100679225486,0.13968804517677832
1731474160.8196826,-0.26903486251831055,0.5131709575653076,-9.989280700683594,-0.0005387508309708688,-0.10152180974013611,-0.009634008188878924,1.6242390758582759,4.755366049698612,0.13397113686949083
1731474160.8696597,-0.2614664137363434,0.5186227560043335,-10.001703262329102,-0.0011679965846927974,-0.10255456679182443,-0.009649000984098545,1.6273009894657313,4.725646607059444,0.14355630644229606
1731474160.9207711,-0.2614664137363434,0.5186227560043335,-10.001703262329102,-0.00185042051808687,-0.10350506729084863,-0.009665852118636558,1.6313892998309447,4.694736918092754,0.13772831139708544
1731474160.9207711,-0.2740640342235565,0.5009732246398926,-9.956851959228516,-0.0025833039869592716,-0.10437357488086568,-0.009684631935471418,1.63142912882236,4.694434263502323,0.13767137412681152
1731474160.9705622,-0.274027019739151,0.5083372592926025,-10.000702857971191,-0.003364417660110047,-0.10516051916089833,-0.009705413997480447,1.6343631450725002,4.6646591105322655,0.14721851115725346
1731474161.02048,-0.2422710508108139,0.5382094979286194,-10.02502155303955,-0.004191902654532184,-0.1058664646604042,-0.009728221060169798,1.637365830366301,4.633870052148541,0.1562909502138156
1731474161.070523,-0.2966766655445099,0.5066756010055542,-9.966814994812012,-0.005064218213222784,-0.10649217594785955,-0.009753141286705715,1.6412650207349524,4.603243791655378,0.1507106638772952
1731474161.1204453,-0.24885393679141998,0.5543649792671204,-9.974495887756348,-0.00598008097581044,-0.10703871702959676,-0.00978036179130745,1.6451919044109837,4.572024628150935,0.14504656303864577
1731474161.1704516,-0.24885393679141998,0.5543649792671204,-9.974495887756348,-0.0069383957391261596,-0.10750754678778758,-0.009809990267864,1.6490903371664318,4.5406348923677795,0.13937569670926808
1731474161.1704516,-0.2737577557563782,0.5325854420661926,-10.017370223999023,-0.007938270144970205,-0.10790063109772086,-0.00984195646844568,1.6491167981840922,4.540420433507513,0.1393370348067902
1731474161.2202854,-0.2737577557563782,0.5325854420661926,-10.017370223999023,-0.008978989657943758,-0.1082204455127391,-0.00987616757558964,1.651850042869027,4.509061810057191,0.14879561766396468
1731474161.2202854,-0.2906055152416229,0.5151991844177246,-9.989680290222168,-0.010059854094426907,-0.10846981599755298,-0.009912724099315475,1.6518781528978395,4.5088300189152255,0.14875444594736978
1731474161.2703397,-0.3137006163597107,0.5183002948760986,-9.986680030822754,-0.011179974185790507,-0.10865173110571384,-0.00995193936196102,1.655684317264957,4.47719707367771,0.1431472096558542
1731474161.3202085,-0.3137006163597107,0.5183002948760986,-9.986680030822754,-0.012338075799766219,-0.108769215677642,-0.009994179818058458,1.658341512066959,4.444986442759592,0.15242023000176502
1731474161.3202085,-0.3133438229560852,0.5345419645309448,-10.003192901611328,-0.013532350147984365,-0.10882529336466708,-0.010039749336171265,1.6583692794267482,4.444749228658734,0.1523788751897689
1731474161.370244,-0.3098906874656677,0.528404951095581,-10.000290870666504,-0.014760424678617146,-0.10882303351811608,-0.010088913470559655,1.6609135474039118,4.412643838600653,0.16139294368973858
1731474161.4202275,-0.3098906874656677,0.528404951095581,-10.000290870666504,-0.016019433453484517,-0.10876560937730656,-0.010141975132296355,1.6646525575862914,4.379702011071849,0.15574199628464558
1731474161.4202275,-0.33454248309135437,0.49304723739624023,-9.936529159545898,-0.017306088245500128,-0.1086562703583379,-0.010199248633121466,1.6646774166072218,4.379480869200542,0.15570413332629462
1731474161.470167,-0.3619610667228699,0.5299280881881714,-10.047443389892578,-0.018616647262959266,-0.10849822154724403,-0.010260925770959432,1.668302489903499,4.346897225654688,0.15013548617731168
1731474161.5199888,-0.36124423146247864,0.5293492674827576,-9.995766639709473,-0.019946768763769895,-0.10829455811478783,-0.010327094448775791,1.6719243382798878,4.31364451760392,0.14447288690011914
1731474161.570011,-0.3769206404685974,0.5511707663536072,-9.91990852355957,-0.02129137614205466,-0.10804836321848542,-0.010397864663673456,1.6741680970724206,4.280192282670587,0.15372801419480236
1731474161.6198852,-0.3783719837665558,0.543317973613739,-9.976374626159668,-0.022644628562816252,-0.10776286979128727,-0.010473200974487307,1.677673025405894,4.246378816200678,0.14806943636177827
1731474161.6698837,-0.24439649283885956,0.7247949242591858,-9.980547904968262,-0.024000091658565995,-0.10744170918832331,-0.010552652883495819,1.6811171354202077,4.212322835767797,0.14238895895163697
1731474161.7198694,0.5133981704711914,1.6614665985107422,-9.919093132019043,-0.02535198355602691,-0.10709036158765481,-0.010635364742831763,1.683080085690355,4.178043600522049,0.15171735062967254
1731474161.769799,0.2999531030654907,1.1952157020568848,-10.016883850097656,-0.02669836350282721,-0.106719749303544,-0.010720168677769376,1.686395112965825,4.143336030705887,0.1460245114814162
1731474161.8197489,0.4892212450504303,1.505788803100586,-9.938413619995117,-0.02804452590896577,-0.10634959470193482,-0.010805658986712496,1.689618895120031,4.108607779324969,0.14034494419350418
1731474161.8706505,-0.516516387462616,-0.022402653470635414,-9.965340614318848,-0.029403290924151563,-0.10600761225707074,-0.010890295826448489,1.6913223680348226,4.072805878584075,0.14963109419399756
1731474161.9206002,-0.9550522565841675,-0.21024510264396667,-10.16689682006836,-0.030790607784537162,-0.10572312959554592,-0.010972594572035423,1.6928471560002896,4.037508042647767,0.1587083997884246
1731474161.9705899,-0.7593311667442322,-0.04050649330019951,-10.03207015991211,-0.03221851719749766,-0.10551839424010688,-0.011051689896746954,1.6958246617492856,4.001884157769454,0.15304943884499742
1731474162.0203743,-0.5015047788619995,0.2697582244873047,-10.028075218200684,-0.033690679415759,-0.10540399531780456,-0.011127877906920514,1.697082713905086,3.966351019047623,0.16205354512961573
1731474162.0706327,-0.5015047788619995,0.2697582244873047,-10.028075218200684,-0.035203054036539866,-0.10538043159620525,-0.011202444636331391,1.6999107741720947,3.9297726138890394,0.1563302810685737
1731474162.0706327,-0.6376875638961792,0.10086476802825928,-9.939265251159668,-0.0367466469979319,-0.10544154303071925,-0.01127709560319355,1.6999285545107614,3.92953804658151,0.15629362264453162
1731474162.1203902,-0.4812456965446472,0.29825708270072937,-9.977543830871582,-0.03830908309757283,-0.10557638161281352,-0.01135345018396966,1.7026200053845801,3.89327221268744,0.15063235368710517
1731474162.1703827,-0.5795964598655701,0.24074093997478485,-9.958183288574219,-0.03987520611911563,-0.10577005038194914,-0.011432670739469854,1.705211027546864,3.856802061779568,0.14495175797799356
1731474162.2203078,-0.5795964598655701,0.24074093997478485,-9.958183288574219,-0.041427659686817164,-0.10600469553414726,-0.01151533251169647,1.2934429127277234,3.819755280853427,0.1541645545467268
1731474162.2203078,-0.508014976978302,0.46040502190589905,-9.957934379577637,-0.04294739070250178,-0.10626058852851937,-0.011601455546430696,1.2934372848981406,3.8194947707781886,0.15412452885540523
1731474162.2702415,-0.508804440498352,0.4490143060684204,-9.982624053955078,-0.044414178355125185,-0.10651738316488366,-0.01169057137492547,1.2925829346250572,3.782377950486379,0.14842760035748015
1731474162.320172,-0.48865872621536255,0.4541880786418915,-9.978496551513672,-0.04580737888077211,-0.10675554798725258,-0.011781865941299062,1.2916212048482418,3.7451569015827677,0.1427260720602954
1731474162.370213,-0.5410983562469482,0.4174778163433075,-9.919493675231934,-0.04710654126815384,-0.10695720097431366,-0.011874303591230055,1.2872312791175922,3.7071342833609258,0.1519835422419361
1731474162.4201007,-0.47556886076927185,0.47924375534057617,-9.938119888305664,-0.048291702865138335,-0.10710620297974663,-0.011966542142431305,1.2863428371543286,3.669065195432756,0.14623485923784682
1731474162.47022,-0.47460830211639404,0.529241681098938,-10.030539512634277,-0.049343632449669335,-0.10718819553016601,-0.012056833630049271,1.28533298346006,3.63074676438598,0.14045892643514465
1731474162.5199964,-0.4850676357746124,0.5224998593330383,-9.974165916442871,-0.05024419233396244,-0.10719092259057184,-0.012143272956298124,1.2844774315506773,3.5925941116519433,0.1498880618920392
1731474162.5699408,-0.4850676357746124,0.5224998593330383,-9.974165916442871,-0.050976624145344776,-0.10710454136376668,-0.012224155357021881,1.283493292899458,3.553835666880212,0.14412610092818942
1731474162.5699408,-0.48955443501472473,0.4771479666233063,-9.996931076049805,-0.051525632716275166,-0.1069215875524746,-0.012298034259738043,1.2834862662698496,3.5535748680231003,0.1440873606863436
1731474162.6199024,-0.4665283262729645,0.4885329604148865,-9.979948997497559,-0.05187741699887422,-0.10663663260356816,-0.01236364974883719,1.2833154555008925,3.5146898180950483,0.1533477741019709
1731474162.669962,-0.46965348720550537,0.5105751752853394,-9.998185157775879,-0.052019767580279735,-0.10624591504037836,-0.012419946887084903,1.2827294560917895,3.475522375603772,0.1622699534577621
1731474162.7198188,-0.4509274959564209,0.5246589779853821,-10.004263877868652,-0.051942207490311657,-0.10574719119577358,-0.01246612336746056,1.2817475164698657,3.4358056101709127,0.15651018748977827
1731474162.7698064,-0.4509274959564209,0.5246589779853821,-10.004263877868652,-0.05163611551397381,-0.1051397723541648,-0.01250168580538143,1.2806404754580072,3.3959812669965483,0.1507418104556149
1731474162.7698064,-0.4414564073085785,0.5083518624305725,-9.974061965942383,-0.05109480636863287,-0.10442452047450694,-0.01252647053582206,1.2806331756930671,3.395732315787568,0.15070577222896508
1731474162.8197534,-0.41812509298324585,0.5166147947311401,-9.975350379943848,-0.050313583108394455,-0.1036036953120762,-0.012540532440507226,1.2807821621048137,3.355749022777342,0.1596986452736331
1731474162.8696876,-0.38708367943763733,0.5227304100990295,-9.974908828735352,-0.049289823787738524,-0.10268074862997856,-0.012543964116381581,1.279628873956639,3.3155115560465136,0.15394159650789355
1731474162.9196005,-0.36882284283638,0.5231413841247559,-9.979649543762207,-0.04802314300033131,-0.1016601829196067,-0.012536796266026138,1.2792899358090821,3.274996968225628,0.16280312857872495
1731474162.970591,-0.36882284283638,0.5231413841247559,-9.979649543762207,-0.046515543082548544,-0.1005474587500552,-0.012519005136465856,1.2779835633886605,3.2332406925080894,0.15689875043923962
1731474162.970591,-0.3273898661136627,0.5379171371459961,-10.020581245422363,-0.04477145860599029,-0.09934889806849546,-0.012490589410773512,1.2779748580543606,3.2329739692249393,0.15686104962981232
1731474163.0204976,-0.3707225024700165,0.505232036113739,-9.976547241210938,-0.04279770073421757,-0.09807157505385738,-0.0124516976155801,1.276590314972002,3.1920570939618105,0.15107927956218523
1731474163.070438,-0.3476724922657013,0.5362069010734558,-9.949875831604004,-0.04060328175151486,-0.0967231710574897,-0.012402652995169577,1.2750965994521113,3.150726641576237,0.14524237865479298
1731474163.1203568,-0.3835640251636505,0.5246970653533936,-9.991329193115234,-0.038199098529010905,-0.0953118281817153,-0.012343780869244488,1.2760824883781705,3.1090796279912944,0.15436630952994185
1731474163.1703653,-0.3614824414253235,0.5287243723869324,-9.99287223815918,-0.035597568424783906,-0.0938460627602794,-0.012275296055277682,1.2746412764147448,3.0673434625566274,0.14853738983028023
1731474163.2202575,-0.377625972032547,0.5039097666740417,-9.963214874267578,-0.03281231614419208,-0.09233467025750015,-0.01219739053972916,1.2748965887275718,3.02526928389092,0.15753671883772902
1731474163.2702463,-0.3766827881336212,0.5053097605705261,-10.006082534790039,-0.02985792638138396,-0.0907865448753345,-0.012110306486123337,1.2734306386383731,2.982682662606058,0.1516523134884494
1731474163.3201778,-0.37935033440589905,0.516689121723175,-9.970401763916016,-0.026749723688710605,-0.08921048598544826,-0.012014337219524909,1.2733089418978139,2.9405173563304006,0.1605776748559638
1731474163.3702471,-0.40080633759498596,0.4964871406555176,-10.002296447753906,-0.023503546943584024,-0.08761508940968862,-0.01190984879969532,1.2718184080504786,2.8977224415056932,0.1547250290647029
1731474163.4201424,-0.38300633430480957,0.5083088278770447,-10.015450477600098,-0.020135519820508856,-0.0860086902680417,-0.011797332547535944,1.2702728229666655,2.8546936898731214,0.1488404506456983
1731474163.470025,-0.443865567445755,0.4779611825942993,-10.014248847961426,-0.01666181641313024,-0.08439927931030408,-0.011677514832213794,1.2711391606719649,2.811758770640284,0.1578299693153463
1731474163.5200374,-0.3783123791217804,0.5307408571243286,-9.943964958190918,-0.013098425564325802,-0.08279442271540911,-0.011551404656722858,1.2697046442155888,2.7682783653613403,0.1519424547479603
1731474163.569949,-0.4149475693702698,0.529784619808197,-9.995633125305176,-0.009461007759394088,-0.08120130456756249,-0.011420107376656899,1.2698180713575016,2.724926996280421,0.16080974951713972
1731474163.6199312,-0.4006003737449646,0.5575022101402283,-9.984058380126953,-0.005764882205659487,-0.07962692116643158,-0.011284605508610797,1.2695124011723198,2.6810662843854383,0.16931713597640435
1731474163.6698508,-0.4396592080593109,0.5405032634735107,-9.956144332885742,-0.0020249799168906785,-0.07807827789381522,-0.011145727996617848,1.2682085525607052,2.637255094138322,0.16349733541035077
1731474163.719805,-0.4295702874660492,0.5543187260627747,-9.9859037399292,0.0017443260848252922,-0.07656245482018172,-0.011004153939714366,1.2668891354848133,2.592737415733591,0.15758166578314636
1731474163.7697442,-0.42668965458869934,0.5741111636161804,-9.961564064025879,0.00552939238013935,-0.07508658669120613,-0.010860370080480887,1.2655955792513096,2.548601085213294,0.1517145481598314
