Timestamp,IMU_Linear_Acc_X,IMU_Linear_Acc_Y,IMU_Linear_Acc_Z,Filtered_X,Filtered_Y,Filtered_Z,Pose_X,Pose_Y,Pose_Z
1776677669.5937324,-0.0095800785347819,0.0095800785347819,9.8100004196167,3.443026886924818e-08,1.2911351767345964e-08,4.3040236600422e-09,0.5015952040222764,0.7287814439666511,4.8522989640840415e-09
1776677669.6157396,-0.023950194939971,0.0047900392673909,9.819580078125,2.9130849853408284e-07,1.0977866778774903e-07,4.663679263987429e-08,0.5015518383604545,0.72884014922749,4.926266040232633e-09
1776677669.637742,0.0047900392673909,0.0047900392673909,9.78604984283447,1.2673241989126458e-06,4.703165296302253e-07,2.1538262480617309e-07,0.5015085096081735,0.7288988046856185,5.016020215998307e-09
1776677669.6597378,-0.0095800785347819,-0.0095800785347819,9.80521011352539,3.865264901802037e-06,1.377024004425445e-06,6.097277233883683e-07,0.5014651069459688,0.72895756073144,5.155981349525103e-09
1776677669.6817422,-0.0287402346730232,-0.0143701173365116,9.8100004196167,9.389438845742692e-06,3.1356064602802415e-06,1.2678226788319855e-06,0.5014218340643349,0.7290161424436853,5.408907625734015e-09
1776677669.7028666,-0.0143701173365116,-0.0095800785347819,9.79084014892578,1.942421805167949e-05,5.972546627204169e-06,2.166793432828083e-06,0.5050139379405492,0.724826291852504,9.468433780419158e-10
1776677669.7257342,-0.0335302725434303,0.0,9.79562950134277,3.5674942952104634e-05,9.992039325245583e-06,3.232108050663675e-06,0.5055699713964321,0.7252516919298625,6.121250984742918e-10
1776677669.7477338,-0.0383203141391277,-0.0095800785347819,9.76688957214355,5.9847584422288366e-05,1.5214018409383388e-05,4.26872207699346e-06,0.5058220939120103,0.7259587933973497,6.244355360319128e-10
1776677669.7697363,-0.023950194939971,0.0,9.79084014892578,9.354981742228066e-05,2.162463330244656e-05,4.861189326130754e-06,0.5058673456165678,0.7263764530713612,1.628963934354637e-09
1776677669.791749,-0.0335302725434303,-0.0047900392673909,9.80041980743408,0.00013824162455442477,2.9197963131735364e-05,4.352078570190566e-06,0.5059857972018288,0.7267410539535771,8.374539126506962e-10
1776677669.8137548,-0.0143701173365116,0.0,9.78604984283447,0.0001952587194980365,3.791028345746581e-05,1.9388936338269988e-06,0.5060128782580136,0.7269873770863186,1.8426332261562534e-09
1776677669.8357353,-0.0287402346730232,0.0,9.79562950134277,0.00026579424046693713,4.7756446990567534e-05,-3.2457338454169545e-06,0.5060055713631142,0.7275158416697491,3.8683086842510286e-10
1776677669.8577344,-0.0143701173365116,-0.0191601570695639,9.80521011352539,0.00035068177777983006,5.874632972346024e-05,-1.2176561268089786e-05,0.5060128865527925,0.7277470356260521,-4.419691128951337e-10
1776677669.8797362,-0.0143701173365116,-0.0047900392673909,9.78604984283447,0.00045007720928116326,7.085857295707021e-05,-2.600861956810802e-05,0.5060202399701461,0.7279779155590329,-3.5777988437205604e-09
1776677669.9017344,-0.0095800785347819,-0.0143701173365116,9.8100004196167,0.0005633386677914561,8.39887947564001e-05,-4.609308985302711e-05,0.5060276696547549,0.7282092709426735,-1.1090788786791863e-08
1776677669.9237344,0.0191601570695639,-0.0047900392673909,9.79562950134277,0.0006891626412363907,9.794543208133525e-05,-7.393587374289434e-05,0.5060351633539737,0.7284402704842254,-2.5854706723615755e-08
1776677669.9458578,0.0095800785347819,0.0143701173365116,9.82437038421631,0.0008258242707293745,0.00011249901561626895,-0.00011110792771931643,0.5060428632608748,0.7286747496448849,-5.230046167120729e-08
1776677669.9677503,0.0,0.0,9.80041980743408,0.0009713829155941375,0.00012747621280431005,-0.00015913721144667598,0.5060040428693664,0.7290646988061841,-9.470340511271622e-09
1776677669.9898582,0.0047900392673909,0.0,9.8100004196167,0.0011237569181005618,0.00014283043498133924,-0.00021944229576720942,0.5060016933962775,0.7308441086285321,-2.1537723709157224e-08
1776677670.0117428,-0.0143701173365116,0.0,9.79084014892578,0.0012807037970451072,0.00015862276737490337,-0.0002933452078616898,0.506000839312206,0.7324455220934895,-3.462669172206278e-08
1776677670.0338655,0.0,0.0047900392673909,9.82437038421631,0.0014397937230900115,0.0001749743123408268,-0.0003821083582348964,0.5060012811112129,0.7331994072789003,-1.0689511381988041e-07
1776677670.0557377,0.0,-0.0095800785347819,9.79562950134277,0.001598420797166088,0.00019204646199632848,-0.0004869140046497554,0.5060018986297751,0.7339415438667977,-2.3024126417154946e-07
1776677670.0777383,0.0479003898799419,-0.0143701173365116,9.81478977203369,0.0017539410934589415,0.0002099676159288572,-0.0006087952360753781,0.5060004911935706,0.7334494796419577,-8.412899355897725e-08
1776677670.0997505,0.0431103520095348,0.0191601570695639,9.80521011352539,0.0019040156416128419,0.0002286508043154636,-0.0007485396385251361,0.5060009751195769,0.7337503218477117,-2.3668753311945894e-07
1776677670.1207397,0.0814306661486626,-0.0143701173365116,9.80521011352539,0.002047036930081879,0.0002476372799512447,-0.0009065796843934908,0.5056049696780841,0.7342771779457498,-1.2330914222889352e-07
1776677670.1437411,0.0383203141391277,0.0,9.80041980743408,0.0021823882993099405,0.0002660632544899073,-0.0010829551571936672,0.5055186525804498,0.734577452442196,-3.590659328144524e-07
1776677670.1657445,0.0526904314756393,-0.0047900392673909,9.80041980743408,0.0023104200952238645,0.00028268013629691033,-0.0012773718197906215,0.5054364743902947,0.7348643294200686,-7.300895161476298e-07
1776677670.187731,0.0095800785347819,0.0,9.80041980743408,0.00243221532469735,0.0002959029491510063,-0.001489276682672576,0.5053545584927385,0.7351513274842336,-1.2686203622237918e-06
1776677670.2097352,-0.0143701173365116,-0.023950194939971,9.81478977203369,0.002549247952504277,0.0003038736879566355,-0.0017178949573825068,0.5052729056433183,0.7354384971472524,-2.0016221959629614e-06
1776677670.2307377,-0.0335302725434303,0.0,9.78125953674316,0.002662984121625453,0.0003044851212299375,-0.001962242797019416,0.5051953399967493,0.7357123602248293,-2.907858173036247e-06
1776677670.253774,-0.0191601570695639,0.0047900392673909,9.80521011352539,0.0027745387496479566,0.0002954225627377941,-0.002221179725126826,0.5051105380781915,0.736013029163904,-4.168710632049132e-06
1776677670.275735,-0.0622705072164536,-0.0095800785347819,9.78125953674316,0.0028844996723246903,0.00027428079141887543,-0.0024934985172170173,0.5051737841161716,0.7351277365443465,-3.1457543613979825e-07
1776677670.2977355,-0.0622705072164536,0.0,9.79084014892578,0.002992831836150134,0.00023866163576226836,-0.00277799418387417,0.5047626106649505,0.736010906886467,-3.682390193042896e-07
1776677670.319736,-0.0718505829572678,0.0047900392673909,9.79562950134277,0.0030987089183970576,0.0001862410859394048,-0.003073497185058214,0.504620746788489,0.7363358308686001,-1.048423922354843e-06
1776677670.3417528,-0.0766406282782555,0.0047900392673909,9.79562950134277,0.003200238540010482,0.0001149388379344625,-0.0033788500633047122,0.5044669030984623,0.7368629822165671,-5.687123507539202e-07
1776677670.3637366,-0.105380862951279,0.0,9.79562950134277,0.003294178637144168,2.3142461184905155e-05,-0.0036928449658325817,0.5041649581677443,0.7378870619437696,-5.899069495359049e-07
1776677670.385737,-0.0910107418894768,-0.0143701173365116,9.80521011352539,0.0033758098453980567,-9.021441866359064e-05,-0.004014184731513241,0.5038167297976452,0.7390620108846991,-6.513261147175885e-07
1776677670.407785,-0.0479003898799419,0.0095800785347819,9.79562950134277,0.0034390761647892934,-0.00022572919159876467,-0.004341468819119075,0.5036416518276746,0.7396407135785013,-1.6618453333708788e-06
1776677670.4297497,0.0335302725434303,0.0,9.80041980743408,0.003477068638183913,-0.00038359638231589855,-0.0046731962636439375,0.503467696429068,0.7402170500170399,-3.212867667926976e-06
1776677670.4517393,0.0766406282782555,-0.0335302725434303,9.80041980743408,0.0034828421659486137,-0.0005636423863256367,-0.005007791735087336,0.5032939380165584,0.7407940695474615,-5.350707289562363e-06
1776677670.4737372,0.1197509765625,0.0,9.77167987823486,0.0034503244571106205,-0.0007654366624498799,-0.005343655253141273,0.5031205368904287,0.7413712146749352,-8.11536340211704e-06
1776677670.4957364,0.134121090173721,-0.0143701173365116,9.78125953674316,0.0033750119676383182,-0.0009884063568619365,-0.005679265839056225,0.5029474893215047,0.7419484517630318,-1.1548094392754931e-05
1776677670.5167427,0.134121090173721,-0.0095800785347819,9.819580078125,0.003254325158941632,-0.0012318449449311127,-0.006013265099208509,0.50278271250139,0.7424992238646333,-1.5483807766388348e-05
1776677670.5397332,0.129331052303314,0.0,9.77167987823486,0.0030876434523375846,-0.0014948868737038696,-0.006344402184375332,0.5026027920215266,0.7431017788618208,-2.0572490665942086e-05
1776677670.5607343,0.0958007797598839,0.0,9.77167987823486,0.0028762260697841814,-0.0017765140198523178,-0.006671473638486044,0.5024387246122644,0.7436522086461971,-2.5973171824e-05
1776677670.5837462,0.0766406282782555,-0.0191601570695639,9.80521011352539,0.002623341457195747,-0.002075640815513065,-0.0069933586176685325,0.5022592969328763,0.744255091430482,-3.275689022729856e-05
1776677670.605736,0.0143701173365116,-0.0143701173365116,9.80521011352539,0.0023344547103500276,-0.0023913038844265823,-0.007308958123120899,0.5020878616427806,0.7448318772004402,-4.0136457208487e-05
1776677670.6267557,0.0,0.0047900392673909,9.80521011352539,0.002016939827518083,-0.0027228045853819383,-0.007617014790170267,0.5035174891622266,0.7393894104092862,-1.1481164595900018e-06
1776677670.6487367,-0.0718505829572678,0.0047900392673909,9.80521011352539,0.0016793092507549918,-0.003069663392396473,-0.00791601868135629,0.5032298340939095,0.7395470886113484,-1.1614270915546555e-06
1776677670.6707428,-0.0910107418894768,0.0095800785347819,9.82437038421631,0.0013303608409678874,-0.0034314709895964706,-0.008204217497222673,0.5031073067702571,0.7396802418479028,-3.1286756227992184e-06
1776677670.692735,-0.0814306661486626,0.0047900392673909,9.8100004196167,0.00097848434049356,-0.0038077826078164673,-0.008479620750678166,0.5029849214571257,0.7398129544852327,-6.10560444580299e-06
1776677670.7147355,-0.110170900821686,0.0047900392673909,9.8100004196167,0.0006312623341600341,-0.004198089097336971,-0.008740011847226456,0.5028627816969841,0.7399450226920136,-1.0119157145864998e-05
1776677670.737735,-0.0958007797598839,0.0047900392673909,9.80521011352539,0.0002953306158602441,-0.004601827688670616,-0.008983027144717182,0.5027350681826248,0.7400826127495721,-1.546333430169723e-05
1776677670.7597358,-0.0574804693460464,-0.0047900392673909,9.80521011352539,-2.3612338058628322e-05,-0.005018404820769401,-0.009206265187938371,0.5026128640498243,0.7402136913061841,-2.17027611702106e-05
1776677670.7807407,-0.0526904314756393,0.0047900392673909,9.80041980743408,-0.0003206130708585038,-0.005447224654854723,-0.009407372937822168,0.5024961715491143,0.7403382471693278,-2.871055441831671e-05
1776677670.802734,-0.0431103520095348,0.0,9.78125953674316,-0.0005912898317190034,-0.005887691950272011,-0.009584163083533638,0.5023739589905484,0.7404679667413396,-3.716909592928226e-05
1776677670.8257391,0.0,0.0,9.819580078125,-0.0008320774554087128,-0.00633915442434908,-0.00973482940569716,0.5022459718981261,0.7406029253286486,-4.727156720305406e-05
1776677670.8467362,0.0383203141391277,-0.0047900392673909,9.79084014892578,-0.0010406429473774673,-0.006800833237082701,-0.009858139239939421,0.502129075630063,0.7407253177157032,-5.762150952872013e-05
1776677670.8687396,0.0287402346730232,0.0,9.75730991363525,-0.0012158591837698831,-0.007271808884265835,-0.00995351347574512,0.5020064414425023,0.740852744808571,-6.963956927364004e-05
1776677670.890739,0.0095800785347819,0.0191601570695639,9.8100004196167,-0.0013574635320946606,-0.0077510242477159515,-0.010021091552245464,0.5018837242996266,0.740979187858626,-8.285851764385245e-05
1776677670.9126222,0.0143701173365116,-0.0047900392673909,9.78604984283447,-0.0014658874329770296,-0.00823725061731817,-0.010061717958989894,0.5017616497862644,0.7411038376730297,-9.719220798649643e-05
1776677670.9346104,0.0287402346730232,0.0095800785347819,9.77647018432617,-0.0015422370123292924,-0.008729074467988245,-0.010076797313613654,0.5016390163833038,0.7412278570386261,-0.00011277745735703044
1776677670.9566178,0.0383203141391277,-0.0047900392673909,9.77647018432617,-0.0015881864878757933,-0.009224949478526551,-0.010068211480841907,0.5015155072289135,0.7413514834132086,-0.00012966945250851336
1776677670.978613,0.0383203141391277,-0.0095800785347819,9.8100004196167,-0.0016057769957196068,-0.00972327325393954,-0.010038298643518902,0.5029410589155643,0.7398669572632784,-2.2124852374234747e-06
1776677671.000629,0.0335302725434303,0.0,9.79084014892578,-0.001597249256324809,-0.010222462616005968,-0.009989721354923844,0.5029240095264198,0.7398850091486241,-5.0822267997533246e-06
1776677671.0226197,0.0622705072164536,0.0,9.78125953674316,-0.0015649455707970978,-0.010720992346713679,-0.009925302013518121,0.502906781536936,0.739901780418405,-9.154758350925683e-06
1776677671.0446184,0.0431103520095348,0.0047900392673909,9.79562950134277,-0.0015111297190718782,-0.011217363703407798,-0.00984794445475413,0.5028893675120998,0.7399172248271116,-1.4423192669330948e-05
1776677671.066775,0.0526904314756393,0.0,9.79084014892578,-0.0014375801516546853,-0.011710035248324865,-0.009760500364526518,0.5028715970114616,0.7399314169949849,-2.0948602224790516e-05
1776677671.088741,0.0718505829572678,0.0,9.81478977203369,-0.0013451165074328374,-0.012197374231473303,-0.009665513010184743,0.5028538510457901,0.7399440035835526,-2.8582189002998783e-05
1776677671.1107354,0.0766406282782555,0.023950194939971,9.80521011352539,-0.0012333383778951588,-0.012677638992126157,-0.009565006451171103,0.5028359386383956,0.7399550946701815,-3.738233325047014e-05
1776677671.1327472,0.0574804693460464,0.0,9.8100004196167,-0.0011006255293471306,-0.013148953553157504,-0.009460415162004082,0.5028178637113117,0.7399646350881958,-4.7344866708371e-05
1776677671.1547372,0.0574804693460464,0.0,9.79562950134277,-0.0009443219849414384,-0.013609310434395203,-0.009352625372106873,0.5027996905896661,0.7399725443655962,-5.843076469935145e-05
1776677671.17674,0.0526904314756393,-0.0047900392673909,9.80521011352539,-0.0007610142780061135,-0.01405666203957641,-0.00924208088352676,0.5027814081234803,0.7399787840711434,-7.064445732930387e-05
1776677671.198733,0.0479003898799419,-0.0095800785347819,9.77647018432617,-0.0005467920466859625,-0.01448903880540369,-0.009128908139106953,0.5027630314445724,0.7399833010043074,-8.398021923837553e-05
1776677671.2207437,0.0526904314756393,0.0047900392673909,9.81478977203369,-0.00029744779067471326,-0.014904615444739974,-0.009013030466621483,0.5027446428973862,0.7399860340698505,-9.838270524385082e-05
1776677671.2427378,0.0287402346730232,-0.0047900392673909,9.8100004196167,-8.644332695071749e-06,-0.015301715068005662,-0.008894203012352594,0.5027260857102704,0.73998694558949,-0.00011399569733000182
1776677671.264743,0.0383203141391277,-0.0047900392673909,9.79562950134277,0.00032391258786464844,-0.015678790604779308,-0.008771962839474396,0.502707753231665,0.7399859799138606,-0.00013050031548496582
1776677671.2867398,0.0095800785347819,0.0,9.80521011352539,0.0007042649934599162,-0.016034434476896866,-0.008645658409735637,0.5026893983463823,0.7399830958591439,-0.00014813214469638534
1776677671.30879,0.023950194939971,-0.0047900392673909,9.80521011352539,0.001135934683442995,-0.016367407762252602,-0.008514636566499785,0.5026923482317222,0.7402057867649215,-2.769327949202375e-06
1776677671.3307416,0.0095800785347819,-0.0047900392673909,9.79084014892578,0.0016216649232980002,-0.016676663944226934,-0.008378453312766262,0.5026820934772672,0.7402151252563194,-5.37238813555948e-06
1776677671.3527434,-0.0383203141391277,0.0,9.81478977203369,0.002163251359785601,-0.016961363377598525,-0.008236981602670989,0.5026720419972955,0.7402224545680536,-8.985759280045876e-06
1776677671.374738,-0.0622705072164536,-0.0047900392673909,9.819580078125,0.0027613522406510576,-0.01722086668141151,-0.00809037860915124,0.5026622892515408,0.7402277157484728,-1.3586368916332562e-05
1776677671.3968604,-0.0958007797598839,0.0,9.81478977203369,0.003415197953972919,-0.01745471452650736,-0.00793895549675979,0.5027936583594997,0.7404990266549372,-2.166911783132511e-06
1776677671.418903,-0.114960938692093,-0.0047900392673909,9.8100004196167,0.0041223227934350385,-0.01766261324011518,-0.007783077846405485,0.5028041622026569,0.7405308949663701,-4.4639812218249156e-06
1776677671.4407609,-0.124541014432907,-0.0047900392673909,9.8100004196167,0.004878423153558346,-0.01784442973257558,-0.007623162120334977,0.502894269388648,0.7407855560654258,-1.7765860150361357e-06
1776677671.4626322,-0.129331052303314,0.0191601570695639,9.80521011352539,0.005677364596295038,-0.018000172785294838,-0.007459710593051462,0.502912427982909,0.7408336765887874,-3.850694092051291e-06
1776677671.4847996,-0.0862207040190697,0.0,9.80041980743408,0.00651136795910616,-0.018129928479316493,-0.007293339710578861,0.5030069504866385,0.7411168333865263,-1.6810615569918692e-06
1776677671.5066218,-0.0766406282782555,0.0143701173365116,9.80041980743408,0.00737140645592342,-0.01823379187701477,-0.007124806758654352,0.5030351923396512,0.7411924001229572,-3.6476856138560293e-06
1776677671.5286152,-0.0383203141391277,0.0,9.78604984283447,0.008247696085061457,-0.018311852295828813,-0.006955051892020789,0.503064798488722,0.7412669013086346,-6.49117225767575e-06
1776677671.5509176,-0.0095800785347819,0.0143701173365116,9.81478977203369,0.009130048960248775,-0.018364198415877893,-0.006785261173833461,0.5030135365997881,0.7414188675971988,-1.716813247124664e-06
1776677671.5726109,0.0095800785347819,0.0047900392673909,9.819580078125,0.010008106419424838,-0.018390905724590408,-0.006616869050707521,0.5030070812375075,0.7416252016288908,-1.3341226384264817e-06
1776677671.59462,0.0,0.0,9.78604984283447,0.01087161817093025,-0.018392034954945215,-0.006451466203172108,0.5030116134644116,0.7417075051270461,-3.05912077865908e-06
1776677671.6166196,0.0143701173365116,0.0,9.81478977203369,0.011710709860691074,-0.018367674309361762,-0.006290748611696538,0.5030175101279942,0.7417875374995222,-5.5544858772941265e-06
1776677671.6387663,0.0143701173365116,0.0047900392673909,9.80041980743408,0.012516042807056545,-0.018317992485878364,-0.006136527951890168,0.503004445692488,0.7417320068010039,-1.5250252363282683e-06
1776677671.6606634,0.0,0.0095800785347819,9.79562950134277,0.013278901636538852,-0.018243244228753244,-0.00599070773595609,0.5030081710713684,0.7417574774933307,-3.2429465152326115e-06
1776677671.682618,0.023950194939971,0.0,9.80041980743408,0.013991232349230673,-0.0181437397759657,-0.0058552607220553315,0.5030033256688805,0.7417157547861433,-1.3513244103660928e-06
1776677671.7046256,0.0143701173365116,-0.0191601570695639,9.77647018432617,0.014645672019459129,-0.01801985716939857,-0.005732246337685383,0.5030071072910891,0.7417189587803238,-2.959036462445135e-06
1776677671.7266212,0.0479003898799419,0.0,9.78125953674316,0.01523563099383228,-0.017872125172335787,-0.005623853157588825,0.5030032003312411,0.7417041432631828,-1.2832524976219424e-06
1776677671.7486274,0.0335302725434303,0.0095800785347819,9.78604984283447,0.0157554139788662,-0.017701266012653018,-0.005532440502973258,0.5030072508854975,0.7417014687395559,-2.8232065160484243e-06
1776677671.7706134,0.0287402346730232,-0.0191601570695639,9.80041980743408,0.01620036791587537,-0.017508134533491405,-0.005460471064006559,0.5030132307472933,0.7416966667854228,-5.026719342444706e-06
1776677671.7926176,0.0143701173365116,0.0095800785347819,9.80521011352539,0.016567097592798327,-0.017293660467969228,-0.005410257086143222,0.5030213632645619,0.7416896084444271,-7.948473989266867e-06
1776677671.8146117,-0.0047900392673909,0.0047900392673909,9.819580078125,0.01685365366184642,-0.01705881983083711,-0.005383633259352381,0.5030038066528187,0.7416029268962855,-1.3721502039637378e-06
1776677671.836612,0.0,0.0,9.80521011352539,0.017059483260008897,-0.01680457537437073,-0.005381752391169219,0.5030083474406872,0.7415893473950276,-2.8744356377133656e-06
1776677671.8586092,0.0,0.0047900392673909,9.80041980743408,0.017185196192404346,-0.016531838851491103,-0.005405078509135006,0.5030036556775815,0.7414914645139784,-1.215172498456852e-06
1776677671.880927,-0.0095800785347819,-0.0095800785347819,9.80521011352539,0.017232361822971363,-0.01624149529587196,-0.005453504934247605,0.5030082942336922,0.7414613122892676,-2.696113307569009e-06
1776677671.9028866,-0.0287402346730232,0.0095800785347819,9.81478977203369,0.017203338207843605,-0.015934440901155672,-0.005526465402565768,0.5030149961069575,0.7414293186976673,-4.834936856795516e-06
1776677671.9246128,-0.0479003898799419,-0.0047900392673909,9.80041980743408,0.01710103548434673,-0.015611593226745593,-0.005622977962883533,0.5030039178103394,0.7413880340383653,-1.2650025072436855e-06
1776677671.9466155,-0.0383203141391277,0.0143701173365116,9.8100004196167,0.0169286431942269,-0.015273869164103485,-0.0057416831999798565,0.5030023419953356,0.7412260282533201,-7.683561273805272e-07
1776677671.9686131,-0.0335302725434303,0.0,9.819580078125,0.01668945060849375,-0.01492215301570482,-0.005880898936313715,0.5030062011985655,0.7411734265609102,-2.078945316798359e-06
1776677671.990614,-0.0095800785347819,-0.0095800785347819,9.80521011352539,0.016386838423301322,-0.014557295311672346,-0.00603864542856157,0.5030120650729989,0.7411190074380816,-4.111903214806471e-06
1776677672.012656,-0.0095800785347819,-0.0095800785347819,9.81478977203369,0.016024342708253148,-0.014180163553583727,-0.006212649730298399,0.5030037967218497,0.741084252441939,-1.3345486973746618e-06
1776677672.0346186,0.0095800785347819,-0.0143701173365116,9.78125953674316,0.015605594184896165,-0.013791680434171052,-0.006400349742850095,0.5030082327649137,0.7410545964220996,-3.0165429435607873e-06
1776677672.056612,0.023950194939971,-0.0095800785347819,9.80041980743408,0.015134160952781417,-0.013392799275037764,-0.006598923978604228,0.5030145379086124,0.7410232304453733,-5.48854212572128e-06
1776677672.0786257,0.0287402346730232,0.0095800785347819,9.8100004196167,0.014613526367972744,-0.012984447975704446,-0.006805351577296738,0.5030226433794157,0.7409902708724904,-8.771804726547675e-06
1776677672.1009364,0.0526904314756393,-0.0047900392673909,9.78125953674316,0.014047229215348397,-0.012567455531865404,-0.007016450082654234,0.5030038965934381,0.740985700866214,-1.5797951516385002e-06
1776677672.1226134,0.0479003898799419,-0.0095800785347819,9.80041980743408,0.013439023610228848,-0.012142507737794609,-0.0072289284630299286,0.5030028523003035,0.7409903793090926,-1.2898660426068303e-06
1776677672.1446137,0.0335302725434303,-0.0095800785347819,9.81478977203369,0.01279296314235483,-0.011710192821018733,-0.007439461144538931,0.5030063872750861,0.7409816190279929,-3.131702242961139e-06
1776677672.1666398,0.0191601570695639,-0.0095800785347819,9.80521011352539,0.012113337709504582,-0.011271079846495705,-0.0076446800550879065,0.5030114326751535,0.7409714640634287,-5.888254743144799e-06
1776677672.1886117,0.0191601570695639,0.0047900392673909,9.80041980743408,0.011404490220689413,-0.01082574220739597,-0.007841140301745661,0.5030030482101466,0.7409934215528338,-1.6751693474430223e-06
1776677672.2106059,0.0,0.0,9.8291597366333,0.01067063247953422,-0.010374717007879283,-0.008025350062334534,0.5030023502671214,0.7411048958013503,-1.4603954561182607e-06
1776677672.2329047,-0.0095800785347819,0.0047900392673909,9.78604984283447,0.009915697052030359,-0.009918449286941028,-0.008193807341311818,0.5030021393793068,0.7412130284244814,-1.4964084550381297e-06
1776677672.25486,-0.0143701173365116,-0.0095800785347819,9.80521011352539,0.009143225876426308,-0.009457292963623427,-0.008343067981427258,0.5030047394217501,0.7412575751308063,-3.584907125906583e-06
1776677672.2768738,-0.0191601570695639,0.0143701173365116,9.80521011352539,0.008356369047402066,-0.008991590076563031,-0.00846988672738072,0.5030084155041543,0.7413013401854145,-6.704367113088277e-06
1776677672.2988613,-0.0191601570695639,0.0,9.77647018432617,0.007557985894892847,-0.008521746640742034,-0.008571341030903555,0.5030022226603061,0.7413135664511411,-1.9065053472978065e-06
1776677672.320863,-0.0143701173365116,0.0,9.8291597366333,0.006750728476971888,-0.008048248721049343,-0.008644891224387162,0.503001635127782,0.7414155157815627,-1.6235742891096046e-06
1776677672.342857,0.0,0.0,9.79084014892578,0.005937092004720956,-0.007571670565597382,-0.008688359961189492,0.5030034632021222,0.7414564424237858,-3.848383836492758e-06
1776677672.3648686,0.0143701173365116,-0.023950194939971,9.79562950134277,0.005119509815190436,-0.007092714576978747,-0.00869987334333882,0.5030059677927498,0.7414965984128788,-7.135336254485226e-06
1776677672.3868551,0.0,0.0,9.79084014892578,0.004300480690945633,-0.006612269122416394,-0.008677886303139037,0.5030015043922109,0.7415170206218349,-1.982683771614112e-06
1776677672.408855,0.0047900392673909,-0.0143701173365116,9.79562950134277,0.003482627325422224,-0.006131433316951049,-0.00862124887493066,0.503002839744354,0.7415390217374824,-4.372540103443529e-06
1776677672.43088,-0.0143701173365116,-0.0143701173365116,9.8100004196167,0.0026686438969126293,-0.00565148751928046,-0.008529194248684781,0.5030045557702466,0.7415604010188614,-7.818211998214262e-06
1776677672.452862,-0.0047900392673909,0.0191601570695639,9.80041980743408,0.0018611888347147708,-0.005173839514501433,-0.008401256079548624,0.5030010124846288,0.7416053992307036,-1.9951510797805295e-06
1776677672.4748683,-0.0095800785347819,0.0,9.78604984283447,0.0010627969181974438,-0.0046999204977251074,-0.008237208373976025,0.5030016921867277,0.741620168927961,-4.332292617081785e-06
1776677672.496857,-0.023950194939971,-0.0047900392673909,9.79562950134277,0.0002758131868810874,-0.004231078422756645,-0.008037081076347366,0.5030005286419131,0.7417089932583041,-1.820817755700183e-06
1776677672.5188582,-0.0047900392673909,-0.0095800785347819,9.79562950134277,-0.0004977140157667803,-0.0037685995515549177,-0.007801157781556464,0.5030007282039791,0.7417352310011633,-4.015133777163637e-06
1776677672.5408602,-0.0143701173365116,-0.0287402346730232,9.819580078125,-0.0012561388043048954,-0.003313829937702949,-0.007529867775130311,0.5030008215375729,0.7417610263598939,-7.136070404401145e-06
1776677672.56286,-0.0143701173365116,-0.0095800785347819,9.77647018432617,-0.0019982306261792085,-0.0028682811942931756,-0.00722366278459021,0.5030000690774931,0.7418093542606947,-1.8330290670754024e-06
1776677672.584863,0.0,-0.0047900392673909,9.78604984283447,-0.0027231251510173348,-0.002433644056590438,-0.006883028561444808,0.5029998183001726,0.7419144301294504,-1.4467395923362722e-06
1776677672.60686,0.0431103520095348,0.0,9.80041980743408,-0.003430205741218666,-0.0020116889797903706,-0.006508597799386917,0.5029996264088232,0.7420151947226944,-1.3188986826858566e-06
1776677672.6288614,0.0383203141391277,0.0,9.77167987823486,-0.004118854155037671,-0.0016041365705593254,-0.00610120125059294,0.5029988036708206,0.7420618305202261,-3.014877418136749e-06
1776677672.6508627,0.0287402346730232,-0.0095800785347819,9.79562950134277,-0.004788200915196313,-0.001212590072891785,-0.005661861346260296,0.5029974451578447,0.7421081599432655,-5.4167629184876325e-06
1776677672.6728642,0.0574804693460464,-0.0383203141391277,9.79562950134277,-0.0054370421252346555,-0.0008385687166995759,-0.005191784320498967,0.5029954662559447,0.7421544337269713,-8.478529124592866e-06
1776677672.6948593,0.0574804693460464,0.0,9.79084014892578,-0.006063834190958838,-0.0004836133652809582,-0.004692307997574681,0.5029927913417837,0.742200627536885,-1.2138463953161735e-05
1776677672.716861,0.0574804693460464,-0.0095800785347819,9.79562950134277,-0.006666651642293736,-0.0001493187785690919,-0.004164842619257684,0.5029893490571054,0.7422467464249152,-1.6330886974365704e-05
1776677672.7388613,0.0383203141391277,0.0,9.8100004196167,-0.007243170355114691,0.00016276139680631695,-0.0036108709786527265,0.5029850619834004,0.7422929084259663,-2.099761013875986e-05
1776677672.7608871,0.0143701173365116,-0.0143701173365116,9.80041980743408,-0.007790724441301185,0.0004511830642020365,-0.0030320117265677173,0.5029798522085137,0.7423392107740495,-2.6078171244643194e-05
1776677672.782861,0.0143701173365116,-0.0143701173365116,9.81478977203369,-0.008306433805417323,0.0007145706156029719,-0.002430113894316613,0.5029736889327938,0.7423854087753765,-3.146985917809769e-05
1776677672.8048608,0.0095800785347819,0.0,9.81478977203369,-0.00878738167715612,0.0009515609011660898,-0.0018072862191285378,0.5029664835252173,0.7424317709300743,-3.7125153319020234e-05
1776677672.826861,0.0047900392673909,-0.0047900392673909,9.79084014892578,-0.009230767903619912,0.0011608255682406324,-0.0011658490881979338,0.5029988532210958,0.7420235212911752,-1.5677715950430867e-06
1776677672.8488598,-0.0095800785347819,-0.0047900392673909,9.79084014892578,-0.009634018265911032,0.0013411424139071057,-0.0005083374457700988,0.5029986978475965,0.7420089284221812,-6.901474059540663e-07
1776677672.8708558,-0.023950194939971,-0.0047900392673909,9.79084014892578,-0.0099949067041979,0.0014914342538558801,0.00016242742836369053,0.5029984522388045,0.7420038537220878,-3.232341085901568e-07
1776677672.8928738,-0.0095800785347819,0.0,9.79562950134277,-0.01031168684233387,0.0016107753825856709,0.0008433163687407439,0.5029959482230296,0.7420047256877984,-3.5787347430392587e-07
1776677672.914855,-0.0287402346730232,0.0047900392673909,9.80041980743408,-0.010583160692671576,0.001698413417429772,0.001530961221700091,0.5029921911461798,0.7420057947770863,-2.4929391327580487e-07
1776677672.9368823,-0.0287402346730232,0.0047900392673909,9.79084014892578,-0.010808688614737202,0.0017538124488764137,0.002221852505493869,0.5029871099458836,0.7420070804714509,8.823703453391445e-08
1776677672.9588656,-0.023950194939971,-0.0047900392673909,9.78125953674316,-0.010988196328817569,0.0017766791981025257,0.0029123915675846545,0.5029807345886118,0.7420085734930257,7.347642116375238e-07
1776677672.9808574,-0.0143701173365116,0.0047900392673909,9.819580078125,-0.011122135978832149,0.001766957085365355,0.0035988820810728805,0.5029729824822718,0.7420102895086492,1.7806990246938678e-06
1776677673.0028741,0.0,-0.0095800785347819,9.79084014892578,-0.011211335197978472,0.001724836041511023,0.004277509013048076,0.5029639620188805,0.7420121990288309,3.2898937123488968e-06
1776677673.0248556,-0.0287402346730232,0.0,9.80041980743408,-0.01125680868798095,0.0016507840204056765,0.0049443116463045896,0.5029973758419252,0.7420010393712806,2.759457282330974e-07
1776677673.0468616,-0.0287402346730232,0.0,9.79084014892578,-0.011259695087610565,0.0015455533367445145,0.005595147719361777,0.5029941955883388,0.7420015682955061,1.4211069551906487e-06
1776677673.0688646,0.0,-0.0143701173365116,9.8100004196167,-0.011221309441031526,0.0014101567806378864,0.006225710882440115,0.5029896616234371,0.7420022748976394,3.279506786375393e-06
1776677673.0908673,0.0,-0.0047900392673909,9.80041980743408,-0.011143112241766059,0.0012458139056162158,0.00683162777217505,0.5029837726679254,0.7420031424483213,5.928861586887884e-06
1776677673.1128614,0.0,0.0,9.78604984283447,-0.01102656491830771,0.0010538940395661365,0.00740855701367796,0.502997351925742,0.7420004752148738,1.1014282091615776e-06
1776677673.1348538,0.0,-0.0047900392673909,9.78125953674316,-0.010873032715785439,0.0008359087446825307,0.007952198320428068,0.5029979020337835,0.7419108916040019,1.1693922317897162e-06
1776677673.1568592,0.0143701173365116,-0.0047900392673909,9.79562950134277,-0.010683767744678056,0.0005935204017633237,0.008458251058727408,0.5029950665040905,0.7418906774936264,3.1497322317609746e-06
1776677673.1788766,0.0095800785347819,0.0095800785347819,9.80521011352539,-0.010459887145093617,0.00032852983061940197,0.008922455305451424,0.5029909197474816,0.7418704220461823,6.206337973117913e-06
1776677673.2008648,0.0143701173365116,-0.0047900392673909,9.79562950134277,-0.010202338826361363,4.287629149982284e-05,0.009340728268614044,0.5029856003403459,0.7418505192769641,1.0309045878071223e-05
1776677673.222863,0.0095800785347819,0.0047900392673909,9.79084014892578,-0.009911913113530787,-0.00026135641993110846,0.009709306763857763,0.5029790156198004,0.7418304129631554,1.5601365322335803e-05
1776677673.2448618,0.0047900392673909,0.0,9.80041980743408,-0.009589332021761165,-0.0005819504140297324,0.01002491018229374,0.5028996298123579,0.7417948091811853,2.0544946110470108e-06
1776677673.266863,0.0,0.0,9.79084014892578,-0.009235386133507117,-0.0009165652527474772,0.010284940154081499,0.50288737525121,0.7417822035827641,4.7751254968111725e-06
1776677673.2888641,-0.023950194939971,-0.023950194939971,9.80041980743408,-0.008851067119441267,-0.0012627805236636528,0.010487592366398062,0.5028740289495814,0.7417694707529279,8.75402885847718e-06
1776677673.3108559,-0.0287402346730232,-0.0047900392673909,9.82437038421631,-0.008437699127227869,-0.0016181987385762724,0.010631861919134133,0.5028596879839865,0.7417566097733043,1.3991957434078529e-05
1776677673.332866,-0.0191601570695639,0.0,9.82437038421631,-0.007997054491173498,-0.0019805207253998165,0.010717578330363076,0.5028442773094539,0.741743464909076,2.055128232496517e-05
1776677673.3548636,-0.0047900392673909,0.0095800785347819,9.81478977203369,-0.007531355459452008,-0.0023475063606259545,0.010745460488296216,0.5028279935671021,0.7417301141450675,2.837951369392448e-05
1776677673.37687,-0.0047900392673909,0.0,9.79562950134277,-0.007043135847678481,-0.002716885822635029,0.010717049610361577,0.5028107917708734,0.7417164270811981,3.7523496020922266e-05
1776677673.3988588,0.0047900392673909,0.0,9.77167987823486,-0.006535067064396804,-0.0030863332766863983,0.010634478743159658,0.502792498013143,0.7417021803134838,4.812276330070642e-05
1776677673.4208598,0.0047900392673909,0.0095800785347819,9.79084014892578,-0.006009829060598238,-0.0034535025296360726,0.01050018345049395,0.5027958999620928,0.7415982128335642,2.5808409008931163e-06
1776677673.4428554,0.0191601570695639,0.0191601570695639,9.81478977203369,-0.005470016618245873,-0.003816037414341599,0.010316742350419189,0.5027873207091513,0.7415848072568482,5.586623428597968e-06
1776677673.4648623,0.0095800785347819,0.0,9.80041980743408,-0.004918055256363746,-0.004171539125569768,0.010086915722572042,0.5027026838857728,0.7414085055987584,2.217173865759672e-06
1776677673.4868596,0.0,0.0287402346730232,9.79084014892578,-0.0043561522050276,-0.004517557735481409,0.009813679423647899,0.502684638985271,0.7413744303202977,4.9636373234260315e-06
1776677673.50975,-0.0047900392673909,0.0,9.79562950134277,-0.003786329472261009,-0.004851613002390468,0.009500103611871782,0.5025940263979007,0.7411897907376315,2.220627771106785e-06
1776677673.530739,-0.0431103520095348,0.0,9.80521011352539,-0.003210547768056791,-0.005171239837373774,0.009149221660427524,0.5025690288076929,0.7411407683593182,4.707354359703471e-06
1776677673.5537393,-0.0047900392673909,0.0143701173365116,9.78125953674316,-0.0026308715995105505,-0.005474075688328018,0.008764004210866169,0.5025411575205309,0.7410861575430073,8.580403265973761e-06
1776677673.5747612,-0.023950194939971,0.0191601570695639,9.8100004196167,-0.0020495510064981143,-0.00575790063537842,0.008347358197151322,0.5025154795260233,0.7410357285141232,1.3104365662327373e-05
1776677673.5967605,-0.0095800785347819,0.0431103520095348,9.79562950134277,-0.0014689668731810621,-0.006020559353359407,0.007902125547496296,0.5024883586985549,0.7409821748979372,1.8810016049778187e-05
1776677673.618758,0.0,0.0095800785347819,9.80521011352539,-0.0008915298894797313,-0.006259852632550482,0.0074311160543648995,0.5024611799130316,0.7409280461399272,2.542523503923479e-05
1776677673.6407528,-0.0095800785347819,-0.0047900392673909,9.81478977203369,-0.0003195843936239688,-0.006473555073689119,0.006937147298358549,0.5024339080035864,0.7408731079286874,3.291389823558746e-05
1776677673.6627584,0.0095800785347819,-0.0047900392673909,9.79562950134277,0.0002446738642044106,-0.0066595999344744375,0.006423072813904616,0.5024066463377839,0.740817405907455,4.120581783798195e-05
1776677673.6857498,0.023950194939971,-0.0095800785347819,9.81478977203369,0.0007992757001104266,-0.006816274394420905,0.005891782658495022,0.5023781777197444,0.7407582257608355,5.068181168086871e-05
1776677673.7067554,0.0047900392673909,-0.0047900392673909,9.82437038421631,0.001342590545582797,-0.00694230060339271,0.00534618910393867,0.5023523327981623,0.7407034518132484,5.9975322061167436e-05
1776677673.7287683,0.0143701173365116,0.0095800785347819,9.79084014892578,0.001873422836240128,-0.007036827200067775,0.004789217039398823,0.5023254141441016,0.74064516988216,7.032267863031421e-05
1776677673.7517574,0.0383203141391277,0.0047900392673909,9.78604984283447,0.0023910592756098154,-0.007099361940628625,0.004223708058604949,0.5022976176151446,0.7405834772528739,8.169454464618341e-05
1776677673.7737575,0.0143701173365116,0.0,9.80521011352539,0.0028953166069667574,-0.007129689401457019,0.003652248166370075,0.5022712790769782,0.7405234141496188,9.309211634520072e-05
1776677673.7947671,0.0047900392673909,0.0047900392673909,9.81478977203369,0.003386528677167433,-0.0071278371093812225,0.003077117935998754,0.5022465421426747,0.7404653927449009,0.00010433000200614387
1776677673.8167675,0.0287402346730232,0.0047900392673909,9.77647018432617,0.003865417280104994,-0.007094070122886223,0.0025003774522590113,0.5022210296526355,0.7404037042558207,0.00011644424122379507
1776677673.8397617,0.0191601570695639,-0.0047900392673909,9.819580078125,0.004332986216973646,-0.007028875248669144,0.0019239011540957633,0.5021948766180969,0.7403382669442897,0.000129400758428452
1776677673.8617444,0.0143701173365116,0.0143701173365116,9.79084014892578,0.004790500720472716,-0.006932945125924966,0.001349365519048241,0.5023891523851035,0.7397925370863869,2.8058895680086744e-06
1776677673.883827,0.0191601570695639,0.0,9.80041980743408,0.005239444710807492,-0.006807149350124245,0.0007782744384336093,0.5022169931853857,0.7385398051925592,1.1608825297712796e-06
1776677673.9047582,-0.0047900392673909,0.0287402346730232,9.8100004196167,0.00568142518016559,-0.006652473314782299,0.00021198191596004428,0.5021803135037851,0.7382758939138482,1.5421325344519644e-06
1776677673.926766,-0.0143701173365116,0.0,9.83395004272461,0.006118037081719253,-0.006469947535579563,-0.0003482532809797464,0.5019948929272855,0.7369640896180316,4.39116445823419e-07
1776677673.9487593,-0.0335302725434303,0.0095800785347819,9.80521011352539,0.006550640378684495,-0.006260621359990132,-0.0009011176218980942,0.5019444610799018,0.7365991344485026,4.552578864553778e-07
1776677673.9717648,-0.0383203141391277,0.0095800785347819,9.82437038421631,0.006980030948536402,-0.006025596152323285,-0.0014450740300821511,0.5017746807673774,0.7354145946226729,2.324433950150128e-08
1776677673.993762,-0.023950194939971,0.0,9.819580078125,0.007406141929977348,-0.005766056852777153,-0.001978252523987095,0.501716594305182,0.7349935296834406,-2.8943246886910024e-07
1776677674.015774,-0.0335302725434303,-0.0191601570695639,9.82437038421631,0.00782797300402999,-0.0054833060118530215,-0.0024984100459371685,0.501659394997413,0.7345715276625505,-8.733782690950619e-07
1776677674.0367608,-0.0431103520095348,0.0143701173365116,9.819580078125,0.008243705899324095,-0.0051788295514789955,-0.0030029583454313307,0.5015849024832744,0.7340826067959376,-3.202459982542194e-07
1776677674.0587628,-0.023950194939971,0.0,9.77647018432617,0.008650826388458996,-0.004854298142372617,-0.0034890796373024937,0.5013818409366985,0.732764494545703,-4.4146980462532956e-07
1776677674.081757,-0.0143701173365116,0.0,9.819580078125,0.009046263665696977,-0.004511483673194881,-0.003953928424111131,0.5013032439514319,0.7322303765137455,-1.3335462684757629e-06
1776677674.1037593,0.0047900392673909,0.0,9.80521011352539,0.009426624923345877,-0.004152212193879309,-0.004394779233147076,0.5012292927056456,0.7317195246567719,-2.7020854362280967e-06
1776677674.1247637,0.0095800785347819,0.0143701173365116,9.79562950134277,0.009788473669829115,-0.0037783569299953846,-0.0048090362571583355,0.5012709852545243,0.7314251072538019,-7.936449977985374e-07
1776677674.1477716,0.0431103520095348,-0.0047900392673909,9.79562950134277,0.010128585913949493,-0.0033918007731797532,-0.005194250467203711,0.5010673817420643,0.7291994939677646,-8.542532504201208e-07
1776677674.1697567,0.0526904314756393,0.0047900392673909,9.79562950134277,0.010444197292898758,-0.0029944077229603146,-0.005548203060031618,0.5008579975460626,0.7269654369400863,-9.180314267808018e-07
1776677674.1918745,0.0670605450868607,-0.0095800785347819,9.79562950134277,0.010733308149352831,-0.0025880452928894217,-0.005868962306153783,0.5007573886500085,0.7258843966648225,-2.32662323366986e-06
1776677674.2137382,0.0335302725434303,-0.0095800785347819,9.78125953674316,0.010995076700698622,-0.002174628343083615,-0.006154916997512604,0.5006597301135938,0.7248208304648687,-4.430067894138576e-06
1776677674.2357395,0.0335302725434303,0.0191601570695639,9.77647018432617,0.011230100766924303,-0.0017561331656917156,-0.0064048454178611235,0.5005622370802838,0.7237442324608959,-7.316313111610617e-06
1776677674.2568648,0.0,-0.0191601570695639,9.79084014892578,0.011440329529470059,-0.0013345473591109078,-0.006617987585580383,0.5006617562659254,0.7239356990784048,-1.343882865772778e-06
1776677674.279859,0.023950194939971,-0.0095800785347819,9.79562950134277,0.011628708946590072,-0.0009118389526827501,-0.006794028760788543,0.5006264418343634,0.7234333034901745,-3.2089708620962243e-06
1776677674.3018577,-0.0143701173365116,-0.0095800785347819,9.81478977203369,0.011798845851552522,-0.0004900110847681487,-0.0069329731739589135,0.5005791961182069,0.7221386678146331,-1.3848954252380693e-06
1776677674.3238747,0.0,0.0095800785347819,9.83874034881592,0.011954756099105221,-7.112097038436635e-05,-0.0070349517688171725,0.5005517952170828,0.7216156010560336,-3.2331118265732447e-06
1776677674.3458676,-0.0143701173365116,-0.0191601570695639,9.78604984283447,0.012100648056916932,0.0003427919776866141,-0.007100049369310895,0.5004851311708376,0.7202375924601252,-1.466803460630991e-06
1776677674.367864,-0.0047900392673909,0.0,9.80521011352539,0.01224076436597108,0.0007497509721858474,-0.007128301083878947,0.5004585392151969,0.719686268318248,-3.3611388391533475e-06
1776677674.3898535,0.0,-0.0047900392673909,9.8100004196167,0.01237930511081742,0.0011478330380398295,-0.007119828087714695,0.5004333775575646,0.7191338285362264,-6.121785169596774e-06
1776677674.411857,-0.0047900392673909,0.0,9.83395004272461,0.012520408055898703,0.0015351879528550055,-0.007074870483347087,0.5002892670264092,0.7164728913803023,-1.0460161112250852e-06
1776677674.4338615,0.0,-0.0047900392673909,9.79084014892578,0.01266809144662052,0.001910058973535252,-0.00699370222844637,0.5001815437242728,0.7144128313563373,-1.2483810663672876e-06
1776677674.4558628,0.0,-0.0143701173365116,9.82437038421631,0.012826045244498778,0.002270705810753639,-0.006876640668610243,0.5001269378142617,0.7133156504467084,-3.020354993865888e-06
1776677674.477856,0.0191601570695639,0.0047900392673909,9.79562950134277,0.012997373889582784,0.00261526712412739,-0.006724157720648635,0.5000740339797741,0.7122215199535691,-5.612157603118142e-06
1776677674.499861,0.0383203141391277,-0.0095800785347819,9.78604984283447,0.013184546664643792,0.0029417111840853542,-0.006536972578101329,0.5000226426125753,0.711126161310848,-9.012053152182086e-06
1776677674.521857,0.0383203141391277,-0.0143701173365116,9.80041980743408,0.013389581107487662,0.0032478792904500494,-0.006316131762006958,0.4999730318616516,0.7100349238912332,-1.3176540991453926e-05
1776677674.5428648,0.0335302725434303,-0.0191601570695639,9.79084014892578,0.01361424142793065,0.0035314998839999366,-0.0060630514303390715,0.500464298718039,0.7124082062659008,-1.6253579628804074e-06
1776677674.5658672,0.0383203141391277,0.0095800785347819,9.79084014892578,0.013860113954827651,0.0037901906280114325,-0.00577948387398456,0.5004878273631108,0.7120533773797781,-3.465369646383201e-06
1776677674.5878577,0.0143701173365116,0.0,9.819580078125,0.014128586009359382,0.004021553646077599,-0.005467449994161889,0.5007757509843216,0.7109089650208527,-1.3442673664400099e-06
1776677674.6098728,0.0095800785347819,-0.0095800785347819,9.79562950134277,0.014420760397697758,0.004223309962226175,-0.0051291349412121295,0.5008274404788853,0.71054906140186,-2.871437544628732e-06
1776677674.6319,0.0047900392673909,-0.0095800785347819,9.82437038421631,0.014737329372001867,0.004393336425142225,-0.00476677084796057,0.500880798572928,0.7101903726310966,-4.995748147647245e-06
1776677674.6538653,0.0047900392673909,-0.0095800785347819,9.8100004196167,0.015078484817290091,0.004529623680111549,-0.004382557313637394,0.5009358239646802,0.7098331108657874,-7.667020748976865e-06
1776677674.6758556,0.0,-0.0047900392673909,9.80521011352539,0.015443899290843565,0.004630270908771855,-0.003978606264464531,0.5012113313627993,0.7113249392267117,-1.2700277176993142e-06
1776677674.6978965,0.0,0.0047900392673909,9.80521011352539,0.015832733291357832,0.0046935634416506045,-0.0035569081924100568,0.501574735315019,0.7118840393329865,-8.80189982703292e-07
1776677674.7198548,-0.0095800785347819,0.0,9.80521011352539,0.016243639185361074,0.0047180938446129694,-0.003119316988064616,0.5016792996672954,0.7119850298145192,-1.8498967189714841e-06
1776677674.7418609,0.0,-0.0095800785347819,9.80041980743408,0.016674775476618782,0.004702832191588104,-0.002667546482982696,0.5017859280007303,0.7120866625798946,-3.1697858442254654e-06
1776677674.7638664,0.0,-0.0095800785347819,9.79562950134277,0.017123860120046824,0.004647091908033384,-0.0022031985455755166,0.5020252820882981,0.7134656914728417,-7.866635425254762e-07
1776677674.785859,0.0,0.0143701173365116,9.8100004196167,0.017588265217578666,0.004550471781083801,-0.0017278047421445948,0.5025952204936678,0.715665567427942,-5.200714031205193e-07
1776677674.8078578,-0.0047900392673909,-0.0047900392673909,9.80521011352539,0.018065107185474376,0.004412872971937137,-0.0012428273747957447,0.5029471180414544,0.7170137150048818,-3.844954408914102e-07
1776677674.8298602,-0.0095800785347819,-0.023950194939971,9.79562950134277,0.018551293441455584,0.004234514733717135,-0.0007496346631961863,0.5031838656931203,0.7178772674427827,-7.390889954883811e-07
1776677674.8518617,0.0,0.0,9.8100004196167,0.019043544707752977,0.004015845360652925,-0.00024951027456591535,0.5034274600738148,0.7187577685536309,-1.1623445145241844e-06
1776677674.8739011,-0.0191601570695639,-0.0143701173365116,9.79084014892578,0.01953842663482221,0.00375745125122572,0.00025631669359402827,0.5033129504848625,0.7185904543456041,-2.2673150890529345e-07
1776677674.8958607,-0.0143701173365116,0.0047900392673909,9.79084014892578,0.020032371875175516,0.0034600643722666876,0.0007666376388776695,0.5034232323069613,0.7190100582973565,-2.4255585780687737e-07
1776677674.9179218,-0.0191601570695639,0.0047900392673909,9.8100004196167,0.02052165948437603,0.003124627213077705,0.0012801885897742646,0.5035327121996428,0.7194177903553096,-1.3612234535873848e-07
1776677674.9396203,-0.0479003898799419,0.0095800785347819,9.8100004196167,0.02100233268204701,0.0027523883835006875,0.0017955398498705104,0.5036443299824723,0.7198247663489259,1.5022949666416495e-07
1776677674.9616234,-0.0383203141391277,0.0,9.81478977203369,0.021470056892568243,0.002344984124657006,0.0023110137798808893,0.5037603920299444,0.7202389566115767,6.88187243376444e-07
1776677674.983634,-0.0574804693460464,-0.0047900392673909,9.80521011352539,0.02192001088667439,0.0019044248553247102,0.00282467496416652,0.5038790883834406,0.7206534317740237,1.5370630795904896e-06
1776677675.0056138,-0.023950194939971,-0.0047900392673909,9.79562950134277,0.02234691097576362,0.0014329967480215342,0.0033343519714436175,0.5040003572191777,0.7210677465528113,2.7575349653270864e-06
1776677675.0286229,0.0095800785347819,-0.0095800785347819,9.81478977203369,0.022745208414028485,0.0009331567602342419,0.0038376427929890833,0.5035548579526573,0.7200760602198741,2.460877499969127e-07
1776677675.049608,0.0047900392673909,0.0095800785347819,9.8100004196167,0.02310944452781422,0.00040747489600228274,0.004331958179048766,0.5035882656516901,0.7202122715172383,1.1027757233873147e-06
1776677675.0706146,0.0191601570695639,0.0,9.80041980743408,0.023434597681502863,-0.0001413613383374033,0.004814613970737575,0.5036242415661588,0.7203485097537855,2.463641532236351e-06
1776677675.093606,0.0479003898799419,-0.0047900392673909,9.78604984283447,0.02371629841788975,-0.0007105285984674991,0.0052828649928035945,0.5036672536843062,0.7204997946256012,4.6294640773682394e-06
1776677675.1156209,0.0526904314756393,0.0191601570695639,9.80521011352539,0.0239510029737057,-0.0012970852724112961,0.005733863196355694,0.5037106731380496,0.7206419817387426,7.349890616298788e-06
1776677675.1376145,0.0526904314756393,0.0191601570695639,9.81478977203369,0.0241361547609148,-0.0018979634680148956,0.0061646726389022405,0.5037220588895674,0.7216626274038042,9.295882219831211e-07
1776677675.1596196,0.0526904314756393,0.0,9.83395004272461,0.024270311619092363,-0.002509917988015702,0.006572448808397609,0.5037519065384651,0.7218450286513676,2.492185366642001e-06
1776677675.1818962,0.0526904314756393,-0.0047900392673909,9.79562950134277,0.024353375266688328,-0.003129551474200499,0.006954729390958727,0.5035150476283317,0.7233907916316431,1.2013603547121862e-06
1776677675.203623,0.0526904314756393,0.0,9.80041980743408,0.024386886692272017,-0.0037534341443162377,0.007309617916323667,0.5034861463890352,0.7237906970100233,2.9960223093206538e-06
1776677675.2256181,0.023950194939971,-0.0095800785347819,9.82437038421631,0.02437407167243035,-0.004378207728459828,0.007635762076246634,0.5033137386334363,0.7250982327539537,1.41975981551733e-06
1776677675.2476258,0.0047900392673909,0.0143701173365116,9.819580078125,0.024319530651900775,-0.0050006230979614645,0.007932317016774583,0.503282453875822,0.7254596350680257,3.4170252764193527e-06
1776677675.2696161,-0.023950194939971,0.0095800785347819,9.82437038421631,0.024228750245718134,-0.005617512547571419,0.008198990723198261,0.5032538569085023,0.7258237706586735,6.423541729472931e-06
1776677675.2916052,-0.0287402346730232,0.0,9.819580078125,0.024107610733573807,-0.006225737088139306,0.008436054904029888,0.5032284355374376,0.7261842597939776,1.0419677220260078e-05
1776677675.3136194,-0.0622705072164536,0.0095800785347819,9.78604984283447,0.023961977586534657,-0.006822190670267605,0.008644252970073788,0.5032059439334371,0.7265437526354837,1.544941818525679e-05
1776677675.3356097,-0.023950194939971,-0.0047900392673909,9.79562950134277,0.023797416521776086,-0.007403856995063411,0.008824608612343068,0.5029967217359436,0.7255506838832834,1.927634768529194e-06
1776677675.3576183,-0.0191601570695639,0.0047900392673909,9.82437038421631,0.023619103005440577,-0.00796786290810351,0.008978251164210352,0.5029691810895005,0.725631285098747,4.349756703079847e-06
1776677675.3796084,-0.0191601570695639,-0.0047900392673909,9.8100004196167,0.02343192813331752,-0.008511519596486213,0.0091064164889272,0.5029444943130422,0.7257108727090856,7.866222306880595e-06
1776677675.401894,-0.0335302725434303,0.0047900392673909,9.80041980743408,0.023240533251934432,-0.009032365778762506,0.009210519252289495,0.5026131374217402,0.7257437115643676,2.0333711224429897e-06
1776677675.423613,-0.0287402346730232,-0.0047900392673909,9.80521011352539,0.023048991113521888,-0.009528242091073169,0.009292091095599128,0.5021701938261783,0.7248746302945872,1.6996678520581802e-06
1776677675.4456124,-0.023950194939971,0.0143701173365116,9.8100004196167,0.02286032895784277,-0.009997373682300532,0.009352648714209662,0.5017533088053597,0.7240282780295575,1.6965076013291669e-06
1776677675.4676106,0.0191601570695639,0.0143701173365116,9.81478977203369,0.022676371406282345,-0.010438368194685469,0.0093936546776392,0.5015742002094169,0.7236769254247784,4.08332726450412e-06
1776677675.4886272,0.0335302725434303,-0.0143701173365116,9.80041980743408,0.02249802085972428,-0.010850150373246738,0.009416548823099481,0.5014052487443917,0.7233392617168984,7.436231379204351e-06
1776677675.511615,0.0814306661486626,0.0143701173365116,9.80521011352539,0.022325734114502775,-0.01123195542342944,0.009422744462811683,0.501223742837702,0.722969435136214,1.228769055309875e-05
1776677675.5336437,0.0287402346730232,0.0,9.79084014892578,0.022159944761879165,-0.011583350611489485,0.009413573259186358,0.5013355728727449,0.7231726989900593,2.240677429982126e-06
1776677675.5556157,0.0047900392673909,0.0047900392673909,9.83395004272461,0.02200119775612034,-0.011904198608984829,0.009390256100062874,0.5012705867729568,0.7230308690758241,4.864725471349351e-06
1776677675.5776157,-0.023950194939971,0.0047900392673909,9.81478977203369,0.021849913226305646,-0.012194610412328702,0.00935397820562143,0.5012080642729054,0.7228871719893559,8.629733644785578e-06
1776677675.5986118,-0.0431103520095348,0.0143701173365116,9.79084014892578,0.021706002156848384,-0.012454911359890327,0.00930598291326622,0.500970949264036,0.7222371781665728,2.097959827685665e-06
1776677675.6216068,-0.0287402346730232,0.0095800785347819,9.80521011352539,0.021568598039565456,-0.012685584115431817,0.009247520885288508,0.5008988475514571,0.7220462954175988,4.7745897049943395e-06
1776677675.643609,-0.0143701173365116,0.0,9.81478977203369,0.02143601116182275,-0.012887201306820039,0.00917973317754266,0.5008324061708034,0.7218617471194005,8.483562673206773e-06
1776677675.6656013,0.0191601570695639,0.0047900392673909,9.80041980743408,0.021305902999428958,-0.013060354447013409,0.009103621672504846,0.5007686441140285,0.7216758727552274,1.329571850509019e-05
1776677675.6886141,0.0574804693460464,0.0,9.77647018432617,0.021175628461803042,-0.013205576239434795,0.00902002090814848,0.5005854313185281,0.7213500617244775,2.3417819907174787e-06
1776677675.7096035,0.0622705072164536,0.0191601570695639,9.79562950134277,0.021042669292030258,-0.013323284061627898,0.0089294854476103,0.5005434341655802,0.7212373170729143,4.801704516855211e-06
1776677675.731604,0.0910107418894768,0.0143701173365116,9.78125953674316,0.02090502331865087,-0.013413737863059404,0.008832206088034127,0.5005018806652822,0.7211175301937827,8.4301466690931e-06
1776677675.7536068,0.0574804693460464,0.0047900392673909,9.8100004196167,0.020761422136705624,-0.013477010893039244,0.008728046447943609,0.500462830763262,0.7209960632954531,1.3122989386329794e-05
1776677675.7756062,0.0383203141391277,0.0,9.78604984283447,0.020611309771097333,-0.013513032031689826,0.008616651327555479,0.5002857882636439,0.7204550975470733,2.2010073605728524e-06
1776677675.797605,0.0143701173365116,0.0047900392673909,9.80521011352539,0.020454583941094985,-0.013521688451752148,0.008497541626366487,0.4999643224194867,0.7194853537989185,1.708042318393105e-06
1776677675.819606,0.0047900392673909,0.0,9.81478977203369,0.020291242045422177,-0.013502900786753279,0.008370183866737947,0.4996538395520302,0.7184498922742195,1.6105959205992401e-06
1776677675.8416066,-0.0191601570695639,-0.0047900392673909,9.8100004196167,0.020121088255579324,-0.013456656823771793,0.00823408470681021,0.4995149317059183,0.7179821835642507,3.7712675785114687e-06
1776677675.8636062,-0.0287402346730232,0.0335302725434303,9.80041980743408,0.019943521954928697,-0.013383013858005373,0.008088871067334575,0.4993786211578423,0.7175134510841825,6.915084452716905e-06
1776677675.8856022,-0.0335302725434303,-0.0095800785347819,9.80041980743408,0.019757385104440344,-0.013282039954917352,0.00793426663480533,0.4992423789433717,0.7170348432597843,1.1106744216221242e-05
1776677675.9076073,-0.0383203141391277,0.0143701173365116,9.8291597366333,0.019560883323600557,-0.013153760026620562,0.0077700193994757125,0.499822409899896,0.7174201769413799,1.9734056920092034e-06
1776677675.9296072,-0.0287402346730232,0.0,9.819580078125,0.019351596699944594,-0.012998179836788618,0.0075959133221736325,0.49982131845267397,0.7172387816173089,4.1782570366061265e-06
1776677675.9516096,-0.0095800785347819,0.0095800785347819,9.79562950134277,0.019126597133352397,-0.01281532420672489,0.0074118297112836205,0.499822557147848,0.7170557106801804,7.293561288625124e-06
1776677675.9736233,-0.0191601570695639,0.0143701173365116,9.80041980743408,0.01888265929965683,-0.012605239455272308,0.00721770365274557,0.4998261059149994,0.7168708246811649,1.1301904194817688e-05
1776677675.9956064,-0.023950194939971,0.0047900392673909,9.82437038421631,0.01861645403240219,-0.012367978357677237,0.007013426315326506,0.4998319061219928,0.7166851613676924,1.6154164427925436e-05
1776677676.0166073,-0.0047900392673909,0.0143701173365116,9.8100004196167,0.018324647079481476,-0.01210359627147482,0.006798866085707975,0.4998395420824689,0.7165061184792636,2.157728148291361e-05
1776677676.0396037,-0.0095800785347819,0.0047900392673909,9.79084014892578,0.01800398097452143,-0.01181216969426965,0.0065739386503666526,0.4998502076821984,0.7163084750807168,2.8364607958789158e-05
1776677676.061607,-0.0143701173365116,0.0143701173365116,9.79084014892578,0.01765138032294839,-0.011493816402511809,0.006338554188839776,0.5000872755578403,0.7171084826677465,1.97928593210267e-06
1776677676.0836258,0.0,0.0047900392673909,9.80041980743408,0.01726401966812976,-0.011148708054158052,0.006092503971123931,0.5001040217905628,0.717060428312415,3.89170691940615e-06
1776677676.1056051,0.0143701173365116,0.0095800785347819,9.79562950134277,0.01683938449874315,-0.010777084817282567,0.005835439009406441,0.5001228985949527,0.7170108593981639,6.533983409100466e-06
1776677676.1276035,0.0287402346730232,-0.0191601570695639,9.80041980743408,0.016375433145269923,-0.010379327446108227,0.005566957296205486,0.5001437467292102,0.716960110907965,9.860786691513843e-06
1776677676.1496005,0.0335302725434303,0.0,9.77167987823486,0.01587088080989804,-0.009956158914323238,0.005286747734518593,0.5002048762181376,0.7190460229075527,1.5681658473248477e-06
1776677676.171615,0.0574804693460464,-0.0047900392673909,9.80521011352539,0.01532549298491326,-0.009508867252949468,0.004994715824272406,0.5002233840767075,0.7192624449300594,3.133384790902557e-06
1776677676.19361,0.0574804693460464,0.0047900392673909,9.79084014892578,0.014740257858773781,-0.009039349659428972,0.0046910491786834214,0.5003093282299389,0.7210768143220497,1.2156385289981509e-06
1776677676.215613,0.0622705072164536,0.0095800785347819,9.79084014892578,0.01411741448323086,-0.00854999111621058,0.0043762439302785835,0.5003384643533694,0.7215385594307769,2.5367333891734085e-06
1776677676.2376046,0.0574804693460464,0.0095800785347819,9.79562950134277,0.013460370353399162,-0.008043511329856087,0.004051084530059732,0.5003692305687721,0.7219987146871978,4.365598110010655e-06
1776677676.2596,0.0574804693460464,-0.0143701173365116,9.80521011352539,0.01277354263309642,-0.007522863879152202,0.0037166055821829464,0.5004020891462247,0.7224649562107813,6.702416778555413e-06
1776677676.2816293,0.0335302725434303,-0.0143701173365116,9.79084014892578,0.012062148774206326,-0.00699124096319643,0.0033740860804323523,0.5004355819996573,0.7229182212729165,9.403359007588592e-06
1776677676.3036027,0.0191601570695639,-0.023950194939971,9.81478977203369,0.01133193467366683,-0.006452145995368263,0.003025045227703976,0.500471467585259,0.7233835373786554,1.2575101217261834e-05
1776677676.3256004,0.0095800785347819,0.0,9.79562950134277,0.010588852735001444,-0.005909415061073011,0.0026712265737440653,0.5005074260085439,0.7238321935758515,1.5976544716165824e-05
1776677676.3476024,-0.0143701173365116,0.0,9.79084014892578,0.009838757070223652,-0.005367117005888414,0.0023145636678938647,0.5005456881134479,0.7242933958435023,1.9781572912828546e-05
1776677676.3696067,-0.0143701173365116,-0.0143701173365116,9.80041980743408,0.009087142740229637,-0.004829381679246471,0.001957070054909616,0.5003158058326834,0.7232544399067152,1.1359769167876563e-06
1776677676.3916082,0.0095800785347819,0.0,9.819580078125,0.008338955784977025,-0.004300255278667299,0.0016006835467881834,0.5003213369116688,0.723408214704124,1.8671624215993455e-06
1776677676.413601,-0.023950194939971,-0.0047900392673909,9.79084014892578,0.007598534737311435,-0.0037835976511654064,0.0012471639777411401,0.5003278409446309,0.7235617378946247,2.7717960951882474e-06
1776677676.4356048,-0.0479003898799419,0.0047900392673909,9.80521011352539,0.006869587241518091,-0.003282994977974696,0.0008980419648146456,0.5003057665349917,0.7252679119832781,5.731613676566265e-07
1776677676.4576046,-0.0143701173365116,0.0095800785347819,9.82437038421631,0.006155085160199951,-0.0028016909841167307,0.0005546030758412241,0.5003029385514977,0.7273614216796283,3.0743897013048736e-07
1776677676.4796064,-0.0095800785347819,-0.0191601570695639,9.819580078125,0.005457238501686548,-0.002342556374000999,0.00021796691511003803,0.5003018567381089,0.7308131005247875,1.7688967918044207e-07
1776677676.5016034,0.0,-0.0047900392673909,9.79084014892578,0.004777674681112114,-0.001908138592725863,-0.00011081437968396907,0.5003033947204539,0.7322579974344513,2.6380087422104e-07
1776677676.5236192,0.0191601570695639,-0.0143701173365116,9.79084014892578,0.004117682565521113,-0.0015007577775093717,-0.0004308058823638968,0.5003054711782573,0.7337018430267988,3.178262316627507e-07
1776677676.5446064,0.0191601570695639,0.0,9.81478977203369,0.0034784140266131396,-0.0011225461558636626,-0.0007413174145618401,0.5003013166018214,0.7340511512960534,2.7019084477182985e-08
1776677676.5676155,0.0191601570695639,-0.0143701173365116,9.819580078125,0.0028610298391582396,-0.0007754261447602496,-0.0010418931358718386,0.5003024527963091,0.7347671144126661,-1.2535638523325897e-07
1776677676.5896113,0.0383203141391277,-0.0143701173365116,9.81478977203369,0.0022667750426410664,-0.00046110135137780804,-0.0013321668599051103,0.5003038527513506,0.7354495287172463,-4.164821122066844e-07
1776677676.611607,0.0335302725434303,-0.0143701173365116,9.79084014892578,0.0016970580238636589,-0.00018105873389359154,-0.0016117471629962586,0.5003008520830683,0.7382912078418538,-1.7041313674079167e-07
1776677676.633623,0.0,-0.0047900392673909,9.79562950134277,0.001153579023589806,6.352297983421109e-05,-0.0018801593152495996,0.4999433825841471,0.7422115460515525,-2.3668524849390852e-07
1776677676.6556206,0.0191601570695639,0.0,9.78125953674316,0.0006383783224890281,0.00027196466394951014,-0.002136797455692846,0.4998603669764923,0.7434136196994893,-6.934114936238414e-07
1776677676.6776042,0.0,-0.0191601570695639,9.79562950134277,0.00015374229384452603,0.0004442096080357966,-0.002380920554338712,0.49977792499122087,0.7446081238212199,-1.4197806603840863e-06
1776677676.699609,0.0047900392673909,-0.0143701173365116,9.80041980743408,-0.0002979284164335713,0.0005807744043541571,-0.002611677058617866,0.4994892712835313,0.7465195560987918,-4.462668581338069e-07
1776677676.7216177,-0.0431103520095348,-0.0095800785347819,9.79084014892578,-0.0007142684373763961,0.0006826187568682663,-0.0028280977080506215,0.4994142935828592,0.7473218103845635,-1.1374227714510673e-06
1776677676.7436073,-0.0574804693460464,0.0,9.80041980743408,-0.0010931965380448962,0.0007510726079084128,-0.0030290916349668324,0.49915682327167765,0.7498096066838209,-5.306870260047049e-07
1776677676.7656016,-0.0622705072164536,0.0,9.78604984283447,-0.0014332283987117116,0.0007878426776231413,-0.0032134841237598326,0.49905947827750596,0.750820483956701,-1.328687727009869e-06
1776677676.787608,-0.0574804693460464,0.0143701173365116,9.80521011352539,-0.001733680248314813,0.00079503872435259,-0.0033800635058396675,0.4989654635859997,0.7517949230785549,-2.4890374355644333e-06
1776677676.8096337,-0.0670605450868607,0.023950194939971,9.78604984283447,-0.0019946865885511495,0.0007752030439213576,-0.0035276094526042493,0.4984812161874445,0.7527737208229848,-6.980205185864895e-07
1776677676.831612,-0.0287402346730232,-0.0047900392673909,9.78125953674316,-0.00221709819985038,0.0007313248554429339,-0.003654930985337512,0.49747291226458507,0.7574343011763514,-4.601398782438114e-07
1776677676.853605,-0.0335302725434303,0.0047900392673909,9.8291597366333,-0.0024023482277954152,0.0006667423972539957,-0.003760946700632338,0.49717552422585976,0.7588858795836719,-1.2889595648701708e-06
1776677676.8756092,-0.0191601570695639,0.0,9.8100004196167,-0.0025524344733294404,0.000584916244613449,-0.0038447696681576425,0.49687828538048084,0.7603353398105168,-2.577510640931238e-06
1776677676.8976066,0.0,0.0143701173365116,9.8100004196167,-0.002670017360298471,0.0004892293983302466,-0.0039057779446302616,0.4966324263460944,0.7614480446909297,-8.359709151483505e-07
1776677676.9196029,0.0143701173365116,0.0,9.79084014892578,-0.0027583691326318886,0.00038292010670931773,-0.003943702009339138,0.4964788106894191,0.7621909776763109,-1.9212323924637058e-06
1776677676.9416056,0.0095800785347819,0.0,9.80521011352539,-0.0028211195558883843,0.00026907222290045545,-0.0039587080850698435,0.49601821443222205,0.7624571646750073,-8.19420146203765e-07
1776677676.9626124,0.0335302725434303,0.023950194939971,9.81478977203369,-0.0028620082211211527,0.00015059859779007455,-0.003951403536824771,0.495847306271,0.7628617941047192,-1.8146337658999754e-06
1776677676.9856174,0.0143701173365116,0.0,9.79562950134277,-0.002884722806715723,3.0261860361315805e-05,-0.003922749993494373,0.4954151533569011,0.7633441978336178,-8.65609527762593e-07
1776677677.0076087,0.0335302725434303,0.0143701173365116,9.76688957214355,-0.0028927993086298714,-8.929049593221726e-05,-0.003874019504986357,0.49482556925678456,0.7630936936174727,-7.503012749689641e-07
1776677677.0296032,0.0287402346730232,0.0095800785347819,9.80521011352539,-0.0028895674948504354,-0.00020553523312215577,-0.0038068693195247166,0.49462962958474904,0.7631732772293169,-1.757736149644842e-06
1776677677.0516233,0.0143701173365116,0.0,9.8291597366333,-0.0028781225579931832,-0.0003160983344539138,-0.0037233310983019376,0.49443348569922424,0.7632527699130839,-3.221542610403638e-06
1776677677.0736053,0.0143701173365116,0.0191601570695639,9.819580078125,-0.00286135386503048,-0.0004187758451909553,-0.0036255767789977952,0.4940511705921811,0.7628783709920213,-8.815763424055874e-07
1776677677.095606,0.0191601570695639,0.0,9.80041980743408,-0.002841978849000204,-0.0005115293738989679,-0.003515674096577359,0.4931006038709104,0.7626705064854401,-7.10960929046187e-07
1776677677.1176066,0.0,0.0,9.79562950134277,-0.0028224388891320566,-0.0005924428639041196,-0.0033955213860010812,0.49251658871538107,0.7620749648984457,-6.680214614844816e-07
1776677677.1386018,0.0095800785347819,0.0143701173365116,9.81478977203369,-0.0028047268112306803,-0.0006596857150491869,-0.003266870822152384,0.4921122271928378,0.7618647260570109,-1.5203089464024928e-06
1776677677.1616004,0.0095800785347819,0.0047900392673909,9.80041980743408,-0.0027903265374844537,-0.0007114860217216551,-0.0031313145840385116,0.49167789773255705,0.7616390041843192,-2.843549756925148e-06
1776677677.182627,0.0047900392673909,0.0191601570695639,9.78125953674316,-0.0027802489090709764,-0.0007460997996848645,-0.002990278529250712,0.4922885789524603,0.7614419965559469,-7.227906459882354e-07
1776677677.2046108,0.0191601570695639,0.023950194939971,9.79562950134277,-0.0027750757792295625,-0.0007617814951163495,-0.0028451041667298463,0.4921045543626525,0.7608716497504037,-5.840406356697183e-07
1776677677.227604,0.0047900392673909,-0.0047900392673909,9.8100004196167,-0.002774993616046551,-0.0007567688768415977,-0.0026971228196387455,0.49197057191539645,0.760654813671024,-1.3680391755637485e-06
1776677677.2486017,0.0,-0.0143701173365116,9.81478977203369,-0.002779843846602198,-0.0007293621237667708,-0.002547593133391952,0.49184790911521475,0.7604567309693819,-2.3875492961632174e-06
1776677677.270597,0.0,0.0143701173365116,9.80521011352539,-0.0027892214301009654,-0.0006780818706903006,-0.002397579356636391,0.49171695633262286,0.7602457215343905,-3.7729129523990447e-06
1776677677.2925985,0.0,0.023950194939971,9.79084014892578,-0.0028025788793462803,-0.0006017071671574956,-0.0022479272695967653,0.491587996246221,0.760038393874234,-5.416663637795365e-06
1776677677.3146024,-0.0143701173365116,0.0143701173365116,9.8100004196167,-0.0028192950002756574,-0.0004991463853252197,-0.0020993448965567173,0.49222411331146443,0.760320177601331,-6.630583560308507e-07
1776677677.3366027,-0.0095800785347819,0.0,9.80521011352539,-0.002838768859905739,-0.00036935294491365913,-0.0019524636298621895,0.49221273069545085,0.7602459855268536,-1.298982124424929e-06
1776677677.3586102,0.0,0.0095800785347819,9.79562950134277,-0.0028605770565621525,-0.0002114005851700325,-0.0018078432949516793,0.4927407156198788,0.7598914533134137,-4.902409070983455e-07
1776677677.3806067,-0.0047900392673909,0.0143701173365116,9.80041980743408,-0.0028846009281579717,-2.4585456687322856e-05,-0.0016660027834278037,0.4928112670385032,0.7597980595785989,-1.0058180674104673e-06
1776677677.4026089,-0.0143701173365116,0.0095800785347819,9.78604984283447,-0.002911053367459681,0.00019156658906281825,-0.0015274849345835273,0.49288134532607747,0.75970483871065,-1.713445866031299e-06
1776677677.4246166,0.0,0.0095800785347819,9.8291597366333,-0.0029404586605133697,0.00043733463680392876,-0.0013928765030058548,0.4929513074335582,0.7596113382911943,-2.6006605067856006e-06
1776677677.44661,0.0335302725434303,0.0095800785347819,9.8100004196167,-0.0029735753028990587,0.0007128080543711432,-0.0012627251826738328,0.4933107151586146,0.7603512609550908,-4.282728204606787e-07
1776677677.468602,-0.0095800785347819,0.0143701173365116,9.79562950134277,-0.0030112281805761212,0.0010178842449278234,-0.0011374348571504501,0.49385747897210336,0.7609306518044591,-2.8977679831755167e-07
1776677677.490626,0.0191601570695639,0.0,9.8100004196167,-0.0030541906367633695,0.0013522773105087717,-0.001017281443426566,0.49492352814698193,0.7614870742064831,-2.381042118851388e-07
1776677677.512627,0.0095800785347819,0.0143701173365116,9.819580078125,-0.00310318348403639,0.0017155144614342493,-0.0009024749957987239,0.49535983630271946,0.7617404097982602,-5.106892750482242e-07
1776677677.5346184,0.0431103520095348,-0.0143701173365116,9.79562950134277,-0.003158844169745962,0.0021069135792182616,-0.0007931441440980572,0.49588834786076585,0.7618752900441137,-2.2028235260528383e-07
1776677677.5566113,0.0191601570695639,0.0,9.819580078125,-0.0032216150792476307,0.002525540887510513,-0.0006893194205048112,0.4974508679192765,0.762480688315059,-1.6805975918774349e-07
1776677677.578617,0.0287402346730232,0.023950194939971,9.8100004196167,-0.00329162924240396,0.0029701739362945267,-0.0005909632423154057,0.4986263534680659,0.7627615559198611,-1.4035749876795392e-07
1776677677.6006348,0.0287402346730232,0.0095800785347819,9.77647018432617,-0.003368578186714588,0.0034393127675807025,-0.0004980434619918733,0.4993127932513948,0.7629928605823725,-3.004388465715644e-07
1776677677.622619,0.0047900392673909,0.0143701173365116,9.8100004196167,-0.003451570809918493,0.0039311975834917705,-0.00041068603079520233,0.4999942003261638,0.7632230547142532,-5.144818773746537e-07
1776677677.6446183,0.0,0.0047900392673909,9.80041980743408,-0.0035391502408265887,0.004443793160441638,-0.00032928095412771454,0.500114772202862,0.763217826421816,-1.273682197755635e-07
1776677677.6666107,0.023950194939971,0.0,9.78604984283447,-0.00362947073110773,0.004974771247227188,-0.00025444387739870797,0.5004809015608027,0.763341653791706,-2.344646683146646e-07
1776677677.6886182,0.023950194939971,0.0143701173365116,9.79562950134277,-0.0037204018678598494,0.0055215131892292196,-0.00018697599600131767,0.5008461621754864,0.7634659724186743,-3.6813431503838037e-07
1776677677.7106109,0.0335302725434303,0.0047900392673909,9.8100004196167,-0.0038094968817575627,0.006081155713503156,-0.0001278573377622763,0.5012113155100929,0.7635911119399217,-5.209855810485885e-07
1776677677.732615,0.0383203141391277,0.0047900392673909,9.78125953674316,-0.0038939495277094446,0.006650664359083482,-7.818655388179739e-05,0.501575727506377,0.763716927183133,-6.861856816931729e-07
1776677677.7546058,0.0479003898799419,-0.0191601570695639,9.79084014892578,-0.003970585079667676,0.007226856454039031,-3.914052263181952e-05,0.5019453287655742,0.7638455611673778,-8.612009136384056e-07
1776677677.7766178,0.0287402346730232,-0.0047900392673909,9.80041980743408,-0.004035880643044677,0.0078063553108466315,-1.1994232239587347e-05,0.5023030424706034,0.7639711176569403,-1.0338807144054146e-06
1776677677.7986083,0.0431103520095348,-0.0047900392673909,9.79084014892578,-0.004086044782322352,0.008385564242215565,1.9031861353071749e-06,0.5026654960092779,0.7640994779851513,-1.2096813170902125e-06
1776677677.8216186,0.0383203141391277,0.0,9.80521011352539,-0.004117120903257977,0.008960743966645611,1.2367489278191496e-06,0.5031462366333442,0.7655773811861334,-3.9754879151862154e-08
1776677677.8426194,0.0047900392673909,-0.0095800785347819,9.80521011352539,-0.004125066653259511,0.009528164032398912,-1.5074331708566202e-05,0.504903262941506,0.7671741785704783,-1.959203502236846e-08
1776677677.8646133,0.0095800785347819,-0.0287402346730232,9.81478977203369,-0.004105885280952765,0.010084207666927886,-4.762280664645878e-05,0.5056237223503012,0.7677994245512011,-2.7988497148019463e-08
1776677677.8866098,0.0,-0.0047900392673909,9.78604984283447,-0.004055825345836999,0.01062536695822207,-9.638080318473443e-05,0.5063431771654552,0.7684254816218689,-4.509782388456763e-08
1776677677.908606,-0.0143701173365116,-0.0143701173365116,9.80521011352539,-0.003971545535160841,0.011148226793932995,-0.0001607710865604274,0.5070649497158046,0.7690553066185367,-7.793853709336325e-08
1776677677.930607,-0.0095800785347819,0.0,9.79562950134277,-0.0038502261625182436,0.011649525526348042,-0.00023980746985867503,0.507780996216519,0.7696819223932189,-1.346937882858375e-07
1776677677.9526098,-0.0335302725434303,0.0,9.79084014892578,-0.0036896596290807975,0.012126245534611012,-0.0003321891596562561,0.5085040512755663,0.7703165262463969,-2.2699857757212876e-07
1776677677.974621,-0.0287402346730232,0.0,9.80521011352539,-0.003488325914387616,0.012575684920860163,-0.00043636798230616735,0.509216918440563,0.7709440529478105,-3.642393516975183e-07
1776677677.99662,-0.0143701173365116,-0.0047900392673909,9.80041980743408,-0.003245428246047606,0.012995490663325403,-0.0005505919479831836,0.5099331633193169,0.7715764496317287,-5.61653201613621e-07
1776677678.0186117,-0.0047900392673909,0.0047900392673909,9.80521011352539,-0.0029608166677232354,0.013383649884015872,-0.0006729111379906983,0.5106503049350246,0.7722115665625857,-8.334854487987131e-07
1776677678.0406113,0.0,0.0095800785347819,9.79084014892578,-0.0026348084271563287,0.013738488548607219,-0.0008011990349895738,0.5113663233668714,0.7728476290399251,-1.1941795354386186e-06
1776677678.0626066,0.0143701173365116,0.0143701173365116,9.78125953674316,-0.0022680087880030337,0.01405868922650794,-0.000933259995458338,0.5120924483130386,0.7734946557746755,-1.6673273710032926e-06
1776677678.0846164,0.0143701173365116,0.0047900392673909,9.80521011352539,-0.0018611815402659315,0.014343247151895562,-0.0010670258035582452,0.5070145570811514,0.7685811109874986,-3.21742443726746e-08
1776677678.1066103,0.0431103520095348,0.0,9.8100004196167,-0.0014151416314699726,0.014591335560783819,-0.0012006962723625555,0.5089586866557464,0.7698331420454624,-1.1559527559208735e-07
1776677678.1286077,0.023950194939971,0.0191601570695639,9.80521011352539,-0.0009306420069505729,0.01480219026886083,-0.0013327100205590878,0.5097854957271171,0.7703908312361677,-4.05991548554143e-07
1776677678.1506112,0.0095800785347819,0.0,9.78125953674316,-0.00040832149128910164,0.014975102330534269,-0.0014616832807152497,0.5105838046866672,0.7709311252204151,-8.527812083511819e-07
1776677678.1726103,0.0,0.0,9.80521011352539,0.0001511958566672421,0.015109446528777763,-0.0015864513556746195,0.5098591819159588,0.7709113720096795,-2.6720567613137355e-07
1776677678.1946063,0.0,0.0,9.80041980743408,0.000747121402399521,0.01520465811201222,-0.0017061104865730994,0.5101479039210535,0.7711684288843893,-6.849144400666118e-07
1776677678.2166169,-0.0095800785347819,-0.0095800785347819,9.81478977203369,0.0013783775105710532,0.015260191693497384,-0.0018199561306641997,0.5106925502229636,0.7722453263925535,-3.2108372195667883e-07
1776677678.2386115,-0.0383203141391277,0.0095800785347819,9.82437038421631,0.0020435171093072255,0.015275512851446902,-0.0019273641071613074,0.5109808404056956,0.772613165357712,-7.911365040478217e-07
1776677678.260608,-0.0143701173365116,-0.0047900392673909,9.78125953674316,0.0027406258449839786,0.015250130492091049,-0.002027710742853778,0.5112737204901571,0.7729883681980124,-1.5124405857857832e-06
1776677678.2826111,-0.0095800785347819,0.0095800785347819,9.81478977203369,0.003467288419422382,0.015183650480164002,-0.0021204088609055594,0.5115589992099536,0.7733551756681484,-2.46161538611019e-06
1776677678.3046129,-0.0335302725434303,0.0,9.79084014892578,0.004220653162638643,0.015075812184144569,-0.0022050157980184654,0.511848739806523,0.7737289443066245,-3.6841110989127985e-06
1776677678.3266122,-0.0335302725434303,0.0143701173365116,9.80041980743408,0.004997403020914368,0.014926501398620834,-0.0022813322914083454,0.5121391088451784,0.7741046201624301,-5.178530775420079e-06
1776677678.3486211,-0.0047900392673909,-0.0047900392673909,9.78604984283447,0.005793621981458656,0.014735751588334355,-0.002349500886610857,0.512430280770187,0.7744822862277636,-6.954342448901309e-06
1776677678.3706129,0.0143701173365116,0.0,9.80041980743408,0.006604845933844476,0.014503722209448473,-0.0024100681145348603,0.5127214969410199,0.7748608044501376,-9.013306457330109e-06
1776677678.3926072,0.0,0.0,9.79084014892578,0.0074263429674933,0.01423065776679723,-0.0024639589770728367,0.5130191938270389,0.775248397010649,-1.1414519534986339e-05
1776677678.4146183,0.0047900392673909,0.0,9.80521011352539,0.008253352777625676,0.01391686970221669,-0.0025123986146579715,0.5133075104423747,0.7756242379163041,-1.4028350737744746e-05
1776677678.436619,0.0,-0.0095800785347819,9.80521011352539,0.00908116374306446,0.01356274213633514,-0.002556815735735969,0.5136021000425358,0.7760085483005701,-1.6993800945123652e-05
1776677678.4586108,0.0047900392673909,-0.0095800785347819,9.79562950134277,0.009905128831787841,0.013168714695940342,-0.0025987488195395748,0.5115370970130874,0.7732708724867039,-5.191282220024171e-07
1776677678.480617,0.0335302725434303,0.0,9.80041980743408,0.010720724117794381,0.012735254674398752,-0.0026397987625629395,0.5120116629162229,0.7739464199557885,-4.4271477588914227e-07
1776677678.5026124,0.0191601570695639,0.0047900392673909,9.8100004196167,0.011523681473360596,0.012262880708462634,-0.0026816128404624894,0.512216523944681,0.7742280629812464,-1.1157436795632743e-06
1776677678.5246167,0.0095800785347819,0.0143701173365116,9.80041980743408,0.012310105037392612,0.011752247060082379,-0.0027258394352527725,0.5124228101370132,0.7745111356625805,-2.1159863355014344e-06
1776677678.5468848,0.0335302725434303,0.0143701173365116,9.79562950134277,0.013076516393474829,0.011204260998732892,-0.0027740369634698964,0.5126336481464164,0.7747997191604662,-3.4708092417649616e-06
1776677678.5686128,0.023950194939971,0.0047900392673909,9.80521011352539,0.013819989144904324,0.01062021807901343,-0.0028274977372004058,0.5128399857171764,0.775081250649818,-5.120240341773685e-06
1776677678.5906115,0.0191601570695639,0.0,9.79562950134277,0.014538378954296705,0.01000188616022776,-0.0028870105200565306,0.5130510930902054,0.7753682044167268,-7.137335159740906e-06
1776677678.6126277,0.0287402346730232,-0.0047900392673909,9.78125953674316,0.015230407577102423,0.009351462838471984,-0.0029527549834736317,0.5132641277467884,0.7756564998113402,-9.50916971948146e-06
1776677678.6346262,0.0,0.0143701173365116,9.80521011352539,0.01589556124142353,0.008671473037975237,-0.0030243914940810655,0.5134790350906104,0.7759458701867227,-1.2242806675339701e-05
1776677678.656631,0.0095800785347819,0.0,9.80041980743408,0.016533918360341567,0.007964720130297635,-0.0031011609317123197,0.5136958362995314,0.7762361547327349,-1.534630209581821e-05
1776677678.6788948,-0.0047900392673909,-0.0047900392673909,9.79084014892578,0.017145962060540514,0.007234261346333565,-0.0031819102913407324,0.5139177438926591,0.776531428607035,-1.8881340069990195e-05
1776677678.700607,-0.0383203141391277,-0.0047900392673909,9.8100004196167,0.017732394769590584,0.006483326440305075,-0.0032651327132260113,0.5141355622293224,0.7768193126711797,-2.2702557016952308e-05
1776677678.7226102,0.0,0.0143701173365116,9.79084014892578,0.01829394805410614,0.005715232077496456,-0.003349032409810122,0.5143585034595237,0.7771118416702497,-2.6972646256914572e-05
1776677678.744606,-0.0143701173365116,0.0,9.79562950134277,0.018831276783361744,0.004933375305575999,-0.00343158860795663,0.5145835956710777,0.7774048948981515,-3.165038386377528e-05
1776677678.7666113,0.0,0.0095800785347819,9.8100004196167,0.019345003635306512,0.004141255382204844,-0.0035106266490462566,0.5148119595561036,0.7776997393925041,-3.676964332696591e-05
1776677678.7886028,-0.0143701173365116,0.0143701173365116,9.8100004196167,0.019835744317712994,0.0033424547330321405,-0.003583851380203628,0.5150431815774809,0.777995642046395,-4.233254473265808e-05
1776677678.8106186,-0.0191601570695639,0.0095800785347819,9.80521011352539,0.020303922443973055,0.0025405939681205055,-0.003648856850208131,0.5152739177170212,0.7782881951900981,-4.825963728750519e-05
1776677678.8326087,-0.0287402346730232,0.0047900392673909,9.80521011352539,0.02074945130895288,0.001739269660734311,-0.003703189047725926,0.5155088305357357,0.7785831647155688,-5.467354440493642e-05
1776677678.8546124,-0.0287402346730232,-0.0047900392673909,9.79084014892578,0.021171530678719214,0.0009419653049108413,-0.0037444486504485345,0.5157464114085321,0.778878460146427,-6.154186401015025e-05
1776677678.8766077,-0.0191601570695639,0.0047900392673909,9.79562950134277,0.021568651663786548,0.0001519621288592634,-0.0037703920503530585,0.515986494327042,0.7791737166051669,-6.886254234707313e-05
1776677678.89862,0.0287402346730232,0.0095800785347819,9.79084014892578,0.021938769931239763,-0.0006276974156791453,-0.0037790124157681187,0.516229513254855,0.7794693112205247,-7.664998931088367e-05
1776677678.9206133,0.0479003898799419,0.0,9.80521011352539,0.02227965443225864,-0.001394183711914441,-0.003768568289448067,0.5164746434552303,0.7797641004054781,-8.487569207428719e-05
1776677678.9426117,0.0670605450868607,0.0143701173365116,9.819580078125,0.022589333632618374,-0.002144848615235714,-0.0037375327599464794,0.512203763340786,0.7742433131856267,-6.548786246581006e-07
1776677678.9646177,0.0622705072164536,0.0287402346730232,9.80041980743408,0.022866442487739655,-0.002877189802934122,-0.00368449296543522,0.512223198784631,0.7742625432262314,-1.704335825806053e-06
1776677678.9866118,0.0383203141391277,0.0191601570695639,9.80041980743408,0.023110338625158485,-0.003588768831349651,-0.003608107613165304,0.5122453908745833,0.7742813600631115,-3.193407046133996e-06
1776677679.0086114,0.023950194939971,0.0047900392673909,9.8100004196167,0.02332097782681786,-0.004277159763701608,-0.0035071572573434763,0.5120347454032538,0.7735671583249832,-7.61799309894924e-07
1776677679.0306294,0.0143701173365116,0.0,9.79084014892578,0.023498659590568752,-0.004940001857832527,-0.003380608065524031,0.5114680268168988,0.7725283673413662,-6.482571944163297e-07
1776677679.052622,0.0,0.0095800785347819,9.80521011352539,0.023643807353707944,-0.005575045228034659,-0.0032276861645475557,0.5109160100931949,0.7714286723248034,-6.231532205321024e-07
1776677679.0746148,-0.0431103520095348,0.0191601570695639,9.80041980743408,0.02375679793245302,-0.006180082364071674,-0.0030479642278787647,0.5106664363009991,0.7709236656552673,-1.4708100344885675e-06
1776677679.0966105,-0.0479003898799419,0.0191601570695639,9.80041980743408,0.023837731524242112,-0.006752835276924132,-0.0028413840406518853,0.5104262997085867,0.7704312310236623,-2.6479852218844248e-06
1776677679.1186306,-0.0670605450868607,0.0143701173365116,9.81478977203369,0.023886171439822846,-0.007290905421448694,-0.0026082113370435546,0.5101856619708546,0.7699310344343943,-4.169522841685028e-06
1776677679.140612,-0.023950194939971,-0.0047900392673909,9.81478977203369,0.023901025170373538,-0.007791824942767664,-0.002348955039637685,0.5100086522433346,0.7703825465127164,-7.262118733181174e-07
1776677679.1626208,-0.023950194939971,0.0047900392673909,9.819580078125,0.02388067203626967,-0.008253189051877939,-0.0020642657297593485,0.5098725628984193,0.7701833871162425,-1.4330624035387333e-06
1776677679.184607,0.0,0.0143701173365116,9.8100004196167,0.023823264426558716,-0.008672769559966693,-0.001754864974809773,0.5091941204826749,0.7694520894360427,-5.320331066839175e-07
1776677679.206614,0.0143701173365116,0.0047900392673909,9.77647018432617,0.023727043730424335,-0.009048529204475384,-0.0014215705052651709,0.5090248283548335,0.7692290778799289,-1.0491933678751394e-06
1776677679.2286239,0.0191601570695639,0.0047900392673909,9.80041980743408,0.023590596015332706,-0.009378603180917777,-0.0010654238731432055,0.5086343848248626,0.7682935428776503,-3.906817789291586e-07
1776677679.2506237,0.0047900392673909,0.0,9.81478977203369,0.023413010256215037,-0.00966133046533557,-0.000687774266925072,0.5084816876728162,0.7679854100260448,-7.227668843864517e-07
1776677679.2726052,-0.0143701173365116,0.0047900392673909,9.79084014892578,0.02319386990184164,-0.00989531400053089,-0.0002901990971944893,0.508332209283768,0.7676769071515401,-1.1131080107100334e-06
1776677679.2946143,-0.023950194939971,-0.0047900392673909,9.80521011352539,0.022933085623214965,-0.010079482991795213,0.00012560983119416902,0.5081423823061113,0.7667987241581424,-2.156270080430587e-07
1776677679.3166049,-0.0191601570695639,0.023950194939971,9.79084014892578,0.022630694122680442,-0.010213134543008597,0.0005578761618013565,0.5077921021630725,0.765793106348759,-5.967634923149197e-08
1776677679.3386126,-0.0143701173365116,0.0,9.78125953674316,0.02228675532034749,-0.010295905406827885,0.0010047187943737334,0.5076697470849917,0.7654415267691193,4.313647432199498e-08
1776677679.360602,0.0047900392673909,0.0287402346730232,9.78125953674316,0.02190138589758266,-0.010327697493967093,0.001464098174650257,0.507549831461237,0.7650879937971254,2.9610670672098644e-07
1776677679.3826098,0.0095800785347819,0.0,9.80041980743408,0.021474886586436225,-0.01030862514797081,0.0019337779533647487,0.5072728008028581,0.7648899575289588,1.729790607959012e-07
1776677679.4046087,0.0095800785347819,0.0,9.77647018432617,0.021007882794931085,-0.010239020137430093,0.002411369161660666,0.507053648714387,0.7642651892846236,2.782374319883059e-07
1776677679.4268894,0.0431103520095348,0.0,9.79084014892578,0.020501427302401606,-0.010119498343869607,0.002894392349699351,0.5068454313195104,0.7636391367680896,3.9554763457801884e-07
1776677679.448616,0.0287402346730232,0.0047900392673909,9.77647018432617,0.01995709508144533,-0.009951013261421636,0.003380289743910718,0.5067395301319719,0.7633164589401679,1.0953130062969055e-06
1776677679.4706116,0.0287402346730232,-0.0047900392673909,9.80041980743408,0.019377048442254054,-0.009734841496635147,0.0038664379623139017,0.5066345715659665,0.7629882724272863,2.2399502856634798e-06
1776677679.492615,0.0191601570695639,0.0047900392673909,9.81478977203369,0.01876398545030114,-0.009472549269748417,0.004350234288363225,0.5070381359314211,0.7633402222748364,7.232715675619013e-07
1776677679.514616,0.0191601570695639,-0.0191601570695639,9.79562950134277,0.018121032607314992,-0.009165981743678091,0.00482922282439481,0.5072558979705832,0.7631531075074671,7.395618959917739e-07
1776677679.5366108,0.0095800785347819,-0.0095800785347819,9.80041980743408,0.017451733268614267,-0.008817284575190584,0.005301097971365389,0.5073010236235542,0.7630518087228992,1.939446078365916e-06
1776677679.5586097,0.023950194939971,-0.0047900392673909,9.78604984283447,0.016760117144543216,-0.00842892651809556,0.0057635520723368465,0.5075981431674753,0.7628567720891555,1.0239760422887582e-06
1776677679.5806172,0.0,0.0,9.80521011352539,0.016050708307926733,-0.00800365356040258,0.006214151940791054,0.5076736561109785,0.7627674705359192,2.5155142605583687e-06
1776677679.6026132,0.0143701173365116,-0.0047900392673909,9.79562950134277,0.015328420316918206,-0.007544389623251404,0.006650349097619123,0.5075253881521923,0.7625530709039456,1.2225380538016612e-06
1776677679.6246495,0.0191601570695639,0.0047900392673909,9.79084014892578,0.014598425384105811,-0.007054157530248585,0.007069547497355428,0.5075262913027296,0.7624603937341532,2.9579830791020976e-06
1776677679.6476228,0.0191601570695639,0.0,9.79084014892578,0.013866088960203056,-0.00653602664266262,0.007469133206995348,0.5074171020251227,0.7626448814918872,1.4784943320132502e-06
1776677679.6686401,0.0095800785347819,0.0,9.80041980743408,0.013136934606803406,-0.0059930707748020624,0.007846480096278523,0.5072985651467745,0.7629944413781213,1.3138224348261471e-06
1776677679.6906152,0.0095800785347819,-0.0047900392673909,9.8100004196167,0.012416557357550283,-0.00542835251165769,0.008199008310589874,0.5068734507262994,0.763338207258921,1.3928093593248399e-06
1776677679.7127364,0.0095800785347819,-0.0095800785347819,9.81478977203369,0.011710502905457445,-0.00484493869070571,0.008524304047904399,0.5067159711198482,0.7634858539752506,3.4730539848430474e-06
1776677679.734737,0.0287402346730232,0.0,9.78604984283447,0.011024192370980943,-0.00424592057492122,0.008820212372975292,0.5065606568990942,0.7636322149518151,6.599184737426154e-06
1776677679.756734,0.023950194939971,-0.0047900392673909,9.81478977203369,0.01036290387055065,-0.003634424791752973,0.009084837045048793,0.5064062038621462,0.7637785131796293,1.0826599351225889e-05
1776677679.7786043,0.0431103520095348,0.0047900392673909,9.79084014892578,0.009731725046528836,-0.0030136506684744907,0.009316525876729305,0.5062553516991691,0.7639221397716913,1.6086309091390298e-05
1776677679.801601,0.0383203141391277,-0.0191601570695639,9.79084014892578,0.009135464355089752,-0.002386946640093874,0.009513891217650358,0.5060972606213722,0.7640734661565464,2.2851374680610182e-05
1776677679.8226032,0.0047900392673909,-0.023950194939971,9.79562950134277,0.008578575869555245,-0.0017578929276611038,0.009675791000535136,0.5062487549399091,0.7634681405022875,2.092492275466629e-06
1776677679.8446157,0.0143701173365116,-0.0095800785347819,9.80521011352539,0.008065044961966354,-0.0011303582210821642,0.009801297942059244,0.5061885902974005,0.7634938207487957,4.7300542823544416e-06
1776677679.8676033,0.0,0.0,9.80521011352539,0.007598233783179488,-0.0005084602273779213,0.009889736422266503,0.5056573089460801,0.7639345697211164,2.0964524746032864e-06
1776677679.889608,-0.023950194939971,-0.023950194939971,9.80521011352539,0.007180767984038976,0.00010356799374865934,0.009940741780588363,0.5055176446650619,0.7640458221251375,4.787028838225524e-06
1776677679.9106088,-0.0047900392673909,-0.0047900392673909,9.80041980743408,0.006814451590594501,0.0007014739433474574,0.00995427318025533,0.5053850443328187,0.7641521236881055,8.482722320844726e-06
1776677679.9326072,0.0,0.023950194939971,9.819580078125,0.006500245989777008,0.0012810527753786582,0.00993059533398371,0.5047492199585881,0.7644438544185163,2.2696171484323906e-06
1776677679.9546127,0.0287402346730232,-0.0095800785347819,9.81478977203369,0.006238407339853719,0.001838292441847656,0.009870289796132067,0.5026001357116592,0.765422885216773,1.3496673849498016e-06
1776677679.9776073,0.0,-0.0095800785347819,9.819580078125,0.006028714115853987,0.002369479963656967,0.009774295318362764,0.5019646374162815,0.7657224648805936,3.728571651322529e-06
1776677679.9985998,0.0143701173365116,-0.0095800785347819,9.79562950134277,0.0058706309395460815,0.0028711657094295986,0.009643911902934942,0.5013838267850905,0.7659968903481617,7.028086632221066e-06
1776677680.0206106,0.0047900392673909,-0.0095800785347819,9.8100004196167,0.005763399331205741,0.0033401495403855147,0.009480756557581748,0.5007641428360233,0.7662677421946846,2.218329007642944e-06
1776677680.0426042,0.0143701173365116,0.0095800785347819,9.80041980743408,0.005706130047158658,0.003773584565389305,0.009286721433659786,0.5004391972758317,0.7664204236459055,4.844992308090589e-06
1776677680.0646086,0.0,-0.0047900392673909,9.82437038421631,0.0056978699089885645,0.004169097498959266,0.009063964433297291,0.4994764026883182,0.7667613420240913,2.0546426470477074e-06
1776677680.086605,0.0,-0.0095800785347819,9.80521011352539,0.005737590278478393,0.00452482672215844,0.008814922991351705,0.49913459087953355,0.766901427421669,4.532009328025079e-06
1776677680.1096025,-0.0047900392673909,-0.0047900392673909,9.79084014892578,0.005824126458336683,0.004839363953589323,0.008542286904280823,0.4987784336208384,0.767048306150923,8.242863901061746e-06
1776677680.1306055,-0.0335302725434303,0.0143701173365116,9.79084014892578,0.005956097800969094,0.005111696363562114,0.008248867691722244,0.4984539851299362,0.7671829631323442,1.2601491005114224e-05
1776677680.1526048,-0.0287402346730232,-0.0095800785347819,9.8100004196167,0.006131791043143599,0.005341222714854192,0.007937454797987176,0.4981148932606704,0.7673246127793676,1.812314601650568e-05
1776677680.1756063,-0.0526904314756393,0.0143701173365116,9.80041980743408,0.006349026981234639,0.005527771638930869,0.007610791456934221,0.4977615923350828,0.7674732369647393,2.4892907168459663e-05
1776677680.1976075,-0.0574804693460464,0.0095800785347819,9.81478977203369,0.006605057968561127,0.005671586823931961,0.007271630858148644,0.4978811063512873,0.7667714540752691,2.251097818579873e-06
1776677680.2196114,-0.0431103520095348,-0.0047900392673909,9.80041980743408,0.006896519004423135,0.005773314186029432,0.006922769347082194,0.4961842480286436,0.7667291069336662,1.5630312352821162e-06
1776677680.2406082,-0.0335302725434303,0.0,9.81478977203369,0.007219433908176698,0.005833969116605695,0.006567025241134834,0.4947581035134783,0.7667131126154385,1.3112582879141985e-06
1776677680.26261,-0.023950194939971,0.0,9.79562950134277,0.007569191106692377,0.005854921420187174,0.006207158791148376,0.4939977057267459,0.7667169186785188,2.9971132840021506e-06
1776677680.285606,-0.0191601570695639,0.0,9.82437038421631,0.007940477152613543,0.005837946865703764,0.005845773292360542,0.49320436403067525,0.7667216515758093,5.53796622567147e-06
1776677680.3076093,-0.0143701173365116,0.0,9.8100004196167,0.008327326299660966,0.005785256906991544,0.005485287529736853,0.4938379644769696,0.7668979106333184,1.4718044106577846e-06
1776677680.3296041,-0.0191601570695639,0.0,9.79562950134277,0.008723302853879967,0.005699453282965944,0.00512796055363788,0.49320976139369344,0.7668179160158273,1.126212071395564e-06
1776677680.3506052,-0.0095800785347819,0.0,9.8291597366333,0.00912168244855003,0.0055834578938103565,0.004775878845214485,0.49293930263987695,0.7668097600531734,2.4158698649937763e-06
1776677680.3725991,0.0,0.0,9.81478977203369,0.009515608952526379,0.005440448142222194,0.004430963438622572,0.49265236928417844,0.7668017407587123,4.346557353901564e-06
1776677680.3956058,0.0,0.0,9.78604984283447,0.009898267707924156,0.005273797501843133,0.004095011179716246,0.49236248559202633,0.7667942885302769,6.849789526307369e-06
1776677680.4176044,-0.0095800785347819,0.0047900392673909,9.77647018432617,0.01026303616581287,0.005087025383236479,0.003769609563767919,0.49208314241042195,0.7667877104500198,9.754797659525366e-06
1776677680.4386039,-0.0047900392673909,0.0047900392673909,9.81478977203369,0.010603553245398384,0.004883763969466808,0.003455971251176531,0.491816535242861,0.7667819688376233,1.2948797060658647e-05
1776677680.4606113,0.0191601570695639,-0.0095800785347819,9.78604984283447,0.010913761860781728,0.004667722520582147,0.0031549178202043542,0.4915396228393463,0.7667765415721898,1.6671406262131385e-05
1776677680.4826345,0.0,0.0,9.80521011352539,0.01118806148999195,0.004442602523499262,0.0028669776579091644,0.4912635367253365,0.7667716551166647,2.0764945035930377e-05
1776677680.5056126,0.0383203141391277,-0.0143701173365116,9.79562950134277,0.01142163385605503,0.0042119592009020115,0.002592420442582309,0.4909763041616714,0.7667671053125613,2.539842301659437e-05
1776677680.5276043,0.0431103520095348,0.0,9.80521011352539,0.011610842304338795,0.003979070862654004,0.002331246156380523,0.4907035857500902,0.7667632687498501,3.0124933811000068e-05
1776677680.5496025,0.0287402346730232,0.0191601570695639,9.8100004196167,0.011753490258729737,0.0037469069910064743,0.002083217575354902,0.4904316272039859,0.7667598903421465,3.512979572306176e-05
1776677680.571602,0.023950194939971,0.0095800785347819,9.77167987823486,0.01184879691408548,0.0035182236694641855,0.0018479035784940328,0.4926668613526429,0.766994653159537,1.2928233734430528e-06
1776677680.5936062,0.0191601570695639,-0.0047900392673909,9.80521011352539,0.01189717120221003,0.003295658402320334,0.0016246537621477817,0.4921957209129361,0.7671103521620507,6.595241011283781e-07
1776677680.615606,0.0287402346730232,0.0047900392673909,9.8100004196167,0.011899971560402605,0.003081702792019873,0.0014125797636896208,0.49170493997049036,0.7672156141680634,4.417989085017541e-07
1776677680.6376112,0.0191601570695639,0.0143701173365116,9.81478977203369,0.011859342069665671,0.0028786408133782805,0.0012106674672009785,0.4914710282144408,0.7672637041300447,8.405542745693786e-07
1776677680.6596131,0.0,-0.0095800785347819,9.79562950134277,0.011778071858010195,0.0026885534152325152,0.0010179172242798205,0.4915983002327096,0.7672223674905485,3.387359262160853e-07
1776677680.6816041,0.0,0.0191601570695639,9.80521011352539,0.011659398066862814,0.0025133320956904747,0.0008333641268457208,0.49152239904761724,0.7672361993633948,6.430513828033775e-07
1776677680.7036018,-0.0143701173365116,0.0143701173365116,9.8100004196167,0.011506780225440383,0.002354691403024504,0.0006560392860820864,0.49144808572906795,0.7672502912190184,1.036638697813064e-06
1776677680.7256017,-0.0047900392673909,0.0047900392673909,9.76688957214355,0.011323683047683754,0.002214206274512677,0.0004849762220628732,0.49137500719804084,0.7672646876053989,1.5000725830300813e-06
1776677680.7476034,0.0,0.0,9.81478977203369,0.011113325920811077,0.0020932710704103493,0.0003192726782395781,0.4913026167809319,0.7672794847941906,2.0172698167570543e-06
1776677680.7696462,0.0,0.0047900392673909,9.78125953674316,0.010878458911469761,0.001992966921470978,0.0001582072980300433,0.49123270311543055,0.7672942931313858,2.555107838404926e-06
1776677680.7916307,0.0,0.0287402346730232,9.81478977203369,0.010621293338961526,0.0019140079882078733,1.3583091165733988e-06,0.4911638155688867,0.7673093929940586,3.1045788447044415e-06
1776677680.8136148,0.0,0.0,9.8100004196167,0.010343556024521245,0.00185682439754104,-0.00015133794759119096,0.49109625094436293,0.7673247063613091,3.6445396126713483e-06
1776677680.8356276,0.0047900392673909,0.0047900392673909,9.80041980743408,0.0100465663143509,0.001821631197587066,-0.0002995632370190737,0.4910294425705002,0.7673403529365352,4.160916614942633e-06
1776677680.8566172,0.0191601570695639,0.0,9.819580078125,0.009731327407888603,0.001808394354352746,-0.00044263226026216174,0.492341006318309,0.7672087285170586,2.2322917948768389e-07
1776677680.879634,0.0574804693460464,0.0143701173365116,9.79562950134277,0.009398689139766271,0.0018167960167285225,-0.0005795489025338321,0.49237448522287564,0.7672105952555484,1.7975046153456555e-07
1776677680.901616,0.0622705072164536,0.0047900392673909,9.8291597366333,0.009049612534302075,0.00184627722025432,-0.0007090584049577756,0.4924075602188538,0.7672126022081239,5.883079555763418e-08
1776677680.923624,0.0670605450868607,-0.0143701173365116,9.80041980743408,0.008685439963121155,0.0018960813758266669,-0.0008296783964786467,0.4924417693177902,0.7672148393075159,-1.5542417158141674e-07
1776677680.9456162,0.0383203141391277,0.0047900392673909,9.78604984283447,0.008308002994063292,0.0019652248586613497,-0.0009397591049496493,0.49247703192349207,0.76721731202385,-4.770999938138719e-07
1776677680.9666126,0.0479003898799419,0.0095800785347819,9.819580078125,0.007919599499450048,0.0020525009243932343,-0.0010376193649338852,0.4925115497290566,0.7672198948587159,-8.950702249931497e-07
1776677680.9896069,0.023950194939971,0.0,9.819580078125,0.007523096504411859,0.0021566368148308868,-0.001121642047590086,0.49255090856936157,0.7672230376768254,-1.4993886310397127e-06
1776677681.011606,-0.0095800785347819,0.0,9.8291597366333,0.007122120896509677,0.0022764800173570173,-0.0011902305962766752,0.4925883698853426,0.7672262275690449,-2.201614717282279e-06
1776677681.0336137,0.0,0.0047900392673909,9.81478977203369,0.006720986186244617,0.00241105631697883,-0.0012417386185175799,0.4926271496706613,0.7672297398639931,-3.0586432034435572e-06
1776677681.0556045,0.0,-0.023950194939971,9.80041980743408,0.006324395718049099,0.0025595268705016216,-0.001274498025858725,0.49266669866109575,0.7672335500002861,-4.066836421580174e-06
1776677681.0777287,-0.023950194939971,-0.0047900392673909,9.81478977203369,0.005937217719886595,0.002721098783280986,-0.0012869347955159701,0.49270741807537516,0.7672377237191379,-5.242437807882694e-06
1776677681.0996795,0.0,0.0095800785347819,9.79084014892578,0.005564341090178256,0.0028949618566131386,-0.001277675875959934,0.49274845439028075,0.767242198905535,-6.562558086683892e-06
1776677681.1217372,0.0,0.0047900392673909,9.83874034881592,0.005210575539535538,0.0030803430147904216,-0.00124557832299058,0.4937915370439998,0.7669060179449696,-8.873164486490581e-08
1776677681.1437376,0.0095800785347819,0.0047900392673909,9.79562950134277,0.004880650811607395,0.00327660396986361,-0.0011896790623766044,0.49385164508282037,0.7668948827400904,-4.130252229657678e-07
1776677681.1657424,0.0191601570695639,-0.0047900392673909,9.78125953674316,0.004579269839725496,0.0034832538156823294,-0.0011091768072516769,0.4939121045019986,0.7668841966567247,-8.750145651726571e-07
1776677681.187735,0.023950194939971,0.0,9.8100004196167,0.004311155328782349,0.0036998892029507856,-0.0010035403828518336,0.4939731949765303,0.7668739281636733,-1.465407278830287e-06
1776677681.2097332,0.0,0.0095800785347819,9.8100004196167,0.004081016949130394,0.0039261210849104045,-0.0008725808214056472,0.4940348810099742,0.7668641073337955,-2.170356180199464e-06
1776677681.2317655,0.0,0.0,9.79562950134277,0.003893305174613982,0.004161482345908043,-0.0007163840477710798,0.49409692352437,0.7668547955961835,-2.96996746903732e-06
1776677681.2537425,0.0,0.0143701173365116,9.79084014892578,0.003751838795449967,0.0044053203809968355,-0.0005352765610436299,0.4941594788892195,0.7668459944605569,-3.845931386257352e-06
1776677681.2758904,-0.0047900392673909,-0.0287402346730232,9.8100004196167,0.0036595882970392583,0.0046567213643714765,-0.00032987103301979553,0.4942231515949097,0.7668376573751741,-4.78427917368822e-06
1776677681.2978568,-0.0047900392673909,0.0095800785347819,9.80521011352539,0.0036186634406207615,0.0049144581881148,-0.00010104987519256236,0.4942864196545064,0.7668300106345722,-5.736360674976597e-06
1776677681.3198514,-0.0047900392673909,-0.0047900392673909,9.80521011352539,0.0036303628446615107,0.005176980837474509,0.0001501253204797083,0.49435029970438027,0.7668229525559218,-6.688075439868021e-06
1776677681.341855,-0.023950194939971,0.0,9.79562950134277,0.0036952157772868767,0.005442494748725775,0.00042246727298485005,0.4944146464974447,0.7668165347132964,-7.605474875867453e-06
1776677681.3638587,-0.0095800785347819,0.0047900392673909,9.80521011352539,0.0038130000583062483,0.005709057093741362,0.0007146543653364227,0.49447936363511036,0.766810799000412,-8.452987483240992e-06
1776677681.38486,0.0574804693460464,0.0,9.79084014892578,0.003982834596449375,0.005974639880970358,0.0010252168163282865,0.49454166888481876,0.7668059752719976,-9.165328732119647e-06
1776677681.4078639,0.138911128044128,0.0,9.80041980743408,0.004203579848705396,0.006237177122872681,0.001352535947068585,0.4946104011397395,0.7668014676078915,-9.793823083734396e-06
1776677681.4298823,0.201181635260582,0.0143701173365116,9.79084014892578,0.004474602471847556,0.0064946022662231,0.0016948460684277447,0.49530234627734865,0.7677801682651352,-3.3101085610766295e-07
1776677681.4518607,0.225131839513779,0.0047900392673909,9.79084014892578,0.004796792106304733,0.006744911366090421,0.002050238679856829,0.4953547751285128,0.7678096029805966,-3.381750235314308e-08
1776677681.473868,0.229921877384186,0.0,9.78125953674316,0.0051737874784935495,0.006986247330580602,0.002416655778971208,0.4954077450792873,0.7678398328999197,5.329031141104151e-07
1776677681.494857,0.239501953125,0.0047900392673909,9.79084014892578,0.0056130149832021355,0.007216940711243688,0.0027918741281157673,0.49545888111071656,0.7678694690862438,1.366128479507083e-06
1776677681.5178523,0.225131839513779,0.0,9.78125953674316,0.006125894748809458,0.007435504432119342,0.003173512293107971,0.49551574840620505,0.7679029230718766,2.659042116359831e-06
1776677681.5398536,0.229921877384186,0.0,9.78604984283447,0.006727270714427191,0.007640619538574549,0.0035590613514417868,0.4968051176785992,0.7686006651500559,3.5361397327054197e-07
1776677681.5616658,0.220341801643372,-0.0143701173365116,9.77647018432617,0.007434621624123381,0.00783110481216635,0.003945909600782791,0.49695854363972797,0.7686836733492273,1.2200539196418655e-06
1776677681.5836167,0.143701165914536,-0.0047900392673909,9.80041980743408,0.00826725744546775,0.0080058600888673,0.00433137058213617,0.4982577764314208,0.7694311606955565,6.389317688222252e-07
1776677681.6056225,0.134121090173721,0.0,9.80041980743408,0.009245391317748361,0.008163830957203326,0.004712765301926867,0.4995276967149321,0.7700703826689597,7.100109622580334e-07
1776677681.6276133,0.0766406282782555,-0.0143701173365116,9.8100004196167,0.01038912923395512,0.008304026445494996,0.005087558087801075,0.49993356632593555,0.7702823355685701,1.8825005729814847e-06
1776677681.6496203,0.023950194939971,0.0047900392673909,9.80521011352539,0.011717539667805768,0.008425542701912698,0.005453471705830947,0.5003403102852909,0.7704950584106214,3.6906169251245627e-06
1776677681.6716163,0.0047900392673909,0.0095800785347819,9.78604984283447,0.013247832784170098,0.008527591434641284,0.005808514505061502,0.5010078468273338,0.7705679612126167,1.1103232384935763e-06
1776677681.6936238,-0.0143701173365116,0.0287402346730232,9.80521011352539,0.01499451431859513,0.008609587939320089,0.006150915227233544,0.501280162011232,0.770671573830485,2.654708348155564e-06
1776677681.7156234,-0.0047900392673909,-0.0095800785347819,9.80041980743408,0.016968288585011045,0.008671236865850543,0.0064790490131783575,0.5023175110522727,0.7708523261755473,1.2213690238584597e-06
1776677681.7376218,-0.0095800785347819,-0.0047900392673909,9.78125953674316,0.019174992078276838,0.008712481444507338,0.006791408421376962,0.502662971732716,0.7709437208321493,2.9240788626632643e-06
1776677681.7596197,-0.0622705072164536,0.0,9.79084014892578,0.021615218603408218,0.008733350238655818,0.007086556998644209,0.5035260817944253,0.771117025326054,1.371096567139656e-06
1776677681.7816184,-0.0574804693460464,0.0191601570695639,9.80521011352539,0.02428454740926458,0.00873389090353974,0.007363081500800481,0.504509942311149,0.7715375583243261,1.2902157738887443e-06
1776677681.803615,-0.0718505829572678,0.0047900392673909,9.81478977203369,0.027173895885410422,0.00871424312321688,0.007619651147993435,0.5049185365996279,0.7716987376910267,3.1662553449305155e-06
1776677681.8256152,-0.129331052303314,-0.0095800785347819,9.80041980743408,0.0302698947565728,0.00867469529002962,0.007855145435179652,0.505329320461587,0.771860462185307,5.972074370674477e-06
1776677681.8476129,-0.114960938692093,0.0,9.80041980743408,0.0335552331664166,0.008615623319325237,0.008068705041234442,0.5047923740311316,0.7719703258532876,1.714017130345044e-06
1776677681.8696177,-0.153281256556511,0.0143701173365116,9.82437038421631,0.037008967964305584,0.008537420514687956,0.00825970381663242,0.5049195181050714,0.7720699486887117,3.904353465347723e-06
1776677681.8916113,-0.129331052303314,0.0,9.8100004196167,0.04060692178953619,0.008440528268759647,0.008427761610184752,0.5044959276948415,0.7727510411707718,1.7227193445894167e-06
1776677681.9136105,-0.138911128044128,0.023950194939971,9.8291597366333,0.04432220125109239,0.008325504580198869,0.008572804365852412,0.5044960596343805,0.7729448949240673,3.965946687525502e-06
1776677681.9356124,-0.153281256556511,-0.0047900392673909,9.819580078125,0.048125649155333336,0.00819305919565258,0.008695085953530482,0.5046103239433474,0.7724180319171423,1.800315619555456e-06
1776677681.957612,-0.186811521649361,0.0095800785347819,9.80521011352539,0.051985871200863405,0.008044051298528596,0.008795121121142441,0.5046478047384869,0.7724160522753315,4.1237107355623465e-06
1776677681.97961,-0.167651370167732,0.0143701173365116,9.81478977203369,0.055868950358935944,0.007879468256508041,0.008873535077475094,0.5048177914655836,0.7717360532773322,1.861817885317551e-06
1776677682.001617,-0.196391597390175,0.0095800785347819,9.8100004196167,0.05973849128040364,0.007700431503060496,0.008930934461585115,0.5048804612961332,0.7716129549850932,4.24502162042984e-06
1776677682.02261,-0.172441408038139,0.0191601570695639,9.84353065490723,0.0635561570641264,0.00750822097421216,0.008967905621256272,0.5049471319247612,0.7714965196440923,7.526325518137441e-06
1776677682.0456169,-0.172441408038139,0.0191601570695639,9.79562950134277,0.06728237367710216,0.007304284756659089,0.00898509512218107,0.5050284746640745,0.7713698708158089,1.2257614568312235e-05
1776677682.0676177,-0.177231445908546,0.0,9.819580078125,0.07087703596312887,0.00709022734335189,0.008983225593704259,0.5051147687667442,0.771249697792792,1.7891399706542392e-05
1776677682.089622,-0.162861332297325,0.0191601570695639,9.819580078125,0.07430015567453516,0.00686775394181129,0.008963030634580293,0.5052095605047159,0.771130700065521,2.4589704226698092e-05
1776677682.1116104,-0.182021483778954,0.023950194939971,9.82437038421631,0.07751240991365456,0.006638621120997127,0.008925246622708128,0.5055153056906699,0.7700052492130236,2.2783083753800385e-06
1776677682.1336243,-0.177231445908546,0.0095800785347819,9.8100004196167,0.08047558998190221,0.006404653633348136,0.008870661506288324,0.5055917868197504,0.7698712293880106,4.835642117425254e-06
1776677682.1556115,-0.134121090173721,-0.0047900392673909,9.80041980743408,0.08315299890675792,0.006167731044383208,0.008800095109172488,0.5062392064103207,0.7683460208295758,1.9475699002624263e-06
1776677682.1776206,-0.158071294426918,0.0095800785347819,9.79562950134277,0.08550991644386906,0.0059296928963672915,0.00871429140171933,0.506422475662769,0.7679767668210354,4.348462022735128e-06
1776677682.1996114,-0.134121090173721,0.0047900392673909,9.82437038421631,0.08751411073608974,0.005692300700827385,0.008613823485389561,0.5066150868596121,0.767610426836606,7.780588762182615e-06
1776677682.2216191,-0.100590817630291,0.0143701173365116,9.8100004196167,0.08913627907677787,0.0054573131916142185,0.008499113904744972,0.5074569238740154,0.7665874743030576,2.034616716971127e-06
1776677682.2436175,-0.110170900821686,0.0335302725434303,9.819580078125,0.09035042187909728,0.005226583584861569,0.008370531139822446,0.5085310110516503,0.7651818035502308,1.6632194110944715e-06
1776677682.2656171,-0.1197509765625,0.0095800785347819,9.79084014892578,0.09113409792741939,0.0050021312134052795,0.008228429088105471,0.5088620041980103,0.7647558939805809,3.840079717232054e-06
1776677682.2876167,-0.100590817630291,0.0047900392673909,9.8100004196167,0.09146847074920185,0.004786134472261425,0.008073094654989347,0.5092048496152217,0.7643295318354308,7.007897543476348e-06
1776677682.3096237,-0.1197509765625,0.0431103520095348,9.819580078125,0.09133824420696349,0.004580844042276339,0.007904708421052386,0.509558640165012,0.7639038804004739,1.1141398885081184e-05
1776677682.331614,-0.0862207040190697,0.0,9.79562950134277,0.09073160631436068,0.004388545645816517,0.007723390105629412,0.5099233929751621,0.7634788314412982,1.6219551190679187e-05
1776677682.3536026,-0.0718505829572678,0.0047900392673909,9.80521011352539,0.08964022188784637,0.004211539409040509,0.00752923369395429,0.5102996230631752,0.763053669533149,2.222979549324061e-05
1776677682.3756108,-0.0910107418894768,0.0191601570695639,9.79084014892578,0.0880592691227981,0.00405203453768676,0.007322264523208174,0.5106860961417321,0.7626295888401508,2.9130870587278304e-05
1776677682.3976097,-0.0479003898799419,0.0095800785347819,9.819580078125,0.08598742494252463,0.003912076721600337,0.007102408176528254,0.5104294370110585,0.7634355869499829,2.1276501394432346e-06
1776677682.419613,-0.0958007797598839,0.0047900392673909,9.79562950134277,0.0834268136417007,0.0037935472960192447,0.006869551602128852,0.5106117455571608,0.7632800249128173,4.250276238793357e-06
1776677682.4406147,-0.0862207040190697,0.0047900392673909,9.80041980743408,0.08038301764800258,0.0036981071693248154,0.006623660252236128,0.5125407900011398,0.7623396826555098,1.5602184791237178e-06
1776677682.4636116,-0.0479003898799419,0.0,9.82437038421631,0.07686509572871777,0.0036270946670559547,0.006364881041122676,0.5130437455952654,0.7620597858670818,3.4682186268815857e-06
1776677682.4856021,-0.0191601570695639,0.0143701173365116,9.819580078125,0.0728855793132425,0.003581480362897318,0.006093640522488649,0.5149880205356784,0.7612766533149795,1.4512431386453194e-06
1776677682.507631,-0.0143701173365116,0.0,9.79084014892578,0.06846048251480787,0.003561896837592943,0.005810707521613697,0.5177510400638913,0.7600786951609336,1.2040126939113888e-06
1776677682.5296354,0.0047900392673909,0.0095800785347819,9.819580078125,0.06360923962160536,0.0035686845037801703,0.005517129949695351,0.5205578744253697,0.7588524542637868,1.1161636570879243e-06
1776677682.551619,-0.0431103520095348,0.0,9.8100004196167,0.05835445901971048,0.003601911939149677,0.005214134304439001,0.5219212168836148,0.7582583344135329,2.5517393826503553e-06
1776677682.5737424,-0.0431103520095348,0.0095800785347819,9.81478977203369,0.05272145329668631,0.0036613874107222074,0.004903110808018493,0.523297280953392,0.7576620556538993,4.608800930625867e-06
1776677682.5958593,-0.0047900392673909,0.0,9.78604984283447,0.04673767356130355,0.0037466801542041456,0.004585598112997632,0.5246855115381718,0.7570636029583283,7.2569977280244415e-06
1776677682.6177638,-0.023950194939971,0.0095800785347819,9.80521011352539,0.04043230871839744,0.0038571455147331877,0.004263181643170537,0.5260627990901254,0.7564725980583736,1.0408937846752194e-05
1776677682.6397362,0.0,0.0143701173365116,9.80041980743408,0.033836062576299494,0.003991961800801226,0.003937392997960343,0.527447132145246,0.755880961696855,1.4060615442532722e-05
1776677682.6617405,0.0191601570695639,0.0,9.79562950134277,0.026981001462541003,0.004150172441617961,0.0036096932604973092,0.528839369244828,0.7552880140654964,1.818041865383397e-05
1776677682.6837516,0.0095800785347819,0.0047900392673909,9.80041980743408,0.019900552642336526,0.004330671972708465,0.0032814932939826567,0.5238119000507927,0.7585018469996674,1.3229623158522721e-06
1776677682.7057564,0.0431103520095348,-0.0047900392673909,9.80041980743408,0.012629577801068697,0.004532131718047112,0.002954166454658664,0.5241732596757168,0.7584155861315521,2.4010258657559787e-06
1776677682.7277398,-0.0095800785347819,0.0095800785347819,9.8100004196167,0.005204249766334854,0.004752957124202137,0.0026290719338304025,0.524535040256636,0.7583300423740534,3.8141969225964026e-06
1776677682.750757,0.0335302725434303,-0.0047900392673909,9.80041980743408,-0.0023383279008216615,0.004991315686487517,0.0023075868238956175,0.5264925959209129,0.7594655345329695,8.747147256200368e-07
1776677682.7717404,0.0,0.0143701173365116,9.8291597366333,-0.009960582548153329,0.005245194476218596,0.0019911365581344043,0.5302422079879088,0.7608463091451146,5.477519294815412e-07
1776677682.793737,0.023950194939971,0.0143701173365116,9.79084014892578,-0.017624869104838847,0.005512473614807725,0.0016812235516777663,0.5330270043937805,0.7621213374544009,4.300887941824919e-07
1776677682.8157334,0.0335302725434303,0.0,9.82437038421631,-0.02529378157173548,0.0057910081772779304,0.0013794194750308335,0.5345459157924207,0.7627289452156553,8.878914718733339e-07
1776677682.8377426,0.0431103520095348,-0.0047900392673909,9.819580078125,-0.032930367329745,0.006078647439797031,0.0010873396114626885,0.5360592468735245,0.7633364518127934,1.4946087496809998e-06
1776677682.8597345,0.0,0.0143701173365116,9.819580078125,-0.040498312599702345,0.00637319215331092,0.0008066668275093385,0.535722861332898,0.7633730994977482,3.6115383860663523e-07
1776677682.8817387,0.0,0.0,9.78604984283447,-0.04796226486575334,0.006672398794189212,0.000539148426730575,0.5382953267325838,0.7644400436220573,2.173809480269689e-07
1776677682.9038217,0.0479003898799419,-0.0047900392673909,9.80041980743408,-0.055288172872305016,0.00697401077265103,0.00028647528719104613,0.5405038365035116,0.7666820192333428,1.4115038718925714e-07
1776677682.9257636,0.0287402346730232,-0.0047900392673909,9.80521011352539,-0.06244329713959837,0.007275700279413837,5.017017968646161e-05,0.5416947593555022,0.7676185978418211,2.3637367555459536e-07
1776677682.9477394,0.0479003898799419,-0.0143701173365116,9.81478977203369,-0.06939597920783817,0.007574956603357951,-0.00016837697143157096,0.5428829986246491,0.7685602246882508,3.2485164591341755e-07
1776677682.9687362,0.0574804693460464,-0.0191601570695639,9.8100004196167,-0.07611556168351591,0.007869020904109751,-0.0003678011527097847,0.5440068594872913,0.7694581877669842,3.792327560588633e-07
1776677682.991744,0.0287402346730232,-0.0095800785347819,9.819580078125,-0.0825725188485867,0.008154878595144854,-0.0005467015658641952,0.5452323542026181,0.7704464260813602,3.8050869988479887e-07
1776677683.0138872,0.0574804693460464,-0.0095800785347819,9.81478977203369,-0.08873867804803745,0.008429309505139678,-0.0007036304040039372,0.5463999035936536,0.7713976179281734,3.0364961877853735e-07
1776677683.0357394,0.0287402346730232,-0.0143701173365116,9.80521011352539,-0.09458746339231115,0.008688982321234478,-0.0008371108824864087,0.5475385231592851,0.7723352217883208,1.3563644081633038e-07
1776677683.0577343,0.0095800785347819,0.0,9.79562950134277,-0.10009413767386433,0.008930542537000916,-0.0009457100389287589,0.5432408410727171,0.7696917638737684,8.381346147694506e-09
1776677683.079736,0.0670605450868607,0.0143701173365116,9.80521011352539,-0.10523603911630211,0.009150711098620593,-0.0010281485107832109,0.5435319627130282,0.7699865742593642,-1.9399018098004118e-07
1776677683.101741,0.0814306661486626,-0.0047900392673909,9.79562950134277,-0.10999264213384737,0.009346416758071057,-0.0010833714272411362,0.5438099477879744,0.7702824141605509,-5.242878955203123e-07
1776677683.1237411,0.0718505829572678,-0.0287402346730232,9.8291597366333,-0.11434538098988384,0.009514847751126133,-0.0011105379877364915,0.5461937259933024,0.7722105344954717,-1.5551386514745725e-07
1776677683.1457336,0.0574804693460464,-0.0143701173365116,9.76209926605225,-0.11827753175233213,0.009653352508118617,-0.0011089807896352644,0.5466115165042053,0.7725905079722317,-4.3816040964704143e-07
1776677683.1677413,0.0670605450868607,-0.0095800785347819,9.8100004196167,-0.121774316466802,0.00975935113096087,-0.0010782474812137282,0.5470144946304099,0.7729714212955151,-8.532208539610879e-07
