Timestamp,IMU_Linear_Acc_X,IMU_Linear_Acc_Y,IMU_Linear_Acc_Z,Filtered_X,Filtered_Y,Filtered_Z,Pose_X,Pose_Y,Pose_Z
1739326269.6968546,-0.03750932589173317,0.684061586856842,-10.023992538452148,-6.740321934882928e-08,1.2292397181465175e-06,0.0,-3.6067662453496305e-08,6.577698165882873e-07,0.0
1739326269.7467446,-0.03750932589173317,0.684061586856842,-10.023992538452148,-5.955630870442413e-07,1.0861347697177146e-05,0.0,-3.960976955296984e-08,7.223676024902933e-07,0.0
1739326269.7968717,-0.05396217852830887,0.6866337060928345,-10.008875846862793,-2.6685731900999153e-06,4.839977265635606e-05,1.3582137972392776e-08,-4.1710414066924405e-08,7.606355489333979e-07,2.1206520446096055e-12
1739326269.8467267,-0.042450033128261566,0.6892576813697815,-10.006542205810547,-8.260974849015213e-06,0.00014848561818306055,1.2210614574917085e-07,-4.6117447463247185e-08,8.404931897965844e-07,3.052321797114796e-11
1739326269.8969088,-0.014067274518311024,0.699812114238739,-10.003129959106445,-2.016603785862878e-05,0.0003594089391151961,5.563464401690253e-07,-5.716695821777326e-08,1.0391039798963024e-06,2.125768137341043e-10
1739326269.946751,-0.014067274518311024,0.699812114238739,-10.003129959106445,-4.172908906092506e-05,0.000740449434774706,1.7500404386401148e-06,-6.993003854787322e-08,1.2673164863936679e-06,5.397670898935734e-10
1739326269.9970973,0.066153883934021,0.7226426005363464,-10.005481719970703,-7.646569693005522e-05,0.0013594773503017414,4.341679665735548e-06,-1.6204167288881657e-07,2.9082228115082683e-06,4.5327960122338e-09
1739326270.047261,0.066153883934021,0.7226426005363464,-10.005481719970703,-0.0001275843923618727,0.002290803658400363,9.14080968281889e-06,-2.703175399484074e-07,4.8398958005850135e-06,1.03597269104895e-08
1739326270.0967195,0.1217101588845253,0.7432952523231506,-10.030953407287598,-0.00019747606500662018,0.0036132586140163398,1.705844806384632e-05,-1.0076974509554307e-06,1.816250125010557e-05,6.273233972572835e-08
1739326270.1467938,0.1411658227443695,0.749549150466919,-10.041687965393066,-0.0002872913696707435,0.00540846564275289,2.8969090248653257e-05,-1.2583754242324107e-06,2.2725377245252967e-05,8.232612932288775e-08
1739326270.196621,0.15921346843242645,0.762637734413147,-10.041034698486328,-0.00039664396409730304,0.007759292532769137,4.55257089505266e-05,-1.57226808922144e-06,2.849781577204898e-05,1.0858260964974259e-07
1739326270.2967584,0.153282031416893,0.7474147081375122,-10.05876350402832,-0.0005232941614674205,0.010748511576775557,6.703474995806154e-05,-2.9498983691933774e-06,5.473367860987084e-05,2.4311261793560303e-07
1739326270.3467457,0.12061364203691483,0.7492493987083435,-10.039311408996582,-0.0006625713975250921,0.014457735354801814,9.345876155516078e-05,-4.361452823306264e-06,8.259576374084213e-05,3.980521909664006e-07
1739326270.396623,0.09176028519868851,0.7419864535331726,-10.042362213134766,-0.0008068221211663803,0.018966523131616196,0.0001245218532889635,-5.5688348978900535e-06,0.0001071770062380295,5.404108099001461e-07
1739326270.4471676,0.04410984367132187,0.7357285618782043,-10.036469459533691,-0.0009455701480403552,0.024351412950395283,0.00015984331480056662,-8.241492020606155e-06,0.00016441600240212417,8.836595434005291e-07
1739326270.4967494,0.008749215863645077,0.7275271415710449,-10.034972190856934,-0.00106637700689875,0.030684856615612918,0.0001990304872292558,-1.4121485630236088e-05,0.0003011862511518737,1.7285631514432008e-06
1739326270.546693,-0.04053928330540657,0.7253067493438721,-10.025117874145508,-0.0011558600560611656,0.038034225483386044,0.00024173503398108615,-1.990572961435508e-05,0.0004464401999335643,2.6368722886428277e-06
1739326270.5970407,-0.05850691348314285,0.730259895324707,-10.025046348571777,-0.001200595913313081,0.04646098745754468,0.0002877097779753303,-2.9635117373103834e-05,0.0007135710183830625,4.307417913887183e-06
1739326270.6467674,-0.06932259351015091,0.7152873873710632,-10.018284797668457,-0.0011878248468684752,0.05602006294681037,0.0003368639438234805,-3.869090025080567e-05,0.00098600717911109,6.0011761903714e-06
1739326270.696653,-0.07400314509868622,0.7052590250968933,-10.023153305053711,-0.0011058876576680381,0.06675930073624164,0.000389295084973039,-4.4036573736068816e-05,0.0011585264340466556,7.066032641232672e-06
1739326270.7966535,-0.07437840104103088,0.696427583694458,-10.015457153320312,-0.0009444263165378775,0.0787190167391114,0.00044529169335270755,-7.62774778455635e-05,0.002430060053733537,1.4722836614457408e-05
1739326270.996688,-0.007570846006274223,0.6897034049034119,-10.003026962280273,-0.0006943828594893007,0.09193162061705157,0.0005053348450110119,-8.031672777243298e-05,0.0026121829833188515,1.5803534559401753e-05
1739326271.0466285,0.016371142119169235,0.6964786052703857,-10.003381729125977,-0.0003478629538430162,0.10642132453308704,0.0005701005654053819,-8.80508030512346e-05,0.0029834801366884897,1.7991575928143918e-05
1739326271.0965812,0.042113471776247025,0.6931954622268677,-10.021678924560547,0.00010183369773897894,0.12220384424188498,0.0006403556755721737,-9.96010147895721e-05,0.0036140551480693607,2.1659581019253184e-05
1739326271.1467519,0.042113471776247025,0.6931954622268677,-10.021678924560547,0.0006599375454748131,0.1392861501182684,0.0007167114587040314,-0.00011002731979716672,0.004292270938988417,2.5545689813644753e-05
1739326271.1966825,0.09846765547990799,0.7230433225631714,-10.0404052734375,0.00133011918716372,0.15766649293455293,0.0007993942492678585,-0.00012186317578213907,0.005268494972160849,3.104985846377908e-05
1739326271.2465253,0.12417177855968475,0.7266796827316284,-10.047486305236816,0.0021148173688741835,0.1773347696162029,0.0008881225337125714,-0.0001288990684458761,0.006029003887874022,3.52788921124631e-05
1739326271.2967043,0.15358838438987732,0.732335090637207,-10.05586051940918,0.0030157636135255917,0.19827305306343102,0.0009820321097260972,-0.0001339581331067549,0.006752879250474392,3.9262544251741756e-05
1739326271.3465705,0.16436585783958435,0.7322107553482056,-10.060758590698242,0.00403444406525152,0.22045609984200412,0.0010796304718087724,-0.00013844125686283588,0.0077462421741173295,4.466952261650362e-05
1739326271.3965604,0.1694338470697403,0.7310299873352051,-10.064165115356445,0.005172380182554382,0.24385178836341487,0.0011787984345167286,-0.0001404840143362968,0.008940013506678217,5.1087794294098065e-05
1739326271.447141,0.1694338470697403,0.7310299873352051,-10.064165115356445,0.006431224140538797,0.26842152527211866,0.0012768333031886086,-0.00014015483510524082,0.009659023623625813,5.491632700606248e-05
1739326271.496726,0.1411793828010559,0.7261927723884583,-10.041261672973633,0.00781269746516141,0.29412064968650786,0.0013705463723446777,-0.00013706452363701802,0.0108648611159479,6.127358653037973e-05
1739326271.546549,0.08937379717826843,0.7302552461624146,-10.035544395446777,0.009318348059454515,0.3208988476382406,0.0014564471975804878,-0.00013154074098159564,0.011996374715005944,6.716915564636356e-05
1739326271.5966654,0.040312353521585464,0.7302747368812561,-10.02230167388916,0.010949107118717199,0.34870062210589037,0.0015310048180585444,-0.00012241813394469155,0.013285634696641284,7.380311331730359e-05
1739326271.6465242,0.040312353521585464,0.7302747368812561,-10.02230167388916,0.012704803704146152,0.3774658806086101,0.0015909310034739272,-0.00010387921297089866,0.015203887085231958,8.350735989945935e-05
1739326271.6966028,-0.05242655426263809,0.7380915880203247,-10.010720252990723,0.014583805293912781,0.40713058429676025,0.0016334159804484159,-7.733860707380978e-05,0.017340071968415856,9.409132892655539e-05
1739326271.7467225,-0.09635894745588303,0.7283464074134827,-10.006062507629395,0.016582650403228774,0.4376273159902915,0.001656266161877487,-3.924088354617306e-05,0.01986769283018918,0.00010632413368643099
1739326271.7965648,-0.12590384483337402,0.722207248210907,-10.002944946289062,0.018695561972831006,0.4688857180076553,0.0016579594410493824,9.755877854388435e-06,0.022653058715032398,0.00011945630404430846
1739326271.8472488,-0.13659009337425232,0.7138996124267578,-10.002653121948242,0.02091408531184928,0.5008328435014576,0.0016376524829713765,0.00011645492504652407,0.02782802530611699,0.0001429555787097875
1739326271.8965993,-0.13004279136657715,0.704379677772522,-9.997797966003418,0.023227069678697653,0.5333934731130063,0.0015951506482572706,0.00015939073595706393,0.02971417495463219,0.0001512688478309571
1739326271.9464529,-0.09715761244297028,0.6981412172317505,-9.997089385986328,0.025620973334233396,0.5664904303814406,0.0015308607192283767,0.00023601868738424602,0.032884890117441876,0.00016491830139631354
1739326271.9964488,-0.046213991940021515,0.6882222890853882,-10.001794815063477,0.028080442632240993,0.6000449078361372,0.0014457368585783844,0.0003410268195448964,0.036926982832039656,0.00018172976314846366
1739326272.0472882,0.0038710522931069136,0.6856927275657654,-10.004405975341797,0.030589118402482213,0.6339768076813195,0.001341201785618126,0.0004942958166478599,0.04239469852251622,0.00020347684639411676
1739326272.0965352,0.058512430638074875,0.6853619813919067,-10.011127471923828,0.03313054974732902,0.6682051072326097,0.0012190374988432203,0.0006116860122111818,0.04633921041924193,0.00021851490853269062
1739326272.146476,0.11651462316513062,0.6788040399551392,-10.026430130004883,0.035689151485565916,0.7026482088498817,0.0010812567365687865,0.0007680737032779698,0.05134865273780069,0.00023684786411932494
1739326272.1964703,0.14577661454677582,0.6877319812774658,-10.025642395019531,0.03825124429595629,0.7372241762593049,0.000929965403675187,0.0009749733265910226,0.05764947015304861,0.00025875792330929033
1739326272.246387,0.1698923408985138,0.7058045268058777,-10.028827667236328,0.04080598488344434,0.7718509374298108,0.0007672461945022731,0.0012318939873905304,0.06509341610187948,0.0002831389044921529
1739326272.2965758,0.1862080693244934,0.7094138860702515,-10.029805183410645,0.043345826098424724,0.8064466809551936,0.0005950915662277596,0.0014126914676246224,0.07013995663165655,0.0002988241744522643
1739326272.3465576,0.17274363338947296,0.7313418388366699,-10.029427528381348,0.045866483794774975,0.8409304399856754,0.00041537365513334793,0.0016968180397333318,0.07781567367648834,0.000321431810118626
1739326272.3963954,0.1349937915802002,0.7401875853538513,-10.027229309082031,0.04836658821023267,0.8752226954546694,0.00022983410225938525,0.001983250821475604,0.0853010895602148,0.0003421378918580125
1739326272.4464967,0.08458821475505829,0.7470301985740662,-10.017468452453613,0.05084706202760322,0.9092459256955917,4.0101079364723555e-05,0.0025351340535739553,0.09918222413000499,0.0003773923896783585
1739326272.4964254,0.03178052604198456,0.7631704807281494,-10.022298812866211,0.053310271955809174,0.9429250811453047,-0.00015226503807859324,0.002794055640499312,0.10550521698742603,0.00039227255162572577
1739326272.546752,-0.010908814147114754,0.765127420425415,-10.018908500671387,0.055759108341176214,0.9761879852015041,-0.00034572948826177435,0.0031514900012405153,0.11407000750148455,0.00041132162502830914
1739326272.5964427,-0.03847985342144966,0.753372073173523,-10.025917053222656,0.05819616602824179,1.0089656554757178,-0.0005387775405812603,0.0035042176813765372,0.12236037214675209,0.0004286118863427991
1739326272.646372,-0.075781911611557,0.742132306098938,-10.024394035339355,0.060623131649547385,1.0411924911894732,-0.0007299414406952407,0.004155472253384288,0.13731446782457227,0.00045715731703216205
1739326272.6964827,-0.0716271847486496,0.7392581105232239,-10.030472755432129,0.06304022282793129,1.0728063844903581,-0.0009178357487963037,0.004564531427416792,0.14651365676952494,0.00047320520235380746
1739326272.7465005,-0.05692571401596069,0.725893497467041,-10.043753623962402,0.06544539245393638,1.1037489419164064,-0.0011011940708698597,0.004978107127981134,0.15568368576301417,0.0004881359191825732
1739326272.796446,-0.032946206629276276,0.718952476978302,-10.03471565246582,0.06783359256950344,1.133965782301884,-0.0012789178148193208,0.00554343761682785,0.1680297122090263,0.0005066515121773423
1739326272.8472493,0.004959456622600555,0.7003092169761658,-10.04233169555664,0.07019677037878602,1.1634066609533782,-0.00145011674480408,0.006370959709562433,0.18576528698489986,0.0005303518200722434
1739326272.8963645,0.036110881716012955,0.6981768012046814,-10.046332359313965,0.07252458265663295,1.1920253795658233,-0.001614121376137256,0.00694080684335414,0.19778154519966576,0.0005446723181002786
1739326272.946376,0.06310538202524185,0.6897039413452148,-10.04687213897705,0.07480529522423265,1.2197796493539972,-0.0017704948766409994,0.007789851027013164,0.21542878394781745,0.0005633939296478757
1739326272.9963367,0.09022344648838043,0.6924316883087158,-10.036977767944336,0.0770265777481408,1.2466310045722373,-0.0019190392044632523,0.009589252827968754,0.2520049820881449,0.0005946587806740064
1739326273.046346,0.08617022633552551,0.6823710203170776,-10.027687072753906,0.07917613171704732,1.2725447615724286,-0.0020597440024629605,0.011219187227814396,0.2843944569554793,0.0006154079053591746
1739326273.096317,0.08947262912988663,0.6875145435333252,-10.021137237548828,0.08124210537290262,1.297489992013894,-0.0021926737698070176,0.013495922540443154,0.32874786478302437,0.0006353323750961014
1739326273.1464636,0.06869512796401978,0.6974244117736816,-10.023612022399902,0.08321328196515182,1.3214395110739319,-0.0023178518907319146,0.015025574426405822,0.358086247282514,0.0006440283499265915
1739326273.196362,0.03935031220316887,0.6902192831039429,-10.021907806396484,0.08507907319340112,1.3443699000153355,-0.002435199072683897,0.015628263287232935,0.3695585709858631,0.0006465693499222134
1739326273.3963988,0.0016473927535116673,0.7268626689910889,-10.004814147949219,0.08682940986157817,1.3662615435517371,-0.0025445357636906486,0.02158276052838677,0.48078731784009476,0.00065017685023216
1739326273.5962453,0.04662524163722992,0.7281202673912048,-9.985142707824707,0.08845476596578855,1.3870986726915313,-0.0026456095447208324,0.02493583862357746,0.5421583998811834,0.000639363961946636
1739326273.6964252,0.07996517419815063,0.7154048085212708,-10.004491806030273,0.08994650077925678,1.4068693959371108,-0.0027381015527468237,0.027004955204289666,0.57968484007932,0.0006291797908276269
1739326273.7464426,0.07767564803361893,0.7137026190757751,-10.010129928588867,0.0912973478287568,1.4255656343820124,-0.0028216418971269037,0.02806396414834796,0.5988015651306388,0.0006230451941144013
1739326273.7962582,0.06146014481782913,0.7178259491920471,-10.026836395263672,0.09250170823916329,1.4431829556606677,-0.0028959024762520353,0.02915312443125909,0.6184030395209801,0.0006161192003916784
1739326273.8464172,0.055957481265068054,0.7168484926223755,-10.026644706726074,0.09355561891784474,1.4597204117488132,-0.002960741104613225,0.0313761597133664,0.6582365436125198,0.0006001517664958778
1739326273.8963146,0.03145449981093407,0.7339360117912292,-10.039729118347168,0.0944565180345126,1.4751804314607657,-0.0030163184242038635,0.03272594024036335,0.682317983198874,0.0005893438880849257
1739326273.9462726,0.03328365832567215,0.7422635555267334,-10.045735359191895,0.09520296377375914,1.4895687627169047,-0.0030631711929614064,0.033802129177155214,0.7014663838977305,0.0005801626229003194
1739326273.9963021,0.01405140571296215,0.7433961033821106,-10.045417785644531,0.09579438442613465,1.5028944416795051,-0.0031022593867714382,0.03544448081353038,0.7306067770848736,0.0005652365908384376
1739326274.0461907,0.002204206306487322,0.7496613264083862,-10.051224708557129,0.09623087256716563,1.5151697285433312,-0.003134977733326136,0.03812431436054156,0.7779657539602746,0.0005386843027280727
1739326274.0963082,-0.0019099470227956772,0.7446226477622986,-10.059534072875977,0.09651300203429888,1.5264099761334537,-0.0031631361607129546,0.03980997626295728,0.8076484178842601,0.0005207024878187049
1739326274.1462095,-0.008915628306567669,0.7385463714599609,-10.050106048583984,0.09664167214798888,1.5366334496855392,-0.003188893471493071,0.0417552472329312,0.8418134884293984,0.0004988196850186624
1739326274.1963162,-0.007855125702917576,0.7177843451499939,-10.048439025878906,0.09661799094654717,1.5458611081589,-0.00321454656712449,0.0450109336490338,0.8988112469519917,0.00045970046916947373
1739326274.2462134,-0.007525481749325991,0.7064292430877686,-10.04662799835205,0.0964432033067064,1.5541163231361281,-0.003242213829819765,0.04740637370400697,0.9406241267655532,0.00042909388230153025
1739326274.2963085,-0.007525481749325991,0.7064292430877686,-10.04662799835205,0.0961186858345745,1.561424541328703,-0.003273630193699158,0.04872617840397024,0.9636236771267271,0.0004116163928729929
1739326274.3463013,0.01666181907057762,0.6946702003479004,-10.026954650878906,0.09564601375242093,1.5678129675389003,-0.0033100989320196915,0.05018202529505249,0.9889684469278018,0.0003918502467462506
1739326274.3963282,0.026191741228103638,0.6873264908790588,-10.001502990722656,0.0950271025497993,1.573310304694291,-0.003352436166544363,0.052131382645135255,1.0228711625548839,0.00036460608363528274
1739326274.4461951,0.034530386328697205,0.7058480978012085,-10.00294303894043,0.09426439984124432,1.5779465361212517,-0.003400832847581016,0.05438193452112942,1.061975810723913,0.00033208274552869144
1739326274.496215,0.040003735572099686,0.7026157379150391,-9.996407508850098,0.0933610431106432,1.5817527853033324,-0.003454734276113795,0.056443249914300574,1.0977685653793907,0.0003013229550093665
1739326274.5462532,0.040003735572099686,0.7026157379150391,-9.996407508850098,0.09232093280466852,1.5847612462848533,-0.0035128308989019618,0.05859619884440339,1.135139257081061,0.00026823158198590875
1739326274.5962667,0.048510488122701645,0.7159780859947205,-9.990939140319824,0.09114873986546002,1.5870051075900848,-0.003573127394619596,0.06136994922788146,1.183282360688362,0.00022418350038801315
1739326274.6462283,0.04747205227613449,0.70998215675354,-9.993782997131348,0.08984988307063166,1.5885184603441658,-0.003633029295787369,0.06391386001735452,1.2274464659808813,0.0001824273462892056
1739326274.6962545,0.04747205227613449,0.70998215675354,-9.993782997131348,0.08843054029731615,1.5893361742303436,-0.0036894900475359835,0.06718051764929707,1.284193921917634,0.00012695902079389056
1739326274.7461364,0.048144809901714325,0.7047764658927917,-9.9989595413208,0.08689777752379273,1.589493658894431,-0.003739320383236083,0.06914475111459649,1.3183436434928064,9.263603044432202e-05
1739326274.7963233,0.044004522264003754,0.6962186694145203,-10.000530242919922,0.08525972338528312,1.5890265454755599,-0.0037795807389706276,0.07186528151007768,1.3656917264266826,4.391665183475983e-05
1739326274.846094,0.043111901730298996,0.7007560133934021,-10.000743865966797,0.08352558424922218,1.5879704290152103,-0.0038078228264360886,0.07488139635148114,1.4182664450518858,-1.16575936668741e-05
1739326274.8962169,0.031444985419511795,0.706380307674408,-10.004229545593262,0.08170546734764164,1.5863607316602888,-0.0038221331178458174,0.07986462610278945,1.505356185836918,-0.00010692205931663776
1739326274.9462025,0.03285954147577286,0.7054631114006042,-10.015849113464355,0.07981013828780499,1.584232653541068,-0.0038211174118762425,0.08168616062930376,1.5372653117098014,-0.00014276543038131955
1739326274.9962506,0.04270875081419945,0.7091996073722839,-10.018325805664062,0.07785080595674121,1.5816211512843528,-0.0038039130100189183,0.08426540412392906,1.5825292413514855,-0.00019441970318201374
1739326275.046341,0.04029244929552078,0.7267512679100037,-10.023941040039062,0.07583898301456106,1.578560918839767,-0.003770217686569614,0.08655377495157256,1.6227764602108028,-0.00024110612353541488
1739326275.096133,0.041174281388521194,0.7342554330825806,-10.040421485900879,0.07378639955462603,1.5750864037884185,-0.0037203118107005106,0.09081081092928354,1.6978932425694866,-0.0003300024886418606
1739326275.1462624,0.05441369488835335,0.7289654612541199,-10.044360160827637,0.07170491984631908,1.5712318477516398,-0.0036550892684594277,0.0928830493667633,1.73457866168113,-0.00037419490705082985
1739326275.1962476,0.06406638026237488,0.7216168642044067,-10.046126365661621,0.06960648602027372,1.5670312605049572,-0.003576090569022247,0.09736403811071184,1.8142037111011613,-0.000471681107376969
1739326275.246106,0.05295828357338905,0.7285430431365967,-10.0467529296875,0.06750310345243186,1.562518315395958,-0.0034854402241448457,0.10093665821087455,1.8779877737027986,-0.0005511847828059334
1739326275.29627,0.039934974163770676,0.7263404726982117,-10.047616958618164,0.06540678715666214,1.5577262765548376,-0.0033855917693195433,0.10488675605198437,1.9488375026602562,-0.00064079334962535
1739326275.3461885,0.025006894022226334,0.7280440330505371,-10.042905807495117,0.0633293966259552,1.5526879888174594,-0.0032789815477064213,0.10734065764423277,1.99302984984255,-0.0006973066511055919
1739326275.3961718,0.014833017252385616,0.7217757105827332,-10.055472373962402,0.061282389789922634,1.5474358324063684,-0.0031678197158939367,0.10996969620888807,2.040536909568232,-0.0007585236495325596
1739326275.4462323,0.0157488901168108,0.7228091955184937,-10.04085922241211,0.05927658844330205,1.5420016032542034,-0.003054064648056653,0.11275914088726978,2.091132416143339,-0.0008241865539942857
1739326275.4961894,0.0157488901168108,0.7228091955184937,-10.04085922241211,0.057322031179055086,1.5364163741088241,-0.0029394395254957817,0.11806777176961929,2.187983173398898,-0.0009510147605460875
1739326275.5461996,0.011357917450368404,0.7204491496086121,-10.03916072845459,0.05542791942607628,1.5307103778811217,-0.0028254098298251644,0.1204603067150961,2.2318751330285,-0.001008926575762535
1739326275.5961134,0.02197234518826008,0.7295306921005249,-10.04832649230957,0.053602612471476054,1.5249129182562569,-0.0027131667846774545,0.12317022149249317,2.2817784704454196,-0.0010750381459158453
1739326275.6461966,0.020896144211292267,0.7250328063964844,-10.045130729675293,0.051853654014827354,1.5190523083812435,-0.0026036627927425323,0.12660326739261313,2.345294692213104,-0.001159525290426285
1739326275.6962333,0.03201153129339218,0.7285317778587341,-10.039006233215332,0.05018783232598669,1.5131558259001179,-0.002497662344387723,0.13168411203242636,2.4399165217427163,-0.0012859534635755088
1739326275.7460947,0.037207603454589844,0.710732102394104,-10.02336597442627,0.04861126076066251,1.5072496473649337,-0.002395738804092366,0.1353989533004127,2.509568465702396,-0.0013793666089102971
1739326275.7961624,0.0349251814186573,0.7073543071746826,-10.01601505279541,0.04712944241698425,1.5013587127703159,-0.0022982240218627987,0.1379954793848222,2.5584905076664133,-0.0014451109277052046
1739326275.8463304,0.041861362755298615,0.703119158744812,-9.993541717529297,0.0457472620317143,1.4955065065074256,-0.0022051943747466675,0.1405987822873249,2.6077403912792323,-0.0015113722582804799
1739326275.896167,0.02367030642926693,0.6984164118766785,-9.979256629943848,0.04446890983854153,1.4897148417054304,-0.0021164780124465,0.14428066224698713,2.6777420519628494,-0.0016056322370957808
1739326275.9462247,0.02367030642926693,0.6984164118766785,-9.979256629943848,0.043297797391543734,1.4840037526095706,-0.0020315908014616074,0.1495458769294545,2.778555497544399,-0.0017414522101084125
1739326275.9970737,0.0035826668608933687,0.6933435797691345,-9.964773178100586,0.04223647894223564,1.4783914888090164,-0.001949638701181813,0.1531883536712327,2.848783778984508,-0.0018360680880512264
1739326276.047059,0.0035826668608933687,0.6933435797691345,-9.964773178100586,0.041286570157227816,1.4728945481914109,-0.0018692665706016068,0.15721472685900043,2.9268751578319314,-0.0019412223618660318
1739326276.0962043,-0.004372213035821915,0.7019431591033936,-9.963675498962402,0.0404486875461172,1.467527729970647,-0.0017886527743548866,0.16492794760667667,3.077814981545294,-0.00214415070577058
1739326276.1470482,0.001890266314148903,0.7005773186683655,-9.972936630249023,0.039722443841181065,1.4623042250841882,-0.001705555555112924,0.1703750754033941,3.1854521785779,-0.0022885308987459986
1739326276.197065,0.009025843814015388,0.7011627554893494,-9.991517066955566,0.039106518018564455,1.4572357286297988,-0.0016174375480387509,0.17442450671699297,3.2660202522612263,-0.0023963669425338466
1739326276.2470253,0.020231027156114578,0.7043536901473999,-10.00515079498291,0.038598798126909764,1.4523325354682481,-0.0015216705372357003,0.17867968967354841,3.3511809547809444,-0.0025100729452158218
1739326276.2970188,0.03235561028122902,0.713574230670929,-10.028542518615723,0.03819657586581894,1.4476036271670594,-0.0014157894199155468,0.18308880040351666,3.439954185509406,-0.0026282371325712186
1739326276.347186,0.05149387568235397,0.7041642665863037,-10.044218063354492,0.037896781338682926,1.443056768136205,-0.0012977262433264657,0.1856048111605853,3.4908508347084775,-0.0026957903064196245
1739326276.3972988,0.05149387568235397,0.7041642665863037,-10.044218063354492,0.037696259997334294,1.438698571347425,-0.0011659307248228707,0.18885160341429055,3.5567837128952173,-0.00278304275968842
1739326276.4972785,0.10908342897891998,0.7295171618461609,-10.075292587280273,0.037592066591054796,1.4345345359426247,-0.0010193772716457893,0.197014066916284,3.723770762957507,-0.0030024883814607256
1739326276.54693,0.11478395015001297,0.7332947254180908,-10.094095230102539,0.037581765831256136,1.4305691533146914,-0.0008576132464193993,0.19900052700249488,3.764670405904132,-0.0030558849196925253
1739326276.5971162,0.11248959600925446,0.7252997159957886,-10.075139045715332,0.03766369105628454,1.4268060781097334,-0.0006808956943318062,0.2013608066379583,3.81339582605707,-0.0031192805240257515
1739326276.6470935,0.1126536950469017,0.7218387722969055,-10.068120002746582,0.03783702268150597,1.4232482263348554,-0.0004902306198204055,0.2043619526707837,3.875549620100122,-0.003199754161408466
1739326276.6970499,0.09545167535543442,0.7274256348609924,-10.055548667907715,0.038101659044957076,1.4198977691168997,-0.00028721501541903167,0.2146376279603431,4.089978222227879,-0.0034735324437366014
1739326276.7470157,0.061729129403829575,0.7292587757110596,-10.037650108337402,0.03845795749124304,1.4167561240882771,-7.37877718989208e-05,0.217174336278522,4.143287876721589,-0.003540654499159352
1739326276.7973118,0.041336674243211746,0.7332218885421753,-10.027616500854492,0.03890636820754957,1.4138239963073373,0.00014801985339168929,0.22132136229542404,4.230742555296795,-0.003649835814213089
1739326276.847278,0.017945056781172752,0.7273121476173401,-10.024002075195312,0.03944701674790963,1.4111014333433434,0.0003763020772961758,0.2273487872306502,4.358497698180417,-0.003807071664266978
1739326276.8972292,-0.0073006413877010345,0.7303900122642517,-10.016189575195312,0.040079336760790285,1.408587855669839,0.0006094253739973039,0.23064775518783526,4.428732986406066,-0.003892313930411152
1739326276.94711,-0.03710088133811951,0.7332954406738281,-10.010842323303223,0.04080169228421773,1.4062820967758263,0.0008460754087239124,0.23352513533511166,4.490163692501924,-0.003966111298259017
1739326276.9970105,-0.062023576349020004,0.7236104011535645,-10.008536338806152,0.04161081029235372,1.4041825234894572,0.0010851846462265416,0.23728310324299928,4.570622266546866,-0.004061607521685522
1739326277.0471866,-0.06724503636360168,0.7179239392280579,-10.00152587890625,0.04250116182077809,1.4022871749217503,0.001325797867128742,0.24102239709865417,4.6509241257059095,-0.004155530125702977
1739326277.0971873,-0.06530571728944778,0.7159374356269836,-9.985007286071777,0.04346471094584601,1.4005937874806027,0.001567021166435979,0.24563177634384295,4.750224025047291,-0.004269642674681139
1739326277.1470401,-0.0792105570435524,0.7213793992996216,-9.98376750946045,0.04449110577943967,1.3990997357878014,0.0018081010677654925,0.24931111612949422,4.829721087794845,-0.004359312920179953
1739326277.1972294,-0.0792105570435524,0.7213793992996216,-9.98376750946045,0.045568022714798165,1.3978020042375439,0.0020485297891197907,0.253254471102888,4.91513512550471,-0.004453902529392857
1739326277.247155,-0.04768727347254753,0.7109318971633911,-9.987839698791504,0.04668152524157175,1.3966971945248663,0.0022880798086739526,0.25624678668639717,4.980086068212077,-0.004524566916041961
1739326277.2972248,-0.022636953741312027,0.7103390693664551,-9.988394737243652,0.04781652752050641,1.395781507877218,0.002526765413856552,0.2589990871488852,5.039922974827583,-0.004588656389097016
1739326277.3468556,0.008451608009636402,0.7108034491539001,-9.980412483215332,0.04895739802631022,1.3950507014944755,0.002764787318623267,0.26271588765548515,5.1208613351592005,-0.004673733450880306
1739326277.3968441,0.0352868027985096,0.6972777247428894,-9.988784790039062,0.05008859619724139,1.3945000587082768,0.0030025024984371342,0.26605753915503366,5.193749767924466,-0.0047487126764301675
1739326277.4469235,0.06922190636396408,0.6933081746101379,-9.996101379394531,0.051195249472447864,1.3941243596071125,0.0032403936704937355,0.27026057692437816,5.285571097238628,-0.0048408820956193505
1739326277.4967937,0.10032832622528076,0.6872696280479431,-9.994637489318848,0.05226378327291624,1.3939177911118419,0.003478984386385138,0.27478574900386804,5.384591931158871,-0.004937349873023479
1739326277.5471816,0.11536845564842224,0.6773169636726379,-10.018976211547852,0.0532828225407449,1.393873745999379,0.0037186854509383338,0.2802162434924956,5.503620481905095,-0.005049195020203797
1739326277.5969226,0.11607678979635239,0.692992627620697,-10.023839950561523,0.054244120190135595,1.3939846003889529,0.00395959779222895,0.2841853414562012,5.590739690661773,-0.005128166748866029
1739326277.647223,0.11607678979635239,0.692992627620697,-10.023839950561523,0.05514292314011925,1.3942416802609487,0.004201345756145959,0.28825500744829824,5.680160550624487,-0.005206621851723657
1739326277.6971977,0.12155947089195251,0.7011226415634155,-10.063925743103027,0.05597773859401332,1.3946354460068657,0.0044429869238003196,0.2935020181372185,5.795574312356029,-0.005303897085206606
1739326277.746838,0.12390028685331345,0.7138785123825073,-10.066306114196777,0.05674992159047416,1.3951557419442668,0.004682920414464031,0.29897558949726355,5.916102663462022,-0.005400625356428132
1739326277.7967858,0.1043083593249321,0.7350278496742249,-10.0822114944458,0.0574632737113931,1.3957920543077142,0.004918760260798049,0.30296736449501943,6.004076468590597,-0.005468060382453201
1739326277.8471553,0.0971517413854599,0.747485339641571,-10.093660354614258,0.058123605986345646,1.3965338014061728,0.005147257903184993,0.3075425645396649,6.104975150454515,-0.00554205215653521
1739326277.8971865,0.08183320611715317,0.7572270631790161,-10.087488174438477,0.05873825374022876,1.3973706208187475,0.0053643073191331665,0.3121930818615196,6.207598917562629,-0.005613593361316499
1739326277.946729,0.06737682968378067,0.7779303789138794,-10.096100807189941,0.059315599629290734,1.3982926026671239,0.005565021678396325,0.3170275506251733,6.314341245260521,-0.005683994916288152
1739326277.9967446,0.04475352168083191,0.7771404981613159,-10.085508346557617,0.05986462859606162,1.3992904683728342,0.005743873925570735,0.32642993477005716,6.522085081996396,-0.005809271991578139
1739326278.0471406,0.03872381150722504,0.7704465985298157,-10.072254180908203,0.06039445477652057,1.4003557527112707,0.0058949561587875385,0.3288610452525508,6.575827993320656,-0.005839190702551734
1739326278.0968103,0.003431755118072033,0.7617964148521423,-10.046504020690918,0.060913732476778934,1.401481074705973,0.006012504428694363,0.3320713113928996,6.646809033377435,-0.005877131874062307
1739326278.1468687,-0.02278921753168106,0.7450716495513916,-10.023045539855957,0.06143001019560283,1.402660393741369,0.006091598570486422,0.33639947071854076,6.742527696468653,-0.005925464449646293
1739326278.1968257,-0.047951504588127136,0.7164222598075867,-9.993398666381836,0.06194923033443127,1.4038889730971036,0.006128701271257231,0.34103212244855796,6.8450005920931964,-0.005973645620510402
1739326278.2467709,-0.07472224533557892,0.6942561864852905,-9.962713241577148,0.062475447706622854,1.4051630181436072,0.006121950296449596,0.3460499492923963,6.956010391033931,-0.006021766695072085
1739326278.296842,-0.08705224096775055,0.6802414655685425,-9.9497709274292,0.06301068567405935,1.4064792202896672,0.00607134225914426,0.3512754070883096,7.071625169915827,-0.006067502187668118
1739326278.3467607,-0.10662912577390671,0.6710646152496338,-9.937824249267578,0.06355488608030216,1.4078343839052294,0.005978827756181266,0.35741086033676545,7.207379385744212,-0.006115702250061579
1739326278.396756,-0.10870525240898132,0.6618292927742004,-9.922911643981934,0.06410595462440138,1.409225183542233,0.005848280581510929,0.36218133726285884,7.312929970834453,-0.006149232100389737
1739326278.4471676,-0.08654840290546417,0.6661540865898132,-9.940960884094238,0.0646599212465197,1.410648034100065,0.0056853593970146174,0.3666513888649108,7.4118264901939375,-0.006177659822604829
1739326278.496797,-0.0625506043434143,0.6695714592933655,-9.9491548538208,0.06521127127743866,1.4120990577491348,0.005497252722366539,0.37176764240638277,7.525005330072359,-0.006206823439605338
1739326278.546792,-0.0625506043434143,0.6695714592933655,-9.9491548538208,0.06575342051027407,1.413574132178625,0.005292315003898516,0.3775642047983274,7.653207843971479,-0.006235750389698456
1739326278.5972586,0.023599442094564438,0.6924328207969666,-10.00218391418457,0.06627919468053628,1.4150689014223392,0.005079569898985739,0.38500190435884285,7.8176568242500935,-0.0062668677831087
1739326278.6471624,0.06923896819353104,0.7016883492469788,-10.003734588623047,0.06678128667254978,1.4165785890085816,0.004867916391850186,0.38781020919377734,7.879732331593839,-0.006276951078386032
1739326278.6967793,0.12530706822872162,0.7094635367393494,-10.040692329406738,0.06725280532638515,1.4180977326211524,0.004665180558335203,0.3931591412725157,7.997935827517412,-0.006293820402634204
1739326278.7468162,0.14643052220344543,0.7257810235023499,-10.057991027832031,0.06768790527943486,1.4196201527924193,0.004477480478195824,0.39854369238695586,8.116882201089494,-0.006307867228083114
1739326278.7967536,0.16633206605911255,0.726059079170227,-10.079255104064941,0.06808230748961155,1.421139180113513,0.004308982612353289,0.4049918418385414,8.259260453617458,-0.006321054976169225
1739326278.847159,0.1907535344362259,0.7371826171875,-10.097819328308105,0.06843358186581719,1.4226479257127451,0.004161817459875075,0.4097706558480799,8.36473220274204,-0.006328409380504862
1739326278.8967075,0.1648598164319992,0.7417872548103333,-10.089132308959961,0.06874121493074184,1.4241394936246707,0.00403608279238047,0.4151195601917237,8.482736598804552,-0.006334337037445631
1739326278.946631,0.15555395185947418,0.7511528134346008,-10.094098091125488,0.06900646756132339,1.4256071546990463,0.003929974335448975,0.4207324938390165,8.606507775445857,-0.00633806639769287
1739326278.9967358,0.1194770485162735,0.7514952421188354,-10.090046882629395,0.0692320120834111,1.4270444948445449,0.003840032590215269,0.42760518941331305,8.757975563068902,-0.006339327811488487
1739326279.0466907,0.07587036490440369,0.7662614583969116,-10.07356071472168,0.06942141588932725,1.4284455336891888,0.003761444486642244,0.43215535338220223,8.85820674841455,-0.006338242805240905
1739326279.0966394,0.037225306034088135,0.7702184915542603,-10.06760025024414,0.06957853832170463,1.4298048287551814,0.0036883776807187735,0.43760799471909423,8.978264799511953,-0.006335017927244808
1739326279.1466541,0.0037921699695289135,0.7665433883666992,-10.05114459991455,0.06970692728598785,1.4311176486889599,0.003614407979548434,0.44392847896883036,9.11735937834218,-0.006328760844400586
1739326279.1966567,-0.03624005615711212,0.7522644996643066,-10.03896713256836,0.06980933712053741,1.4323803146050527,0.0035331307688648388,0.45175421829436363,9.289474446031347,-0.006317441360189058
1739326279.2466424,-0.03624005615711212,0.7522644996643066,-10.03896713256836,0.06988740550663615,1.433590554884424,0.0034388256313117654,0.45553381402417,9.37255970047671,-0.006310617998223007
1739326279.2966251,-0.07552417367696762,0.7146141529083252,-10.000919342041016,0.06994146222876776,1.434747547065416,0.0033268725751876074,0.46468684728396153,9.57365846467533,-0.0062906791160997465
1739326279.3466144,-0.06783924251794815,0.6995279788970947,-9.993257522583008,0.06997044138965178,1.4358516029777977,0.003193924803828448,0.4711557244836233,9.71569412248136,-0.006273819371835782
1739326279.3966382,-0.06783924251794815,0.6995279788970947,-9.993257522583008,0.06997189979482946,1.4369037381659269,0.003038014251255959,0.4792009346200847,9.892240491995187,-0.006249909377115741
1739326279.4471538,-0.05124684050679207,0.6754396557807922,-9.978354454040527,0.06994218636273751,1.4379053298697568,0.002858573731507188,0.4821773059467702,9.957527441607441,-0.006240287430330054
1739326279.496616,-0.034506164491176605,0.6732581257820129,-9.977404594421387,0.06987675495597397,1.4388578840426829,0.0026563641058404775,0.4862839720385199,10.04758428341426,-0.00622639608784692
1739326279.5465963,-0.007252339273691177,0.6707007884979248,-9.967416763305664,0.06977055786980607,1.439762858946474,0.002433379727746025,0.49155217108990373,10.163075184629475,-0.006207632086850879
1739326279.596589,0.009839670732617378,0.6745856404304504,-9.970549583435059,0.06961847152512446,1.4406215653916106,0.002192744526812085,0.49905209043576676,10.32742183916999,-0.0061793123867203295
1739326279.6471477,0.022411571815609932,0.6714613437652588,-9.969470977783203,0.06941569379580996,1.441435155693243,0.0019385771518201813,0.5039315540485965,10.434305556345487,-0.006159991492962225
1739326279.6967895,0.045769333839416504,0.6809327602386475,-9.983853340148926,0.06915809509018919,1.4422045784673647,0.0016757522572753785,0.5101868521868727,10.571284631445055,-0.006134378305427846
1739326279.7467153,0.04308769851922989,0.6830891966819763,-10.00513744354248,0.06884258837333801,1.4429303357913525,0.001409426571530211,0.5165207779059877,10.70994247572307,-0.006107650776270934
1739326279.797197,0.055425915867090225,0.6984593868255615,-10.008376121520996,0.06846746124895872,1.4436121631366885,0.0011444208457669237,0.5234440824447478,10.861460117827331,-0.006077735367168372
1739326279.8471582,0.06148935481905937,0.7199684977531433,-10.024285316467285,0.06803251016442259,1.4442489742422182,0.0008847820503312772,0.5294041023004812,10.99186657872657,-0.0060515522454293045
1739326279.896577,0.07376144081354141,0.7297589182853699,-10.028337478637695,0.06753900392059697,1.4448391241421286,0.0006336239066325633,0.5366730982756001,11.150886001013726,-0.006019291561801484
1739326279.946495,0.08180807530879974,0.7380627989768982,-10.050054550170898,0.06698961250462543,1.4453807482483707,0.00039307850381302325,0.5426402695672139,11.28141024498228,-0.00599267463774122
1739326279.996545,0.08265364170074463,0.7440908551216125,-10.059377670288086,0.06638833170437666,1.4458720179044184,0.00016424800228080464,0.5489551190536873,11.419532104769994,-0.005964519267294075
1739326280.0464892,0.08369989693164825,0.7562168836593628,-10.06102180480957,0.06574036966587632,1.4463113112768993,-5.283722214230612e-05,0.5562479186065963,11.579045379841943,-0.0059321814705199
1739326280.0965192,0.08369989693164825,0.7562168836593628,-10.06102180480957,0.06505198490801045,1.4466973404308994,-0.0002591982215794742,0.5616720048796929,11.69769225805732,-0.00590834374352875
1739326280.1465566,0.08811670541763306,0.7604290246963501,-10.057900428771973,0.06433030466888053,1.4470292401894447,-0.00045679822247841645,0.5684723273054254,11.846462347728407,-0.005878843600458617
1739326280.1971853,0.08296062052249908,0.756606936454773,-10.066533088684082,0.0635831524274163,1.4473066021094603,-0.0006483892131425412,0.5748248441452185,11.985463834700722,-0.0058517714620453225
1739326280.246506,0.0730237290263176,0.7429289817810059,-10.06755542755127,0.06281889491971943,1.447529501371873,-0.0008373012408749785,0.5855413891429103,12.220040411879934,-0.0058074126871258515
1739326280.2966235,0.05435657501220703,0.74286288022995,-10.041550636291504,0.062046312862353875,1.4476986193188932,-0.0010270281210991749,0.590034560216451,12.318428574184905,-0.005789353143167964
1739326280.3464828,0.03123336099088192,0.7305668592453003,-10.049043655395508,0.06127443861559284,1.4478154115701982,-0.0012206528169242314,0.5952118783621017,12.431830959850261,-0.005769011011813115
1739326280.3965194,0.03123336099088192,0.7305668592453003,-10.049043655395508,0.06051229303813982,1.4478821276168936,-0.0014204645479540393,0.6020802149041175,12.582336818039598,-0.005742897690927189
1739326280.4464824,-0.03507483750581741,0.7259488105773926,-10.038103103637695,0.0597685473010501,1.4479016642920999,-0.0016279075599321647,0.609633784217895,12.74795241261308,-0.005715449084547942
1739326280.4972246,-0.05782267451286316,0.7123039364814758,-10.027078628540039,0.059051111977308515,1.4478773867199881,-0.0018436384742108436,0.6160622642390782,12.88898521444752,-0.005693234905481831
1739326280.5464544,-0.06711495667695999,0.7106872797012329,-10.024744987487793,0.05836668287799786,1.4478129560388742,-0.0020675357011000007,0.6231953358516176,13.045576486463812,-0.005669944871875933
1739326280.5964868,-0.0779031291604042,0.7022520303726196,-10.01065444946289,0.05772043033977113,1.4477121609550816,-0.002298690989442366,0.6301207472355906,13.19771750926456,-0.005648815863687128
1739326280.6464906,-0.06591980904340744,0.698011040687561,-10.002201080322266,0.05711593510944577,1.447578779086799,-0.0025354117570865133,0.6379133230938948,13.369044885318376,-0.005626935561022342
1739326280.6972764,-0.051954321563243866,0.6942164897918701,-9.980253219604492,0.056555313588784864,1.447416471540929,-0.002775209405397055,0.6439359172591119,13.501560723954366,-0.005611491174030492
1739326280.746698,-0.01757582649588585,0.6804217100143433,-9.973925590515137,0.056039494950366885,1.4472286946813893,-0.0030147619493054003,0.6511838436918551,13.661163030039477,-0.005594732763582633
1739326280.7964067,0.006305493880063295,0.6785392761230469,-9.96239948272705,0.055568564671628476,1.4470185543574985,-0.0032499772565869655,0.658177368609989,13.815297464829964,-0.005580566354229117
1739326280.8464563,0.04336810111999512,0.6759970784187317,-9.961411476135254,0.05514199749314606,1.4467885050934544,-0.0034763735058702984,0.6669450737141187,14.008726010492726,-0.00556574936980328
1739326280.896443,0.07177712023258209,0.6827787756919861,-9.969877243041992,0.05475880043698758,1.446540020569652,-0.0036896608144447547,0.6723965875438284,14.12910398013813,-0.00555824945106404
1739326280.9464672,0.10522077232599258,0.6796297430992126,-9.960186958312988,0.05441778478386115,1.4462734958773726,-0.003886116006638857,0.6795932510353301,14.288149393129535,-0.005550464171498118
1739326280.9964862,0.1156531423330307,0.6900672912597656,-9.987969398498535,0.05411796786841546,1.4459883863644858,-0.004062665304264685,0.687115486118262,14.454552324230582,-0.005544981245617046
1739326281.0471346,0.12514713406562805,0.6982340216636658,-9.99204158782959,0.053858895790967615,1.4456834214637806,-0.004216913151522287,0.6964785053590686,14.661910171967236,-0.005542048533195272
1739326281.0964384,0.11498534679412842,0.7152619957923889,-10.026734352111816,0.05364077575433153,1.4453568417037468,-0.004347247717183519,0.7021561512711267,14.787776685465003,-0.005542401269235628
1739326281.146383,0.11316612362861633,0.7322568893432617,-10.04723834991455,0.05346443324589137,1.4450066665764036,-0.0044530100364908835,0.7089372376982929,14.938231086014124,-0.005544970075228658
1739326281.1964035,0.11316612362861633,0.7322568893432617,-10.04723834991455,0.053331168727380016,1.4446309624422025,-0.004534670826407526,0.7166097942349587,15.10863004624588,-0.005550718936184583
1739326281.2464807,0.08683266490697861,0.7730645537376404,-10.080906867980957,0.0532425852546361,1.444228076003198,-0.004593935704309519,0.7247878098154292,15.290446624544401,-0.005560174171726554
1739326281.2964537,0.0662970021367073,0.778035581111908,-10.089702606201172,0.05320036965240977,1.4437968610584462,-0.004633783454343993,0.7312088084728366,15.433338036428033,-0.00556999670309024
1739326281.3463974,0.05475584417581558,0.7870482206344604,-10.088351249694824,0.053206048684817236,1.4433369970545191,-0.004658364984330886,0.7386714945803956,15.599560850184098,-0.005584049867697718
1739326281.396467,0.027063747867941856,0.7803557515144348,-10.085413932800293,0.053260869174461,1.4428494810692236,-0.004672492264468365,0.7462247661099394,15.767962700559137,-0.005601135565429037
1739326281.4471889,0.003963449038565159,0.7623535990715027,-10.071938514709473,0.053365777048897764,1.4423370871576382,-0.004680838643259309,0.7549668629057613,15.963067665109644,-0.0056244640554250986
1739326281.4963076,-0.01838080957531929,0.7579138278961182,-10.059320449829102,0.053521282523922464,1.4418044075261451,-0.004687381172858062,0.7613209407586392,16.10500714000843,-0.00564378477663999
1739326281.5462942,-0.0304087046533823,0.7319584488868713,-10.04056453704834,0.0537272061456681,1.4412574861727383,-0.004695198982362769,0.7689174488303089,16.274839257442704,-0.005669465966129776
1739326281.5962968,-0.06267073005437851,0.7144235372543335,-10.023655891418457,0.0539824524719971,1.4407033381777532,-0.00470636935634253,0.7770075388841149,16.455866564968087,-0.0056998751987320465
1739326281.6463342,-0.08835732936859131,0.7006740570068359,-10.004278182983398,0.05428482471697249,1.4401494822810121,-0.004721855391791798,0.7878085982367223,16.69780186765984,-0.0057453334130548326
1739326281.6963575,-0.10549233108758926,0.6950415372848511,-9.993946075439453,0.054630841423020174,1.4396035348980118,-0.004741411486506714,0.7936796796029251,16.829422845940933,-0.00577234742096973
1739326281.7463882,-0.10198639333248138,0.6742864847183228,-9.984225273132324,0.05501561916286361,1.439072906801149,-0.004763538762639659,0.7998706076803566,16.968295752967467,-0.005802576980710024
1739326281.796434,-0.09124567359685898,0.6694608330726624,-9.970404624938965,0.055432924541966536,1.438564568579778,-0.004785503347638052,0.8081281154417629,17.1536479244455,-0.005845664547092577
1739326281.8462484,-0.0657714307308197,0.662574827671051,-9.963382720947266,0.05587542502748625,1.4380848590210995,-0.004803393428004527,0.8184137540792731,17.384707775531155,-0.005903713270568828
1739326281.896292,-0.02928113378584385,0.6607571840286255,-9.967756271362305,0.05633502725235847,1.437639248562943,-0.004812315542957435,0.8251325854427348,17.535744799460524,-0.005944222892752458
1739326281.9462383,0.005068120546638966,0.6668164730072021,-9.971526145935059,0.05680311291474926,1.4372318628598546,-0.004806963981086754,0.8316502986515405,17.68233240747,-0.005985450182516967
1739326281.9962945,0.04127001762390137,0.6687542796134949,-9.964592933654785,0.0572707120221189,1.4368649237575117,-0.0047823993493731195,0.8401797535442865,17.874263212317427,-0.006042226304375975
1739326282.0462956,0.09006095677614212,0.6750153303146362,-9.981327056884766,0.057728869672996515,1.436538570990825,-0.004734517846993124,0.8473863708263234,18.036507363246177,-0.00609264099241783
1739326282.0962014,0.11484770476818085,0.6918721199035645,-9.995641708374023,0.05816922485341578,1.436251111596023,-0.004660150257438116,0.8565641480768865,18.243224836430805,-0.00615998834206716
1739326282.1462135,0.15128202736377716,0.7077241539955139,-10.00234317779541,0.05858457180812847,1.435999420434564,-0.00455710153038224,0.8641146604698853,18.41336459223446,-0.006217949282068815
1739326282.1963105,0.18369337916374207,0.7255959510803223,-10.018230438232422,0.058969282692128124,1.4357793659039149,-0.004424217533765594,0.8730895391971109,18.61567918315852,-0.006289707031654845
1739326282.246284,0.20197705924510956,0.7472038865089417,-10.033262252807617,0.0593196114734677,1.4355862325074822,-0.004261433941471553,0.8797073256111951,18.764909903240753,-0.006344520042095785
1739326282.2963622,0.2147674858570099,0.7649338841438293,-10.051137924194336,0.05963387455566664,1.4354151156173405,-0.0040698244275968335,0.8877471392305868,18.946259335531163,-0.00641314190813216
1739326282.3463027,0.18820233643054962,0.7751866579055786,-10.054302215576172,0.059912445266245576,1.4352612671336806,-0.003851646106940658,0.8980408827746245,19.178525548683943,-0.006504022687860252
1739326282.3963585,0.1673087477684021,0.7808219194412231,-10.061698913574219,0.06015750417081203,1.4351203527334948,-0.0036103342414936083,0.9078850835148685,19.400722029011103,-0.006593861593590685
1739326282.4462907,0.13101793825626373,0.7787236571311951,-10.07181167602539,0.0603727104605614,1.4349886990408973,-0.003350336086429523,0.9134489051682468,19.526334323552273,-0.006645799479914159
1739326282.496319,0.0753815770149231,0.7734084129333496,-10.075247764587402,0.060563147019623745,1.434863729395257,-0.0030766510806633264,0.9205851753804568,19.68747573466615,-0.006713497094439717
1739326282.5461996,0.020430538803339005,0.7614398002624512,-10.063356399536133,0.06073537508909633,1.4347444511643634,-0.002794223137192936,0.9292707324563984,19.883641220760953,-0.0067973411277394155
1739326282.5962007,-0.032880689948797226,0.7518945336341858,-10.046921730041504,0.060897020502685736,1.4346315675333754,-0.002507528270300486,0.9402028655684341,20.130604319595044,-0.006904825568073887
1739326282.646191,-0.09902404993772507,0.7440938949584961,-10.040006637573242,0.06105588798985889,1.4345271892122242,-0.002220396319076687,0.9466442977023223,20.276148341170494,-0.006969046869408814
1739326282.6962335,-0.09902404993772507,0.7440938949584961,-10.040006637573242,0.0612190661351746,1.4344344649219822,-0.0019359136228614044,0.9541560747562201,20.445901040052515,-0.0070446075545856435
1739326282.7462401,-0.19362854957580566,0.7056571245193481,-10.03139591217041,0.061392262425132633,1.4343572588804119,-0.0016563859534628037,0.9626007415134639,20.636763934470515,-0.007130236597415686
1739326282.7962887,-0.21226531267166138,0.6977738738059998,-10.012974739074707,0.06157929246288655,1.4342998057846508,-0.0013833427637265391,0.9715220705070363,20.838429843880913,-0.007221293463087641
1739326282.8462286,-0.206285297870636,0.6945979595184326,-10.002567291259766,0.061781678390349704,1.4342663472259605,-0.0011175081542124264,0.9797213973760835,21.023798930843544,-0.007305355864337022
1739326282.8962426,-0.1894509196281433,0.6678622364997864,-9.987316131591797,0.06199856202944314,1.4342608495949296,-0.0008587323101678294,0.9887820015178125,21.228662698890997,-0.007398477628874088
1739326282.9461358,-0.15443475544452667,0.6582975387573242,-9.977095603942871,0.062227036425708565,1.4342867967365058,-0.0006059312293184539,0.9969419119222795,21.413179077968763,-0.007482401691026593
1739326282.9962611,-0.08851215988397598,0.6426063776016235,-9.97618293762207,0.06246256467883858,1.434346868645147,-0.00035715369640437246,1.005638681822638,21.60985008681502,-0.007571748009851673
1739326283.046173,-0.03359857574105263,0.6503034234046936,-9.979589462280273,0.06269902625921028,1.434442320740517,-0.0001099617247075679,1.014812232852634,21.817316019193765,-0.007665714798260465
1739326283.096144,0.043757155537605286,0.6525284051895142,-9.975540161132812,0.06292860690010278,1.4345723152479606,0.00013799474094075388,1.0249872373383564,22.047441542230455,-0.00776940823357584
1739326283.1461544,0.12085320055484772,0.6569215059280396,-9.985916137695312,0.06314227334726183,1.4347337256001051,0.00038861426235690656,1.0321371545035263,22.209154125374532,-0.007841831678503535
1739326283.196241,0.19013045728206635,0.670385479927063,-9.994824409484863,0.06333088946097143,1.4349214314947552,0.0006432632837744044,1.0408774903353204,22.406840286057363,-0.007929715789837952
1739326283.246157,0.23964089155197144,0.6929693818092346,-10.017227172851562,0.06348639097740422,1.4351287721959247,0.0009027375397050296,1.050098346997226,22.615395258862346,-0.008021503535469411
1739326283.2962048,0.26864540576934814,0.723859429359436,-10.025845527648926,0.06360266214962294,1.435348045493185,0.001167162352347443,1.059781042782773,22.83439453740225,-0.00811668807225491
1739326283.3461654,0.28842854499816895,0.7509612441062927,-10.048317909240723,0.06367604323961615,1.4355710582149492,0.001435872677054428,1.0686197466973626,23.03430228248391,-0.00820235245397468
1739326283.3961458,0.29162049293518066,0.7744124531745911,-10.05955696105957,0.06370549744710358,1.4357896728614963,0.0017073086631010682,1.0767773018637856,23.218801691872127,-0.008280247507524915
1739326283.4461515,0.26228854060173035,0.8060681223869324,-10.066794395446777,0.06369249195158812,1.4359962874635412,0.00197894545555874,1.0861514379728148,23.43081351219363,-0.008368213148019901
1739326283.4961874,0.22969715297222137,0.8093643188476562,-10.078729629516602,0.06364060551944105,1.4361842190523335,0.002247280119434744,1.0992341602404496,23.726697091501197,-0.00848794222698907
1739326283.5461388,0.17339205741882324,0.8025751709938049,-10.071308135986328,0.06355512743845801,1.436348082523908,0.0025079699751428715,1.1050379247604833,23.857956104032663,-0.00853985967830497
1739326283.5961363,0.17339205741882324,0.8025751709938049,-10.071308135986328,0.06344321578376737,1.4364843742328877,0.002756281269387321,1.1132414101401962,24.04348787583184,-0.008611866260568786
1739326283.6461108,0.017947295680642128,0.7737717628479004,-10.02803897857666,0.06331436979831762,1.436592083877052,0.002987751785438091,1.1226474864593299,24.256219688417993,-0.008692326845129106
1739326283.6961575,-0.05990149825811386,0.7527979016304016,-10.016118049621582,0.06318005283799748,1.4366727753950554,0.0031987343965956877,1.1333931243981508,24.499252592791144,-0.008781360788157343
1739326283.7461975,-0.14772841334342957,0.7386151552200317,-10.015296936035156,0.0630522490009684,1.4367300869690733,0.0033866957712539807,1.1411222148591638,24.674065224115164,-0.008843431181791194
1739326283.796123,-0.22293730080127716,0.7137917876243591,-9.987689971923828,0.06294187534666396,1.4367690957038834,0.003550336685168621,1.1512482373809105,24.90309830318625,-0.008922158354109528
1739326283.8461246,-0.26623037457466125,0.6922075748443604,-9.98267650604248,0.0628576003461284,1.4367957619033414,0.003689622589149893,1.1597386496597328,25.09514461976093,-0.00898585414265149
1739326283.8960676,-0.29327186942100525,0.6868827939033508,-9.984684944152832,0.06280509430735086,1.4368164438220985,0.0038057834070739666,1.171350714959184,25.357813188403306,-0.00906947849654298
1739326283.9461355,-0.2803270220756531,0.6671033501625061,-9.976101875305176,0.06278672870424962,1.4368375082243534,0.003901246412083302,1.178342500700313,25.515977026556055,-0.009117869511858286
1739326283.9960551,-0.2803270220756531,0.6671033501625061,-9.976101875305176,0.06280170492004553,1.4368650516550818,0.003979498988773256,1.1877538171457078,25.728882766481668,-0.009180652143366259
1739326284.046051,-0.1695571094751358,0.6457550525665283,-9.992708206176758,0.06284655759015939,1.4369046988793113,0.004044923324353683,1.1988857832107098,25.980725909039755,-0.009251412791680137
1739326284.0960352,-0.08598951995372772,0.629934549331665,-9.998588562011719,0.06291584479895629,1.4369612765314046,0.004102513009639187,1.2112181403979283,26.259740158266307,-0.009325377134547877
1739326284.1460786,0.009073399938642979,0.6439286470413208,-9.997618675231934,0.06300256052241157,1.4370380671339438,0.004157360177657695,1.2174493812138307,26.400724344176957,-0.009360984341764286
1739326284.1960087,0.10337985306978226,0.6455737948417664,-10.013351440429688,0.0630983217789833,1.4371359492931424,0.004214085551680683,1.2266646207174996,26.609227589571883,-0.009411462492864831
1739326284.2459724,0.19576075673103333,0.6504761576652527,-10.030999183654785,0.06319407428841184,1.4372531266459956,0.004276487289443554,1.2366256859987086,26.834611197582717,-0.00946309563885602
1739326284.296221,0.2753444314002991,0.6640632152557373,-10.040435791015625,0.06328139821740561,1.4373854614834662,0.004347391412502968,1.2478809330208227,27.089282628203694,-0.009517766624565337
1739326284.3460324,0.3128335773944855,0.6993921995162964,-10.03287410736084,0.06335375997895534,1.4375269942793931,0.004428580834805085,1.257349116109703,27.303521448321327,-0.009560734031972282
1739326284.3960884,0.31832218170166016,0.7208787798881531,-10.04365062713623,0.06340729896867009,1.4376705231189888,0.004520813597822693,1.2646674996035157,27.469117662470147,-0.009592040711878726
1739326284.4459684,0.3044206202030182,0.7359924912452698,-10.034356117248535,0.0634410581657239,1.4378082104952334,0.004623921730930307,1.2750212018623812,27.703396856273276,-0.009633459922218429
1739326284.496166,0.271473228931427,0.7560664415359497,-10.031968116760254,0.06345672332932895,1.4379321034487997,0.004736941854246942,1.2867685853028994,27.969213484078917,-0.00967634232885755
1739326284.5459309,0.2221253365278244,0.7812924981117249,-10.032327651977539,0.06345802835930237,1.4380345390602667,0.004858266349697104,1.2946534303451978,28.14763065828697,-0.00970265285542029
1739326284.5960736,0.1536889374256134,0.8006556630134583,-10.018434524536133,0.06344994668304824,1.4381084944402112,0.004985801629327222,1.304861176389136,28.37861143027306,-0.009733716073294008
1739326284.645936,0.08779994398355484,0.8100725412368774,-10.014656066894531,0.06343790284514395,1.4381480521754095,0.0051171444349273456,1.3147501684951535,28.60238100903642,-0.009760543731740344
1739326284.6959836,0.003909687511622906,0.8097193837165833,-10.013984680175781,0.06342737738061414,1.4381492182162134,0.005249801463482871,1.3264554086086573,28.867251112039764,-0.0097880885403868
1739326284.74592,0.003909687511622906,0.8097193837165833,-10.013984680175781,0.06342382099754532,1.4381108142916015,0.005381389589926334,1.338604344972134,29.14216392353037,-0.009811800065919935
1739326284.7960362,-0.13391344249248505,0.7819032669067383,-10.009056091308594,0.06343233916957555,1.4380347611565225,0.005509738682821077,1.3450095605905803,29.287105692016418,-0.00982228513044142
1739326284.8459542,-0.17951996624469757,0.7590404748916626,-10.002130508422852,0.06345693445502613,1.4379256575448989,0.00563292990156671,1.3550416238869962,29.514119465153847,-0.009835860689379963
1739326284.895984,-0.20044994354248047,0.7395626306533813,-10.00666332244873,0.06349961415334296,1.4377900897174376,0.00574933014875384,1.365234496410832,29.744773041196265,-0.009846065253864363
1739326284.9459162,-0.20946523547172546,0.7026676535606384,-9.994057655334473,0.06355983244772645,1.4376359415656574,0.005857620981592845,1.3757819657571713,29.983450817159422,-0.009852787423158222
1739326284.9960287,-0.18373434245586395,0.679835319519043,-10.000438690185547,0.06363446273264878,1.4374717502174854,0.005956814582430385,1.3858035125780686,30.21022658667935,-0.009855538291310346
1739326285.045888,-0.14997462928295135,0.6588932275772095,-9.998311042785645,0.06371817492312876,1.4373061214317868,0.006046256419537353,1.3961392228908147,30.444109309525743,-0.009854647222478715
1739326285.0960126,-0.10769728571176529,0.6444669961929321,-9.99874210357666,0.06380407414976812,1.4371472565995873,0.006125601207809877,1.4063654582778393,30.675511333089492,-0.009850030950988202
1739326285.1458864,-0.0443507581949234,0.6206600666046143,-10.010616302490234,0.06388449410881342,1.4370026114737375,0.0061947626583918666,1.4276195573944235,31.156439480910333,-0.009828568673637914
1739326285.196042,0.013781078159809113,0.6250430941581726,-10.017500877380371,0.06395179469747515,1.4368784909983545,0.006253833532584994,1.435518835088856,31.335174839365685,-0.009816540749266228
1739326285.2458758,0.06463178247213364,0.6286503672599792,-10.022879600524902,0.06399896978919087,1.4367792919110456,0.006302979435249163,1.441521070109501,31.470983672812682,-0.009805937045937537
1739326285.2962615,0.11406099796295166,0.6457770466804504,-10.038411140441895,0.06402005445656445,1.4367066812540399,0.00634233273035004,1.4489037735506898,31.63802426917373,-0.009791159889829074
1739326285.345913,0.1620212197303772,0.6685922145843506,-10.03874397277832,0.06401054926294454,1.4366594059535451,0.006371890813207214,1.4585923394569575,31.85723172633146,-0.00976887199232531
1739326285.3959293,0.19869934022426605,0.6968247294425964,-10.056018829345703,0.06396791116345092,1.436633786505972,0.006391418463812673,1.4702176257387949,32.12025054639566,-0.009737819465498516
1739326285.4459248,0.20648011565208435,0.7199180126190186,-10.058752059936523,0.06389192870904192,1.4366244268282988,0.006400364511849477,1.4797954737726524,32.33694111389169,-0.009708735257464548
1739326285.4961863,0.20720979571342468,0.7512157559394836,-10.057657241821289,0.06378483517382293,1.4366248910436055,0.006397805298617257,1.4912471626258104,32.596020715543204,-0.009669854743772388
1739326285.545847,0.20720979571342468,0.7512157559394836,-10.057657241821289,0.06365115038602973,1.436628292241227,0.006382445858745148,1.5041578834658633,32.88810488837624,-0.009620728408734257
1739326285.595948,0.1592869609594345,0.7718665599822998,-10.039173126220703,0.06349731883176962,1.4366277382189172,0.006352696716617684,1.5128529818830225,33.084816417784,-0.009584527502413528
1739326285.6458225,0.1592869609594345,0.7718665599822998,-10.039173126220703,0.06333119133209605,1.4366166256700448,0.0063068145040180235,1.5224597715833785,33.30215436243491,-0.009541665720530454
1739326285.6959696,0.06939972937107086,0.776638388633728,-10.006420135498047,0.06316138791539508,1.4365888266019093,0.0062430865463426145,1.534496794158524,33.57447651009482,-0.00948379841157828
1739326285.7460825,0.03339524567127228,0.7742743492126465,-9.984161376953125,0.06299657131767744,1.436538924160521,0.0061600325068091885,1.5532685361359637,33.999178113189124,-0.009384557172847904
1739326285.795875,0.03339524567127228,0.7742743492126465,-9.984161376953125,0.06284474833375685,1.4364627563764103,0.006056552980642696,1.5584650058389653,34.11674965282826,-0.009355188044170291
1739326285.8458235,-0.05408278852701187,0.7405763268470764,-9.970510482788086,0.0627127766079193,1.4363580716532434,0.005931968788134172,1.5671682907391766,34.31366900475151,-0.009304226509924724
1739326285.8961272,-0.07534860074520111,0.719482958316803,-9.958260536193848,0.06260597261490095,1.436224676969508,0.005786029347354667,1.5782406506078348,34.56420133692848,-0.00923628266060318
1739326285.9458916,-0.0960063710808754,0.695455014705658,-9.955063819885254,0.06252768610994541,1.4360640000236442,0.005618975893230535,1.5916839081517815,34.868396949804854,-0.00914929023225269
1739326285.9958289,-0.09059188514947891,0.6789988875389099,-9.955759048461914,0.0624790434144098,1.435878508725383,0.005431604748572916,1.6018807469829148,35.099145493095676,-0.009080146708510133
1739326286.0458796,-0.08235055953264236,0.682200014591217,-9.966545104980469,0.06245901435779351,1.4356712489757983,0.005225249477011104,1.610561395568536,35.29559272668136,-0.009019242463603194
1739326286.0960453,-0.06389413774013519,0.6708627939224243,-9.99437427520752,0.06246471700262276,1.4354455431534268,0.0050016523600019186,1.6226664543708336,35.56954993796332,-0.008931360803446663
1739326286.1458757,-0.0373237319290638,0.6751251816749573,-10.013100624084473,0.06249185348940275,1.4352048215482849,0.004762720016878237,1.6334340269110228,35.81325082137781,-0.00885045565708677
1739326286.1957638,-0.020056216046214104,0.6811829805374146,-10.035704612731934,0.06253520870985892,1.4349525329824009,0.004510210739501734,1.6487114102570182,36.15904144785245,-0.008731572078131702
1739326286.2457867,0.008646330796182156,0.6882612109184265,-10.057867050170898,0.06258914723104825,1.4346921237734513,0.00424543536217357,1.6582096054031479,36.374036037975905,-0.008655385844954948
1739326286.2972538,0.042140837758779526,0.699364423751831,-10.083602905273438,0.06264808464642699,1.4344270106798753,0.003969092494705267,1.6772830445010793,36.80579172040237,-0.008497662106560906
1739326286.3457348,0.06251265108585358,0.7016041874885559,-10.092938423156738,0.06270695461647494,1.4341603869315245,0.0036814024516456803,1.6921830995803067,37.14309573985599,-0.008370377847265418
1739326286.3968031,0.06251265108585358,0.7016041874885559,-10.092938423156738,0.06276161067038437,1.4338949170075894,0.0033824515987095926,1.704455109236786,37.42091781475046,-0.008263136605577492
1739326286.4467573,0.10542477667331696,0.7296968102455139,-10.090364456176758,0.06280906485406487,1.4336326018856032,0.0030724194239362124,1.7106659202267376,37.561525814011475,-0.008208115382074187
1739326286.4961834,0.11172279715538025,0.7402848601341248,-10.079658508300781,0.06284762310041152,1.4333749183748261,0.0027516247199548655,1.7206954135944066,37.788590095143526,-0.008118369999746463
1739326286.5467374,0.11172279715538025,0.7402848601341248,-10.079658508300781,0.06287698674059025,1.4331230730936046,0.002420555473597514,1.7326418840812654,38.059060281359685,-0.008010228513841412
1739326286.5958388,0.10945557057857513,0.7525417804718018,-10.032756805419922,0.06289823588298851,1.4328781980188383,0.0020799571804807726,1.7449641603183657,38.338045218567544,-0.007897510744030757
1739326286.6457696,0.0974588543176651,0.7516291737556458,-10.009332656860352,0.06291365419222825,1.4326414540348937,0.0017310256542649024,1.7537849688571445,38.537758200586865,-0.007816233159026558
1739326286.697187,0.07900667935609818,0.7443007230758667,-9.982142448425293,0.06292645583179596,1.4324140768563538,0.0013757052745653063,1.7653193133138736,38.79891296627814,-0.007709436862774244
1739326286.7458215,0.06422175467014313,0.7353811860084534,-9.967520713806152,0.06294045446938956,1.4321973532865826,0.0010169665623439616,1.7732905978601619,38.97939740129094,-0.00763539981282978
1739326286.795866,0.05765055865049362,0.7171750664710999,-9.962027549743652,0.06295972164868639,1.4319925145808858,0.0006589522783746926,1.7887132601839573,39.328600138484276,-0.007491992836098782
1739326286.8466923,0.04538324102759361,0.7070493698120117,-9.950396537780762,0.06298830646173889,1.4318005830653469,0.0003068624548156641,1.7975914242021072,39.529624154757904,-0.007409466477154867
1739326286.8957386,0.04538324102759361,0.7070493698120117,-9.950396537780762,0.06303004640141832,1.4316222410441575,-3.3597549405949267e-05,1.807744224570739,39.75951132354601,-0.007315292243083429
1739326286.9456944,0.009355733171105385,0.6839717626571655,-9.96040153503418,0.06308842665055803,1.431457761313982,-0.0003569962009394978,1.8168585783011264,39.96588669556437,-0.007231053953801442
1739326286.995808,0.009355733171105385,0.6839717626571655,-9.96040153503418,0.06316641278657781,1.43130695208071,-0.0006586734821814027,1.8290995597836133,40.24305905836979,-0.007118566559122136
1739326287.0466647,-0.03959224745631218,0.6733860969543457,-9.982516288757324,0.06326623462545637,1.4311690877263599,-0.0009348719618129248,1.8421266602546296,40.53803135359487,-0.006999861869801062
1739326287.0972135,-0.05539470911026001,0.6765679717063904,-10.000564575195312,0.0633891368271545,1.4310428747632973,-0.0011827882356755524,1.8591490747251003,40.92346605783622,-0.006846606411071327
1739326287.1467202,-0.050578873604536057,0.6866965293884277,-10.022367477416992,0.06353514904978425,1.4309264912808832,-0.0014006880536083636,1.8688705907611987,41.1435850403122,-0.006760120997243073
1739326287.1967394,-0.04057320952415466,0.697876513004303,-10.0252046585083,0.06370301920700516,1.4308177105717899,-0.0015880375036181641,1.8838913920274587,41.483684778989264,-0.006628164000343232
1739326287.2467957,-0.03513403981924057,0.7127494812011719,-10.053926467895508,0.06389037364505815,1.4307140966512704,-0.0017455811073682644,1.8904318968983875,41.63177044757584,-0.006571372313718724
1739326287.2967386,-0.01999681070446968,0.7127010226249695,-10.053433418273926,0.06409399193572411,1.430613216921744,-0.0018753669481852463,1.901950299279059,41.89255390447878,-0.006472417800011111
1739326287.346672,0.0012249433202669024,0.7302541732788086,-10.065337181091309,0.06431010485271801,1.4305128160860052,-0.0019807322775173145,1.9134661563071307,42.15326675548374,-0.00637488388983399
1739326287.397246,0.0012249433202669024,0.7302541732788086,-10.065337181091309,0.06453465955584552,1.4304109649938597,-0.0020661231425679613,1.9332465093934663,42.6010459114464,-0.0062107219592377454
1739326287.4467502,0.05647045373916626,0.7465535402297974,-10.051142692565918,0.0647634681915033,1.4303062428233058,-0.002136545309057155,1.9411103418620113,42.77904940741448,-0.006146652457244019
1739326287.49678,0.08661817014217377,0.7566120624542236,-10.057323455810547,0.06499235083260393,1.4301979362691153,-0.0021968037224364806,1.9503661477160532,42.98854851268499,-0.0060721320960723775
1739326287.5466743,0.10250100493431091,0.7651652097702026,-10.049221992492676,0.06521746246740831,1.4300861755670442,-0.002251015703900866,1.9625751683049257,43.26486792357147,-0.0059753279796005195
1739326287.597203,0.11647835373878479,0.766565203666687,-10.040135383605957,0.0654356789307704,1.4299719744362418,-0.002302509632780771,1.978000580372339,43.613939255496064,-0.005855473360862105
1739326287.64659,0.11937791854143143,0.7661488056182861,-10.028193473815918,0.06564482297462747,1.4298571886082119,-0.0023538272887975047,1.9887426055697888,43.856996973839344,-0.005773634646690415
1739326287.6967072,0.1173933744430542,0.752110481262207,-10.034993171691895,0.06584371772238057,1.429744400999584,-0.002406702146933598,2.0048099840710933,44.22049958927156,-0.005653744237375917
1739326287.7466736,0.11450646817684174,0.7442916035652161,-10.02493953704834,0.06603212297606462,1.4296367336956801,-0.0024620701810497926,2.0131980602328814,44.4102430518804,-0.005592360517056047
1739326287.7965994,0.09429344534873962,0.7228687405586243,-10.012186050415039,0.06621058343066942,1.4295376037113479,-0.002520115017257732,2.0299902616786536,44.7900365397137,-0.005471999038075418
1739326287.8466074,0.08143901824951172,0.7081282734870911,-10.005731582641602,0.06638020214928197,1.42945045009829,-0.002580285123961759,2.036838872833495,44.94491106516797,-0.005423880421198481
1739326287.8971913,0.06667128205299377,0.6909672021865845,-9.995783805847168,0.06654236474549383,1.4293784585513598,-0.002641278823324959,2.049826175757001,45.238568262402445,-0.005334202861782797
1739326287.9465747,0.03934388607740402,0.6845232844352722,-9.988360404968262,0.06669849388560843,1.429324281280788,-0.002701109409259124,2.0628531902799567,45.53307211778006,-0.005246335518537296
1739326287.996599,0.014152886345982552,0.6708080768585205,-9.996542930603027,0.0668498998707984,1.4292897114394811,-0.0027574018528402954,2.0808096643045633,45.93892976209279,-0.0051286707728205655
1739326288.0465567,-0.01765107735991478,0.6707947254180908,-9.988600730895996,0.06699765677689899,1.4292753750322555,-0.0028078373587821634,2.088164815633489,46.105143309417805,-0.005081631807094449
1739326288.096645,-0.05895606055855751,0.6548426151275635,-9.990897178649902,0.06714236350158882,1.4292805972314524,-0.0028504343377998174,2.1034119451643893,46.44964412497396,-0.004986284881790092
1739326288.1465929,-0.09036935120820999,0.6472431421279907,-9.985832214355469,0.06728377919613714,1.4293034356830163,-0.0028835781279057636,2.113398048432336,46.67523193860891,-0.004925419955928765
1739326288.1966035,-0.10867474973201752,0.6544173955917358,-9.983149528503418,0.06742046429688461,1.4293407661944286,-0.0029059606278900767,2.1289700788499104,47.02693691524924,-0.004833008679645243
1739326288.2465558,-0.0958474725484848,0.6590606570243835,-9.991107940673828,0.06754957969061932,1.4293884222768987,-0.0029165270184217875,2.1400265423769333,47.27660216492421,-0.004769234332115201
1739326288.296819,-0.0820007249712944,0.6658531427383423,-9.986547470092773,0.06766694552277269,1.4294414166594713,-0.00291445084496847,2.152861577649573,47.56637326454327,-0.004697101293506436
1739326288.3465474,-0.05192720517516136,0.677334189414978,-9.984919548034668,0.06776735204712556,1.4294942009399858,-0.0028991277229882834,2.164870424093847,47.83743663962163,-0.004631439157548233
1739326288.3966095,-0.017722245305776596,0.6944760680198669,-9.998061180114746,0.0678450303697227,1.4295409336616058,-0.002870164550443507,2.183696013066398,48.26225875762242,-0.004531994648719166
1739326288.4465573,0.010279562324285507,0.7182450294494629,-10.014968872070312,0.06789419076531705,1.4295757718655129,-0.002827405058500279,2.1915792165320482,48.44011336106197,-0.004491596946558042
1739326288.4965994,0.049007952213287354,0.7312451004981995,-10.023808479309082,0.06790956104217949,1.4295932275062562,-0.002771002257925825,2.205210140381523,48.74758865625978,-0.0044234259261948395
1739326288.5465214,0.08780613541603088,0.7548314332962036,-10.035158157348633,0.06788690130627872,1.4295886260640445,-0.0027014299969063326,2.2209975063045553,49.103621305650066,-0.004347059079094223
1739326288.5965266,0.12793821096420288,0.7779362201690674,-10.045750617980957,0.06782348932248139,1.429558581297328,-0.0026194167411516195,2.235060681190381,49.42069428547389,-0.004281294021060929
1739326288.646466,0.13942411541938782,0.7949787378311157,-10.061939239501953,0.06771851117426254,1.429501317993412,-0.002525939972288698,2.2474442327270516,49.69984018807545,-0.004225078512070448
1739326288.6965678,0.17036087810993195,0.7943680286407471,-10.057604789733887,0.06757327623335518,1.4294167899103607,-0.0024223129192625327,2.257199145817506,49.919695469470156,-0.004181866844206797
1739326288.7465084,0.16805171966552734,0.8054513931274414,-10.069401741027832,0.06739125540590452,1.4293066394821263,-0.0023102557481123457,2.2702457837229018,50.21369129852745,-0.004125472012838232
1739326288.7971663,0.16656839847564697,0.7897658944129944,-10.065999031066895,0.06717797022698144,1.4291740431372615,-0.0021919032634625454,2.287546634020171,50.6034725661071,-0.004053025363833412
1739326288.846489,0.14111429452896118,0.7746522426605225,-10.07254409790039,0.06694071747167205,1.429023458359606,-0.0020697778017436013,2.3015620828984944,50.919172246217585,-0.003996188291304903
1739326288.896533,0.10660611093044281,0.7570520043373108,-10.050924301147461,0.06668811818160117,1.4288602728498596,-0.0019467281522584485,2.311794743288954,51.149631237453455,-0.00395567670751242
1739326288.946509,0.10660611093044281,0.7570520043373108,-10.050924301147461,0.06642955645135751,1.4286904168327377,-0.0018258038159477132,2.3227873803337302,51.39717810806546,-0.003913020860622597
1739326288.9967804,0.04036528244614601,0.704889714717865,-10.018474578857422,0.0661746188479063,1.4285200051182647,-0.0017100628677406565,2.337454961603174,51.727440907399966,-0.0038574068972793227
1739326289.0464845,0.005458486266434193,0.6851969957351685,-10.005204200744629,0.06593249353823652,1.4283549143624579,-0.0016023485457356986,2.3506637397342405,52.02481949886024,-0.003808523193056318
1739326289.0965183,-0.028605300933122635,0.6606767177581787,-9.987421035766602,0.0657112144767004,1.4282001917875822,-0.0015050929900537935,2.364900980982998,52.345317165351446,-0.0037570222250163884
1739326289.146495,-0.054665688425302505,0.6417968273162842,-9.963921546936035,0.06551692289543856,1.4280594687750032,-0.001420172396458258,2.3771511039150206,52.62105554153687,-0.003713640462786662
1739326289.1971512,-0.07583149522542953,0.6346703171730042,-9.958209037780762,0.06535342869102632,1.4279346355049423,-0.0013487670311673522,2.3923448800732223,52.96302148960887,-0.003660959917691022
1739326289.246463,-0.0969274714589119,0.6361661553382874,-9.951233863830566,0.06522207322494586,1.4278258010038736,-0.001291232847711256,2.41101037057148,53.38308172135757,-0.0035978638080391527
1739326289.2964823,-0.10742415487766266,0.6411492228507996,-9.955421447753906,0.06512174641821253,1.427731435349546,-0.0012470622060613986,2.423402272883932,53.661932212626496,-0.00355692456216319
1739326289.346364,-0.1086958795785904,0.6391351222991943,-9.966768264770508,0.06504900274137448,1.4276486109465447,-0.0012149596556641448,2.434003215562687,53.900466586563105,-0.003522481658225064
1739326289.39718,-0.10866847634315491,0.6445977091789246,-9.965079307556152,0.06499828569711481,1.4275732676796578,-0.0011930020204048894,2.4469095971483648,54.19085862166782,-0.003481249466793596
1739326289.4463282,-0.08489558100700378,0.6663788557052612,-9.991847038269043,0.06496226073368339,1.4275004780043237,-0.0011788391284426303,2.462111716471209,54.53288053737358,-0.0034336502471213177
1739326289.4964566,-0.050815925002098083,0.6843466758728027,-9.997583389282227,0.06493226766165751,1.4274247587663698,-0.0011699194422213396,2.4743026276597977,54.80713714798196,-0.0033962231671109335
1739326289.5464208,-0.0134755689650774,0.6965273022651672,-10.017988204956055,0.0648989065424666,1.4273404354314159,-0.0011637359583033693,2.4875732414427265,55.10566570642123,-0.0033562229880929667
1739326289.5971453,0.04533887654542923,0.7138485908508301,-10.024054527282715,0.06485275826931867,1.427242011280961,-0.0011580358286684938,2.5024062071181907,55.43931871292937,-0.003312416893609208
1739326289.6463847,0.0905502662062645,0.7423838376998901,-10.033059120178223,0.06478525033661506,1.4271245574863696,-0.0011509258164347606,2.5173262864682444,55.7749095020592,-0.0032693024241123316
1739326289.6964023,0.1381833255290985,0.7640572786331177,-10.045953750610352,0.06468954822505175,1.4269841294780201,-0.0011408952476945986,2.530432754946401,56.069690646508946,-0.003232202127587584
1739326289.7463589,0.18391254544258118,0.7883369326591492,-10.049310684204102,0.06456123719936663,1.4268181108708389,-0.0011268485412889646,2.544908719779584,56.395256868490165,-0.003192050450937939
1739326289.7963448,0.216961070895195,0.7939151525497437,-10.046958923339844,0.06439873226602466,1.4266254143479946,-0.0011081585237545067,2.558536002300485,56.70172207254151,-0.003155028053759716
1739326289.8462934,0.22729948163032532,0.8041086196899414,-10.060230255126953,0.06420347753607455,1.4264065452441403,-0.0010846820803413078,2.5760196311819596,57.09489671405489,-0.0031086002337193767
1739326289.8963947,0.2120925635099411,0.8064126968383789,-10.058080673217773,0.06397990067464518,1.4261635481394594,-0.0010567484502344265,2.5872252245939134,57.346882177578756,-0.0030794609529965697
1739326289.946324,0.18303842842578888,0.8097468018531799,-10.06003475189209,0.06373506191181177,1.4258998746022244,-0.0010251468372039093,2.6012400428425275,57.66203475790243,-0.0030436702611949104
1739326289.9963737,0.1332361400127411,0.798819363117218,-10.048857688903809,0.06347802132260064,1.4256202003151799,-0.0009910807449454713,2.616135496114043,57.99698731441917,-0.0030063997422787444
1739326290.0463583,0.08226719498634338,0.7823739647865295,-10.04316234588623,0.06321901007724054,1.4253301776803,-0.0009560620052404964,2.6301576699695195,58.31230306400595,-0.0029720115051622246
1739326290.096348,0.022663021460175514,0.7559708952903748,-10.027778625488281,0.06296851053103826,1.4250361018439313,-0.0009217573459590401,2.64507062167727,58.64765389820352,-0.0029361507679875483
1739326290.1463094,-0.03573492914438248,0.7240250706672668,-10.017610549926758,0.0627362702517393,1.424744504187858,-0.000889817036124048,2.6593627585742627,58.96905151391321,-0.002902445471551523
1739326290.196304,-0.08839549124240875,0.703668475151062,-10.01032829284668,0.06253018990561508,1.4244617322687714,-0.0008617230654368099,2.6789341096551462,59.409182909921896,-0.0028572998704409335
1739326290.2462268,-0.13816618919372559,0.6722379326820374,-10.002890586853027,0.06235524893887956,1.424193571136709,-0.0008386814723703708,2.696454541585962,59.803211341787716,-0.00281784353248796
1739326290.2963107,-0.1532355099916458,0.6479225754737854,-9.988656044006348,0.06221284080689003,1.4239449071591064,-0.0008215409023487163,2.7072795847745224,60.04667319685917,-0.002793905235064518
1739326290.3462932,-0.1532355099916458,0.6479225754737854,-9.988656044006348,0.062100645174560314,1.4237194474902133,-0.0008107124683768356,2.716615072565472,60.25664116697059,-0.0027735244782026666
1739326290.3962803,-0.13305093348026276,0.6110497117042542,-9.979114532470703,0.06201291319975767,1.4235195479221816,-0.0008061089146640156,2.7328762473416846,60.6223944669641,-0.0027385974856060755
1739326290.4463065,-0.10357794910669327,0.6054540872573853,-9.973458290100098,0.0619410436477387,1.4233461237482616,-0.0008071203708691225,2.7496789843386087,61.00035257587252,-0.0027032659432566397
1739326290.4962318,-0.053288958966732025,0.6104996204376221,-9.978949546813965,0.061874357388362396,1.4231986076599799,-0.0008126179871208854,2.7630841499597385,61.30190419231459,-0.002675628570529247
1739326290.5462172,-0.0067689926363527775,0.6276150345802307,-9.985836029052734,0.06180099354567751,1.4230750389964149,-0.0008210046692946649,2.7763388790953036,61.60008801574186,-0.002648781196288907
1739326290.596335,0.05111655592918396,0.6404147148132324,-9.992438316345215,0.061708851684486775,1.4229723333271975,-0.0008303349466844022,2.7922108204153555,61.95717210343179,-0.002617261746229774
1739326290.6462605,0.1088101789355278,0.6727147698402405,-9.998241424560547,0.061586505056527796,1.4228866597664036,-0.000838471370914631,2.8050583397826543,62.2462321210277,-0.002592250795710575
1739326290.6962762,0.14661966264247894,0.699303388595581,-10.006891250610352,0.06142418618261536,1.4228138446040042,-0.0008432436371824242,2.820527914844385,62.59431083366454,-0.0025627314573343474
1739326290.746235,0.17813117802143097,0.7387186288833618,-10.029716491699219,0.06121506014907741,1.4227497450395632,-0.0008426331051804899,2.835711160881462,62.9359751067745,-0.002534388066154335
1739326290.796338,0.18089817464351654,0.7714622020721436,-10.048544883728027,0.06095645570399677,1.422690599327756,-0.000835007625880819,2.849912655742515,63.255575409959114,-0.0025084349316665533
1739326290.8462539,0.1820252537727356,0.7882896065711975,-10.054254531860352,0.060650323611410796,1.4226333936838247,-0.0008193576865143759,2.864733247382569,63.589140919362464,-0.002481913301394091
1739326290.896247,0.16087491810321808,0.8145096302032471,-10.058534622192383,0.06030285615955115,1.422576189152318,-0.00079544457352313,2.879498959679629,63.92150853102846,-0.002456045153128162
1739326290.9462647,0.12827134132385254,0.8166506886482239,-10.052311897277832,0.059923737810092394,1.4225183231420675,-0.0007638204475927981,2.8945089885335196,64.25941844674774,-0.0024302952140023864
1739326290.9962747,0.07573611289262772,0.8276057243347168,-10.039905548095703,0.05952525088168361,1.4224604741694244,-0.0007257338234983109,2.910102725392254,64.61052013816462,-0.0024040993577534686
1739326291.0461955,0.03972604125738144,0.8110270500183105,-10.034186363220215,0.059121278200892274,1.422404596715821,-0.0006829505205453578,2.9258386475817653,64.9648816924891,-0.0023782065917517265
1739326291.0962367,-0.013251998461782932,0.7977767586708069,-10.028419494628906,0.05872630487489209,1.4223537227533312,-0.0006375461142367413,2.94035139539814,65.29175516001791,-0.0023547794025429664
1739326291.1462486,-0.06007957458496094,0.7743715047836304,-10.027313232421875,0.05835450705983643,1.4223116428628626,-0.0005917332945009217,2.95517845227387,65.62576905800826,-0.002331262494632403
1739326291.1962147,-0.08968205004930496,0.7497202157974243,-10.012711524963379,0.05801896146626649,1.4222825133952957,-0.0005477352659301982,2.9702122874575525,65.96450860661072,-0.0023078181541827812
1739326291.2461662,-0.10852262377738953,0.7166584730148315,-10.012287139892578,0.0577308091266474,1.4222704521145704,-0.0005076672203340128,2.9864416303234633,66.33026567467694,-0.0022829295730587063
1739326291.296302,-0.10852262377738953,0.7166584730148315,-10.012287139892578,0.05749802970878871,1.4222791989346697,-0.00047341652347482907,3.002287703410439,66.6874690743921,-0.0022590216963999593
1739326291.346164,-0.08359967172145844,0.6568057537078857,-10.009446144104004,0.05732419142764266,1.422311867429189,-0.0004465640171610941,3.0173528496857385,67.02714800360448,-0.0022366304587531525
1739326291.3961945,-0.05031276494264603,0.6419680714607239,-10.003220558166504,0.057208152162345254,1.4223706804507672,-0.00042835748992620494,3.0320870749351867,67.35944168626132,-0.002215034579337002
1739326291.446241,-0.016252387315034866,0.6209249496459961,-10.01016902923584,0.05714479304097935,1.4224566529543374,-0.00041970551898781126,3.04792650314085,67.71674522878027,-0.0021921424502425626
1739326291.4962516,0.019082888960838318,0.6143246293067932,-10.00365161895752,0.05712607616209594,1.4225693688794199,-0.00042118771398306636,3.064474056843945,68.09011641430156,-0.0021685800888983212
1739326291.5461528,0.04397161304950714,0.6056339144706726,-10.004253387451172,0.05714203341143871,1.4227069336228109,-0.0004330812213405459,3.0802635765820208,68.44647255258307,-0.002146435529651149
1739326291.5962548,0.04397161304950714,0.6056339144706726,-10.004253387451172,0.05718159152420828,1.42286604869479,-0.00045538333074142845,3.093899144857904,68.7542849490542,-0.0021275845487507355
1739326291.64617,0.0978083461523056,0.6521179676055908,-10.007257461547852,0.05723319960818444,1.4230422017775664,-0.00048783626173051395,3.109559049582664,69.10787313805491,-0.002106262089002206
1739326291.6961672,0.11825404316186905,0.6666205525398254,-9.994046211242676,0.05728536690460205,1.4232300357557621,-0.0005299577658654023,3.129670269709905,69.56208891616487,-0.0020794239336927984
1739326291.7461965,0.12431260198354721,0.6962127089500427,-10.008691787719727,0.057327183535752606,1.423423853631663,-0.0005810571405487666,3.141187775138679,69.82227422251871,-0.0020643454332253805
1739326291.7961605,0.11953623592853546,0.7303661108016968,-10.005105018615723,0.05734889643524446,1.4236181274404436,-0.0006402646483634204,3.156249131367189,70.16258201862492,-0.0020449792054530406
1739326291.846162,0.10949406027793884,0.7576290369033813,-10.006180763244629,0.05734281185772037,1.4238079865828437,-0.0007066116622294167,3.1725875974782283,70.53182913587135,-0.0020244580701649305
1739326291.896157,0.0931859165430069,0.7905817031860352,-10.031595230102539,0.05730428625341212,1.4239896821975078,-0.0007791391237144477,3.190337930068668,70.93308235971756,-0.002002787344644378
1739326291.9460664,0.0684056207537651,0.812770664691925,-10.024710655212402,0.05723201304689886,1.4241609488511866,-0.0008570201143256113,3.2031669347681833,71.2231508425775,-0.001987559765899264
1739326291.996106,0.04204021021723747,0.8186371326446533,-10.031888961791992,0.05712751771025472,1.4243212146354673,-0.0009396714448370027,3.219917537587692,71.60196966552009,-0.0019682798952798
1739326292.0460513,0.01610739715397358,0.8153890371322632,-10.042119026184082,0.056994411377813664,1.4244716364540029,-0.0010268100294855021,3.2345407719879034,71.93275407732767,-0.0019520466435162516
1739326292.0961497,0.006379387807101011,0.798149585723877,-10.035439491271973,0.056837701987507656,1.4246149415636091,-0.0011184745558328085,3.2557421827322006,72.41246931347426,-0.0019295883678336666
1739326292.1460698,-0.02228357084095478,0.7796103954315186,-10.023170471191406,0.056663220466315715,1.4247551036507677,-0.0012150120597318938,3.2682033357704974,72.69449502456087,-0.0019170173016782668
1739326292.1960745,-0.05120181292295456,0.7489570379257202,-10.024860382080078,0.056477139894373356,1.424896912164447,-0.001316987418346846,3.282997564926217,73.02939553785987,-0.0019027504079727423
1739326292.2460997,-0.05120181292295456,0.7489570379257202,-10.024860382080078,0.05628554151976143,1.425045512679768,-0.0014250639858349235,3.2988298484055343,73.3878830099018,-0.001888329530268151
1739326292.2960982,-0.07073520869016647,0.6950898766517639,-10.020197868347168,0.05609407565652833,1.425205988669826,-0.0015399303440376498,3.318746656975256,73.83898840502033,-0.0018715240874515283
1739326292.3459725,-0.08007971942424774,0.6670675873756409,-10.020514488220215,0.05590757343437569,1.4253828975302811,-0.001662247248048853,3.3313479534300456,74.12447899008701,-0.0018617038591754868
1739326292.3961053,-0.06776031851768494,0.6563056111335754,-10.008890151977539,0.05572924082091033,1.425579627021756,-0.0017925494152428434,3.347663652145901,74.49421360650672,-0.0018500028189009385
1739326292.4460087,-0.07008939981460571,0.6440262794494629,-10.011725425720215,0.055559709135851384,1.425797781302235,-0.001931114243408001,3.3635413697867245,74.85412426747438,-0.0018397845468063995
1739326292.4961762,-0.040042366832494736,0.635692298412323,-10.01634407043457,0.05539673110617229,1.426036929709814,-0.0020778838447288277,3.3813011196256086,75.25681669937335,-0.0018298174027352597
1739326292.5459526,-0.006077165715396404,0.6407330632209778,-10.016565322875977,0.05523562507343824,1.4262946921170818,-0.0022324863740446218,3.396553209078997,75.60275244240461,-0.0018225665653669267
1739326292.5960696,0.03745102509856224,0.6438995003700256,-10.002344131469727,0.05507002755028242,1.4265669707130744,-0.0023942939576738704,3.4120604533128125,75.95457480792666,-0.0018165198420702073
1739326292.646004,0.07946428656578064,0.6516478657722473,-10.00633430480957,0.05489271331512879,1.4268482520038681,-0.002562435370701827,3.4275950367395733,76.30711969101984,-0.0018118880249464785
1739326292.6961684,0.1432405710220337,0.6783259510993958,-10.014837265014648,0.054696414980314925,1.42713195832367,-0.002735787609679066,3.4448733412554784,76.69935949682181,-0.0018085188560219493
1739326292.7459247,0.18359901010990143,0.685495138168335,-10.016030311584473,0.05447461036204791,1.4274108433104193,-0.002913024346965195,3.461954449408557,77.08725212743506,-0.0018071386829209327
1739326292.7960744,0.2009681910276413,0.7053667306900024,-10.021288871765137,0.05422220138992366,1.4276773980289974,-0.0030927144153924586,3.4769237224034217,77.42729558589453,-0.0018076105980623725
1739326292.8459313,0.2098224014043808,0.7255297303199768,-10.02079963684082,0.05393593667250399,1.4279242162243833,-0.00327341007069474,3.493376682553049,77.80116256823965,-0.0018100445614803566
1739326292.8961794,0.2098224014043808,0.7255297303199768,-10.02079963684082,0.053614783419257496,1.4281443584478026,-0.003453702144476635,3.509781915598491,78.1740736934399,-0.001814566501875605
1739326292.945958,0.15544182062149048,0.7589414715766907,-10.023404121398926,0.05326076839449225,1.4283318046375775,-0.0036322475915989147,3.5257437024936036,78.5370319773157,-0.0018210683660488634
1739326292.9959338,0.11538437008857727,0.7730221152305603,-10.02546501159668,0.052879893067397064,1.428481942515414,-0.0038077868644646857,3.5427017533977794,78.92278675370568,-0.0018303499939289105
1739326293.045898,0.06130452826619148,0.7891879081726074,-10.024843215942383,0.052482044127557845,1.4285919034251564,-0.003979165203861637,3.5587340931157105,79.28762308348796,-0.0018414628589767284
1739326293.0959547,0.0046994430013000965,0.7940021753311157,-10.033416748046875,0.052079904625816284,1.4286606658705414,-0.004145356425981165,3.575992311936312,79.68051242346746,-0.001856064050964952
1739326293.1460104,-0.0463157556951046,0.787090003490448,-10.024320602416992,0.0516876512488848,1.4286889900754458,-0.004305485572254437,3.5920343436120543,80.04586488118467,-0.0018721708962589918
1739326293.1960285,-0.09471875429153442,0.7764145135879517,-10.027386665344238,0.051319793647334216,1.4286792243798552,-0.004458833756883309,3.6105115637095335,80.46686266346269,-0.0018938500244035008
1739326293.2460234,-0.1385323703289032,0.7722699046134949,-10.030855178833008,0.05099019865806861,1.4286350110687311,-0.0046048203567345914,3.6265692295675267,80.83289583963945,-0.0019154805532689144
1739326293.2959828,-0.15188416838645935,0.7485559582710266,-10.015013694763184,0.05071133722943296,1.4285609526805878,-0.0047429810855734176,3.642619186387489,81.1989091128661,-0.0019397639204509704
1739326293.3459506,-0.1510859727859497,0.7241567969322205,-10.007274627685547,0.050493815670483916,1.4284622551449142,-0.004872916245424577,3.6593213668694373,81.5799640379118,-0.00196792854184071
1739326293.3960075,-0.13325364887714386,0.697881817817688,-9.997346878051758,0.05034624266184767,1.4283443254066988,-0.004994181811220147,3.675947574624946,81.9594573083543,-0.0019989575678738074
1739326293.4459112,-0.09924961626529694,0.6692602634429932,-9.994298934936523,0.0502751225525869,1.4282122971075728,-0.005106194699380756,3.692075293820418,82.32773667942226,-0.002031961349522234
1739326293.4958696,-0.05253222584724426,0.6574517488479614,-9.990589141845703,0.05028419196052613,1.4280704534668676,-0.005208250076585314,3.709499749798092,82.72580824778018,-0.002070887029971847
1739326293.5459833,-0.006991670001298189,0.6468945145606995,-9.996569633483887,0.05037353744188045,1.4279216859518193,-0.005299628530005637,3.730054828368253,83.19563971972467,-0.002121229041540795
1739326293.5958936,0.03825981542468071,0.6355271339416504,-9.990370750427246,0.05053958273185091,1.4277672356303217,-0.0053796832107518185,3.7433526872845024,83.4997273025342,-0.002156369137586868
1739326293.6460938,0.10238315165042877,0.642263650894165,-10.002575874328613,0.05077602622609677,1.4276067231647565,-0.005447870814146491,3.7598168181814704,83.87636339057906,-0.002202706097152589
1739326293.6958685,0.10238315165042877,0.642263650894165,-10.002575874328613,0.051074965758254494,1.4274383190368376,-0.00550377703947356,3.7772187069377527,84.27462023648063,-0.002255105566561417
1739326293.7459667,0.17062824964523315,0.6628463268280029,-10.035114288330078,0.05142780666871817,1.4272589968600826,-0.005547186566877931,3.7977316631114513,84.74429080957454,-0.0023214052428700608
1739326293.79585,0.1732536107301712,0.6734296083450317,-10.030014991760254,0.0518259531839078,1.4270648577824028,-0.005578212855208275,3.811601969586526,85.06199613834308,-0.0023690146820125584
1739326293.8459322,0.17250286042690277,0.689893901348114,-10.037426948547363,0.05226131500340353,1.4268514911941887,-0.005597428462026975,3.827505739139522,85.42639838243367,-0.002426361949595769
1739326293.8961465,0.17250286042690277,0.689893901348114,-10.037426948547363,0.05272655766441886,1.426614310225013,-0.005605911271669462,3.846172316318943,85.85425940005565,-0.0024974180265323587
1739326293.9459164,0.1323593705892563,0.724712610244751,-10.040836334228516,0.05321508358135729,1.4263488279601921,-0.005605214956599913,3.8642191564770254,86.26806564157681,-0.0025699400845644307
1739326293.995933,0.10310955345630646,0.7389981150627136,-10.032784461975098,0.053720990816630704,1.4260509863776372,-0.005597275932474076,3.8812678885097327,86.65911326390844,-0.0026418805091526906
1739326294.0459218,0.0727422907948494,0.752525806427002,-10.024622917175293,0.054239399700530655,1.425717680414202,-0.005584186692097792,3.8966418432531866,87.01184580378475,-0.0027095878191370536
1739326294.096179,0.027760734781622887,0.7572404146194458,-10.015766143798828,0.054766981865131334,1.4253473077501009,-0.005567874057103895,3.9138022938778083,87.40566983170025,-0.002788308458680269
1739326294.1458805,0.008536781184375286,0.762014627456665,-10.009011268615723,0.05530199619205774,1.42494001503328,-0.005549856917212599,3.9337960907551737,87.86464405696432,-0.0028841710600867737
1739326294.1958082,0.008536781184375286,0.762014627456665,-10.009011268615723,0.05584379234764808,1.4244976253061954,-0.0055311476658514045,3.9482198706220255,88.19583193880888,-0.0029560710777306832
1739326294.2458146,-0.02584807388484478,0.7812466621398926,-10.011490821838379,0.0563923182610581,1.4240234609548774,-0.005512243944592692,3.9657171299709084,88.59766944392341,-0.0030463457326144433
1739326294.2958188,-0.02584807388484478,0.7812466621398926,-10.011490821838379,0.05694778525933296,1.4235221921964643,-0.005493177623691641,3.983031019389263,88.99537235208778,-0.0031389377828012644
1739326294.345841,-0.05056348070502281,0.7741847634315491,-10.019041061401367,0.05751038873455416,1.422999700934655,-0.005473599404310691,4.006997578567828,89.54599829651785,-0.003272402372572924
1739326294.395845,-0.0452243909239769,0.7679367065429688,-10.013063430786133,0.05808008832987536,1.4224628839086189,-0.005452872038003287,4.017795920239036,89.79412530824197,-0.003334526242771677
1739326294.4458303,-0.0476020909845829,0.7657831907272339,-10.019939422607422,0.058656484721892485,1.4219193862186208,-0.00543015026009175,4.0352380476157315,90.19495501210635,-0.003437451141070321
1739326294.4961886,-0.031055087223649025,0.7364623546600342,-10.019619941711426,0.059238812915177325,1.4213773137981716,-0.005404443372996255,4.052802529626359,90.59863858675456,-0.0035442838493162116
1739326294.5459602,-0.022407634183764458,0.723529040813446,-10.017606735229492,0.05982593369830026,1.420844900931224,-0.005374684450228925,4.075865096223045,91.12873384943894,-0.003689346366870479
1739326294.5957873,-0.016085321083664894,0.6891168355941772,-10.019269943237305,0.060416064014999576,1.4203300885138181,-0.005339824042711558,4.08803066358255,91.40837831011972,-0.0037680315532256027
1739326294.645763,0.007780249696224928,0.6658875942230225,-10.017864227294922,0.061006357327574784,1.4198400643012068,-0.0052989244546067125,4.105243041315186,91.80404345199182,-0.0038818698542063346
1739326294.6961133,0.029155954718589783,0.6553735136985779,-10.01337718963623,0.0615928245344612,1.4193808754788044,-0.0052512052145771235,4.123298879982771,92.21910405382121,-0.004004401663118692
1739326294.745858,0.04926108196377754,0.6332689523696899,-10.004718780517578,0.06217069046521122,1.418957184570976,-0.0051960197201923845,4.140261661654593,92.6090360302159,-0.004122370766337486
1739326294.795826,0.06945927441120148,0.618114709854126,-10.01742172241211,0.06273486466309383,1.4185721438125876,-0.005132800506436152,4.1592456641013325,93.04541910943426,-0.004257609814059854
1739326294.845849,0.08314958214759827,0.6091951727867126,-10.004716873168945,0.06328034231349028,1.4182273283187636,-0.005061029913270254,4.17720596019532,93.45825079017888,-0.00438861440653052
1739326294.8961556,0.09438396990299225,0.6198505759239197,-10.009846687316895,0.06380251470574456,1.4179227442459243,-0.004980237123103223,4.196196765153797,93.89474001156984,-0.004530290348541961
1739326294.945778,0.09416953474283218,0.6415695548057556,-10.011933326721191,0.06429737589126072,1.4176569826384346,-0.004889992897762385,4.224806707416004,94.55224363202824,-0.004749669025929954
1739326295.0459678,0.08904694020748138,0.6746132969856262,-10.010185241699219,0.0647616113592322,1.4174275515249397,-0.004789914635718673,4.268619291450478,95.5589235325246,-0.005098996415084083
1739326295.1458645,0.05791230499744415,0.7165719270706177,-10.002663612365723,0.06519254986309198,1.4172313560983267,-0.004679676355642974,4.29575725521257,96.1823330707591,-0.005323232371038261
1739326295.245852,0.01075180433690548,0.7612993121147156,-10.013808250427246,0.06558798817242406,1.417065275352376,-0.0045590107626618664,4.320004570895468,96.73923795246304,-0.0055284549043960384
1739326295.2961607,-0.015102554112672806,0.7868912816047668,-10.021353721618652,0.06594597915951037,1.4169267673771389,-0.0044277673343845764,4.338491858708736,97.1637783485691,-0.0056878951636301885
1739326295.3457391,-0.02000563219189644,0.8091765642166138,-10.02446174621582,0.06626465984344751,1.4168143776599176,-0.004286046962709478,4.356373107281316,97.57433940606525,-0.0058444433701412045
1739326295.395808,-0.03423657640814781,0.8254039883613586,-10.023279190063477,0.06654210872570232,1.4167280399477582,-0.00413430892004432,4.3803250442297115,98.12418370646279,-0.006057556989303614
1739326295.4457793,-0.030501719564199448,0.8331229090690613,-10.038918495178223,0.06677623760874545,1.4166691780172753,-0.003973396234555672,4.392513327237158,98.40393319571142,-0.006167445019997456
1739326295.4961517,-0.024882234632968903,0.8360552191734314,-10.045035362243652,0.06696476498310441,1.4166406685064943,-0.0038045482864670467,4.411226264456307,98.83337459077697,-0.006337924543534998
1739326295.5456834,0.002030993578955531,0.8378168344497681,-10.051626205444336,0.06710530583469448,1.416646700768127,-0.0036294435599195226,4.429097746767699,99.24343147065096,-0.006502629529391379
1739326295.5957365,0.02367403730750084,0.8290538787841797,-10.050477981567383,0.06719558932855327,1.4166925635903107,-0.0034502297207850098,4.447613977579244,99.66820449527256,-0.006675098744603577
1739326295.6456504,0.04132898151874542,0.8070728182792664,-10.045722961425781,0.06723375937151609,1.4167843663607276,-0.003269494645051604,4.466417546204227,100.09948819528603,-0.00685201297736217
1739326295.6961236,0.06636375933885574,0.7716069221496582,-10.049386024475098,0.06721866856473441,1.4169286634122547,-0.0030901810340668396,4.484543439860543,100.51515171443576,-0.007024117527953809
1739326295.7457857,0.06636375933885574,0.7716069221496582,-10.049386024475098,0.06715010319654827,1.4171319985505586,-0.0029154880499040635,4.5028431172151615,100.93472513654731,-0.00719931243287551
1739326295.7957554,0.0988408550620079,0.6975089907646179,-10.042739868164062,0.06702897048313669,1.41740044792,-0.0027487522287792396,4.52157875166679,101.36421780858358,-0.007380062688145381
1739326295.845716,0.10810833424329758,0.6471318006515503,-10.01922607421875,0.06685756842745078,1.4177391271606885,-0.002593200216874778,4.540043339399678,101.7874242441207,-0.007559458144998258
1739326295.8961759,0.09209157526493073,0.5939680337905884,-9.998744010925293,0.06663987659239509,1.4181515848381525,-0.002451565108874694,4.559308014262166,102.22889529277462,-0.007747853828759914
1739326295.9456658,0.08441831171512604,0.5490055680274963,-9.978137969970703,0.06638157284518495,1.4186391890727124,-0.002325731565668799,4.57742854135566,102.6440825790179,-0.007926118492737907
1739326295.9957628,0.05168953537940979,0.516793966293335,-9.958381652832031,0.06608970066577753,1.4192006682163996,-0.002216504423237512,4.597564711365201,103.10538556374397,-0.008125325103672481
1739326296.04569,0.02070055715739727,0.5026408433914185,-9.938434600830078,0.06577216458139658,1.4198318676925314,-0.0021234595954650382,4.614145135992457,103.48517992443188,-0.008290179141083539
1739326296.0961564,-0.01622903347015381,0.5125822424888611,-9.93840503692627,0.06543716043728369,1.4205257623194418,-0.0020448565510905797,4.634174329167753,103.9439190642104,-0.008490250778402325
1739326296.1456945,-0.04391522705554962,0.5386034250259399,-9.957809448242188,0.06509259766780304,1.421272756381056,-0.0019776717830235144,4.652581804470941,104.3654689233869,-0.008674972077015229
1739326296.19563,-0.05962324142456055,0.5818503499031067,-9.968230247497559,0.06474560375772886,1.4220612537913278,-0.0019178135989479797,4.67623649380002,104.90712898398232,-0.008913478602603272
1739326296.245605,-0.07336696237325668,0.6537806391716003,-9.99374771118164,0.06440218397171546,1.4228784495325661,-0.0018604770800715704,4.690318487837557,105.22956079362856,-0.009056043389718257
1739326296.2956226,-0.07336696237325668,0.6537806391716003,-9.99374771118164,0.06406705454123858,1.4237112337185767,-0.0018005273431986905,4.709075733831085,105.65901552243565,-0.009246570588622834
1739326296.3455765,-0.041589200496673584,0.7854554057121277,-10.059532165527344,0.06374351824841351,1.4245470344796025,-0.0017328851873582803,4.728181244764753,106.09641947505027,-0.009441336022320753
1739326296.3956597,-0.005097325425595045,0.8526431918144226,-10.087986946105957,0.06343317768979197,1.4253746015488828,-0.0016530265431456232,4.755237318840601,106.71581212027665,-0.009718269539904376
1739326296.445659,0.02763870730996132,0.9043815732002258,-10.106306076049805,0.06313567645672631,1.4261848409577202,-0.0015575744568120879,4.766355505640019,106.97033095944631,-0.009832426487557241
1739326296.4955459,0.06037580594420433,0.9421646595001221,-10.125187873840332,0.06284891282543756,1.4269715479394356,-0.0014447271668732338,4.786502418895105,107.43152870942342,-0.010039738657276778
1739326296.545705,0.06037580594420433,0.9421646595001221,-10.125187873840332,0.06256964574293025,1.4277317953948587,-0.0013144006020550697,4.8045861777512595,107.84549234735346,-0.010226255831068955
1739326296.5955741,0.11388330906629562,0.9397450685501099,-10.096982955932617,0.06229408133411541,1.4284659253515857,-0.0011681491893586987,4.828553723142099,108.39414396133112,-0.01047396126448301
1739326296.6457183,0.11960958689451218,0.9178408980369568,-10.080126762390137,0.06201834897148488,1.4291772083054282,-0.0010088780529725102,4.843310052012578,108.73194005243464,-0.010626693024733255
1739326296.6955657,0.10484103113412857,0.8641470670700073,-10.033706665039062,0.061738889101019635,1.4298712570810137,-0.0008403757227944016,4.862339022681242,109.16755107541127,-0.010823795938742425
1739326296.745578,0.07149946689605713,0.7985016703605652,-10.019871711730957,0.06145259564956557,1.4305552253426912,-0.000666770690470758,4.883973507769785,109.66282255852822,-0.011047968192862611
1739326296.795588,0.04801388084888458,0.7218689918518066,-9.96898078918457,0.06115664124533486,1.4312368083625693,-0.0004920036906075259,4.906041383020264,110.16803765745524,-0.011276585566738825
1739326296.8455293,0.01724071428179741,0.6541265249252319,-9.964781761169434,0.06084813947483368,1.43192315640388,-0.0003193682822594197,4.9223316973037585,110.54100095990623,-0.011445237976231004
1739326296.8955035,0.01724071428179741,0.6541265249252319,-9.964781761169434,0.06052390551476388,1.4326198706402837,-0.00015124069141574017,4.940055664084883,110.94680894186936,-0.01162853482588102
1739326296.945583,0.009636436589062214,0.5595411658287048,-9.94491958618164,0.06018056758921843,1.433330183290956,1.0840427552527255e-05,4.961102697168466,111.42873656496177,-0.011845820242954237
1739326296.9955213,0.01810014247894287,0.5324782729148865,-9.949915885925293,0.05981495216292608,1.4340543036507873,0.00016588618447997735,4.980184477703052,111.86570209519691,-0.012042373378756735
1739326297.0455105,0.03249498829245567,0.5393455028533936,-9.967884063720703,0.05942438625867866,1.434789007158752,0.0003132591235601518,5.000387071167595,112.32837886884391,-0.012249915141055107
1739326297.096199,0.0609639547765255,0.5562798976898193,-10.001015663146973,0.05900684508016352,1.4355276854218901,0.0004525287728910651,5.019729884473908,112.7714143420064,-0.012448006468792695
1739326297.1455338,0.08653310686349869,0.5767194628715515,-10.029983520507812,0.05856112662912475,1.436260859917389,0.0005832061695613953,5.041326120632553,113.26612763673458,-0.012668367895225371
1739326297.1954894,0.09176749736070633,0.6303581595420837,-10.052990913391113,0.05808707393436732,1.43697693763678,0.0007043893274141055,5.057264432313735,113.63128099395952,-0.012830401385670114
1739326297.2455378,0.08512333780527115,0.6789513230323792,-10.074265480041504,0.05758570796859841,1.4376630853001326,0.0008144473436664697,5.0803854260305785,114.16107521603246,-0.013064467132396356
1739326297.2955525,0.05789900943636894,0.7224611043930054,-10.079608917236328,0.05705915735996323,1.4383061720553083,0.0009108163147998292,5.096614694317952,114.53301588565242,-0.013228027318915994
1739326297.3455236,0.020766152068972588,0.7564079761505127,-10.079780578613281,0.05651036183943216,1.4388936497033662,0.0009899355785129174,5.116319017557412,114.98467572055378,-0.013425743415457504
1739326297.3954415,-0.011946494691073895,0.7787072658538818,-10.070537567138672,0.05594260581686278,1.439414240126498,0.0010473325423302647,5.13598195966749,115.43547996440942,-0.013622065707146415
1739326297.4455059,-0.07073576748371124,0.7844647765159607,-10.043333053588867,0.055358892127117185,1.4398584967678496,0.0010779158951834196,5.155182880423267,115.87578884530842,-0.013812813904975773
1739326297.4955163,-0.11215918511152267,0.7899730801582336,-10.015300750732422,0.05476106698806485,1.44021945538438,0.0010765959587220103,5.175817462531064,116.34908978950696,-0.014016745677642228
1739326297.5455263,-0.14218942821025848,0.7737754583358765,-9.9893159866333,0.05414887160100281,1.4404932355773392,0.0010390920991837811,5.196029851733806,116.81283157416651,-0.014215463214143974
1739326297.5954585,-0.15276125073432922,0.7539868950843811,-9.976330757141113,0.05351938367003414,1.4406791306162687,0.0009625283437081399,5.216701533639477,117.28724792721955,-0.014417678008905874
1739326297.6455982,-0.13493303954601288,0.7390502095222473,-9.972079277038574,0.0528670107573523,1.4407791541892574,0.0008456657673517718,5.235166018086554,117.71113349990726,-0.014597491397783602
1739326297.6955395,-0.08482290804386139,0.7299079895019531,-9.97519588470459,0.052183892198953113,1.4407974307930398,0.0006888958461645342,5.256445050812908,118.19978795810138,-0.014803871393437943
1739326297.7454906,-0.007668694946914911,0.7292341589927673,-9.980850219726562,0.051460646289143555,1.440739673785894,0.0004940909781364482,5.275706373772893,118.6422599099651,-0.014990012662122056
1739326297.7953982,0.06927372515201569,0.7327181696891785,-9.999239921569824,0.0506874193972093,1.4406128005885384,0.0002643557764927057,5.295631610515339,119.10014572955316,-0.01518204132109073
1739326297.8465264,0.13926585018634796,0.7487667798995972,-10.03095531463623,0.04985506871655072,1.4404246855794467,3.6940176678351537e-06,5.320694288845367,119.6763410966851,-0.0154230548643218
1739326297.8963342,0.20893511176109314,0.7626363635063171,-10.054224967956543,0.0489562632412438,1.4401840363437624,-0.0002834114714601803,5.33579216441888,120.023585322724,-0.015568068290295629
1739326297.9454925,0.2489621639251709,0.7806293368339539,-10.080760955810547,0.04798635953130774,1.4399003603905065,-0.0005924558189394409,5.355234384835601,120.47091642049844,-0.01575480468158122
1739326297.995429,0.26400768756866455,0.7909297347068787,-10.0856351852417,0.046944260846109837,1.4395839731392606,-0.0009192705546058204,5.376140333974461,120.95215083461594,-0.015955797950767344
1739326298.0454035,0.25931671261787415,0.7956081628799438,-10.09087085723877,0.04583373238153316,1.439245999763076,-0.0012601335447740834,5.403524313580344,121.58288098048511,-0.016219747384679593
1739326298.0954494,0.20847748219966888,0.7832081317901611,-10.062925338745117,0.044664704754416404,1.4388983082075986,-0.0016116416761728747,5.417179331691013,121.89756237161802,-0.016351767444333684
1739326298.145449,0.14639295637607574,0.7396870851516724,-10.046347618103027,0.04345330003091105,1.438553281351589,-0.0019704947928603396,5.436874298109864,122.35164800758908,-0.016542882603488383
1739326298.1964028,0.06665260344743729,0.719048798084259,-10.014616012573242,0.042220469174243436,1.438223382264838,-0.002333257147337644,5.457511226071605,122.82773658260591,-0.016744238577995247
1739326298.2454174,0.0005765344831161201,0.6781384348869324,-9.984172821044922,0.04099016919317969,1.4379206008603904,-0.002696085630974575,5.481434181866828,123.38001992484962,-0.016979370162377196
1739326298.2963805,-0.06860844790935516,0.6421551704406738,-9.975107192993164,0.03978763512385183,1.4376559104423716,-0.003054459532475898,5.498549707979004,123.77541450448128,-0.01714889242845807
1739326298.3464086,-0.12829618155956268,0.6062547564506531,-9.960799217224121,0.03863788054977651,1.437438774716963,-0.0034029969619198434,5.518823276759268,124.24406904296899,-0.01735132519680035
1739326298.3963168,-0.16450805962085724,0.6001304388046265,-9.969183921813965,0.0375644842572604,1.4372767428912383,-0.0037354206134040014,5.539081658391572,124.71271619203102,-0.017555575266745404
1739326298.4463694,-0.16168752312660217,0.5954272747039795,-9.967585563659668,0.03658873494511351,1.4371752323551061,-0.0040446657827775895,5.562689890312182,125.25930796494738,-0.017796340490309873
1739326298.4963777,-0.14390410482883453,0.6175376176834106,-9.989291191101074,0.035729231046457116,1.4371375605538663,-0.0043230937949720015,5.579900000295207,125.65808131648393,-0.017973849731080165
1739326298.5463998,-0.14390410482883453,0.6175376176834106,-9.989291191101074,0.03500153589493884,1.4371650301186176,-0.004562858814567443,5.600223188585132,126.12933977280412,-0.018185797480006073
1739326298.5962827,-0.044519297778606415,0.6865189075469971,-10.041586875915527,0.03441707887581609,1.437256715407667,-0.004756565560544317,5.6207056822232015,126.60468623369542,-0.018402084442199707
1739326298.6463664,0.0025582648813724518,0.7395846843719482,-10.072545051574707,0.03398183457831137,1.4374092085092383,-0.0048981265976098115,5.649816563699457,127.28096747273524,-0.018714291678166458
1739326298.696246,0.038097839802503586,0.7863220572471619,-10.072627067565918,0.033696282490881434,1.4376170001370685,-0.004983425524618147,5.662605091908214,127.57831906498707,-0.018853259174514372
1739326298.7463782,0.07897689193487167,0.8153331875801086,-10.06435489654541,0.0335565591007744,1.4378734017062036,-0.005010534275179033,5.682262129199548,128.03568331942628,-0.019069053062423392
1739326298.7963066,0.09523037821054459,0.8398610353469849,-10.073602676391602,0.03355569103824663,1.438171403995275,-0.004979575923507447,5.702750322547265,128.51278591194267,-0.019296784469788886
1739326298.846312,0.09705653786659241,0.8356185555458069,-10.048405647277832,0.03368452012591862,1.4385042385832882,-0.004892440986598052,5.7334476749921315,129.2283853586272,-0.019643269336742587
1739326298.89637,0.08366802334785461,0.8179301023483276,-10.028261184692383,0.033932328867749106,1.4388656457438083,-0.00475244238081521,5.7444652992301055,129.48544255035992,-0.019769140406642665
1739326298.9463873,0.06125995144248009,0.7693891525268555,-10.002482414245605,0.03428717040482816,1.4392498356543502,-0.004563887069904344,5.769177386335526,130.06242759193594,-0.0200542081271572
1739326298.9963436,0.038435280323028564,0.7131784558296204,-9.978582382202148,0.03473598005902491,1.4396511551422655,-0.004331599334849581,5.7876085963899415,130.49313468239194,-0.02026919314721887
1739326299.0463061,0.02291279099881649,0.6544138193130493,-9.963358879089355,0.035264578612634226,1.4400635359368996,-0.004060479164016708,5.807355862467468,130.95493874180988,-0.020501615280119175
1739326299.096248,0.03645364195108414,0.6101382374763489,-9.954216003417969,0.03585786181134327,1.4404798677786788,-0.0037551868832672334,5.839815958253551,131.71479197952812,-0.02088793249568632
1739326299.1463904,0.05973081290721893,0.5774219632148743,-9.952129364013672,0.03650060938292915,1.4408914566606874,-0.0034200474288429987,5.85307924209688,132.02553361322094,-0.02104720849256135
1739326299.196344,0.08430511504411697,0.5626192092895508,-9.968867301940918,0.037178723912014836,1.441287695852488,-0.0030591420467037996,5.869730780087911,132.41586653118853,-0.021248178109439575
1739326299.2463717,0.11857619136571884,0.5781636834144592,-9.99598503112793,0.03788012896295735,1.4416560333963704,-0.0026764686911950495,5.88878464645403,132.86278991372407,-0.02147932671241842
1739326299.2964585,0.13192011415958405,0.6317147612571716,-10.02536678314209,0.03859511137436384,1.4419822901412407,-0.0022761542234553712,5.916772339297338,133.5197806884653,-0.02182073415273398
1739326299.3463752,0.14933840930461884,0.6920682787895203,-10.062698364257812,0.03931642059768977,1.4422513459494963,-0.0018627444720627677,5.931336419768707,133.8618991215986,-0.02199913686078078
1739326299.3971357,0.14125116169452667,0.7664148211479187,-10.082881927490234,0.04003924217686121,1.4424481101125988,-0.0014415224063137732,5.95175630384497,134.34183545838107,-0.022249851642429135
1739326299.4464107,0.110672727227211,0.837391197681427,-10.089762687683105,0.04076099206669464,1.4425586020813828,-0.0010187529495605122,5.972368335243241,134.82658745506586,-0.02250337117609371
1739326299.496256,0.06572577357292175,0.8845967650413513,-10.099000930786133,0.04148088116222417,1.4425709650133802,-0.000601767641620745,5.9968040853217355,135.4016398629869,-0.022804146929854975
1739326299.5463707,0.018990634009242058,0.9133139848709106,-10.090873718261719,0.04219926198769558,1.4424762445761194,-0.00019888584840232267,6.013876163650443,135.80363394888136,-0.02301424488910651
1739326299.596241,0.018990634009242058,0.9133139848709106,-10.090873718261719,0.04291691464679804,1.4422688014181118,0.00018077475278667908,6.0346569012967075,136.29320187411236,-0.023269684222886118
1739326299.646209,-0.06673149019479752,0.8874356150627136,-10.037099838256836,0.04363438959276211,1.4419465807031502,0.0005276873411871515,6.055724268063263,136.78978742579977,-0.023528090346816515
1739326299.6962864,-0.12169214338064194,0.8426270484924316,-10.00430679321289,0.04435123914031711,1.4415117558353432,0.000832738506991127,6.077944121489691,137.31381466165223,-0.0237997973457249
1739326299.746241,-0.13811713457107544,0.7671151161193848,-9.968453407287598,0.04506511687143217,1.4409714076525384,0.0010883243955734762,6.0979139909299125,137.78500977955576,-0.024043096936818047
1739326299.7962694,-0.1493227630853653,0.7002809047698975,-9.955233573913574,0.045771191090577014,1.4403371763435575,0.0012891375648076667,6.119029980918273,138.2834737367923,-0.024299291754692656
1739326299.846216,-0.15040071308612823,0.6226897239685059,-9.951838493347168,0.04646211475395291,1.439623861758745,0.001432419493792489,6.141393880139582,138.81163610625327,-0.024569311581550714
1739326299.8962808,-0.15040071308612823,0.6226897239685059,-9.951838493347168,0.04712832175417541,1.4388478709173054,0.0015178813189222744,6.161160663035602,139.27865862721598,-0.02480678330425701
1739326299.946226,-0.05682091414928436,0.516237199306488,-9.966471672058105,0.04775850712667793,1.4380260012847106,0.001547450701978393,6.182100330752589,139.77358175328484,-0.025057090992150793
1739326299.996224,0.002664412371814251,0.48774105310440063,-9.979833602905273,0.048340415327160796,1.437174469322464,0.0015249044232195483,6.20477498943444,140.30972073341877,-0.0253266819296322
1739326300.0461915,0.05699875205755234,0.47923052310943604,-10.01136302947998,0.04886191879791307,1.4363080776190622,0.0014554210574553794,6.22434364520634,140.7725844500855,-0.025558152911589395
1739326300.096224,0.11422158777713776,0.5081085562705994,-10.029829978942871,0.04931207715290711,1.4354397296941737,0.0013450796964608232,6.251663346080819,141.41902946411693,-0.025879555958479395
1739326300.1461737,0.1690293550491333,0.5690693259239197,-10.060548782348633,0.04968197094834781,1.4345804892891352,0.0012003501218291856,6.26857342169243,141.8192966108132,-0.026077526511016608
1739326300.1971285,0.20048083364963531,0.6424039602279663,-10.075177192687988,0.04996553029986055,1.4337398758284303,0.0010276407284595874,6.287946699246347,142.27799199608748,-0.026303514220075746
1739326300.2461183,0.21132273972034454,0.7271536588668823,-10.083026885986328,0.050160706048971646,1.4329257867528835,0.0008329764163755265,6.310489975521911,142.8119035660203,-0.026565500167766532
1739326300.296181,0.1868923306465149,0.787204384803772,-10.081500053405762,0.05027058452576978,1.432144199869104,0.0006218376860848747,6.331212296587842,143.3028375196282,-0.026805515035796448
1739326300.346186,0.16798441112041473,0.8502858877182007,-10.076321601867676,0.05030354654864391,1.431399469777356,0.00039912435498689616,6.353202895305471,143.82397272906815,-0.027059519743443554
1739326300.3961484,0.12633831799030304,0.8807302117347717,-10.046096801757812,0.05027244098247854,1.4306952179030639,0.0001692185145688457,6.373690119107518,144.3096228269767,-0.027295643811619204
1739326300.446192,0.07176649570465088,0.8910699486732483,-10.017905235290527,0.05019341130843366,1.4300351368447068,-6.382242245538688e-05,6.395051028373824,144.81612927349983,-0.027541455038426366
1739326300.4961603,0.02501000091433525,0.8809841871261597,-9.998915672302246,0.05008467734606422,1.4294233914052683,-0.00029595929724335253,6.421694159187673,145.44809573913483,-0.027847718459954773
1739326300.546149,-0.019489003345370293,0.8459241986274719,-9.978646278381348,0.04996534976067251,1.428864631234147,-0.000522862920177055,6.438209013747922,145.83993946942067,-0.028037464387111934
1739326300.596115,-0.06325758993625641,0.8089012503623962,-9.970680236816406,0.049854386319989154,1.4283636889874591,-0.0007396994589411474,6.460048747630903,146.35826328805916,-0.028288431190414885
