Timestamp,IMU_Linear_Acc_X,IMU_Linear_Acc_Y,IMU_Linear_Acc_Z,Filtered_X,Filtered_Y,Filtered_Z,Pose_X,Pose_Y,Pose_Z
1731474136.3090398,-0.3349152207374573,0.42120271921157837,-9.987563133239746,-2.653620162565873e-05,-7.628703901090239e-05,-7.604224032482402e-05,2.4432963692446124,8.166264284265857,0.8809999815546538
1731474136.3588867,-0.27416113018989563,0.43637028336524963,-9.988398551940918,-3.425371364192705e-05,-9.862882876584297e-05,-0.00010054567470034076,2.442205149594381,8.172817627331026,0.8809999811341923
1731474136.408835,-0.46316227316856384,0.3740302622318268,-9.99268913269043,-4.384116355499525e-05,-0.0001239986231334634,-0.0001299113217276198,2.4417079118483036,8.175803799176016,0.8809999808812938
1731474136.4588637,-0.7430660724639893,0.23497319221496582,-10.004386901855469,-5.5307477669203695e-05,-0.0001518301915433279,-0.00016462135168729622,2.44120215532951,8.178841130535037,0.8809999805711715
1731474136.5088224,-0.1835746020078659,0.5284029841423035,-9.957141876220703,-6.698794800235827e-05,-0.00018071721739273546,-0.00020521865442786548,2.439108463066284,8.191414841072367,0.8809999785277753
1731474136.5587819,-0.1835746020078659,0.5284029841423035,-9.957141876220703,-7.569476915585035e-05,-0.00020865106220844257,-0.00025219647571739234,2.437473886609802,8.201231319831667,0.8809999759558341
1731474136.6086814,-0.3212164640426636,0.5026140809059143,-9.98022747039795,-7.493708002782121e-05,-0.00025609423577539124,-0.00036648841512632686,2.3957611895389714,8.45173678293694,0.8809994462885345
1731474136.6586556,-0.3097893297672272,0.373074471950531,-9.942727088928223,-6.454239944167953e-05,-0.0002746292392631365,-0.0004344267876030593,2.353716209194716,8.704236067986951,0.8809979146066313
1731474136.7085814,-0.36415764689445496,0.45885133743286133,-10.01577377319336,-4.8168342239702076e-05,-0.0002895958708555039,-0.0005100301897227854,2.3117264762542877,8.956402019011156,0.880995206443771
1731474136.7586725,-0.3174515664577484,0.43460458517074585,-9.97563648223877,-2.671437789710062e-05,-0.0003010301180046605,-0.0005934826054687604,2.2695503339991165,9.209686129920847,0.8809911007247758
1731474136.808501,-0.37348827719688416,0.42250683903694153,-9.971975326538086,-1.152505229093751e-06,-0.00030904207203870214,-0.0006848726278355783,2.227710539794064,9.460949372728008,0.8809854390463099
1731474136.858473,-0.3333224654197693,0.4560640752315521,-10.020543098449707,2.759140656293006e-05,-0.00031385309853526036,-0.0007842438213409939,2.1856713367692175,9.713409560225838,0.8809779180682611
1731474136.9084017,-0.3716474175453186,0.4254069924354553,-9.993083000183105,5.871275599143082e-05,-0.00031579586545832085,-0.0008916464493799482,2.1420729771453413,9.975232899874568,0.8809679027213201
1731474136.9583972,-0.30855798721313477,0.4505065679550171,-9.975634574890137,9.154172219210017e-05,-0.00031532310806775353,-0.001007227857907736,2.101615161463619,10.218196486938051,0.880956330265906
1731474137.0092394,-0.30855798721313477,0.4505065679550171,-9.975634574890137,0.00012541537321388658,-0.00031302003818205827,-0.001131170069463024,2.058990938051729,10.47417099699493,0.8809414558984395
1731474137.0092394,-0.33945232629776,0.44332513213157654,-10.006049156188965,0.0001594728672009531,-0.00030962711005081116,-0.0012635538759766644,2.0586504503612337,10.476215758187625,0.8809413253643529
1731474137.0592687,-0.30693483352661133,0.45724576711654663,-9.974886894226074,0.0001925847827723523,-0.0003060575698823933,-0.001404360290436366,2.016838767877825,10.727312254280951,0.880923546483035
1731474137.1091747,-0.3404017686843872,0.42924872040748596,-9.97957992553711,0.00022343063969507785,-0.0003033690737875745,-0.0015535194575195198,1.9748792006443787,10.979299239399435,0.8809020270998056
1731474137.159192,-0.33027854561805725,0.4503231644630432,-9.993732452392578,0.0002505916492407562,-0.00030269606075654696,-0.001710883085854999,1.9328409017913035,11.231761814621585,0.8808763900182653
1731474137.2090607,-0.3312438130378723,0.4298307001590729,-9.984983444213867,0.0002726403697049325,-0.00030517317049772043,-0.0018762147118682568,1.8907185376438231,11.484732425024232,0.8808462034267046
1731474137.2591295,-0.32849225401878357,0.44427555799484253,-9.991825103759766,0.00028819948595540753,-0.00031188440157982897,-0.0020492387637684045,1.8488683353990751,11.736071995631345,0.8808113327200919
1731474137.308942,-0.3466336131095886,0.43178790807724,-9.988767623901367,0.00029595979222423407,-0.00032383586884511355,-0.002229672609609331,1.8068910356018784,11.98817841284556,0.8807710294106306
1731474137.3589773,-0.3226473927497864,0.4400995373725891,-9.986501693725586,0.0002947133870455941,-0.0003419379083038546,-0.002417229270472064,1.7648540292161279,12.240647083663887,0.8807248626765637
1731474137.4088914,-0.3401765823364258,0.42628738284111023,-10.006254196166992,0.0002833765795760261,-0.00036698833291769304,-0.002611624558381454,1.7228385626899332,12.492989775335058,0.880672436773698
1731474137.4588525,-0.32638588547706604,0.4399968981742859,-9.992179870605469,0.0002609743028415312,-0.0003996509642858684,-0.002812614605133221,1.6808502675489816,12.74517243376521,0.8806132758678674
1731474137.50879,-0.3352645933628082,0.4304140508174896,-9.980989456176758,0.00022662527757665428,-0.00044044781360812006,-0.0030200209353540533,1.6388916888621088,12.997179183281531,0.8805468884698118
1731474137.5588923,-0.33292460441589355,0.43939563632011414,-9.997173309326172,0.00017954287367619214,-0.0004897742575914831,-0.0032336834074889378,1.5967747494827782,13.250138950271344,0.8804724152448553
1731474137.6086698,-0.3363683819770813,0.4308415949344635,-9.980420112609863,0.00011904715994542892,-0.0005479175295177889,-0.003453402609182135,1.5544036215046326,13.504626414684891,0.8803890217700217
1731474137.6586838,-0.3302421271800995,0.4421899914741516,-9.979595184326172,4.457946490054385e-05,-0.00061506938342311,-0.0036789149637220433,1.512904662125578,13.753875235779343,0.8802985653307928
1731474137.7086177,-0.3302421271800995,0.4421899914741516,-9.979595184326172,-4.430387329539582e-05,-0.0006913503478881052,-0.00390985385377958,1.4709920874055697,14.005606727078272,0.8801978194916028
1731474137.7086177,-0.3371421694755554,0.43059173226356506,-9.996553421020508,-0.00014795040726591283,-0.0007768407131764918,-0.004145728309657558,1.46903545861474,14.017358390307466,0.8801928782422082
1731474137.758543,-0.3301190137863159,0.4375700056552887,-9.977168083190918,-0.0002666122524400423,-0.0008715767362689421,-0.004385967040964427,1.428956005088799,14.25807577233338,0.8800864477888064
1731474137.8085432,-0.34019094705581665,0.43010377883911133,-9.982741355895996,-0.0004004315153676699,-0.0009755161569560625,-0.004629957549657157,1.3869344640439232,14.510450170788287,0.8799638514780405
1731474137.8584952,-0.33192288875579834,0.43809831142425537,-9.991263389587402,-0.0005494287582556208,-0.0010885200244984405,-0.004877038235194227,1.3448895693401273,14.762955113603681,0.8798293035140732
1731474137.9083514,-0.34595686197280884,0.4304082989692688,-9.981121063232422,-0.0007134920112148631,-0.0012103583462165658,-0.005126505630313746,1.3017594496578357,15.021964695123764,0.8796782836479229
1731474137.9583144,-0.3420066237449646,0.443705290555954,-9.989968299865723,-0.0008923548519140347,-0.001340726605220329,-0.005377644350354713,1.261014418960549,15.266636323382226,0.8795229348953275
1731474138.0092392,-0.34163692593574524,0.42966023087501526,-9.989768028259277,-0.0010855713635329947,-0.001479269628340689,-0.005629745567796966,1.2182097825216633,15.523657219748593,0.8793458027335641
1731474138.0592258,-0.33824580907821655,0.44014066457748413,-9.97556209564209,-0.0012925202405022797,-0.0016255969747488459,-0.005882115850777333,1.1761650472227982,15.776093290667037,0.8791573184534766
1731474138.1091983,-0.341629296541214,0.4363786280155182,-9.98953914642334,-0.0015124406311243844,-0.0017792858194556195,-0.00613406256674122,1.134048628700372,16.028934374023287,0.8789534701388615
1731474138.1591976,-0.3402191698551178,0.43175989389419556,-9.978646278381348,-0.00174446404042325,-0.0019398847830721668,-0.0063848698820952975,1.0920575311165266,16.280994058181715,0.8787346199055375
1731474138.209059,-0.3476492762565613,0.432100772857666,-9.985774040222168,-0.0019876234456918974,-0.002106905866030537,-0.006633799389657317,1.050154931890954,16.532489657061927,0.8785000818501987
1731474138.2590916,-0.33999305963516235,0.4344528317451477,-9.983550071716309,-0.002240848623610726,-0.00227980410332574,-0.006880102367942036,1.00809513605553,16.78489170771957,0.8782478201958981
1731474138.3088815,-0.34422069787979126,0.4327370822429657,-9.9750337600708,-0.002502970942782347,-0.00245797565944179,-0.007123024608928069,0.9662316856867593,17.03607416844657,0.8779794048699401
1731474138.3589008,-0.3437175154685974,0.44072937965393066,-9.988846778869629,-0.0027727445836562372,-0.002640779202479772,-0.007361800523517209,0.9241478085532528,17.28853334414387,0.8776915480790615
1731474138.4087975,-0.3437175154685974,0.44072937965393066,-9.988846778869629,-0.0030488648599413717,-0.0028275722679511903,-0.00759566528370593,0.8817789522508187,17.54265119161633,0.8773828802416452
1731474138.4087975,-0.34332624077796936,0.4315757751464844,-9.98684024810791,-0.003329980040902008,-0.0030177450211868453,-0.007823903546160398,0.8814175707185388,17.544818436699156,0.8773801650637242
1731474138.458818,-0.33988749980926514,0.436118483543396,-9.992659568786621,-0.0036147104272220487,-0.0032107163757769284,-0.008045890646675762,0.8400292117040793,17.792998683567433,0.8770594256409081
1731474138.5087607,-0.3460216820240021,0.428290456533432,-9.99396800994873,-0.0039016725328767338,-0.003405899410977902,-0.008261110585069755,0.7979650963248555,18.045167006479854,0.8767133294043835
1731474138.5588555,-0.32766076922416687,0.4385663866996765,-9.993430137634277,-0.0041895054123617685,-0.003602677971376933,-0.00846917506185413,2.4244270787957314,8.407366395678057,0.8763448663981698
1731474138.6086557,-0.3306537866592407,0.4353063106536865,-9.987985610961914,-0.004476922053620266,-0.003800414714065106,-0.008669829372864899,2.4238467951499767,8.41417940911908,0.8759517795832646
1731474138.6586676,-0.3333236277103424,0.4373985528945923,-9.995209693908691,-0.004762776777604263,-0.003998480156633868,-0.008862930659972675,2.424397010651523,8.414366965432523,0.8755469235212316
1731474138.7086084,-0.3319365978240967,0.4339129328727722,-9.97912311553955,-0.00504609052868113,-0.004196272795615066,-0.009048415736597523,2.42332092427226,8.428222407715712,0.8751135991409155
1731474138.758562,-0.333381712436676,0.4398839473724365,-9.9823637008667,-0.005326029962376041,-0.004393221115951808,-0.00922625555581957,2.4226007001668632,8.437024899375627,0.8746600035163129
1731474138.8085184,-0.3302189111709595,0.438150554895401,-9.991358757019043,-0.005601886273970977,-0.004588789346356259,-0.009396406373611997,2.4218638127673096,8.445853452984787,0.874181286771635
1731474138.8586066,-0.3308621346950531,0.44120118021965027,-9.983616828918457,-0.005873068938136205,-0.004782494593288073,-0.009558806062256574,2.421109742365949,8.454703488007295,0.8736769677684061
1731474138.8586066,-0.3308621346950531,0.44120118021965027,-9.983616828918457,-0.006139104579891496,-0.004973922940717535,-0.009713397695327634,2.4233037829084454,8.429024217638602,0.8735147935134837
1731474139.2399957,-0.3376094102859497,0.43933042883872986,-9.987139701843262,-0.006399624692672976,-0.00516273650202173,-0.009860128451278182,2.4209642485778646,8.45487912694514,0.8690363489035005
1731474139.2900891,-0.3423849642276764,0.43753117322921753,-9.985186576843262,-0.0066543256896223445,-0.005348665882531325,-0.00999894327259606,2.4206686225896408,8.456984090636139,0.8683190913381595
1731474139.3398674,-0.34360605478286743,0.4366273581981659,-9.992426872253418,-0.006902907275891921,-0.005531487462206149,-0.010129800015639331,2.4212338602051258,8.455226146049023,0.867582803557506
1731474139.389985,-0.3389294445514679,0.4368346929550171,-9.979833602905273,-0.0071450254088150315,-0.005710998876078365,-0.010252687605260949,2.420891309783431,8.459131507857508,0.8668155460839575
1731474139.4397805,-0.3331068754196167,0.42958614230155945,-9.990646362304688,-0.007380295617737151,-0.0058869988135333215,-0.010367623979144789,2.4205221885082797,8.463109771917027,0.8660042434138047
1731474139.4898527,-0.335146963596344,0.4248596131801605,-9.98840618133545,-0.007608340028437919,-0.006059254774461832,-0.010474647686815634,2.420150134262157,8.466906185800962,0.8652013786604148
1731474139.539713,-0.3328384459018707,0.4296468496322632,-9.984148025512695,-0.007828833726868255,-0.006227458492291322,-0.010573825036831215,2.4203301808210775,8.46658294061826,0.8643676179148314
1731474139.5897124,-0.3308675289154053,0.4361976087093353,-9.986226081848145,-0.008041526112797025,-0.006391212840025671,-0.010665250271879766,2.419039670921411,8.477456793733849,0.8634881067460417
1731474139.639718,-0.3300713300704956,0.44613346457481384,-9.986385345458984,-0.008246252322129232,-0.006550085125400153,-0.010749029722612189,2.4184113079823035,8.482869757076648,0.8625971262745329
1731474139.6895943,-0.3355879783630371,0.4400116503238678,-9.9830961227417,-0.008442938940155973,-0.006703696772092907,-0.010825273445676905,2.4177592651940554,8.48829176156312,0.8616751644788154
1731474139.7396622,-0.3371192514896393,0.4425605237483978,-9.980547904968262,-0.008631585152247975,-0.006851782274010014,-0.010894087013987657,2.417080996875207,8.49373616419379,0.8607191703603877
1731474139.789675,-0.33719924092292786,0.4419511556625366,-9.980554580688477,-0.008812223054325248,-0.006994193592876139,-0.010955549815067309,2.4163871130024104,8.499114268782241,0.8597445744575353
1731474139.8395355,-0.3354564905166626,0.445912629365921,-9.973817825317383,-0.008984888266050746,-0.0071308874628832316,-0.011009690013329593,2.415668122228183,8.504497230164937,0.8587384978603425
1731474139.8896139,-0.3405797779560089,0.44538143277168274,-9.989174842834473,-0.009149611902310933,-0.0072619255535323005,-0.011056472967854544,2.418132509320285,8.488764109539476,0.8577069788197094
1731474139.9394777,-0.33414551615715027,0.4462050497531891,-9.99086856842041,-0.009306418242254626,-0.007387479531840143,-0.011095832914366634,2.4178646208381807,8.491335046024044,0.8566443840864968
1731474139.9894018,-0.3440423011779785,0.44702938199043274,-9.984944343566895,-0.00945532063845073,-0.0075078282419052695,-0.011127741587827202,2.4172881216259037,8.498859736490555,0.8555631134311071
1731474140.0392613,-0.32870543003082275,0.43953606486320496,-9.982325553894043,-0.00959632153053337,-0.007623341716829817,-0.011152241399822913,2.4169395730355334,8.502477938322786,0.8544477235065311
1731474140.089296,-0.34796392917633057,0.4402678906917572,-9.993621826171875,-0.009729419635088743,-0.007734444692617169,-0.011169426875841708,2.416565797395174,8.506087462513571,0.8533011153740455
1731474140.1402464,-0.33399584889411926,0.432169646024704,-9.98773193359375,-0.009854609449946029,-0.007841562806734105,-0.011179441054474217,2.416160593284935,8.509737209950908,0.8521066225149836
1731474140.1902158,-0.339699923992157,0.42898687720298767,-9.98838996887207,-0.00997187225532617,-0.007945063872886548,-0.011182496029962349,2.416558035719714,8.513194426701688,0.8509086111757166
1731474140.2401154,-0.34191736578941345,0.42445263266563416,-9.988052368164062,-0.010081178655085232,-0.008045199525296394,-0.011178872491181461,2.4162981729279203,8.516968655911159,0.8496772921727104
1731474140.2900033,-0.32970547676086426,0.4250764548778534,-9.985917091369629,-0.010182498769552654,-0.008142058943420821,-0.011168899272732619,2.415862579356606,8.523555437403012,0.8484283732806657
1731474140.3400288,-0.32910072803497314,0.4251329004764557,-9.99003791809082,-0.01027583040132574,-0.008235552025477134,-0.011152937202470816,2.415065210319614,8.535738169455453,0.847137852145819
1731474140.3900661,-0.3384392559528351,0.42610400915145874,-9.983735084533691,-0.010361244709398702,-0.00832542353512555,-0.01113137061509752,2.414487849226553,8.54393144025043,0.8458279229924891
1731474140.439955,-0.3377346694469452,0.435489296913147,-9.978569030761719,-0.010438889854304734,-0.008411292422321606,-0.011104589652294631,2.4138825022549706,8.552131533556096,0.8444857287478098
1731474140.4899478,-0.33423569798469543,0.4322376847267151,-9.991771697998047,-0.010508949433115458,-0.008492713407758024,-0.01107296028571252,2.4152830836520596,8.562574429933303,0.8431072595737306
1731474140.5398195,-0.3368098735809326,0.4413033127784729,-9.979137420654297,-0.010571619344603309,-0.008569244131827228,-0.011036816118551906,2.415171490539161,8.570079382915559,0.841729380419063
1731474140.5896668,-0.32903242111206055,0.43979355692863464,-9.979314804077148,-0.010627117699783912,-0.0086405001302551,-0.010996464090587648,2.4150333753799313,8.577598000449644,0.8403180880712876
1731474140.6397073,-0.33598414063453674,0.4474576413631439,-9.982017517089844,-0.010675703233795134,-0.008706199861809793,-0.010952165590252434,2.414867103985777,8.585178061256522,0.8388637563468848
1731474140.6897366,-0.341476172208786,0.44930747151374817,-9.990230560302734,-0.010717675249589977,-0.00876620556082208,-0.010904127625053512,2.4148746280675977,8.589711789499484,0.8373850097148904
1731474140.7397206,-0.3397352695465088,0.44789478182792664,-9.97748851776123,-0.010753337085972283,-0.008820555008154915,-0.01085253334204893,2.414722768509234,8.597147373563008,0.8358760792358023
1731474140.7895658,-0.3330007493495941,0.44037196040153503,-9.997563362121582,-0.010782959698471945,-0.008869461329150258,-0.01079757262679632,2.414545492780089,8.604497357228887,0.8343532087720843
1731474140.8395772,-0.03880907967686653,0.5903394818305969,-9.978856086730957,-0.010807058304625165,-0.008913399950595965,-0.010739460126696939,2.4143384531467014,8.611929535811003,0.8327814865566437
1731474140.8895676,-0.0758434385061264,0.5316457748413086,-10.008713722229004,-0.010827413677812406,-0.008953507644019601,-0.010678460971245172,2.4124580632467145,8.618774600564471,0.8312113451548
1731474140.9393978,0.48951706290245056,0.8079436421394348,-9.981762886047363,-0.010848847371161494,-0.008992287699249119,-0.01061492541246775,2.411865806283586,8.62673427655925,0.8296028193092777
1731474140.9892786,0.48951706290245056,0.8079436421394348,-9.981762886047363,-0.010881597358341238,-0.009034581620616995,-0.010549288981243122,2.410533283696474,8.649638644042097,0.8279748808318576
1731474140.9892786,0.7771492004394531,0.6103816628456116,-10.015816688537598,-0.010943803935114653,-0.009088389413785014,-0.010482032262766281,2.4105288052063014,8.649706472884908,0.8279645032786738
1731474141.0394018,0.1431780755519867,0.499295175075531,-10.044015884399414,-0.011062537510594116,-0.009164417125014531,-0.010413747845423692,2.409799328059639,8.660530817268528,0.8262934454447024
1731474141.0892773,0.413790225982666,0.48516714572906494,-9.909783363342285,-0.011272106330234736,-0.009274294356607399,-0.010345257856493765,2.4090488662874323,8.671232054546982,0.8246120750485635
1731474141.1401522,0.038903508335351944,0.3011943995952606,-9.996171951293945,-0.01161073988015909,-0.009428747019203031,-0.010277439931385655,2.407957938086485,8.66897076998222,0.8228703539112932
1731474141.1902132,0.22217567265033722,0.33590275049209595,-10.001534461975098,-0.012117707226162231,-0.009636292922639036,-0.010210932342820743,2.407091878493032,8.6764843554526,0.8211234090449299
1731474141.2402446,0.017560504376888275,0.20069876313209534,-9.97430419921875,-0.0128314344485994,-0.00990229977588457,-0.010146166131221218,2.405078569922344,8.660834727992883,0.8193468920409032
1731474141.2901216,-0.7728275656700134,-0.02461777999997139,-9.977519989013672,-0.013787473523882411,-0.010228184069814844,-0.0100835149782662,2.403716091404344,8.660711240536694,0.8175605429026079
1731474141.3400016,-1.2074174880981445,-0.021463442593812943,-10.009428024291992,-0.01501433885279569,-0.010610376296322808,-0.010023289348398749,2.4032436687879053,8.659203456956877,0.8157458212115501
1731474141.3900766,-0.23980385065078735,0.27316224575042725,-9.937684059143066,-0.016528527359769833,-0.011039687677213833,-0.009965716251765979,2.4020727512436943,8.65873703344643,0.8139063078549144
1731474141.4400213,-0.7082184553146362,0.12128511071205139,-10.163931846618652,-0.018333638342303005,-0.011502247157444322,-0.009911052950621245,2.400852890402698,8.658240267698682,0.8120336410009955
1731474141.4898539,-0.29287877678871155,0.4290388226509094,-9.929959297180176,-0.020423721424113986,-0.01198148062863464,-0.00985991204526597,2.403766576547107,8.627107361682352,0.8101542398481786
1731474141.5398967,-0.5628702044487,0.09986446797847748,-10.001678466796875,-0.02278641073526288,-0.012459758001599874,-0.009813412970663231,2.4035389975800783,8.619953911243865,0.8082282879786397
1731474141.5897396,-0.3513105511665344,0.46714502573013306,-10.08678913116455,-0.025404498296784372,-0.012919285628234273,-0.009772911178332561,2.4032540630432555,8.612845499538679,0.8062986331975036
1731474141.6397777,-0.5107159614562988,0.16161222755908966,-9.946783065795898,-0.028256922950177624,-0.013342591796346925,-0.009739872149377295,2.3984813238528724,8.597450090184198,0.8043297352559108
1731474141.6896517,-0.4068586826324463,0.43703973293304443,-9.962201118469238,-0.031319495496330764,-0.013712927854461363,-0.00971585010971532,2.3968357379737584,8.587256550090537,0.8023460005007328
1731474141.7396317,-0.49801453948020935,0.2526971399784088,-10.004266738891602,-0.03456544905744649,-0.014014588857500286,-0.009702159586450768,2.395096138349787,8.576957919160396,0.8003242245856965
1731474141.789641,-0.37864023447036743,0.4197238087654114,-9.953781127929688,-0.03796595729975378,-0.014233186059606478,-0.00969965216538662,2.3932817981530414,8.566714998446558,0.7982961732185424
1731474141.8394883,-0.42949461936950684,0.29616859555244446,-9.941106796264648,-0.041490778984665036,-0.014355878318669482,-0.009708733341678245,2.395557265282699,8.569698013865793,0.7962378534416319
1731474141.8893626,-0.41107162833213806,0.3372349739074707,-10.000696182250977,-0.04510895900036506,-0.014371425922346477,-0.009729319127648265,2.3900793847427604,8.530066118514917,0.7941638037370743
1731474141.9393225,-0.3805420398712158,0.7001015543937683,-9.957939147949219,-0.04878937218687175,-0.014270388904846344,-0.009760867965370248,2.387190726737568,8.509887901346021,0.7920513786384148
1731474141.9893405,-0.4000968039035797,0.667378306388855,-9.877378463745117,-0.0525011534708805,-0.014046240602932327,-0.009802454026091898,2.38542036828432,8.498240597727827,0.7899180687519605
1731474142.0393183,-0.4000968039035797,0.667378306388855,-9.877378463745117,-0.0562140761223764,-0.013696955829633338,-0.009852512929018958,2.3823412212239656,8.477943609722278,0.7877470987075428
1731474142.0393183,-0.4872780740261078,1.1421082019805908,-9.997286796569824,-0.0598987102988503,-0.01322602288760033,-0.009908525078443337,2.382319806309724,8.477805531036694,0.7877322573423197
1731474142.0892508,-0.4453103244304657,0.9864438772201538,-9.849359512329102,-0.06352630449299501,-0.012643418705083623,-0.009967156703283877,2.379146524648759,8.457831595378563,0.78557480472604
1731474142.139246,-0.5104879140853882,0.7967690229415894,-10.028023719787598,-0.06706861747270201,-0.011966378597215888,-0.01002462415419024,2.3828714123835555,8.4912158004544,0.7833607474428327
1731474142.1901712,-0.3782177269458771,0.7711344957351685,-9.996058464050293,-0.0704979799872444,-0.01121831499880395,-0.01007705466314698,2.3814160010020142,8.485112826648377,0.7810874345985239
1731474142.2401364,-0.4499201774597168,0.7072227597236633,-10.010408401489258,-0.0737876925134731,-0.010426345116073262,-0.010120986281005547,2.382113092791117,8.464943885480947,0.7788240142059196
1731474142.2900872,-0.3696022629737854,0.713841438293457,-10.044113159179688,-0.07691256749235813,-0.009619254364920308,-0.010153770723130005,2.3810956055686434,8.452918838571266,0.776547587964398
1731474142.3400176,-0.42195576429367065,0.5679761171340942,-9.984193801879883,-0.0798493290619869,-0.008826200543162136,-0.01017367860833078,2.379871786205145,8.440759694767426,0.7742246258750607
1731474142.3899982,-0.30900314450263977,0.6061761379241943,-10.027217864990234,-0.08257688091882259,-0.008075599926941755,-0.010179816365173962,2.3784598668203443,8.428713563479933,0.7719020003522759
1731474142.4399173,-0.36433690786361694,0.5541598200798035,-9.993165969848633,-0.08507661324566339,-0.007394151397029269,-0.010171953475974459,2.381362351049145,8.450087604820496,0.7695364941592352
1731474142.4898849,-0.3449501693248749,0.5600143671035767,-10.049895286560059,-0.08733266036892344,-0.006806248020587519,-0.010150408603215711,2.380745706752027,8.445148493449139,0.7671545302323503
1731474142.5398262,-0.3187732696533203,0.5636372566223145,-10.002037048339844,-0.08933194118077693,-0.006333734294567508,-0.010116048944240091,2.379227101913859,8.422742145832025,0.7647469708647447
1731474142.5898345,-0.30297085642814636,0.5662887096405029,-10.012564659118652,-0.09106413258404593,-0.005995860904947732,-0.010070264164279332,2.3771972503336185,8.395734707265392,0.7623176800828022
1731474142.6396751,-0.3056734502315521,0.5174658894538879,-10.006267547607422,-0.09252172338922796,-0.005809329798637975,-0.010014825198705977,2.375505002241513,8.377948241427413,0.7598463427112682
1731474142.689624,-0.32618317008018494,0.5069574117660522,-9.982719421386719,-0.09369998736717607,-0.00578823960281986,-0.00995170338888847,2.373595045946145,8.360291281088553,0.7573701903414497
1731474142.7396877,-0.273434042930603,0.514680802822113,-9.964303016662598,-0.09459680424667012,-0.00594393138434214,-0.009882881313856074,2.371426168925562,8.342417434043535,0.7548407242048556
1731474142.7895157,-0.2996521592140198,0.5227103233337402,-9.985552787780762,-0.09521250199933057,-0.006284968548431613,-0.009810144135130369,2.374559111138816,8.384167789614393,0.7523313411528718
1731474142.8395174,-0.3358599841594696,0.5379204750061035,-9.958097457885742,-0.09554971868407361,-0.006817343111920694,-0.009734953297235617,2.3733078400116234,8.37774176998622,0.7497487879623612
1731474142.8894358,-0.336078017950058,0.4931144118309021,-9.98670482635498,-0.0956130776680123,-0.0075447491725263455,-0.009658434574407336,2.371843474138715,8.371415889507816,0.747192982064413
1731474142.939421,-0.33337661623954773,0.5128029584884644,-10.005820274353027,-0.09540874931884691,-0.008468736328519756,-0.009581448924128197,2.370117302936949,8.36497241423719,0.7445703382377573
1731474142.989331,-0.3498041331768036,0.4721747934818268,-9.94282341003418,-0.09494414102566838,-0.009588742288491894,-0.00950471026300701,2.3681761589205235,8.358584458581639,0.7419557476659228
1731474143.0392566,-0.32534632086753845,0.5132566094398499,-9.986802101135254,-0.09422772267147131,-0.010902138757913842,-0.009428794334413045,2.365979189649554,8.352107095787165,0.7392913843593933
1731474143.0892653,-0.3674081265926361,0.5218324065208435,-10.014200210571289,-0.09326889120410951,-0.012404411354640994,-0.009354090726190992,2.3635626735755695,8.34564049916402,0.7366239688022798
1731474143.1392438,-0.40713658928871155,0.5078936219215393,-9.99518871307373,-0.0920777597857563,-0.014089479689233938,-0.009280935941699845,2.360897115978648,8.33909669122518,0.7339111016718689
1731474143.1901145,-0.3748840391635895,0.5032426118850708,-9.95654582977295,-0.09066481183584005,-0.01594998054888781,-0.00920976361437594,2.3579720632228343,8.332448148830721,0.7311515594836728
1731474143.2401328,-0.41319382190704346,0.513997495174408,-10.000679969787598,-0.08904060559104385,-0.017977407970027885,-0.00914102066922968,2.354851646601964,8.32582698547469,0.72839844478619
1731474143.2901106,-0.4174082279205322,0.5009680390357971,-9.988465309143066,-0.08721563307823192,-0.020162222469641826,-0.009075055069569703,2.351519947730458,8.319180108941937,0.7256269976500188
1731474143.3401623,-0.4119400978088379,0.5024043917655945,-9.968817710876465,-0.08520020964760949,-0.022493983295834553,-0.009012146320289571,2.3479584500050192,8.312453057818521,0.7228217454154913
1731474143.3899338,-0.3861069083213806,0.4877097010612488,-9.973749160766602,-0.08300442707828437,-0.024961448551658574,-0.008952503431398771,2.3442326587380133,8.305749510991204,0.7200285401482722
1731474143.4400024,-0.3813762664794922,0.4656544327735901,-10.00214672088623,-0.08063827877038274,-0.027552616241402338,-0.008896205085302512,2.340239483949402,8.29886551699672,0.7171709285161545
1731474143.489819,-0.3586125075817108,0.4547431170940399,-9.964475631713867,-0.07811187937130856,-0.030254700762754452,-0.008843230488204375,2.3361077882546852,8.292014095643177,0.7143290604087427
1731474143.5397732,-0.3363964855670929,0.4302753210067749,-9.970362663269043,-0.0754356785200005,-0.03305407154322642,-0.008793496571018362,2.3317421469905035,8.285013887834946,0.7114362667832923
1731474143.5897393,-0.3230259418487549,0.4246014356613159,-10.018203735351562,-0.07262066397001282,-0.03593620506768976,-0.008746834803699352,2.3272282365465258,8.277981761124117,0.7085501709219202
1731474143.6397502,-0.3195480704307556,0.4174511432647705,-9.99730110168457,-0.06967852522663247,-0.038885688860037515,-0.008703080082271076,2.3224875313675835,8.270784042679093,0.7056065068493705
1731474143.6896462,-0.29733991622924805,0.400546669960022,-9.969202995300293,-0.06662172672082156,-0.04188629220710442,-0.008662215995743712,2.317623213785482,8.263555697672468,0.7026698070734921
1731474143.7396011,-0.2849956750869751,0.3818894624710083,-10.001726150512695,-0.0634635277173107,-0.04492105560591049,-0.008624344189681447,2.312547736798031,8.256143350183306,0.6996880512754363
1731474143.789569,-0.2620607912540436,0.3989132344722748,-10.011852264404297,-0.06021801482504203,-0.04797236966397954,-0.008589606424696616,2.3073776651625226,8.248705697646605,0.6967141938261768
1731474143.8395295,-0.3114404082298279,0.37750130891799927,-9.98075008392334,-0.056900090924779066,-0.05102210783951246,-0.00855823946627458,2.3020343528759444,8.241100633641118,0.6937089876962211
1731474143.8895874,-0.29066282510757446,0.38888999819755554,-10.001361846923828,-0.05352528983074664,-0.054051824574363215,-0.00853060927851721,2.2965431351940446,8.233354704190658,0.6906710704599264
1731474143.939539,-0.31284046173095703,0.36997202038764954,-10.00731372833252,-0.05010945602693809,-0.0570429484491964,-0.008507162605400399,2.2909139282136612,8.225458130716673,0.6876073486866819
1731474143.9893997,-0.27976566553115845,0.3753986358642578,-10.026233673095703,-0.04666848358160552,-0.059976942702380256,-0.008488454038703533,2.2852054473686567,8.217473650828953,0.6845447792244465
1731474144.0392823,-0.2954639196395874,0.3394887149333954,-9.958551406860352,-0.043218195442060195,-0.06283542297436266,-0.00847520586596712,2.279370862375652,8.20931037107274,0.6814599252279135
1731474144.089266,-0.5322554707527161,-0.19363191723823547,-10.011695861816406,-0.03977406535773089,-0.0655997236724966,-0.008468217325208867,2.2734251878743357,8.200982221053614,0.6783433783565536
1731474144.139285,-0.4975226819515228,-0.47324222326278687,-10.109478950500488,-0.0363503234504647,-0.06824882391001855,-0.00846832703387333,2.267369122373626,8.192458484229396,0.6752045916163352
1731474144.1902807,-0.6517626047134399,-0.1517183631658554,-10.05496883392334,-0.0329586922502943,-0.07075627414628907,-0.008476755409027158,2.2610954209119996,8.183581610872134,0.6719705371760233
1731474144.2401178,-0.7958483099937439,-0.4603233337402344,-10.047149658203125,-0.029607292587789477,-0.0730888084439543,-0.008495481460958389,2.2549052245722736,8.17474560589134,0.6688060149433197
1731474144.2899477,-0.3774668574333191,0.1904527246952057,-9.920002937316895,-0.02630005388642334,-0.07520757388390409,-0.008527060597807752,2.248680847920068,8.165784298014666,0.6656310632644924
1731474144.3399312,-0.7103548049926758,-0.2533815801143646,-10.023809432983398,-0.023037227703731372,-0.07707072303075452,-0.008573984486449329,2.2423086541821666,8.156499355759339,0.6623984212980579
1731474144.389945,-0.5084047317504883,0.20593859255313873,-9.930323600769043,-0.019816546779261514,-0.07863600311006963,-0.008638177413046268,2.235901719935819,8.147055611380306,0.6591462774444302
1731474144.4399543,-0.6116470098495483,0.06604569405317307,-9.929553985595703,-0.01663386836399859,-0.07986267526569711,-0.008720806820697547,2.2294564512262913,8.137413940545441,0.6558841051704198
1731474144.489831,-0.5259138345718384,0.24936124682426453,-9.96333122253418,-0.013483506309560397,-0.08071308713200513,-0.008822154265806854,2.223001695568318,8.12761355974592,0.6526145378125118
1731474144.5398407,-0.5633005499839783,0.1612505167722702,-9.892698287963867,-0.010358704894637001,-0.08115394698115869,-0.00894154485665347,2.216483981416035,8.117571537566537,0.6492977859850341
1731474144.5897121,-0.5227437615394592,0.1753193736076355,-9.91405963897705,-0.007252087439546974,-0.08115689394765906,-0.009077348719675995,2.209954644118773,8.107342801575747,0.645963810520908
1731474144.6397834,-0.530639111995697,0.1455938071012497,-9.948212623596191,-0.004156026374371724,-0.08069843276027855,-0.009226981257661209,2.20341401246662,8.096916829787114,0.6426085072906449
1731474144.6897333,-0.4877649247646332,0.19532594084739685,-9.93302059173584,-0.0010629835780630972,-0.07975961940914231,-0.00938706962674437,2.196871413525242,8.086283681638157,0.6392412513656661
1731474144.7396362,-0.4850020408630371,0.15887004137039185,-9.961091995239258,0.002034142831279541,-0.0783258525435023,-0.009553772680420743,2.1903259412551557,8.075461001850243,0.63583939786876
1731474144.7895703,-0.042006008327007294,0.42955347895622253,-9.968608856201172,0.005141304340169665,-0.07638698837241606,-0.009723059918783795,2.1837987016682354,8.064461265610896,0.6324184045313435
1731474144.8395107,0.20982344448566437,0.5299987196922302,-9.996824264526367,0.008261373274228224,-0.07393812973036958,-0.009890964908722561,2.1772733065589294,8.053231210144276,0.6289745420042683
1731474144.8894217,-0.2961362600326538,0.27400559186935425,-10.028383255004883,0.011391634817342346,-0.07098072749329022,-0.010053879617691178,2.170785239415897,8.04185998628029,0.6255032570060555
1731474144.9395008,-0.07620701938867569,0.45252323150634766,-9.962984085083008,0.014523283754194979,-0.06752266268193494,-0.010208803485264838,8.860639142226194,1.7120234185389047,0.6220049931342139
1731474144.989377,-0.3626199960708618,0.24273060262203217,-10.05359172821045,0.017643299251650472,-0.06357719603647005,-0.010353414923231885,8.86202847523924,1.714192460744877,0.6184783444138336
1731474145.0394049,-0.3626199960708618,0.24273060262203217,-10.05359172821045,0.020736639058828485,-0.05916171203767487,-0.01048611244280122,8.871643391665193,1.7118836806586766,0.6149439786861638
1731474145.0394049,-0.1496284306049347,0.48473837971687317,-10.041500091552734,0.023787716076733745,-0.05429671915060855,-0.010606200980613475,8.871647408432658,1.7119074764296678,0.6149239521729701
1731474145.0892012,-0.3409866988658905,0.2217046469449997,-10.007319450378418,0.026780888979380225,-0.04900549987280921,-0.01071396139870221,8.872390125429897,1.7160510638225404,0.6113725188325841
1731474145.1393504,-0.19522902369499207,0.4383619427680969,-10.02239990234375,0.029700316833452468,-0.043314098310463206,-0.010810411851669905,8.87330383857059,1.7205599907624576,0.6077548814996911
1731474145.1891997,-0.3174585700035095,0.26658883690834045,-9.997493743896484,0.03253003466212321,-0.037250977296542,-0.010896993084513648,8.874084787964911,1.7251369092878608,0.6041417377087467
1731474145.2401588,-0.2567730247974396,0.41878947615623474,-9.975645065307617,0.03525427293371421,-0.030846570244202356,-0.010975329913569745,8.874972945511624,1.7297453777593361,0.6004068086325013
1731474145.290124,-0.31867489218711853,0.322895348072052,-10.004502296447754,0.037857786189141984,-0.02413298176313563,-0.011047023944650663,8.875933830604692,1.7341854199070532,0.5967246279154346
1731474145.3400424,-0.2900391221046448,0.4151308536529541,-9.99188232421875,0.040326169553232066,-0.017143757964437078,-0.011113539126560903,8.875221546045179,1.7464682394266344,0.5930207291255206
1731474145.390102,-0.331870973110199,0.35072141885757446,-9.961592674255371,0.04264610964028541,-0.009913671727135552,-0.01117618899714145,8.875933916419116,1.7529758232704118,0.5892636088525594
1731474145.4399805,-0.31109046936035156,0.4003080129623413,-9.982954025268555,0.04480557926365373,-0.002478461869034407,-0.011236071260144982,8.87671551061752,1.7750133332551115,0.5855238040506858
1731474145.4899025,-0.3297779858112335,0.40445318818092346,-9.977746963500977,0.046793971452013486,0.005125440173919537,-0.011293977283716504,8.877554810414278,1.786275055275824,0.58171789925475
1731474145.5398126,-0.3312694728374481,0.4171616733074188,-9.975252151489258,0.04860216535238255,0.012861104522594372,-0.011350403215522772,8.878510289072622,1.7975237736383913,0.5778957505933419
1731474145.589731,-0.3365127444267273,0.42672958970069885,-9.98169231414795,0.05022256465951487,0.02069124138218502,-0.011405607030675063,8.879181592254968,1.8111415468921144,0.5740748204117462
1731474145.6397784,-0.6444383859634399,0.252627432346344,-9.986760139465332,0.051649397185847705,0.028578534388574516,-0.011459656119468217,8.880107169569516,1.8221780568152082,0.5701596612848399
1731474145.6896195,-0.5891392230987549,0.3251998722553253,-9.954066276550293,0.05287970843803908,0.03648641018821529,-0.011512465141428625,8.881151393729274,1.8331600279974007,0.5662639645240428
1731474145.739691,-0.7718563675880432,0.09749940782785416,-9.974160194396973,0.053914713297699896,0.04438008049180673,-0.011563768933489595,8.882340266404725,1.8443551525476,0.5622997127566579
1731474145.7895942,-0.46285444498062134,0.407083123922348,-9.982929229736328,0.05476044120563324,0.052227354695147506,-0.011613080945951319,8.880811794894043,1.8469474078641244,0.5583664402789222
1731474145.839546,0.17480438947677612,0.5993920564651489,-9.956948280334473,0.055426411594280134,0.05999838899685043,-0.01165973667625749,8.88154338427173,1.857379854715401,0.5543467906105936
1731474145.8895202,-0.4296962022781372,0.3416212499141693,-10.036373138427734,0.05592227774275961,0.06766425048706447,-0.011702997662486163,8.882405545437127,1.892952270076084,0.5503626395609925
1731474145.9394314,-0.10667605698108673,0.5735830664634705,-9.944799423217773,0.056255279859370406,0.07519585461708536,-0.011742185681125426,8.883418933328066,1.9088828023976936,0.5462781181018279
1731474145.9893925,-0.4261827766895294,0.25164923071861267,-9.998679161071777,0.05643042851884636,0.08256418699262581,-0.01177674564239764,8.884560470231865,1.9128826035172704,0.5422356660319857
1731474146.0393891,-0.1757666915655136,0.5858380794525146,-10.030649185180664,0.056451652626833916,0.08974099397472694,-0.01180622668406026,8.885854666152065,1.9255990522437554,0.5380998938075926
1731474146.0892906,-0.36952340602874756,0.26452311873435974,-9.984543800354004,0.056322383802679385,0.0966992399134751,-0.011830380581636756,8.88727562200653,1.9384182295886228,0.5339765717011454
1731474146.1392066,-0.2180897742509842,0.5275964140892029,-9.984308242797852,0.056045748074818616,0.10341334359988928,-0.011849254630888095,8.88884173252447,1.9515372259463055,0.5298073109716563
1731474146.1892066,-0.35027265548706055,0.3020928204059601,-9.998504638671875,0.05562467030748651,0.10985939177965723,-0.011863075794726907,8.890547949870653,1.9649309067785203,0.5256056101442687
1731474146.2392662,-0.24522694945335388,0.4789474606513977,-9.97572135925293,0.055061995151340616,0.1160153282404655,-0.011872115793848914,8.892404314959768,1.9352838756349175,0.5213737196451927
1731474146.2900531,-0.32880857586860657,0.3587845265865326,-9.992473602294922,0.05436059536015359,0.1218610521606385,-0.011876651120400487,8.894416836377124,1.942112456038149,0.5170475606379366
1731474146.3401139,-0.28920209407806396,0.4533703923225403,-9.996732711791992,0.05352346118827159,0.1273784303131913,-0.01187695354318347,8.89654656922126,1.9467523521539323,0.5127597756578305
1731474146.3900425,-0.32036682963371277,0.38436904549598694,-9.975886344909668,0.05255381499991921,0.13255126815566307,-0.011873307750593762,8.898793643074857,1.9536932217960037,0.50844564065491
1731474146.4399643,-0.3222068250179291,0.4288286566734314,-9.992498397827148,0.051455234403508694,0.13736531041472916,-0.011866010997077575,8.901185989412726,1.9610184558134838,0.5040732243751759
1731474146.4898868,-0.3282969295978546,0.4256960153579712,-9.982223510742188,0.05023175889132883,0.14180824347122425,-0.011855338276659315,8.903685220770994,1.9686309236198056,0.4997069592655185
1731474146.5398424,-0.3342430889606476,0.41899538040161133,-9.977553367614746,0.04888797488767775,0.14586964390955448,-0.011841521817178995,8.906327319690194,1.9678553372647203,0.49530786175700436
1731474146.5898244,-0.3272224962711334,0.4375999867916107,-9.990431785583496,0.04742904927508207,0.14954090935151337,-0.011824737140193012,8.90906710827556,1.9867489949079797,0.490917913824478
1731474146.6398294,-0.3272224962711334,0.4375999867916107,-9.990431785583496,0.04586069729888898,0.15281520240288118,-0.011805110598195612,8.91195077207238,1.9962356203692881,0.48642382717116583
1731474146.6398294,-0.348007470369339,0.42216381430625916,-9.980985641479492,0.044189124223994625,0.15568739126869557,-0.011782762150962939,8.911984231831141,1.996345725215877,0.4863725456890124
1731474146.6897447,-0.3311549723148346,0.43346843123435974,-9.981561660766602,0.04242099974594525,0.15815403144884949,-0.011757815444110888,8.91491228685419,2.0060034704545693,0.4819498422094811
1731474146.7396312,-0.3635404109954834,0.40990909934043884,-9.988479614257812,0.04056346274388409,0.160213400135975,-0.011730366558506013,8.917996872297572,2.0162328742317603,0.4774167514131003
1731474146.789546,-0.32311975955963135,0.4552238881587982,-9.978585243225098,0.03862410639304594,0.16186550282683687,-0.01170047400232467,8.921158218366472,2.0267903237264875,0.47288576615297834
1731474146.8395026,-0.32311975955963135,0.4552238881587982,-9.978585243225098,0.03661088026907301,0.16311196271275774,-0.011668160863720441,8.924434136794126,2.016675340142963,0.46833061418816474
1731474146.8395026,-0.3543110489845276,0.4205108880996704,-9.987153053283691,0.03453192332344147,0.16395583610488731,-0.011633401509927461,8.92446051559703,2.0167290570610144,0.4682940509565769
1731474146.8894835,-0.33690303564071655,0.44204410910606384,-9.983466148376465,0.0323954849704355,0.1644015447326262,-0.011596129338794916,8.927812594147664,2.0236781550218224,0.46368946613292567
1731474146.939377,-0.3456494212150574,0.4204249382019043,-9.974058151245117,0.030209949639355103,0.16445492961076316,-0.011556261387887422,8.931234149618547,2.048344752273463,0.45910337532691436
1731474146.9893372,-0.32335811853408813,0.44455331563949585,-9.994388580322266,0.027983804318350913,0.16412325799812466,-0.011513699277204876,8.934750278647122,2.0622007666381656,0.45442277116328395
1731474147.0392928,-0.3419918715953827,0.4153200089931488,-9.980100631713867,0.025725524983323485,0.16341515849942395,-0.01146833887978968,8.938332827594897,2.076463409125936,0.4497144067760621
1731474147.0892532,-0.33232659101486206,0.44813141226768494,-9.970808982849121,0.0234434805441256,0.1623405438192251,-0.011420087516449141,8.94196533005772,2.0910866706870435,0.44499232222456464
1731474147.1392598,-0.33232659101486206,0.44813141226768494,-9.970808982849121,0.02114588765073281,0.1609104976428913,-0.011368819921146588,8.94566807725092,2.079014138916223,0.44026225103117145
1731474147.1392598,-0.3414287269115448,0.42118310928344727,-9.989472389221191,0.01884077917413319,0.1591371214184899,-0.011314320787120438,8.945699703762553,2.0790931716522385,0.44022168513497417
1731474147.1892078,-0.32821929454803467,0.43675288558006287,-9.983247756958008,0.016535974948877607,0.15703345036301225,-0.011256318935027002,8.94941152138844,2.088511913985617,0.43547305097597616
1731474147.239118,-0.3308393657207489,0.41653814911842346,-9.989508628845215,0.014239047380601385,0.15461345480086258,-0.011194577460417566,8.953178980583955,2.098360432098432,0.43067413107462077
1731474147.2890556,-0.3233639597892761,0.44228991866111755,-9.99915599822998,0.011957259670424297,0.1518920107798029,-0.011128959174268274,8.956993746106631,2.101358400186364,0.4258710897087648
1731474147.34003,-0.3317860960960388,0.42187803983688354,-9.981391906738281,0.009697504020376285,0.14888480039699914,-0.011059463231826274,8.960920899344279,2.1096325812443326,0.42088994674233665
1731474147.389953,-0.3199501931667328,0.43816444277763367,-9.984302520751953,0.007466270714673819,0.14560818794188096,-0.010986215443882823,8.964782258376406,2.1180938381289627,0.4159919480732012
1731474147.4399762,-0.3348630368709564,0.410004585981369,-9.995926856994629,0.005269637433429252,0.14207912470499826,-0.010909416248146417,8.968678567658666,2.126957931174204,0.41104239853389174
1731474147.4898822,-0.3348630368709564,0.410004585981369,-9.995926856994629,0.0031132827375920384,0.1383151160305546,-0.01082933244414376,8.972551322961932,2.1402248047883345,0.40615490955479955
1731474147.4898822,-0.31965500116348267,0.4335654675960541,-9.987404823303223,0.0010025168803120682,0.13433420662081316,-0.010746336481991442,8.972587952117433,2.140321436556487,0.4061081690361336
1731474147.5398347,-0.33629316091537476,0.42236918210983276,-9.98745346069336,-0.0010577198375932965,0.13015487562409062,-0.010660902643549585,8.976443321833855,2.1506566420428332,0.40117372042943367
1731474147.5897639,-0.32917505502700806,0.4344494938850403,-9.999245643615723,-0.003062876021689131,0.12579585012976363,-0.010573563789103544,8.98031659146756,2.1649151660569377,0.3962316593601741
1731474147.6397233,-0.3516184091567993,0.42074695229530334,-9.990751266479492,-0.005008759189423622,0.12127595246576682,-0.010484902770560623,8.984192232703629,2.1781537928862793,0.39119944842404814
1731474147.6896822,-0.3454195261001587,0.43337929248809814,-9.982441902160645,-0.0068914560323123,0.11661400806459962,-0.010395557929080637,8.988044409934766,2.1916584772097076,0.3861525482402564
1731474147.739603,-0.3505779504776001,0.42843934893608093,-9.977140426635742,-0.008707254693975031,0.11182876601547942,-0.010306170634962062,8.99188011040302,2.1989030064788166,0.3811257216262225
1731474147.7895708,-0.3442579209804535,0.44717955589294434,-10.014467239379883,-0.010452618507424785,0.10693879506753584,-0.010217328113183028,8.995709615531329,2.2093419664347214,0.3760000845156572
1731474147.839557,-0.2940550446510315,0.5944892764091492,-9.976007461547852,-0.01212426049246965,0.1019622108721247,-0.010129598997757026,8.999494898314733,2.231499266097975,0.37092150847411176
1731474147.889536,-0.20518560707569122,0.54371577501297,-9.946371078491211,-0.013719445769054595,0.09691606844607187,-0.01004353971632884,9.003256861188477,2.2470531400687275,0.3657546685005441
1731474147.939503,-0.43645983934402466,0.24578015506267548,-9.995434761047363,-0.015236363105950477,0.09181602211044965,-0.009959549476139492,9.00697448033757,2.260540957189216,0.360625158458441
1731474147.9893682,-0.2412494719028473,0.5809628963470459,-10.00178050994873,-0.01667404026172342,0.08667694950866234,-0.00987780681292417,9.010647386257183,2.277089902686708,0.35542705362958205
1731474148.0393229,-0.4226839542388916,0.305077463388443,-9.972904205322266,-0.018031910551314777,0.08151368488344633,-0.009798421000694696,9.014276238163985,2.2938433005700087,0.35020588923955026
1731474148.0892675,-0.17636924982070923,0.6643232107162476,-9.994385719299316,-0.019309655602610047,0.07634091218705523,-0.009721540416371268,9.017870730759139,2.310850098173847,0.3449427732571204
1731474148.1391916,-0.017241640016436577,0.4965020716190338,-10.021503448486328,-0.020507743878191716,0.0711724996073745,-0.009647357249390632,9.021394794275595,2.2822894297703957,0.3397393729364221
1731474148.1891968,0.08745230734348297,0.6030604839324951,-10.011589050292969,-0.021628852223202513,0.06602078770213202,-0.009576204306248181,1.5662874036389807,2.3171933030248013,0.3345108276584725
1731474148.2391913,-0.9778934717178345,0.07814757525920868,-9.990920066833496,-0.022678526861990386,0.06089668548404899,-0.009508672177598458,1.5632609873661232,2.333473964391057,0.3291647170701847
1731474148.289004,-0.13256236910820007,0.6477596163749695,-9.916261672973633,-0.023662996461563578,0.05581089305559442,-0.009445483841723138,1.5601860964133158,2.3498497594365553,0.3238115707423495
1731474148.3390393,-0.5607509613037109,0.18505153059959412,-10.030675888061523,-0.024586446489861732,0.05077482035566236,-0.009387176007902828,1.55705063875659,2.3663604906066418,0.3184342894842638
1731474148.3899746,-0.5607509613037109,0.18505153059959412,-10.030675888061523,-0.02545058367832345,0.0458007676032694,-0.009334044335389376,1.5515285863407438,2.3354797466970454,0.31302653418863835
1731474148.3899746,-0.24053697288036346,0.6703055500984192,-9.993346214294434,-0.02625507313250587,0.04090215946318623,-0.009286470464752207,1.5515184580849253,2.3355190877782,0.3129964133643601
1731474148.4399455,-0.4149532914161682,0.18424800038337708,-9.922703742980957,-0.02699808956780249,0.036093082189625335,-0.009245048294939218,1.5496726199393127,2.342603339608365,0.3075953825759841
1731474148.4898977,-0.32263457775115967,0.564312756061554,-10.011099815368652,-0.027677387971893366,0.03138723459126254,-0.00921026873547357,1.5462361830075881,2.367009962676276,0.30220928913223405
1731474148.539939,-0.4096713662147522,0.33358514308929443,-9.978320121765137,-0.02829088596424434,0.026797545632503077,-0.009182299222821792,1.5435907930373252,2.38144469591511,0.2967241333640527
1731474148.5898108,-0.33266475796699524,0.4822407364845276,-9.983787536621094,-0.028836608925462175,0.022336090011655062,-0.009161103321281353,1.5385443003972261,2.3909267016676545,0.29134080855020356
1731474148.6398258,-0.36633315682411194,0.4079146981239319,-10.017582893371582,-0.029312681699920344,0.018013907511218098,-0.009146595914839887,1.5349295030384507,2.4041042662498984,0.28579715913495923
1731474148.6896837,-0.36633315682411194,0.4079146981239319,-10.017582893371582,-0.029717434342321793,0.013840960155592223,-0.009138760466598245,1.5353951710774816,2.413632059379262,0.280376187498805
1731474148.6896837,-0.37975364923477173,0.41329842805862427,-9.984230041503906,-0.03004943207808976,0.009826216397763335,-0.00913777747274036,1.5353799647430157,2.413711324351551,0.2803336792625869
1731474148.7397082,-0.3236582279205322,0.45023560523986816,-9.957239151000977,-0.03030744511697761,0.005977739233979071,-0.009143970701991803,1.5333645174901211,2.424027408141711,0.2747939747877307
1731474148.7895982,-0.4094269871711731,0.40006208419799805,-10.010847091674805,-0.030490493919107686,0.00230263393171581,-0.009157579019117984,1.526338777621423,2.442822902782946,0.2693239540854097
1731474148.8395123,-0.3341081142425537,0.49790847301483154,-9.974881172180176,-0.030597877874145918,-0.0011930674976179307,-0.009178656799281149,1.5216601907674268,2.4548463136067338,0.2637837542603382
1731474148.8895173,-0.40162166953086853,0.3858509361743927,-9.979796409606934,-0.030629121356682627,-0.004504489417652524,-0.009207133730044429,1.517977890731691,2.465711181625374,0.2581779952701742
1731474148.9394271,-0.33520281314849854,0.49349677562713623,-9.995915412902832,-0.03058395461522453,-0.007627930820964952,-0.009242836493846558,1.5142032614052352,2.476608244736257,0.25252482473675575
1731474148.989394,-0.39363962411880493,0.3769837021827698,-9.9759521484375,-0.030462346957268197,-0.010560781759273826,-0.009285487140412448,1.5103526526483217,2.4874818402119145,0.24684890459700567
1731474149.0393794,-0.32641667127609253,0.49767252802848816,-9.984671592712402,-0.030264550725923968,-0.013301413975792051,-0.0093347259730426,1.5184197369319012,2.483509278974388,0.24125239650540384
1731474149.0893095,-0.39658495783805847,0.40310895442962646,-9.991823196411133,-0.029991144226898664,-0.015849131576177677,-0.009390116231568239,1.516714181546992,2.4927174248087773,0.23553491864149423
1731474149.139286,-0.31508591771125793,0.49019932746887207,-9.974615097045898,-0.029643056477139784,-0.018204181166952552,-0.009451156660695948,1.5149356974308756,2.501875923309106,0.22979846985526658
1731474149.1892076,-0.3865351676940918,0.38851404190063477,-9.984769821166992,-0.029221590912482415,-0.020367725570184583,-0.009517292418860554,1.5133021012142123,2.5109691150666444,0.22415567896848942
1731474149.2392628,-0.3284973204135895,0.4553205966949463,-9.989445686340332,-0.02872844466442823,-0.022341704214520388,-0.009587907468482681,1.5117042998874841,2.5200796110559476,0.21833840359376533
1731474149.2891707,-0.36882221698760986,0.4021817743778229,-9.976908683776855,-0.028165694281684014,-0.024128646400753517,-0.009662342554460345,1.5100431134366745,2.529087760734946,0.21252530754859927
1731474149.3390863,-0.339903861284256,0.46282950043678284,-9.997218132019043,-0.027535772141399194,-0.02573157115225933,-0.009739925881435563,1.508318891609502,2.5380011552368584,0.20670937497799088
1731474149.3890233,-0.36403632164001465,0.4146801829338074,-9.983406066894531,-0.02684144053556667,-0.027153997687547532,-0.009819999135804114,1.5043541303037506,2.5468825076822315,0.2009621517150516
1731474149.4399798,-0.3282560706138611,0.4430561661720276,-9.990992546081543,-0.02608576427955573,-0.02839996025082593,-0.009901946634661325,1.5019521089329684,2.5559414484940906,0.19490986715959763
1731474149.489963,-0.34830936789512634,0.4099680185317993,-9.985173225402832,-0.025272122536230027,-0.02947394909197724,-0.00998520337208847,1.4995596975302856,2.5646475439730767,0.18901965307330157
1731474149.5398574,-0.3367198407649994,0.4484230577945709,-9.979958534240723,-0.024404236202500883,-0.030380821853730748,-0.010069236145349762,1.498706148618666,2.573300988427834,0.1832121607019679
1731474149.5898209,-0.3511849343776703,0.42940324544906616,-9.9827299118042,-0.02348614258792542,-0.03112577489908261,-0.01015351077971585,1.4963873570623583,2.5818897601157595,0.1772495142999447
1731474149.639785,-0.3449540138244629,0.44740235805511475,-9.993281364440918,-0.022522117164020035,-0.03171437440922391,-0.010237474634673045,1.494019612131695,2.590370220722278,0.17128257393737936
1731474149.689714,-0.348348468542099,0.4309273660182953,-9.968509674072266,-0.021516591271663173,-0.03215257141076805,-0.010320571714445167,1.489860757530733,2.5988118968541145,0.16539108656114332
1731474149.7397473,-0.3465837836265564,0.4344233572483063,-9.99363899230957,-0.020474094816488767,-0.03244665987955095,-0.010402244940025649,1.4870345964261489,2.6071752401683916,0.15934266043724596
1731474149.7896135,-0.35121646523475647,0.43669408559799194,-9.989757537841797,-0.019399216210751455,-0.032603201659100224,-0.010481936423767626,1.4801557115728639,2.61542810545524,0.1534250608260083
1731474149.839714,-0.3436480164527893,0.4485608637332916,-9.986307144165039,-0.01829656524626066,-0.032628978892831326,-0.010559133243360823,1.4702659499737156,2.6236407204232752,0.1474534991288137
1731474149.8895714,-0.3596985638141632,0.44395580887794495,-9.989258766174316,-0.01717073707549976,-0.03253100279380877,-0.01063340458388426,1.4645455462363097,2.6317308732909415,0.14134943246249954
1731474149.9394937,-0.3440133035182953,0.440993994474411,-9.989282608032227,-0.016026270525756295,-0.03231652354571208,-0.010704395826067505,1.4587763641646794,2.6397507443906054,0.1352108618753955
1731474149.9894161,-0.3629949986934662,0.4327376186847687,-9.978323936462402,-0.014867604713282166,-0.03199297898787297,-0.010771812465639189,1.4529805504097904,2.6476743445757,0.1290581178852174
1731474150.0394707,-0.35161831974983215,0.4358040392398834,-9.977865219116211,-0.013699040900266014,-0.03156789545089587,-0.010835383537696185,1.4678441896794099,2.655563459315098,0.12299187014313422
1731474150.0892787,-0.3588835597038269,0.44195646047592163,-9.983288764953613,-0.01252470773976323,-0.031048805635735637,-0.010894809553384175,1.4661119545737398,2.6633299199006095,0.116786029104821
1731474150.1392915,-0.3525645434856415,0.4376795291900635,-9.988021850585938,-0.011348544342758646,-0.03044322101837038,-0.010949753925036844,1.4643433615094985,2.6710490009575647,0.11052943037905301
1731474150.1892414,-0.3610277473926544,0.4366692900657654,-9.989734649658203,-0.010174298938846593,-0.02975862357843967,-0.010999890785046188,1.458636567310533,2.6786806064826587,0.10441280568623064
1731474150.239233,-0.35390523076057434,0.44004589319229126,-9.980785369873047,-0.009005522228957613,-0.029002436632347934,-0.011044952109884543,1.4561523055785088,2.6862801715223226,0.09807760691106335
1731474150.2891834,-0.34808841347694397,0.4356316924095154,-9.990507125854492,-0.007845569214491033,-0.028181989161186714,-0.011084732213259754,1.4536674154998845,2.693746255461612,0.09176677198167031
1731474150.3391497,-0.3495331108570099,0.4318283796310425,-9.987534523010254,-0.00669763292310894,-0.027304481902236534,-0.011119077741854513,1.452582952498508,2.7011522889542827,0.08558745834987559
1731474150.3889644,-0.34229859709739685,0.43807172775268555,-9.979005813598633,-0.005564790351244247,-0.026376944675570137,-0.011147887725273196,1.4501895490130323,2.7084846730446954,0.07922084827777924
1731474150.4399717,-0.35194361209869385,0.43843650817871094,-9.987793922424316,-0.0044500270361649275,-0.025406208926057012,-0.011171097800635105,1.4408027523852576,2.715953519286362,0.0728218177185703
1731474150.4899325,-0.3497510850429535,0.43838438391685486,-9.9824857711792,-0.003356226505067865,-0.024398911321211306,-0.011188657270880626,1.4351626140623055,2.723168932050459,0.06656661567310262
1731474150.5399475,-0.3440338671207428,0.4448617100715637,-9.980924606323242,-0.0022861399588321456,-0.02336150515520032,-0.011200524267379467,1.4305922410052048,2.73035587223706,0.060080101161890685
1731474150.5898569,-0.3435697555541992,0.4436219334602356,-9.993441581726074,-0.0012423791037426781,-0.022300271104024553,-0.011206669011584819,1.4260378871498485,2.7374537746185235,0.053594635720325634
1731474150.6397717,-0.3435697555541992,0.4436219334602356,-9.993441581726074,-0.0002274369417828773,-0.021221326923888933,-0.011207100982837923,1.4313288020529042,2.744483491128687,0.04728093840025019
1731474150.6397717,-0.3434273302555084,0.4445556402206421,-9.981748580932617,0.0007563015715678152,-0.020130621127817126,-0.011201912775996376,1.431313785033521,2.7445380005320987,0.04723024294388422
1731474150.6896904,-0.34205594658851624,0.4357181191444397,-9.985618591308594,0.001706567610827042,-0.019033905764273856,-0.011191274779299428,1.4293963293149505,2.7514821500177375,0.040736247751180635
1731474150.7397027,-0.3368449807167053,0.4365089237689972,-9.985532760620117,0.002621213488847482,-0.01793668852233886,-0.01117538669937958,1.4233797685881397,2.7584720132808,0.03432202724607727
1731474150.7896504,-0.3370206654071808,0.44003918766975403,-9.988101959228516,0.0034982015222526286,-0.01684418070834883,-0.011154454827798177,1.4199312539966957,2.765390667326529,0.02771337898004011
1731474150.839731,-0.34878137707710266,0.4350849390029907,-9.995030403137207,0.004335599503100798,-0.01576127343905339,-0.011128710182451821,1.4165797392409933,2.7722899329155055,0.021257309574056162
1731474150.8894904,-0.34958556294441223,0.43955448269844055,-9.992443084716797,0.005131623200027825,-0.014692536900770627,-0.011098444732230043,1.4130173927242269,2.779089300833426,0.014633660657493205
1731474150.9395454,-0.33814793825149536,0.4347154200077057,-9.992836952209473,0.005884700250203305,-0.013642219007005048,-0.011064039258364942,1.4094354377695442,2.7859169627398064,0.007920170519026788
1731474150.9894862,-0.3534073531627655,0.43426117300987244,-9.98823356628418,0.006593490739824653,-0.012614238683276558,-0.011025958734174075,1.4058871168271552,2.7926774222784982,0.0012129711110585393
1731474151.0393903,-0.35689619183540344,0.43784937262535095,-9.982269287109375,0.007256893675035573,-0.011612177007727395,-0.010984713770969209,1.4114372180772936,2.7994192422904174,-0.005316554450039372
1731474151.089344,-0.34376397728919983,0.4424741268157959,-9.984296798706055,0.007874083713057263,-0.010639285441365918,-0.010940804610881573,1.4096112681281714,2.8061199038813207,-0.012075355922671888
1731474151.1394033,-0.34501925110816956,0.4349685609340668,-9.980411529541016,0.008444514818169647,-0.009698516509145667,-0.010894674265692616,1.4028090324940434,2.8128237408568086,-0.018665645579215583
1731474151.1892505,-0.35001081228256226,0.4367660880088806,-9.98748779296875,0.008967868112190209,-0.008792540096501813,-0.01084669152111204,1.3989679675228581,2.819477605705518,-0.02547916577208248
1731474151.2393665,-0.35077399015426636,0.4410512447357178,-9.983784675598145,0.009444022609191997,-0.007923736283307909,-0.010797162561055972,1.395132524705868,2.8261407554606897,-0.03235076026481082
1731474151.2891529,-0.3346041738986969,0.4414082169532776,-9.978825569152832,0.009873055235809721,-0.007094203755353554,-0.010746346588693143,1.3922771549008903,9.411894024535613,-0.038968411977607406
1731474151.339152,-0.3532467186450958,0.44168803095817566,-9.982125282287598,0.01025521306207059,-0.006305790326795777,-0.010694448397414826,1.3893329443832616,9.41068756348167,-0.04588920622448086
1731474151.38902,-0.3444956839084625,0.44681721925735474,-9.989038467407227,0.01059088558013983,-0.005560120417361166,-0.010641609888879064,1.3829077236920477,9.41260890332527,-0.05255354285523516
1731474151.4390323,-0.3412024676799774,0.45108357071876526,-9.988518714904785,0.010880609362303343,-0.004858623871288351,-0.010587940201150609,1.3785482329312975,9.408907794345806,-0.05953591990005668
1731474151.4888942,-0.35135704278945923,0.44728460907936096,-9.988907814025879,0.011125064497477393,-0.004202573291786901,-0.01053356375611925,1.3694343939434408,9.405476219741765,-0.06625741359779128
1731474151.5399947,-0.3428148031234741,0.43845781683921814,-9.985496520996094,0.011325063862056258,-0.003593095437401363,-0.01047864097104082,1.3624741137983405,9.401083954397283,-0.07343620476227557
1731474151.589838,-0.35130253434181213,0.43799132108688354,-9.989453315734863,0.011481558173624081,-0.00303112855374415,-0.010423359705355868,1.355746323460993,9.39681205425151,-0.08043087958173654
1731474151.6397727,-0.34227749705314636,0.4340595602989197,-9.994230270385742,0.011595636588985506,-0.0025173572907745707,-0.010367930883234735,1.36614987994859,9.401948626825885,-0.08722692954024087
1731474151.6898038,-0.345090389251709,0.4354267120361328,-9.992863655090332,0.011668509897218796,-0.00205217152145216,-0.01031260868494817,1.3639716128753991,9.400217783023828,-0.09432967378431702
1731474151.7628806,-0.3515869379043579,0.4293767511844635,-9.992466926574707,0.011701490519039737,-0.0016356532755284177,-0.010257713284855287,1.3498713016380388,9.39311211727505,-0.10445465328722271
1731474151.7896523,-0.3438718020915985,0.40278133749961853,-9.977875709533691,0.011695990758438036,-0.0012675471467896143,-0.010203616332700484,1.3468344966012467,9.391361820780688,-0.10828582833805195
1731474151.839626,-0.3230764865875244,0.15276339650154114,-9.979936599731445,0.011653503676415228,-0.0009469400932019905,-0.010150675614192011,1.348428801913771,9.393547620011994,-0.11517427862060087
1731474151.8895721,-0.22208143770694733,0.187400683760643,-10.070066452026367,0.01157541373555842,-0.0006713176941751536,-0.010099239969725496,1.3450912997620739,9.39204239251811,-0.12235006093238157
1731474151.939552,-0.3626958727836609,-0.3957504630088806,-10.0033597946167,0.011462647712136405,-0.0004349665862572596,-0.010049868578499953,1.3417753506453545,9.390532518001221,-0.1295665885884395
1731474151.989412,-0.49128592014312744,-0.6028002500534058,-10.101073265075684,0.01131574938518615,-0.0002264911696511435,-0.010003620058664654,1.3435186651585347,9.388239396041662,-0.13647013153860885
1731474152.039409,-0.33004650473594666,0.15001556277275085,-9.991525650024414,0.011135646622842377,-2.648754267840912e-05,-0.009962181742694767,1.33729322390598,9.38270369919507,-0.14344159294744163
1731474152.0893848,-0.42409035563468933,-0.23452405631542206,-9.928579330444336,0.010924216761808925,0.00019183113731335882,-0.009927669521378597,1.3341374402274542,9.379954479716991,-0.15074283180705306
1731474152.139399,-0.3635537326335907,0.16380023956298828,-9.96257495880127,0.010684144205848574,0.00045941156769059224,-0.009902038724436246,1.3310152132481397,9.37721174816338,-0.1580538222239624
1731474152.1892323,-0.3265819549560547,0.03705446049571037,-9.926668167114258,0.010418578039222519,0.0008085580628500363,-0.009886524565250378,1.327925097288718,9.374475692201766,-0.16537590335340777
1731474152.2392316,-0.34383344650268555,0.2610261142253876,-9.951214790344238,0.01013079152954462,0.0012710949812847097,-0.009881482156332022,1.324854481891387,9.371736769599776,-0.17273730827240905
1731474152.2891235,-0.35642221570014954,0.23940710723400116,-9.95168685913086,0.009823881637296276,0.001876792210365666,-0.009886470145915609,1.3330380233698076,9.379254800642979,-0.17976026801573766
1731474152.3392637,-0.3735845685005188,0.305618554353714,-9.976515769958496,0.009500740107567449,0.0026521313221219535,-0.009900428601444251,1.3317971875144705,9.378201680193813,-0.18721698130957354
1731474152.389072,-0.3662432134151459,0.2762035131454468,-9.98367977142334,0.009164215308914626,0.0036195861274699323,-0.009921934289487512,1.3260544874399918,9.373243253786011,-0.19425837785768743
1731474152.4390504,-0.3853393793106079,0.2848801612854004,-9.992253303527832,0.008817240925778829,0.004797448429815849,-0.009949459303967692,1.323203885848329,9.370786000670265,-0.20174295043861445
1731474152.4890246,-0.3745778203010559,0.2969180941581726,-9.987142562866211,0.00846289090367516,0.006199997809120041,-0.009981556048439245,1.3201187403915824,9.368156637210737,-0.20886193349072787
1731474152.539969,-0.36941108107566833,0.32635197043418884,-10.017279624938965,0.008104378971161414,0.007837714515643445,-0.01001696249358686,1.3169925217090868,9.365474677468752,-0.21652371904100054
1731474152.5898287,-0.3613957464694977,0.32036691904067993,-9.987659454345703,0.007744984309772314,0.009717396927354844,-0.01005467834215565,1.3139570842683586,9.362875550332078,-0.22403720950340142
1731474152.6398501,-0.3558109700679779,0.3377763330936432,-10.017905235290527,0.007387924340673294,0.011842264635338069,-0.010094008162346697,1.3126739467130812,9.363570469440614,-0.23124005222145652
1731474152.6896672,0.11172740161418915,0.9410831928253174,-9.988750457763672,0.007035817216602999,0.014211598836649292,-0.010134548694079627,1.3103925102058085,9.362024773148619,-0.2387651825769729
1731474152.7397246,0.6022413969039917,1.6053311824798584,-9.950591087341309,0.006688558401805448,0.016818306984382265,-0.01017609281564014,1.3066302754824717,9.356623297707678,-0.2460192399454693
1731474152.7897217,0.45707929134368896,1.1785728931427002,-9.883322715759277,0.0063395562517327645,0.019644484768330726,-0.010218328505038258,1.3036661449108664,9.353628414505943,-0.2536466873572329
1731474152.8396256,0.18722468614578247,0.8254978060722351,-10.014012336730957,0.005973234975956504,0.02265918825405129,-0.010260449846434185,1.300710202219689,9.350679274701054,-0.26131850560082065
1731474152.889567,-0.2138817459344864,0.33085402846336365,-10.020838737487793,0.005566529410300439,0.025821715433045973,-0.01030119091522577,1.2977897800722624,9.347811495141881,-0.26896090657509786
1731474152.939633,-0.84199458360672,-0.42900434136390686,-10.077438354492188,0.005093870138388047,0.029088746933985464,-0.010339414902328915,1.2995194750319,9.350779708660141,-0.2762803319692047
1731474152.9894435,-1.1347620487213135,-0.6553553342819214,-10.159132957458496,0.0045337012899309415,0.0324224132812785,-0.010374832141255973,1.2975225419245713,9.349122031153392,-0.2839600930474049
1731474153.0395005,-0.5375619530677795,0.026560742408037186,-10.053828239440918,0.003873779076487365,0.035796234300045596,-0.010408522527345816,1.2896549270051012,9.34193300851687,-0.29135262504210174
1731474153.0893981,-0.6419805884361267,-0.14039817452430725,-10.018117904663086,0.003112121348206616,0.03919573842976797,-0.010442954940231666,1.2854406495230262,9.338284929801118,-0.2991091833041736
1731474153.13939,-0.48468977212905884,0.17504572868347168,-9.904268264770508,0.002254178907241727,0.04261489250170434,-0.010481292145890466,1.2812184318775661,9.334726388317492,-0.30691883191202535
1731474153.1893013,-0.5061772465705872,0.20886747539043427,-9.975037574768066,0.0013098458626489874,0.046052324969282604,-0.01052640135641914,1.277010302136223,9.331286551104498,-0.3147368469558491
1731474153.2392278,-0.504601240158081,0.35937514901161194,-9.961531639099121,0.0002917972085654766,0.04950860653096402,-0.01058026510036933,1.2728057154200623,9.327966957795395,-0.3225782638373406
1731474153.2890863,-0.5235366225242615,0.4285810589790344,-9.942535400390625,-0.0007853727626512497,0.052984119278578524,-0.010643959917779503,1.284254416202136,9.33001616143199,-0.3299781085795081
1731474153.3391986,-0.5182399153709412,0.41647854447364807,-9.95583724975586,-0.0019055775263007045,0.05647756524591152,-0.010717796774482185,1.2826403680036733,9.327607849427697,-0.33790958778006874
1731474153.3890479,-0.5484158992767334,0.4480695128440857,-9.937871932983398,-0.003051494485187963,0.05998524663362058,-0.010801370556523204,1.274102101814406,9.317689636710572,-0.34539106497646505
1731474153.4390175,-0.5478430390357971,0.4370619058609009,-9.939542770385742,-0.0042047848464379,0.06350099303128753,-0.010893594787986887,1.2698590892374788,9.312589928133669,-0.35334803231343315
1731474153.4889638,-0.5263280868530273,0.4694240391254425,-9.992203712463379,-0.0053463098747447745,0.06701637699253794,-0.010992798838254415,1.2662517160223585,9.30789872242625,-0.3608686680933073
1731474153.5389593,-0.5467596054077148,0.46723413467407227,-9.985711097717285,-0.006456433059903805,0.07052095011169648,-0.011096970980128146,1.262106534361514,9.302987385848706,-0.36888082288644425
1731474153.5898702,-0.551529049873352,0.4757702946662903,-9.996859550476074,-0.007515349321628737,0.07400246869507073,-0.011204090495939501,1.2593906575262022,9.29849247745336,-0.37658976588380827
1731474153.6398945,-0.5152885317802429,0.4587487578392029,-9.976001739501953,-0.008503348589731063,0.07744716759803834,-0.01131232738393121,1.2561987430419965,9.294595783841716,-0.3846927427477755
1731474153.6898081,-0.5710768699645996,0.47691261768341064,-10.003650665283203,-0.009401068027093756,0.08084010723619037,-0.011420067432496052,1.254460710448918,9.286715853150701,-0.392261445026253
1731474153.7397523,-0.5710768699645996,0.47691261768341064,-10.003650665283203,-0.010189673494401945,0.08416551189201861,-0.011525919025265346,1.2489270340286422,9.284665471743295,-0.39986203953091837
1731474153.7397523,-0.525538980960846,0.48766395449638367,-9.994609832763672,-0.010850926428325336,0.08740702525877292,-0.011628771879325591,1.248891535643313,9.284635244808463,-0.3999449524706025
1731474153.789613,-0.5084438323974609,0.5185731053352356,-9.965476989746094,-0.011367390790646466,0.09054788275210886,-0.01172779014090488,1.2454329613805801,9.281813991525095,-0.4080047909282489
1731474153.8396065,-0.5292466878890991,0.4623800218105316,-9.98769760131836,-0.011722838223347073,0.09357105542641128,-0.011822273146113194,1.2419075681638057,9.279190449428203,-0.41618273813591944
1731474153.88953,-0.48913973569869995,0.46731847524642944,-9.979022026062012,-0.011902567950230175,0.09645951405409454,-0.011911527255190475,1.2383587838358519,9.27680822614984,-0.4243762259460612
1731474153.9395475,-0.4685397744178772,0.5056860446929932,-9.99309253692627,-0.01189360656690888,0.09919660280090045,-0.011994863398669245,1.2457474605014769,9.268808314980904,-0.4321112582617861
1731474153.9894257,-0.45702219009399414,0.4998912811279297,-9.956080436706543,-0.01168495522954886,0.10176624858240484,-0.012071631228175155,1.2402518141368628,9.251718763960865,-0.43980420951406013
1731474154.0394197,-0.4022035002708435,0.5028836131095886,-9.970311164855957,-0.011267870696786163,0.10415297259209128,-0.012141168275616562,1.2375999107640603,9.244210870092944,-0.4481200078244063
1731474154.089314,-0.42270535230636597,0.48164358735084534,-9.983999252319336,-0.010636108143714407,0.10634195773116534,-0.012202719731921812,1.2349383232296707,9.237014490585025,-0.45641101422232305
1731474154.1392968,-0.38456615805625916,0.5007065534591675,-9.960416793823242,-0.009786068873869347,0.10831924147265522,-0.012255449707749064,1.2322397685020892,9.230054875574945,-0.46476832681901337
1731474154.1892097,-0.3837924003601074,0.4896668791770935,-10.00211238861084,-0.008716817388210372,0.11007190127047004,-0.012298512431637803,1.2295279103798111,9.223391890247264,-0.47312610538800826
1731474154.2391903,-0.3806689977645874,0.47306615114212036,-10.001392364501953,-0.007430019412561176,0.11158818514677399,-0.012331153082037357,1.2267828545182213,9.216974082183771,-0.4815547839867585
1731474154.2891269,-0.5227342247962952,0.9770021438598633,-9.972333908081055,-0.005929679544878837,0.1128572100511476,-0.012352832407225222,1.237475331864575,9.217136153393135,-0.4894108779996199
1731474154.3391964,-0.6536251306533813,1.1910713911056519,-9.957026481628418,-0.004221310296866897,0.11386719687745922,-0.012363213296866703,1.2366414685951048,9.211045273000211,-0.4979089940503554
1731474154.389024,-0.5680765509605408,0.5152410864830017,-9.884139060974121,-0.0023106352592819615,0.11460307643333781,-0.012361898421278602,1.235805011233208,9.205279004571844,-0.5063814228907739
1731474154.438984,-0.8518714904785156,1.0223649740219116,-10.114818572998047,-0.00020247224635870404,0.11504634286518094,-0.012348208719613701,1.2310628215218098,9.179385458585694,-0.514271079961966
1731474154.4890203,-0.5428992509841919,0.5303182005882263,-9.948053359985352,0.0020999216901603783,0.11517700369208908,-0.012321446880802507,1.2294353480857625,9.169967439661978,-0.5228891268014766
1731474154.4890203,-0.5428992509841919,0.5303182005882263,-9.948053359985352,0.004594736648151299,0.11497549906142024,-0.01228128509979837,1.2289256623607197,9.16706989401063,-0.5256019721146687
1731474154.8706543,-0.253031849861145,0.3442539572715759,-9.981415748596191,0.007280281560734133,0.11442467460400259,-0.012227616008184521,1.2021694767536732,8.972685341356202,-0.5874200551786452
1731474154.9205117,-0.23775433003902435,1.9156547784805298,-9.855184555053711,0.010152925918985435,0.11351040651437283,-0.012160143646464925,1.2123652288538174,9.042620526796608,-0.5956329034302376
1731474154.9705315,-0.4001409411430359,0.5899046659469604,-9.77047061920166,0.013205537841731327,0.11221852788742334,-0.012077924872758088,1.2114184462691424,9.036019365114065,-0.6044016675025414
1731474155.020408,-0.1947299689054489,1.112312912940979,-10.022409439086914,0.016427226929691785,0.11053173867242846,-0.011978849908277878,1.2109647840462403,9.025552923977143,-0.6126814533123576
1731474155.0704117,-0.21322882175445557,0.8714746236801147,-10.088143348693848,0.019803739113169953,0.10843055020977072,-0.011859940008651405,1.2098515678963448,9.015236927716915,-0.621426410928856
1731474155.1203022,-0.2239534556865692,0.9041865468025208,-9.905142784118652,0.023317538800377156,0.10589549776077238,-0.011718540610841748,1.2087591230174142,9.004879382323452,-0.6304651062651184
1731474155.1704328,-1.3943976163864136,-0.5810168385505676,-10.084527969360352,0.026948985569540982,0.10290949143538675,-0.011553006783124598,1.207754173287871,8.995021516660996,-0.6393213446212581
1731474155.2202253,-0.5982986688613892,0.3721615672111511,-10.063822746276855,0.030680201364843826,0.09946267100976769,-0.011362688901269019,1.2067829300993647,8.985023253613598,-0.648568751057874
1731474155.2702136,-0.46314603090286255,0.03619835898280144,-10.011496543884277,0.03449829103591598,0.09555673063521647,-0.011148053979503037,1.2095901582300823,9.01260190896287,-0.6565458947787076
1731474155.320184,-0.5183843374252319,0.10595713555812836,-10.015792846679688,0.03839412694266427,0.09120478699804724,-0.01091071262542426,1.209293185486669,9.008991011631009,-0.6658561303279213
1731474155.3702235,-0.11161405593156815,0.15249505639076233,-10.028287887573242,0.04235908271834836,0.08642924041279874,-0.010653074307997803,1.2076155740078227,8.98965155202155,-0.6738863785749154
1731474155.4200754,-0.11161405593156815,0.15249505639076233,-10.028287887573242,0.04638259955957924,0.08126022053317646,-0.01037807409097135,1.2070851450207238,8.982255751380771,-0.6829586285196265
1731474155.4200754,0.01588253118097782,0.03391246125102043,-10.020575523376465,0.05045028466170438,0.07573426086889233,-0.010089100361417754,1.2070706913722598,8.982031915421105,-0.6832375221525532
1731474155.469965,-0.25383296608924866,0.3448643088340759,-9.974748611450195,0.05454295408129261,0.06989309021301691,-0.009789877245120922,1.2066798226342106,8.975047788691263,-0.6920565589548258
1731474155.5198517,-0.10165785253047943,0.2227284014225006,-9.922452926635742,0.05863729748547247,0.06378219704560006,-0.009484136820624735,1.2064153703654936,8.968012881228148,-0.7011694125055211
1731474155.5699394,-0.1839110553264618,0.4192267656326294,-9.99095344543457,0.06270724884473874,0.05744896569152692,-0.009175179663276686,1.2053756010832906,8.956004883926372,-0.7095573639790704
1731474155.6198208,-0.19280876219272614,0.3612631559371948,-9.950533866882324,0.06672501377246946,0.05094102833957953,-0.008865662786596536,1.2049080625173711,8.946030812411294,-0.719130826734619
1731474155.6698928,-0.00384950777515769,0.6912849545478821,-9.922014236450195,0.07066164222694152,0.04430485711300377,-0.008557638912676838,1.2030246618216465,8.936959138950892,-0.7271306020668551
1731474155.7207956,0.744889497756958,1.6483407020568848,-9.939879417419434,0.07448640052028048,0.03758321614683212,-0.008252521495658149,1.2001707085777729,8.927332743484868,-0.7357803817955861
1731474155.770732,0.3141680657863617,1.1341841220855713,-10.00156307220459,0.07816420788482281,0.03081062578048812,-0.007951049239314714,1.1987063649685468,8.91818424599345,-0.7449085189805025
1731474155.8206358,-0.22723086178302765,1.8611536026000977,-9.893811225891113,0.08165408020927285,0.02400922055353176,-0.007653463898478831,1.1974083544360117,8.908883027409406,-0.754277694584747
1731474155.8706558,-0.4820658564567566,1.1263463497161865,-9.909140586853027,0.08491221677266922,0.017187554166770737,-0.0073595822490716434,1.1963452981119322,8.899842964785716,-0.7634536838510976
1731474155.9206085,-0.49431735277175903,1.4234706163406372,-9.892594337463379,0.08789776732632391,0.010342105135242587,-0.007068561820330117,1.1992868489812116,8.890743735490348,-0.771848091612594
1731474155.970523,-0.07631285488605499,0.5004467964172363,-10.070384979248047,0.09057637197975005,0.003460832544558957,-0.006778864553136235,1.1977917976869366,8.881679644908568,-0.780226675203226
1731474156.0204434,-0.24069371819496155,-0.35270124673843384,-10.206377029418945,0.09291984944969432,-0.0034707980727055002,-0.006489014433013363,1.1973399130239772,8.872593615327096,-0.7895462031553295
1731474156.0704284,-0.6625279188156128,-0.9579870700836182,-10.202309608459473,0.09490475441359182,-0.010460953419849647,-0.006199008112832566,1.1971221007457924,8.863476773720436,-0.7988953262733878
1731474156.1203353,-0.7205891013145447,-0.26662561297416687,-10.021163940429688,0.09651308845831559,-0.01750295931463319,-0.005911276036984877,1.1971433255334938,8.85434863994636,-0.8082354025253004
1731474156.170457,-0.539745032787323,-0.3440362215042114,-10.02015209197998,0.09773442554399368,-0.024572754375696417,-0.005630261806577155,1.1972631362919148,8.845117862712225,-0.81668799427852
1731474156.220292,-0.7099660634994507,-0.18074804544448853,-9.97559928894043,0.0985665796330927,-0.03163235096708005,-0.005361150867991233,1.1973917697122902,8.835873710049926,-0.8260459706427636
1731474156.270222,-0.4648881256580353,-0.01231425255537033,-9.95477294921875,0.09901460269487482,-0.03863457134688938,-0.0051088532071434335,1.196609183705795,8.826523459351327,-0.8344592980269868
1731474156.320121,-0.6345815658569336,0.11943099647760391,-9.89240837097168,0.09908943642465842,-0.0455268916114611,-0.004877441857984545,1.1966559131620893,8.81693529864163,-0.8439893604818453
1731474156.370157,-0.4727819561958313,0.4156271815299988,-9.890789985656738,0.09880669671258498,-0.05225501854530171,-0.004669722488835904,1.1972305884718684,8.807483137263937,-0.852275614844036
1731474156.419992,-0.4746846556663513,0.4383656084537506,-9.960733413696289,0.098185596098183,-0.05876636257735211,-0.004486986409017137,1.1977229774597096,8.797805947460382,-0.861656997156849
1731474156.4700122,-0.4082532823085785,0.4868992269039154,-9.922954559326172,0.09724783684612527,-0.06501279759366908,-0.004329178153800832,1.1984625585613875,8.787914041247701,-0.8711076209033493
1731474156.5199811,-0.4082532823085785,0.4868992269039154,-9.922954559326172,0.09601651124794863,-0.0709521134944135,-0.00419526728030859,1.1974133093453554,8.777871952369079,-0.879511692699329
1731474156.5199811,-0.42095184326171875,0.46034306287765503,-9.94420051574707,0.09451531462396384,-0.07654831176563807,-0.004083461855102057,1.197415946483314,8.777788613301029,-0.8795893770425393
1731474156.5699735,-0.3570947051048279,0.568742036819458,-9.979055404663086,0.0927680967279963,-0.08177141803710347,-0.00399136897309039,1.1978506046506396,8.767604659672775,-0.8889923643871601
1731474156.6198468,-0.35170891880989075,0.5658196806907654,-10.006991386413574,0.09079849204966116,-0.08659736337318985,-0.00391633558719997,1.1988522161669328,8.757191883655691,-0.897359907607489
1731474156.6698449,-0.35522300004959106,0.5524300336837769,-9.985919952392578,0.08862950888716144,-0.0910080106376329,-0.003855856946509297,1.1997440805013253,8.746494704042794,-0.9068533299538227
1731474156.7197773,-0.3219449818134308,0.549161434173584,-9.999293327331543,0.08628322811054154,-0.0949909539576405,-0.0038078081493714768,1.2008476962981713,8.735635434900683,-0.9162948773889743
1731474156.7707493,-0.28970977663993835,0.5290778875350952,-9.999696731567383,0.08378060651183517,-0.09853897841761725,-0.0037704723871136298,1.2021970697509607,8.72426008088862,-0.9259785016212742
1731474156.8206139,-0.3143123984336853,0.5126650929450989,-10.002466201782227,0.08114125459216565,-0.10164940884741122,-0.0037425196616545984,1.1996379670663242,8.712692808050372,-0.934497909134193
1731474156.870688,-0.2599155902862549,0.5240530371665955,-9.9974946975708,0.07838326954408366,-0.10432348449698602,-0.003722996062598301,1.2005185044452786,8.701027313203817,-0.9428756009866128
1731474156.9205627,-0.2599155902862549,0.5240530371665955,-9.9974946975708,0.07552314509146144,-0.10656584460290683,-0.0037112842767906616,1.2012418997912166,8.689363622902334,-0.9521793487408903
1731474156.9205627,-0.2969132363796234,0.4891177713871002,-9.995007514953613,0.07257571435617416,-0.10838412975103329,-0.003707036994221003,1.2012492025372297,8.689257894661843,-0.9522628049952253
1731474156.9705002,-0.2969132363796234,0.4891177713871002,-9.995007514953613,0.06955427425057968,-0.10978855648977154,-0.0037101116207042826,1.2013523290326578,8.677180200246529,-0.9605365066613372
1731474156.9705002,-0.2292598932981491,0.49995648860931396,-10.004132270812988,0.0664708331951607,-0.11079145611386358,-0.003720527013302718,1.201357620904102,8.677077420375634,-0.9606158742518144
1731474157.0204966,-0.2579132318496704,0.4924958348274231,-10.007848739624023,0.0633361566194353,-0.11140693127603354,-0.0037384615633492655,1.20206866277398,8.664665294442043,-0.9700978616057169
1731474157.0704823,-0.24598565697669983,0.4703907370567322,-10.037233352661133,0.06015966033031037,-0.11165061412705887,-0.0037643089423273217,1.2029363715338235,8.651926257474592,-0.979626625617921
1731474157.1203732,-0.2604096531867981,0.4892358183860779,-9.96359920501709,0.05694945214078311,-0.11153939460757756,-0.003798728011940385,1.2039506132964022,8.638904529248965,-0.98916777813698
1731474157.1703653,-0.2412901222705841,0.49372807145118713,-10.008519172668457,0.053712509953782545,-0.11109116917939363,-0.0038425448622929634,1.2026850400178655,8.625657831738776,-0.9974669761242932
1731474157.2202988,-0.25269076228141785,0.49582356214523315,-9.967084884643555,0.05045483251147752,-0.11032470775288938,-0.0038965475537532553,1.204069548624128,8.612057188521907,-1.0058134878985199
1731474157.2702527,-0.29472479224205017,0.49913355708122253,-9.967273712158203,0.047181590619249605,-0.10925957291376567,-0.003961330778746157,1.2052793834808455,8.598236552615678,-1.0153549247865803
1731474157.3201697,-0.2970694601535797,0.489962100982666,-10.00029182434082,0.04389740480948545,-0.10791600008737516,-0.0040372129680161,1.2066038911956787,8.584131528414387,-1.0249158796291302
1731474157.370167,-0.34497785568237305,0.48454904556274414,-9.985206604003906,0.04060672808182168,-0.10631472344425229,-0.004124264277201136,1.208037021647807,8.569727185116482,-1.0345083338739143
1731474157.4200604,-0.34497785568237305,0.48454904556274414,-9.985206604003906,0.037314214471258156,-0.10447676702637684,-0.004222422801951406,1.2045779594322052,8.555128233834083,-1.042780340558372
1731474157.4200604,-0.33604687452316284,0.4833928644657135,-9.957088470458984,0.034024976979506516,-0.10242325003840924,-0.004331519686701755,1.2045944883075757,8.55448597592449,-1.0431970142440974
1731474157.4700716,-0.3997398614883423,0.48361581563949585,-10.031452178955078,0.03074470082327844,-0.10017523981002166,-0.004451230632350011,1.2049960823535628,8.54019954923643,-1.0523928941277212
1731474157.5199513,-0.3997398614883423,0.48361581563949585,-10.031452178955078,0.027479753535536333,-0.09775363951733516,-0.004581197582394997,1.2057732243509884,8.524630340859062,-1.0609483682399201
1731474157.5199513,-0.34380197525024414,0.5006750226020813,-9.992836952209473,0.024237303378416317,-0.09517910787176503,-0.0047212954670738105,1.2057787977714194,8.524488006685962,-1.061037874040953
1731474157.570007,-0.40116724371910095,0.47793707251548767,-9.987176895141602,0.021025215985668637,-0.09247201235418345,-0.004871688641751946,1.2063811922832632,8.509627154511179,-1.070320391987313
1731474157.6199002,-0.40116724371910095,0.47793707251548767,-9.987176895141602,0.017851843621806168,-0.08965235289376901,-0.005032615195181546,1.2092514969927515,1.5077944208816794,-1.0787212943817546
1731474157.6199002,-0.3695700168609619,0.49243950843811035,-9.979872703552246,0.014725953009727913,-0.08673963283233571,-0.0052041885801353376,1.2092630751660367,1.5078195971493256,-1.0787964145183662
1731474157.6698487,-0.41193339228630066,0.5345649719238281,-9.984530448913574,0.011656653851971798,-0.08375281723369789,-0.005386329332317046,1.210727616047597,1.5108729328308494,-1.0882138399980652
1731474157.7197323,-0.41193339228630066,0.5345649719238281,-9.984530448913574,0.008653280931517678,-0.08071047961006297,-0.0055787587461149845,1.2106476378771491,1.4977412016794165,-1.0964755199101983
1731474157.7197323,-0.39578092098236084,0.5249258279800415,-9.9964017868042,0.005725351794585748,-0.07763098254927134,-0.005781033187123016,1.2106540496743596,1.4977503937562315,-1.0965486769921944
1731474157.7697887,-0.4148857295513153,0.5152393579483032,-10.009360313415527,0.0028825046587953405,-0.07453247389536334,-0.005992630286584629,1.2114988611671766,1.4988635935419516,-1.1061540053318915
1731474157.8206913,-0.38384121656417847,0.5252273082733154,-9.947656631469727,0.00013434619410754094,-0.07143271476621216,-0.006213018037839247,1.2144165440416907,1.501165075910608,-1.1148284824249552
1731474157.8705866,-0.37471675872802734,0.512197732925415,-9.963825225830078,-0.002509750809589986,-0.06834890524777655,-0.006441559705686378,1.2159480887000291,1.502643790559981,-1.1242594396309296
1731474157.9205194,-0.39332878589630127,0.548274040222168,-9.980907440185547,-0.00504087770898227,-0.0652975916602973,-0.0066773274267849314,1.217533520477615,1.5040156724360383,-1.1340976433861176
1731474157.970504,-0.3940364420413971,0.5331264734268188,-9.951216697692871,-0.007450733380392968,-0.06229466272233572,-0.006919061715292117,1.2190602221642783,1.5051928089441862,-1.1436833649415512
1731474158.0204077,-0.3720216453075409,0.5273372530937195,-10.012054443359375,-0.00973164661145803,-0.05935536830254655,-0.0071652727236350576,1.2206063484779446,1.5062479622119498,-1.1535454820134001
1731474158.070431,-0.36154696345329285,0.5203379988670349,-9.981355667114258,-0.011876642224764162,-0.05649424547794439,-0.007414393979163911,1.2160281806417619,1.523469437165872,-1.161687012618609
1731474158.1203873,-0.33269548416137695,0.5211107134819031,-9.980409622192383,-0.013879631723284153,-0.05372496794449486,-0.0076649331481240205,1.2165819689618016,1.5276794488693513,-1.1716999785514444
1731474158.170318,-0.3207956552505493,0.5135068893432617,-9.99845027923584,-0.015735656251338725,-0.05106022090456967,-0.007915513770611046,1.2208113322247065,1.5496051625265626,-1.1797140604772818
1731474158.2202368,-0.30687013268470764,0.5224953889846802,-9.994780540466309,-0.01744110296597768,-0.04851162875382169,-0.008164871558016597,1.222183518054179,1.570074198701173,-1.1883033907831697
1731474158.2701979,-0.3119085729122162,0.5182780623435974,-9.960308074951172,-0.018993831114393272,-0.04608972759384525,-0.008411871984618652,1.223264788416904,1.5806917200735584,-1.1977698684220133
1731474158.3202002,-0.3232634663581848,0.5220323204994202,-9.994431495666504,-0.02039315727895611,-0.04380397317200169,-0.008655453196102558,1.224370039981989,1.5919264340184096,-1.2079113269642103
1731474158.3702445,-0.28144803643226624,0.5371149778366089,-9.997028350830078,-0.02163974266726739,-0.041662772995729236,-0.00889456853309744,1.2237651129787093,1.5681395777368643,-1.215931587771608
1731474158.4200966,-0.28144803643226624,0.5371149778366089,-9.997028350830078,-0.022735536101262194,-0.03967355690237562,-0.009128262196512877,1.2244605512397713,1.5704834723549885,-1.2257973586955262
1731474158.4200966,-0.31811031699180603,0.5085797905921936,-9.998974800109863,-0.02368377472299064,-0.03784284029469561,-0.009355774299689808,1.224476113517196,1.5705370263266942,-1.22602801061437
1731474158.4701083,-0.2963423728942871,0.5248386859893799,-9.973089218139648,-0.02448884992457196,-0.03617618707495326,-0.009576544483211293,1.2260406749265769,1.5740988934873614,-1.2340689781904017
1731474158.5199509,-0.2880183458328247,0.5108221173286438,-10.006240844726562,-0.025156076837529427,-0.03467812005950651,-0.0097901388365789,1.2270556188051733,1.5771857414491608,-1.2439684212426307
1731474158.5699735,-0.2980497181415558,0.49068212509155273,-9.973512649536133,-0.025691567256323704,-0.033352063595677536,-0.009996194315620455,1.2280138988329425,1.5802091011537078,-1.2539632364340394
1731474158.6198955,-0.31672346591949463,0.5230117440223694,-9.992152214050293,-0.026102141315953585,-0.03220030099865614,-0.010194400409440465,1.2289062942968398,1.583147864633107,-1.2639768106554023
1731474158.6698563,-0.3087119460105896,0.5085582733154297,-10.039146423339844,-0.026395139914616984,-0.031223993407312862,-0.010384525346645477,1.227438626785723,1.5611777420589315,-1.2722120063425437
1731474158.719787,-0.37044280767440796,0.5171928405761719,-9.983965873718262,-0.026578165238810375,-0.030423292458361995,-0.010566540926255818,1.2277846026253192,1.55934750464398,-1.282235123267257
1731474158.769825,-0.35450124740600586,0.50801682472229,-9.950888633728027,-0.026658770003863894,-0.029797443373714906,-0.010740657034281727,1.2306056811670771,1.5497868374640027,-1.2905730081052849
1731474158.8206687,-0.35450124740600586,0.50801682472229,-9.950888633728027,-0.026644168416244084,-0.029344829067190867,-0.010907054435570062,1.2318075930422563,1.5450744968738837,-1.3007845857191351
1731474158.8206687,-0.3457523584365845,0.5308553576469421,-10.02107048034668,-0.026541134795851545,-0.029063014912588885,-0.011065617749688242,1.2318178776429347,1.5450326457358843,-1.300874674908936
1731474158.8708599,-0.3598632216453552,0.5240755081176758,-9.973990440368652,-0.026356061660239384,-0.028948857285566433,-0.011216025462599675,1.23293610850275,1.5403103953369293,-1.3109753705875167
1731474158.9206185,-0.37419551610946655,0.5006221532821655,-9.971975326538086,-0.026094988398654706,-0.028998622361540466,-0.011357965251643919,1.2339808311584128,1.5355532081256633,-1.321025512191083
1731474158.970634,-0.3892771303653717,0.5268489718437195,-10.022506713867188,-0.025763519873416088,-0.029208009272568343,-0.011491175866412242,1.2324223749906023,1.5655303168235652,-1.3293753228021201
1731474159.0204418,-0.42074161767959595,0.5047159194946289,-9.953629493713379,-0.0253666674608455,-0.029572136136012152,-0.011615448453443982,1.232950461136508,1.567696310325097,-1.3395244853664345
1731474159.0705018,-0.4061630666255951,0.5313308238983154,-9.978107452392578,-0.024908676498408555,-0.030085587154509805,-0.011730621901804537,1.2379499045180413,1.5982494983891513,-1.347901263227271
1731474159.1203768,-0.4061630666255951,0.5313308238983154,-9.978107452392578,-0.02439294872754823,-0.030742514220379838,-0.01183647767686252,1.2399489805236996,1.6176895560476696,-1.3562589392604574
1731474159.1203768,-0.40526318550109863,0.5140536427497864,-10.022367477416992,-0.023822122638837585,-0.03153675218105623,-0.011932724667976973,1.2399636666347618,1.617801885885863,-1.3563550440482788
1731474159.170345,-0.3965300917625427,0.502784788608551,-9.966509819030762,-0.023198232599475416,-0.03246185369032102,-0.012019152900845048,1.241483529462947,1.6296060882327288,-1.366503394194285
1731474159.2203305,-0.38581791520118713,0.508468508720398,-9.955740928649902,-0.022522874543774742,-0.03351101591709278,-0.012095678452509799,1.2429645084277419,1.6414684990034702,-1.3768025130587813
1731474159.2702694,-0.3934820294380188,0.535594642162323,-9.982986450195312,-0.021797374664773123,-0.0346770514277617,-0.012162173777035164,1.2443854505995942,1.6532077887078573,-1.3870988370358173
1731474159.3201983,-0.35386738181114197,0.5342658758163452,-9.970437049865723,-0.021022951844150574,-0.035952519613552746,-0.012218348361115447,1.2440324437393946,1.6498246749613388,-1.3954911701383164
1731474159.3701587,-0.3599652647972107,0.5136325359344482,-9.988588333129883,-0.020200900708287537,-0.037329906361736,-0.012263811336861937,1.2451914092804164,1.6592075545529068,-1.4058646342665382
1731474159.4200087,-0.32312655448913574,0.5253065824508667,-10.006949424743652,-0.01933281087243545,-0.03880167887104491,-0.012298199339094077,1.2473257343074058,1.6909846407555358,-1.4143656189390996
1731474159.4701254,-0.32851725816726685,0.5242536067962646,-9.958294868469238,-0.018420772480399056,-0.04036025303635053,-0.012321282217810753,1.2488008378712865,1.708103282348136,-1.4247245342115236
1731474159.5200732,-0.2989529073238373,0.5134327411651611,-9.978981018066406,-0.01746753325134398,-0.041997994275198604,-0.012332948585206949,1.2502382195829738,1.725199335900309,-1.435162352430438
1731474159.5699933,-0.2976040542125702,0.528435468673706,-10.035711288452148,-0.01647660861382448,-0.04370724040943195,-0.012333140993875598,1.251630693026886,1.7421562543042548,-1.4456108462865584
1731474159.6201284,-0.2584826648235321,0.5214108228683472,-9.999695777893066,-0.015452372118136548,-0.045480328504702294,-0.012321979833631556,1.2511376468516073,1.7045227216800163,-1.454120357891657
1731474159.6698892,-0.29298895597457886,0.5123870372772217,-9.98195743560791,-0.014400124848167767,-0.04730963291769721,-0.012299932803705272,1.252198148873309,1.710791822264013,-1.464607949155213
1731474159.7198591,-0.2805013358592987,0.5189118385314941,-9.997715950012207,-0.013326051618084749,-0.04918757283872026,-0.012267742030275166,1.253230992266741,1.7169815959668897,-1.4751952164684419
1731474159.7697053,-0.25231388211250305,0.526025652885437,-9.983038902282715,-0.012237066266859711,-0.051106611540548394,-0.012226249237546526,1.2548881608117395,1.7275210046078175,-1.4835988329152012
1731474159.8196115,-0.2625800669193268,0.5331252813339233,-9.989421844482422,-0.011140712257253205,-0.053059317960768876,-0.012176318303449262,1.2559923137408469,1.734397835874714,-1.494451452518902
1731474159.870672,-0.25197145342826843,0.5226522088050842,-10.016423225402832,-0.010045134327224167,-0.05503846294647459,-0.012118835838287354,1.25704456568023,1.740981581767711,-1.5050869078601514
1731474159.9206076,-0.2829984724521637,0.5082409381866455,-9.991646766662598,-0.008958971338576614,-0.05703705162714219,-0.012054772816591463,1.2580744880005321,1.7474341256807493,-1.5157663580480603
1731474159.9705005,-0.28480449318885803,0.5353925824165344,-9.947487831115723,-0.007891119242152266,-0.05904828077826098,-0.011985191373073332,1.25866108530157,1.7610469026496878,-1.5242548489014018
1731474160.0204332,-0.2747306227684021,0.5366898775100708,-10.02096939086914,-0.006850453080175808,-0.06106554584990116,-0.011911098855544365,1.2625013717216103,1.7768416409741854,-1.53377378009354
1731474160.0705328,-0.2890772521495819,0.5572153329849243,-9.990310668945312,-0.005845633177409394,-0.0630825667629282,-0.011833381296815593,1.2640391472229129,1.7845024845196704,-1.5435218586421346
1731474160.120394,-0.30816128849983215,0.5108066201210022,-9.969518661499023,-0.004884977352386879,-0.06509350980738055,-0.01175290056867041,1.265720346499298,1.7927888069810534,-1.554287429711297
1731474160.1703773,-0.3075338900089264,0.5318730473518372,-9.989680290222168,-0.003976289136249219,-0.06709295730438077,-0.011670492876212229,1.2673979103379325,1.800946391127,-1.5651300610364554
1731474160.220353,-0.3376113772392273,0.514896035194397,-9.994827270507812,-0.0031266535705494203,-0.0690757734994108,-0.011586885640818518,1.2649244205999775,1.7159651776137326,-1.5736797438098
1731474160.2703774,-0.34983736276626587,0.5286862254142761,-9.962014198303223,-0.0023422406487823696,-0.07103702196882464,-0.011502702484535212,1.2657894661410913,1.704864761012531,-1.5845637531479058
1731474160.3201654,-0.3544542193412781,0.5517596006393433,-9.99022388458252,-0.0016281171428079175,-0.07297199249560823,-0.011418461872768128,1.268152133561175,1.6937002856500765,-1.5929987162053088
1731474160.370143,-0.3516252934932709,0.5374683141708374,-9.990341186523438,-0.0009881339777162456,-0.0748763138102265,-0.011334549203542474,1.2691404380988511,1.6822604596783797,-1.6015231256075868
1731474160.4202018,-0.35329899191856384,0.519231379032135,-9.9598970413208,-0.0004249424063655366,-0.07674603674291956,-0.01125124513896528,1.270092943399595,1.6705674949682057,-1.612514455099349
1731474160.4702244,-0.3345542550086975,0.5284436941146851,-9.966591835021973,5.98946714783921e-05,-0.07857757252248776,-0.011168708039131716,1.2710397530369213,1.658744608050261,-1.6234733821360632
1731474160.5200076,-0.3611922562122345,0.5078816413879395,-10.020652770996094,0.0004657551518079783,-0.08036756337188854,-0.011086925581296585,1.271986380768325,1.646734222662572,-1.634450345448693
1731474160.570008,-0.3498118817806244,0.5143244862556458,-10.008946418762207,0.0007928509616967555,-0.08211278993525137,-0.0110058520496886,1.2702825770159578,1.6345056141792784,-1.6429852966730352
1731474160.6198819,-0.33152875304222107,0.5191381573677063,-9.96742057800293,0.0010421608324881451,-0.08381012375161583,-0.010925623462031655,1.270735094407807,1.622037978335987,-1.6540520326720354
1731474160.6699362,-0.3189314603805542,0.520063042640686,-9.994635581970215,0.0012152846019404993,-0.08545654222409073,-0.010846541467262293,1.2719558015933956,1.6094028571655454,-1.662576005457811
1731474160.7198498,-0.31146132946014404,0.49782794713974,-9.991044998168945,0.001314204176648767,-0.08704916926714648,-0.010768922291680274,1.2727314742093427,1.5964883692961978,-1.6737055782967545
1731474160.7696915,-0.27925825119018555,0.5191643238067627,-9.976333618164062,0.0013410438596988747,-0.08858526382837764,-0.01069305178908586,1.273333154390317,1.5835869913568907,-1.6820857959621383
1731474160.8196826,-0.26903486251831055,0.5131709575653076,-9.989280700683594,0.001297837776942744,-0.09006220266647452,-0.010619186546175,1.2740777325920147,1.5702287649946403,-1.693262572206958
1731474160.8696597,-0.26903486251831055,0.5131709575653076,-9.989280700683594,0.0011863118211930333,-0.09147752201240164,-0.01054753386516573,1.274838506129274,1.5566992460832958,-1.701791323465879
1731474160.8696597,-0.2614664137363434,0.5186227560043335,-10.001703262329102,0.0010077664854820504,-0.09282896819970853,-0.010478281312121453,1.2748439949530093,1.5565836801720974,-1.7018858618780304
1731474160.9207711,-0.2740640342235565,0.5009732246398926,-9.956851959228516,0.0007630856100369959,-0.09411451238461421,-0.010411634686579263,1.2755070187705526,1.542521451080169,-1.713302021013417
1731474160.9705622,-0.274027019739151,0.5083372592926025,-10.000702857971191,0.00045282610848794734,-0.09533232826399232,-0.010347769009426062,1.2767247220008209,1.5286255901719774,-1.721739232010383
1731474161.02048,-0.2422710508108139,0.5382094979286194,-10.02502155303955,7.731548137310432e-05,-0.09648078331113957,-0.01028681266069194,1.2798806400799665,1.5143389182380151,-1.730293358127928
1731474161.070523,-0.2966766655445099,0.5066756010055542,-9.966814994812012,-0.0003633009256231066,-0.09755851337736143,-0.010228973531900313,1.2816656793235934,1.4999056331469023,-1.7414901969861876
1731474161.1204453,-0.24885393679141998,0.5543649792671204,-9.974495887756348,-0.0008689972334829041,-0.09856452552363407,-0.010174569584942002,1.28346413305337,1.4851052666054732,-1.7528064963153704
1731474161.1704516,-0.2737577557563782,0.5325854420661926,-10.017370223999023,-0.0014397743829558222,-0.0994982770248204,-0.010123886242610415,1.2852425147521673,1.4702005311166995,-1.7640397290559262
1731474161.2202854,-0.2737577557563782,0.5325854420661926,-10.017370223999023,-0.002075611201082024,-0.10035973482253581,-0.010077184565758051,1.280387704426733,1.4549422271171442,-1.7725701160590563
1731474161.2202854,-0.2906055152416229,0.5151991844177246,-9.989680290222168,-0.002776394514470268,-0.10114933855260955,-0.010034881684100811,1.2803916219127234,1.4548223638147781,-1.7726584739386708
1731474161.2703397,-0.3137006163597107,0.5183002948760986,-9.986680030822754,-0.00354175866200172,-0.10186785906086511,-0.009997578919267775,1.2808845343290862,1.4394812232543217,-1.7838868625593651
1731474161.3202085,-0.3133438229560852,0.5345419645309448,-10.003192901611328,-0.00437088361352308,-0.102516282466376,-0.00996591751568995,1.2822141057268874,1.4236923206489724,-1.7924231608683676
1731474161.370244,-0.3098906874656677,0.528404951095581,-10.000290870666504,-0.005262343950480075,-0.10309580425184542,-0.00994050302765214,1.2829485113799648,1.4077610105456935,-1.8008711477457748
1731474161.4202275,-0.33454248309135437,0.49304723739624023,-9.936529159545898,-0.006214062711231153,-0.10360784416865895,-0.009921885737768045,1.2835051788373035,1.3914200055821537,-1.8123230576567793
1731474161.470167,-0.3619610667228699,0.5299280881881714,-10.047443389892578,-0.007223272346775271,-0.10405396118582078,-0.009910470158774422,1.2840388513616894,1.3750071381656706,-1.823669367094384
1731474161.5199888,-0.36124423146247864,0.5293492674827576,-9.995766639709473,-0.008286386779629553,-0.10443577948550513,-0.009906541026474563,1.2845551485052518,1.3582784719449854,-1.8350798228113514
1731474161.570011,-0.3769206404685974,0.5511707663536072,-9.91990852355957,-0.009398877333463573,-0.1047550746578477,-0.009910385959268565,1.2836903254438783,1.3412305425934183,-1.8435619573909818
1731474161.6198852,-0.3783719837665558,0.543317973613739,-9.976374626159668,-0.010555251165309733,-0.10501393013675772,-0.009922127791733792,1.283936276270851,1.3239338383322137,-1.8550437901988932
1731474161.6698837,-0.24439649283885956,0.7247949242591858,-9.980547904968262,-0.01174923029508066,-0.1052149803610747,-0.009941454937127503,1.284154025936686,1.3064043988572156,-1.8665310034991174
1731474161.7198694,0.5133981704711914,1.6614665985107422,-9.919093132019043,-0.012975006427844764,-0.10536285556899627,-0.009967631381538762,1.283679285719762,1.2886154974000323,-1.8749642963040298
1731474161.769799,0.2999531030654907,1.1952157020568848,-10.016883850097656,-0.014230438769003772,-0.10546776939708023,-0.009999589794130091,1.2837114294226057,1.2705378161742988,-1.8865072558701044
1731474161.8197489,0.4892212450504303,1.505788803100586,-9.938413619995117,-0.015520457580317252,-0.10554887098698004,-0.010036006205689705,1.2837064388490453,1.2521935484051092,-1.898077246221974
1731474161.8706505,-0.516516387462616,-0.022402653470635414,-9.965340614318848,-0.01685736453401462,-0.10563343115285392,-0.010075404056603595,1.2838392498384932,1.233214018535772,-1.9067392816265865
1731474161.9206002,-0.9550522565841675,-0.21024510264396667,-10.16689682006836,-0.018256446037659177,-0.105750457470185,-0.010116343996320994,1.2837818459599897,1.2143525896872083,-1.9151533759630015
1731474161.9705899,-0.7593311667442322,-0.04050649330019951,-10.03207015991211,-0.019728945740587915,-0.10592199501308058,-0.010157988472618371,1.2837133295720673,1.1952620255255375,-1.9267505919680021
1731474162.0203743,-0.5015047788619995,0.2697582244873047,-10.028075218200684,-0.021277602818445356,-0.1061585420196036,-0.010200644438574734,1.2834570622155113,1.1759724998899335,-1.9350905667597633
1731474162.0706327,-0.6376875638961792,0.10086476802825928,-9.939265251159668,-0.022897219661391584,-0.10646046011546326,-0.010245512680620544,1.283251730045936,1.1561241642738382,-1.9468654547700024
1731474162.1203902,-0.4812456965446472,0.29825708270072937,-9.977543830871582,-0.02457721268013544,-0.10682114681321896,-0.010293926162704884,1.2829889019802339,1.1361995037800585,-1.958552829759277
1731474162.1703827,-0.5795964598655701,0.24074093997478485,-9.958183288574219,-0.02630333921261876,-0.10722914565780137,-0.010346816983590664,1.2826644201362285,1.1161091300976727,-1.9702075691650938
1731474162.2203078,-0.508014976978302,0.46040502190589905,-9.957934379577637,-0.02805866918033339,-0.1076697134224229,-0.010404576189319895,1.2830449695309365,7.33137811091999,-1.9786380472918412
1731474162.2702415,-0.508804440498352,0.4490143060684204,-9.982624053955078,-0.029824321456407163,-0.10812649824563925,-0.010467101992103324,1.282823265254716,7.322921966012711,-1.990340031264954
1731474162.320172,-0.48865872621536255,0.4541880786418915,-9.978496551513672,-0.031580145263864656,-0.10858308416300567,-0.010533920457809072,1.282524441201217,7.314165155971968,-2.002111578377523
1731474162.370213,-0.5410983562469482,0.4174778163433075,-9.919493675231934,-0.03330532735653685,-0.10902385552586255,-0.010604291113890493,1.282639558135388,7.310055195587481,-2.01048316946674
1731474162.4201007,-0.47556886076927185,0.47924375534057617,-9.938119888305664,-0.034978778434936436,-0.1094341760278871,-0.010677124156362064,1.2823944774490188,7.300966110587137,-2.022350310633101
1731474162.47022,-0.47460830211639404,0.529241681098938,-10.030539512634277,-0.03657946231044081,-0.10980050719576447,-0.010750883341990966,1.2820612432454364,7.291644438279296,-2.0341908047136097
1731474162.5199964,-0.4850676357746124,0.5224998593330383,-9.974165916442871,-0.03808683947795659,-0.11011080610244034,-0.010823836788080406,1.2816389885921466,7.282567826882969,-2.0425134781424763
1731474162.5699408,-0.48955443501472473,0.4771479666233063,-9.996931076049805,-0.03948122580373802,-0.11035486676943915,-0.01089443704009364,1.2811781771863664,7.2719463968384925,-2.0543892113767765
1731474162.6199024,-0.4665283262729645,0.4885329604148865,-9.979948997497559,-0.04074395817790961,-0.11052424700548247,-0.010961423813325027,1.281001439706523,7.252705228668255,-2.0627299080859447
1731474162.669962,-0.46965348720550537,0.5105751752853394,-9.998185157775879,-0.04185754399495016,-0.11061198177128145,-0.01102375544982093,1.2792451225059254,7.220451718207592,-2.0710200477171887
1731474162.7198188,-0.4509274959564209,0.5246589779853821,-10.004263877868652,-0.04280587131328409,-0.11061247454045539,-0.011080600884419508,1.2781189032933435,7.1986474815334125,-2.082999240349428
1731474162.7698064,-0.4414564073085785,0.5083518624305725,-9.974061965942383,-0.04357441569327471,-0.11052156379086835,-0.01113137265953331,1.2768893873456535,7.176649350914376,-2.094961408262876
1731474162.8197534,-0.41812509298324585,0.5166147947311401,-9.975350379943848,-0.04415043522983737,-0.11033652498529611,-0.011175675637731657,1.278782342798941,7.1468910448367104,-2.1032484782321
1731474162.8696876,-0.38708367943763733,0.5227304100990295,-9.974908828735352,-0.044523186504708205,-0.11005596127232734,-0.011213165455794781,1.278294480315334,7.1252159486463995,-2.1152876820030726
1731474162.9196005,-0.36882284283638,0.5231413841247559,-9.979649543762207,-0.04468417009283631,-0.10967970005788186,-0.011243454984485422,1.2752346007656512,7.057163322859327,-2.123524067827683
1731474162.970591,-0.3273898661136627,0.5379171371459961,-10.020581245422363,-0.044627377613658696,-0.10920873368906439,-0.011266158195241691,1.2736655806959971,7.017207520642392,-2.135862214777428
1731474163.0204976,-0.3707225024700165,0.505232036113739,-9.976547241210938,-0.044349456162587626,-0.10864514835830162,-0.011281031445679495,1.272016196856816,6.977790131781461,-2.1479776510463444
1731474163.070438,-0.3476724922657013,0.5362069010734558,-9.949875831604004,-0.0438496616714852,-0.10799199225147073,-0.011288014306433461,1.2702655190297767,6.938297072868056,-2.160061763656196
1731474163.1203568,-0.3835640251636505,0.5246970653533936,-9.991329193115234,-0.04312959175283099,-0.10725313276381296,-0.011287062421716983,1.2737503898387226,7.004809185777543,-2.168278051323257
1731474163.1703653,-0.3614824414253235,0.5287243723869324,-9.99287223815918,-0.04219284712234508,-0.10643317116924689,-0.011278035360223338,1.2730444076425909,6.987109778307443,-2.1804731893083624
1731474163.2202575,-0.377625972032547,0.5039097666740417,-9.963214874267578,-0.04104473968176741,-0.10553734683202828,-0.01126078466006989,1.2701799788384347,6.916615522322873,-2.188631621926056
1731474163.2702463,-0.3766827881336212,0.5053097605705261,-10.006082534790039,-0.0396920623020921,-0.10457135438421312,-0.01123522715580987,1.2685991470245104,6.879764815968897,-2.2009078127693043
1731474163.3201778,-0.37935033440589905,0.516689121723175,-9.970401763916016,-0.03814288197212663,-0.10354114611735273,-0.011201346227336068,1.2676928950852826,6.827560895168841,-2.209100555697452
1731474163.3702471,-0.40080633759498596,0.4964871406555176,-10.002296447753906,-0.03640632389846833,-0.10245281774010295,-0.011159213583487133,1.2659306171899771,6.7751277559081675,-2.221372154510848
1731474163.4201424,-0.38300633430480957,0.5083088278770447,-10.015450477600098,-0.03449234817917729,-0.10131254434590477,-0.011109041945719267,1.2640807083541923,6.722463463767961,-2.2336661558648343
1731474163.470025,-0.443865567445755,0.4779611825942993,-10.014248847961426,-0.0324115184081557,-0.10012648862869247,-0.011051294940208707,1.266403242535547,6.830019278361285,-2.241785935600833
1731474163.5200374,-0.3783123791217804,0.5307408571243286,-9.943964958190918,-0.03017476597766576,-0.09890071144881643,-0.01098673473730564,1.2655817559477713,6.817582926149013,-2.2541700343023763
1731474163.569949,-0.4149475693702698,0.529784619808197,-9.995633125305176,-0.02779324414031414,-0.09764120407297745,-0.01091623577446578,1.2649663690538522,6.789390096914906,-2.262261508275284
1731474163.6199312,-0.4006003737449646,0.5575022101402283,-9.984058380126953,-0.025278309656616527,-0.09635407135634275,-0.010840565520594675,1.2636270241594403,6.772756963552761,-2.2703630637613927
1731474163.6698508,-0.4396592080593109,0.5405032634735107,-9.956144332885742,-0.02264146804551345,-0.09504571669637635,-0.010760353651882935,1.2627469538205607,6.758951369381817,-2.282748213185584
1731474163.719805,-0.4295702874660492,0.5543187260627747,-9.9859037399292,-0.01989419374531162,-0.09372289504496643,-0.010676095644032093,1.2618098153492472,6.744849746309464,-2.2952136777087317
1731474163.7697442,-0.42668965458869934,0.5741111636161804,-9.961564064025879,-0.017047746445050572,-0.09239267971818212,-0.010588110082651724,1.2608318653636243,6.730594447169397,-2.3076366560549646
1731474163.8196783,-0.4360142648220062,0.5671287775039673,-9.956544876098633,-0.014113094642437228,-0.0910624549465527,-0.01049652275011911,1.262554403376719,6.726062212052965,-2.3156968183385347
1731474163.8696399,-0.4315682351589203,0.557338535785675,-9.982433319091797,-0.011100907479678276,-0.08973990551360068,-0.01040125359778047,1.2621061147729957,6.7128331392681835,-2.3282095872209294
1731474163.9195507,-0.42473089694976807,0.5397765636444092,-10.009066581726074,-0.00802155043342666,-0.08843288747642442,-0.010302081582419286,1.2616360332359404,6.699441141824378,-2.3406927218903264
1731474163.9695463,-0.42673540115356445,0.5290296673774719,-9.97465991973877,-0.0048851048059752825,-0.08714918377926231,-0.010198836862598114,1.261031962578332,6.673687320227492,-2.3487134133389147
1731474164.0205133,-0.41879597306251526,0.5388911366462708,-9.974834442138672,-0.0017014112260888105,-0.08589625985448841,-0.010091507575788063,1.2604429772682557,6.654237223954997,-2.3615953937112137
1731474164.070491,-0.38974595069885254,0.5596628785133362,-10.005626678466797,0.0015198675720827413,-0.08468114544514053,-0.00998018177186882,1.259870516255755,6.635127868947189,-2.3741349198597885
1731474164.1204576,-0.38453778624534607,0.5208667516708374,-9.979079246520996,0.004769117988118596,-0.08351044926502678,-0.009865023173193524,1.2592116924125034,6.627584758097021,-2.382127030860178
1731474164.1704335,-0.3518224358558655,0.524154782295227,-9.996140480041504,0.008036590276282393,-0.08239033478682267,-0.009746317250204452,1.258256040839033,6.5706027146563954,-2.3900120505600486
1731474164.2203336,-0.34355854988098145,0.5191760063171387,-10.006608963012695,0.01131221523749802,-0.08132638119893125,-0.009624491525838788,1.2576986175863525,6.542656823056674,-2.4026639916279837
1731474164.270315,-0.3270731568336487,0.5440074801445007,-9.949302673339844,0.014585457224375351,-0.0803234881118175,-0.009500102812953801,1.256683130924049,6.52081788330334,-2.410561975186937
1731474164.3202639,-0.3096349239349365,0.5479848384857178,-10.00139331817627,0.017845225221139713,-0.07938594076621824,-0.009373748908087218,1.255996883497157,6.4943378185201475,-2.4232541296308443
1731474164.3701947,-0.3083556592464447,0.5252760648727417,-10.021833419799805,0.021079840726349525,-0.07851753926148658,-0.009246007689557413,1.255361879847607,6.467769298371806,-2.4359176511124
1731474164.4201214,-0.32990550994873047,0.5256478190422058,-9.975671768188477,0.024277090672187134,-0.07772162300357773,-0.00911755201977641,1.2547829513165374,6.440993675827577,-2.448610141529907
1731474164.4701505,-0.3092363774776459,0.5399481058120728,-9.969268798828125,0.027424406890007184,-0.07700099748767608,-0.00898920371765641,1.2563752161762953,6.487949421831038,-2.4564509943280615
1731474164.520042,-0.2887982428073883,0.5596032738685608,-9.972800254821777,0.03050905951721823,-0.0763579405774085,-0.008861754382309196,1.2562544530973623,6.4748638123339814,-2.469186152897113
1731474164.5699935,-0.3595009446144104,0.7189980745315552,-9.982955932617188,0.033518283087001347,-0.07579449065079813,-0.008735801434616712,1.2545588972783985,6.433225643575845,-2.476968280274187
1731474164.6199439,-0.6427477598190308,1.415651559829712,-9.925313949584961,0.036439781032286234,-0.07531377628007033,-0.008611710472490115,1.2539727115208161,6.409252361976989,-2.489774682431468
1731474164.6699345,-0.6165494918823242,0.5551245808601379,-9.866538047790527,0.03926309659967791,-0.07492244515539646,-0.008489448357015504,1.2534831751094708,6.385187186316083,-2.502551483273626
1731474164.719879,-1.4786083698272705,0.4926488995552063,-10.089213371276855,0.04198192086413301,-0.0746312012658797,-0.008368362453787201,1.253969502179158,6.406875238835577,-2.5102861780327776
1731474164.7698503,-0.5003513693809509,0.51936936378479,-9.853687286376953,0.04459672248260713,-0.0744518139262688,-0.008247357197156979,1.2538642730685523,6.39616206751121,-2.5231078750265317
1731474164.8198128,0.04512631148099899,0.05102386325597763,-10.057523727416992,0.0471145403912622,-0.07439362265364403,-0.008125250227095253,1.2521856773175102,6.360279884530169,-2.5307467425579726
1731474164.869673,0.020476045086979866,0.24266284704208374,-10.213884353637695,0.049543786431934085,-0.07446135729303163,-0.008001153113632142,1.2516603722325612,6.340257386398648,-2.5435824925158337
1731474164.9197352,-0.06659018248319626,0.2546806335449219,-9.995284080505371,0.05188843705802258,-0.07465391893590345,-0.007875258577304535,1.251188395217612,6.315263382437135,-2.5512461417342727
1731474164.9696233,-0.22866807878017426,0.2495405673980713,-9.991610527038574,0.0541464244973006,-0.07496461288537497,-0.007749252224622494,1.2507253616443517,6.289551099241341,-2.5640716026805186
1731474165.0195842,-0.17199070751667023,0.28089892864227295,-9.977840423583984,0.056311194721639465,-0.07538234638325331,-0.007625608949964645,1.2503971210845048,6.263462380146448,-2.577010251190807
1731474165.0705101,-0.17834487557411194,0.4154818058013916,-9.964560508728027,0.058373500457273145,-0.07589278210174336,-0.007506717400353802,1.2505783584659815,6.283053461048112,-2.584725415131586
1731474165.1204085,-0.16542883217334747,0.4964807629585266,-9.969206809997559,0.06032231779198459,-0.07647965988899968,-0.0073945355956441545,1.25052237671812,6.269890433361413,-2.59766860515945
1731474165.1703877,-0.23587629199028015,0.5165247917175293,-9.943984985351562,0.062145280230280514,-0.07712637494636754,-0.007290499743624456,1.2499791218332803,6.229666817548422,-2.605092290929436
1731474165.220306,-0.22092512249946594,0.4952094256877899,-9.973434448242188,0.06382922129897348,-0.07781718868770303,-0.0071954833465525,1.249908315738137,6.206063536982528,-2.6180754142039624
1731474165.2703137,-0.2323492467403412,0.5198451280593872,-9.967941284179688,0.06536080792546317,-0.0785377184664159,-0.007109837628544127,1.2499989896367494,6.182357104259796,-2.631025810036664
1731474165.3203123,-0.25136658549308777,0.5174309611320496,-9.953958511352539,0.06672701341006865,-0.07927499531080352,-0.007033502118353592,1.250255062445656,6.158390546433244,-2.644028197643369
1731474165.37022,-0.22930991649627686,0.5732638835906982,-9.989588737487793,0.06791542558359145,-0.08001750251434848,-0.006966098723587337,1.250679002756713,6.134258165178149,-2.657030066339756
1731474165.4201612,-0.27895158529281616,0.5520592331886292,-10.02342414855957,0.06891448643479645,-0.08075531968506472,-0.006907069970213191,1.2495532423856341,6.184154906253463,-2.6643263164491264
1731474165.4701998,-0.257144570350647,0.5125899314880371,-9.987648010253906,0.06971371759341863,-0.08148019626231646,-0.006855935245133199,1.2494007802611309,6.1180110405431805,-2.671616936159092
1731474165.520094,-0.27159884572029114,0.5109673142433167,-10.002777099609375,0.07030392907299107,-0.08218533673118666,-0.00681246402714554,1.2495652981067515,6.088907056752076,-2.6846687812985786
1731474165.5700138,-0.2805241048336029,0.5076335072517395,-10.030702590942383,0.07067735008936453,-0.08286501644229435,-0.006776677177109285,1.249903813390053,6.0597860518982705,-2.6976532247362948
1731474165.6199641,-0.29612553119659424,0.549163281917572,-9.971040725708008,0.07082771974436555,-0.08351434965443252,-0.006748834786838295,1.250421038764423,6.030284657966705,-2.710731526547975
1731474165.6699429,-0.11691132932901382,0.7504041194915771,-9.982314109802246,0.07075023778897453,-0.08412950093247222,-0.006729361039877476,1.2511118324482131,6.000716075661137,-2.7237639629642914
1731474165.7198658,0.6160908341407776,1.6543776988983154,-9.985828399658203,0.07044036216951147,-0.08470932961479291,-0.0067186456100003025,1.2490261350751144,6.040592522158668,-2.7308965536511356
