Timestamp,IMU_Linear_Acc_X,IMU_Linear_Acc_Y,IMU_Linear_Acc_Z,Filtered_X,Filtered_Y,Filtered_Z,Pose_X,Pose_Y,Pose_Z
1776005029.0016308,0.0095800785347819,0.0095800785347819,9.80041980743408,0.0,0.0,0.0,6.060999870300293,0.578000009059906,0.0005893284687772393
1776005029.023639,0.0047900392673909,0.0,9.80521011352539,4.3037839224487155e-09,8.60756784489734e-09,4.304023660043797e-09,6.060999870301345,0.5780000090620092,0.0005893284698289048
1776005029.0246356,0.0,0.0,9.80521011352539,4.23312678258484e-08,7.605496780679876e-08,3.802960218296546e-08,6.060999870301447,0.5780000090622112,0.0005893284699298709
1776005029.0460591,0.0143701173365116,0.0191601570695639,9.80521011352539,1.9456413706565386e-07,3.216808733326231e-07,1.6945744342771418e-07,6.06099987034972,0.5780000091428547,0.0005893285122623202
1776005029.0466137,-0.023950194939971,0.0,9.8100004196167,6.09590279771868e-07,9.046941072122011e-07,5.24127431811849e-07,6.060999870351926,0.5780000091465085,0.0005893285141894918
1776005029.0676303,0.0047900392673909,0.0047900392673909,9.78604984283447,1.5477766603550748e-06,1.985872233021323e-06,1.2745094620008098e-06,6.060999870789938,0.5780000097442615,0.0005893288796996046
1776005029.0686448,-0.0047900392673909,0.0,9.80521011352539,3.4254201809377877e-06,3.7465860952104423e-06,2.587524357446735e-06,6.060999870825709,0.5780000097914557,0.0005893289092682019
1776005029.0906343,-0.0095800785347819,0.0,9.78604984283447,6.794114776649222e-06,6.426096709344749e-06,4.56275820803586e-06,6.060999870216919,0.57800000895542,0.0005890453184059894
1776005029.0916271,0.0,0.0095800785347819,9.80521011352539,1.2304043395799794e-05,1.0326525919476138e-05,7.210909575993524e-06,6.060999871995285,0.5780000106737548,0.0005889887678264326
1776005029.1116226,0.0095800785347819,0.0047900392673909,9.79084014892578,2.0671222992153604e-05,1.5781687550711216e-05,1.0466690590348424e-05,6.060999879556525,0.5780000170835523,0.0005889391970479183
1776005029.1126397,0.0,0.0,9.819580078125,3.260541474561934e-05,2.3121429751510106e-05,1.4226548807245085e-05,6.06099988014336,0.5780000175609966,0.0005889369559650314
1776005029.1336334,-0.0047900392673909,0.0095800785347819,9.8100004196167,4.875717002982481e-05,3.266702879831141e-05,1.842423139851222e-05,6.06099990383503,0.5780000352468707,0.0005888933413207175
1776005029.134633,-0.0095800785347819,0.0047900392673909,9.78125953674316,6.974633855604846e-05,4.473146915255032e-05,2.308587735341982e-05,6.0609999053997035,0.578000036374883,0.0005888915946318714
1776005029.1556258,0.0047900392673909,0.0,9.80521011352539,9.621202322706985e-05,5.9606651580157e-05,2.8272331984065113e-05,6.0609999625751,0.5780000753779602,0.0005888588245783947
1776005029.156634,0.0143701173365116,-0.0047900392673909,9.82437038421631,0.0001287897277541897,7.757840635831734e-05,3.401251819507063e-05,6.06099996625689,0.5780000778231107,0.0005888576178384813
1776005029.177644,0.0,-0.0095800785347819,9.80521011352539,0.00016802268969960476,9.897782928760831e-05,4.037637546283298e-05,6.061000084918575,0.5780001537423747,0.0005888407377457407
1776005029.1786397,-0.0047900392673909,0.0047900392673909,9.79562950134277,0.000214321778765852,0.0001242197477875205,4.755342047497981e-05,6.061000091694445,0.5780001579910167,0.0005888404186195846
1776005029.1996377,-0.0143701173365116,0.0047900392673909,9.8100004196167,0.0002680317200235348,0.00015377809923485127,5.57973296710428e-05,6.0610003104918135,0.5780002919299712,0.0005888457781314256
1776005029.200631,0.0,0.0047900392673909,9.79084014892578,0.00032952221320032757,0.00018811233702806755,6.534354306252983e-05,6.06100032341247,0.5780002997286339,0.0005888466208096051
1776005029.2216697,0.0,0.0,9.78604984283447,0.0003992043690156663,0.00022761773243605685,7.636093263897724e-05,6.061000699322179,0.5780005235259127,0.0005888828492568897
1776005029.2226536,0.0047900392673909,0.0,9.80041980743408,0.0004774706320119215,0.00027263101836150325,8.889426221127118e-05,6.061000718926036,0.5780005350986436,0.000588885109222508
1776005029.2436335,-0.0047900392673909,0.0191601570695639,9.78604984283447,0.0005646350682996423,0.00032343991680907047,0.00010283833593061805,6.061001314024142,0.5780008841384856,0.00058896234883912
1776005029.2446344,0.0,0.0,9.8100004196167,0.0006609263740377366,0.00038024852912884146,0.00011797387210419584,6.061001348668652,0.5780009043733491,0.0005889671722814215
1776005029.2656412,0.0,0.0,9.78604984283447,0.0007665085366098492,0.0004431530807307507,0.00013402096006986068,6.061000011543425,0.5780000923305966,0.0005890327888784313
1776005029.2666466,0.0047900392673909,-0.0047900392673909,9.80041980743408,0.000881481707533187,0.0005121913647315442,0.00015066809187683344,6.061000028878422,0.5780001023644544,0.0005890357547207196
1776005029.2876291,-0.023950194939971,0.0,9.79562950134277,0.0010058835242538174,0.0005874111190855554,0.00016757152873448408,6.061000647744505,0.5780004617392338,0.0005891406376506636
1776005029.2886345,0.0,0.0095800785347819,9.79562950134277,0.001139742478139711,0.0006688804694183702,0.00018435965358801654,6.061000688172684,0.578000485253765,0.0005891474545641619
1776005029.3096259,0.0,-0.0095800785347819,9.79084014892578,0.0012831231586071486,0.0007566533755768703,0.00020064152606760294,6.061001836003816,0.578001155218669,0.0005893374506448182
1776005029.3106325,-0.0047900392673909,-0.0047900392673909,9.79562950134277,0.0014360865646628877,0.0008507661835722229,0.00021599739893515547,6.06100190358647,0.578001194750922,0.0005893485057134844
1776005029.3316212,0.0,0.0047900392673909,9.80521011352539,0.0015986347783283144,0.0009512735351286689,0.00022998419048908796,6.061003721000381,0.5780022615304596,0.0005896386198915841
1776005029.332629,0.0095800785347819,0.0143701173365116,9.80041980743408,0.001770690415465818,0.0010582311515467137,0.00024218372626038937,6.061003822693432,0.5780023213637313,0.0005896545745871461
1776005029.354628,0.0047900392673909,0.0,9.8100004196167,0.0019520628461244787,0.0011716165297606307,0.00025226085745333124,6.061000596441955,0.5768408990265511,0.0005891237449657201
1776005029.3556283,-0.0143701173365116,0.0,9.819580078125,0.0021424294894246783,0.0012912969485742078,0.0002600119972267909,6.061000648763101,0.5768313461167568,0.000589130776660723
1776005029.376623,0.0,0.0287402346730232,9.78604984283447,0.0023413947653415047,0.0014170509859553727,0.00026539625437865626,6.061002334888651,0.5766222255255727,0.0005893462132099244
1776005029.3776321,0.0095800785347819,0.0095800785347819,9.80041980743408,0.0025485497189765127,0.001548536250290871,0.0002684867701165534,6.0610024540269745,0.5766110886920442,0.0005893610016309855
1776005029.3786385,0.0,0.0,9.82437038421631,0.002763441126284997,0.0016852420646540616,0.00026938929686426123,6.061002547472208,0.5766025647977512,0.0005893725506541779
1776005029.398622,-0.0191601570695639,-0.0191601570695639,9.8100004196167,0.0029855416650298398,0.0018265677835185572,0.0002682759742064758,6.061005347310026,0.5764042392001695,0.0005896978030766029
1776005029.3996294,0.0,0.0,9.78604984283447,0.0032143160855964913,0.001971985307634479,0.00026545184813434833,6.06100551329093,0.5763946571279965,0.0005897162728438501
1776005029.420632,0.0095800785347819,-0.023950194939971,9.79084014892578,0.003449273369303029,0.002121137621978684,0.00026127182858359934,6.06100991188234,0.5761871337146182,0.0005901776963965263
1776005029.421633,-0.0047900392673909,0.0,9.79084014892578,0.003689911661502694,0.0022738516290101074,0.00025598765771647606,6.061010153138855,0.5761775267541154,0.0005902019105975779
1776005029.4426224,-0.0191601570695639,0.0,9.78604984283447,0.003935680494341054,0.0024300995151201113,0.00024968373160920215,6.061001336395503,0.5769388549690826,0.0005890322270074691
1776005029.4436245,0.0095800785347819,-0.0143701173365116,9.81478977203369,0.004186039947260455,0.0025899254365752463,0.00024230640847233305,6.0610014412933095,0.5769380269991047,0.000589038692321651
1776005029.4646254,0.0,0.0047900392673909,9.80041980743408,0.004440485146273814,0.002753399573182127,0.00023375515503392947,6.061004726414954,0.576920811599451,0.000589232188430518
1776005029.4656317,0.0143701173365116,0.0,9.81478977203369,0.004698472180271708,0.002920600250046661,0.0002239906602433399,6.061004928914768,0.5769200335792447,0.0005892438020507439
1776005029.4866202,0.0191601570695639,0.0095800785347819,9.77647018432617,0.004959330154135523,0.00309156413853022,0.0002130656221890478,6.06101038347089,0.5769041791813803,0.0005895404155916502
1776005029.4876263,0.0,-0.0191601570695639,9.83395004272461,0.0052222142743151186,0.0032662487326425506,0.0002010765797365218,6.0610106944773285,0.5769034661259765,0.0005895566989690874
1776005029.5086231,0.0095800785347819,0.0,9.79562950134277,0.005486128865803099,0.003444574604432876,0.0001881611996917962,6.061018570601592,0.5768891081657673,0.0005899464190104125
1776005029.5096252,0.0,-0.0143701173365116,9.82437038421631,0.005750005249096168,0.003626496132276495,0.0001745642672073407,6.061018993098131,0.576888481878724,0.0005899664224391007
1776005029.530616,0.0,0.023950194939971,9.80521011352539,0.006012769332820928,0.0038120008295684836,0.00016067073130269252,6.061029551141975,0.5768757788888743,0.0005904377871449738
1776005029.531626,0.0,0.0095800785347819,9.79562950134277,0.006273386766684191,0.004001009341808214,0.00014697157379345462,6.061030103044886,0.5768752334579593,0.0005904612601982624
1776005029.5526187,0.0047900392673909,0.0,9.79084014892578,0.006530888496959312,0.0041932698768174115,0.00013396871372326768,6.061002646786404,0.5769916622761496,0.0005891436945002944
1776005029.5536287,0.0,0.0143701173365116,9.77167987823486,0.006784366446859198,0.004388356890811884,0.00012203792823164562,6.061002847901847,0.5769917089897074,0.0005891498880249719
1776005029.5747619,0.0,0.0,9.81478977203369,0.0070329653950175494,0.004585728238328033,0.00011133534919966024,6.061008487280383,0.5769937109340639,0.0005892990346025747
1776005029.575776,0.0,0.0047900392673909,9.78604984283447,0.007275893226771901,0.004784762453884908,0.00010182827033266115,6.061008811490621,0.5769938477986862,0.0005893068256507756
1776005029.5767655,0.0095800785347819,-0.0095800785347819,9.78604984283447,0.007512425107078542,0.00498480459988433,9.337952974161365e-05,6.061009152570073,0.5769939934208634,0.0005893149477013885
1776005029.5967672,0.0095800785347819,-0.0095800785347819,9.79084014892578,0.00774187228965075,0.00518524037504061,8.575158618062861e-05,6.061017838108848,0.5769980974896527,0.0005895010880368688
1776005029.5977666,0.0095800785347819,0.0,9.80041980743408,0.00796353419658627,0.00538555885916862,7.858550103117105e-05,6.061018327225184,0.5769983439118368,0.0005895107636885563
1776005029.6189036,-0.0095800785347819,0.0,9.79084014892578,0.008176692849639119,0.005585353155651706,7.144933502760416e-05,6.061031178162374,0.5770051629997217,0.0005897438055502424
1776005029.6197858,0.0,0.0,9.79562950134277,0.008380677757539975,0.005784268273989955,6.389326316892629e-05,6.061031738684839,0.577005471540718,0.0005897532835404172
1776005029.6407523,0.0,0.0143701173365116,9.79562950134277,0.0085749381384882,0.00598194788759745,5.546239690044265e-05,6.061048300816296,0.5770148764266069,0.0005900129305194042
1776005029.6417747,0.0,0.0095800785347819,9.80041980743408,0.008759051568236373,0.006177980789063399,4.570800294545124e-05,6.061049181145563,0.5770153885729131,0.0005900258592843382
1776005029.662756,-0.0047900392673909,0.0047900392673909,9.79562950134277,0.008932700026925366,0.006371856383831096,3.421444530107373e-05,6.061003833263167,0.5770015570097539,0.0005891032413067924
1776005029.6637735,0.0,-0.0095800785347819,9.80521011352539,0.009095665857847485,0.006562988711752714,2.062191462647375e-05,6.061004094313791,0.5770017343141305,0.0005891051457153493
1776005029.6847577,-0.0095800785347819,-0.0047900392673909,9.81478977203369,0.009247840312429794,0.006750811290673814,4.658190192833704e-06,6.061011706811773,0.5770070122347459,0.0005891463607235493
1776005029.6857738,-0.0191601570695639,0.0047900392673909,9.80041980743408,0.009389246913476387,0.006934853434432507,-1.3809455713091191e-05,6.061012162115423,0.5770073316017462,0.0005891483272940351
1776005029.6867592,0.0,0.0,9.79084014892578,0.009520081335363405,0.007114731015257757,-3.47705275165073e-05,6.061012608081631,0.5770076447741889,0.0005891501947453546
1776005029.706777,0.0,-0.0047900392673909,9.77647018432617,0.009640700155947245,0.007290103428614169,-5.817313869602307e-05,6.061024171042282,0.5770158739615788,0.0005891779700212315
1776005029.707776,0.0,0.0143701173365116,9.819580078125,0.009751536134259603,0.007460658329766587,-8.403674115306152e-05,6.06102479836761,0.5770163246454837,0.0005891786719401833
1776005029.728769,0.0,0.0,9.77647018432617,0.009853025282803686,0.007626089982911068,-0.00011244788444697523,6.061041316914415,0.5770283177069904,0.000589168860615222
1776005029.7297866,0.0,0.0047900392673909,9.78604984283447,0.009945587862719135,0.0077860681496509645,-0.00014352128731809339,6.061042204914495,0.5770289676507273,0.0005891671495988832
1776005029.7507617,0.0143701173365116,-0.0047900392673909,9.81478977203369,0.0100296166351935,0.007940250991492459,-0.00017742230747361167,6.061063290539892,0.5770445382089705,0.0005890903251408013
1776005029.7519207,0.0,0.0143701173365116,9.80521011352539,0.010105441296655835,0.00808831796070382,-0.00021432500491783187,6.061064513715131,0.577045447989254,0.0005890841372412453
1776005029.7727675,0.0191601570695639,-0.0143701173365116,9.8100004196167,0.010173294687040335,0.008229976207714252,-0.00025428592586242854,6.061090122907233,0.5770646469326232,0.000588908481909678
1776005029.7737741,0.0,-0.0047900392673909,9.80041980743408,0.010233302484654764,0.008364983160180679,-0.00029718999326983753,6.061091410187243,0.5770656183764522,0.0005888976927413206
1776005029.794682,0.0143701173365116,0.0,9.81478977203369,0.010285493016480955,0.008493199739969067,-0.00034277986400577305,6.061004838359277,0.5770036973465595,0.0005890311206709024
1776005029.7957072,0.0,0.0,9.81478977203369,0.010329824074899605,0.008614595709758635,-0.00039066976896550234,6.0610051641876135,0.5770039597704456,0.000589022861250564
1776005029.7967796,0.0191601570695639,0.0,9.80521011352539,0.010366206666569603,0.008729201359676798,-0.00044032888086403897,6.061005493403518,0.5770042252812364,0.0005890143533096499
1776005029.816752,-0.0143701173365116,0.0095800785347819,9.80041980743408,0.010394521594712453,0.008837065856284649,-0.0004911036729386612,6.061014115263844,0.5770112735884626,0.0005887451503047557
1776005029.8177643,0.0,0.0143701173365116,9.79084014892578,0.010414672816121816,0.008938213130997519,-0.0005423076046493505,6.061014642600893,0.5770117082082562,0.000588726951778201
1776005029.838754,0.0095800785347819,0.0095800785347819,9.78604984283447,0.010426654128959842,0.009032583318799263,-0.0005933324503353161,6.06102840297863,0.5770231499485462,0.0005881985747117075
1776005029.8397634,-0.0095800785347819,0.0,9.819580078125,0.010430548842938876,0.00912001434122794,-0.000643707745373887,6.061029165279969,0.5770237878014918,0.000588167173444376
1776005029.8607483,0.0047900392673909,0.0047900392673909,9.81478977203369,0.010426502658381468,0.009200292269695058,-0.000693033640986011,6.061047737246366,0.5770394369764487,0.0005873417408653207
1776005029.8617651,0.0,0.0095800785347819,9.78125953674316,0.010414725747484244,0.009273207829636525,-0.000740867371308524,6.061048743053091,0.5770402891327457,0.0005872944670798956
1776005029.8829556,-0.0047900392673909,-0.0047900392673909,9.79084014892578,0.010395489422920363,0.009338570088622678,-0.0007867568277670706,6.061005121003584,0.5758394410060401,0.0005888392421484738
1776005029.883972,0.0047900392673909,0.0095800785347819,9.80521011352539,0.010369118214351346,0.009396213765117971,-0.0008303684386645431,6.0610054268736056,0.5758298929201372,0.0005888187933227933
1776005029.9047408,0.0047900392673909,0.0047900392673909,9.8100004196167,0.010335978108719715,0.009446009630310233,-0.0008714911790275285,6.061014334389065,0.5756264288731572,0.0005881831824083178
1776005029.9056916,0.0143701173365116,0.0047900392673909,9.80521011352539,0.01029643152204213,0.009487851566504136,-0.0009099267474643463,6.061014836604671,0.5756174202599313,0.0005881459844264612
1776005029.9266188,0.0,-0.0047900392673909,9.819580078125,0.010250786103127884,0.009521654088851958,-0.000945409287934808,6.061028521000325,0.575416195889342,0.0005870902100347682
1776005029.9276206,0.0335302725434303,0.0047900392673909,9.78604984283447,0.010199264774721462,0.009547384587777513,-0.0009775942369228661,6.06102927292562,0.5754068619339983,0.0005870305185236017
1776005029.948621,0.0095800785347819,-0.0095800785347819,9.8100004196167,0.010141964079002627,0.00956509448580129,-0.0010061103158731,6.06104771945284,0.5752092001116776,0.0005855200197041656
1776005029.9496317,0.0095800785347819,0.0,9.80521011352539,0.01007882469530885,0.009574936134048103,-0.0010306214566476275,6.06104870009878,0.5751999815873398,0.0005854377887921717
1776005029.9706738,-0.0047900392673909,-0.0095800785347819,9.82437038421631,0.010009694508029698,0.009577175949580758,-0.00105080601017328,6.061071878475114,0.5750062100624369,0.0005834452908815808
1776005029.9717357,-0.0095800785347819,0.0143701173365116,9.79562950134277,0.009934460892068663,0.009572182614187392,-0.0010662875346889203,6.061073141537092,0.5749967267967173,0.000583334504842088
1776005029.992868,0.0095800785347819,0.0,9.77647018432617,0.009853149727424423,0.009560368366942561,-0.0010766630947206487,6.061005696596931,0.5759369373395044,0.0005886000455394051
1776005029.9938343,0.0095800785347819,0.0,9.78604984283447,0.009765917430969464,0.009542129909213581,-0.0010816656244141104,6.061006022145517,0.5759363674254894,0.0005885667200878612
1776005030.0147672,0.0,-0.0095800785347819,9.80041980743408,0.009672969440748604,0.009517858561693262,-0.0010812916775562369,6.061014828133012,0.5759270011696188,0.0005876445472547889
1776005030.0157785,0.0095800785347819,-0.0047900392673909,9.80521011352539,0.009574516235616597,0.009488000452368524,-0.0010757517760588858,6.061015329091406,0.5759266735901474,0.0005875913758950335
1776005030.0167596,0.0,-0.0047900392673909,9.80521011352539,0.009470783252270373,0.009453093833152154,-0.0010653266467590323,6.061015847461409,0.5759263491565898,0.0005875363011065551
1776005030.0367622,0.0191601570695639,-0.0143701173365116,9.81478977203369,0.009362010455760893,0.009413769259539392,-0.0010502614993729404,6.061028573856401,0.5759216014371664,0.0005861724319784978
1776005030.0378454,0.0,0.0,9.80521011352539,0.009248425908554117,0.009370744015078659,-0.0010307154045124263,6.061029369630113,0.5759214523976343,0.0005860866164689186
1776005030.0586884,0.0,0.0047900392673909,9.77167987823486,0.009130240638089034,0.009324794443856565,-0.001006783911761475,6.061046803728631,0.5759207231100001,0.0005842013151309136
1776005030.0597594,-0.0047900392673909,-0.0191601570695639,9.8100004196167,0.009007700380532162,0.009276701219202373,-0.0009786137020420175,6.061047714213272,0.5759207884965402,0.0005841026561640034
1776005030.0807722,-0.0095800785347819,0.0,9.80521011352539,0.008881154809108383,0.0092272411580952,-0.0009464691042680072,6.061004926782672,0.5759243486557651,0.0005885067150943158
1776005030.0817678,0.0,0.0,9.83874034881592,0.008751093351865075,0.00917721001503352,-0.0009106234713882306,6.061005185359151,0.5759246008701199,0.000588478518827551
1776005030.1028984,-0.0047900392673909,0.0,9.8100004196167,0.008618134920439122,0.009127389492780198,-0.0008711807166712508,6.061013096726122,0.5759324864099343,0.0005876317094682106
1776005030.1038682,0.0047900392673909,0.0047900392673909,9.77647018432617,0.008482982873705816,0.00907848883413286,-0.0008280378218820318,6.061013497923521,0.575932891417569,0.0005875892625774559
1776005030.1046944,-0.0143701173365116,0.023950194939971,9.81478977203369,0.008346385398595424,0.009031095711483906,-0.0007810450132095678,6.061013898858134,0.5759332965619794,0.0005875469049707739
1776005030.124686,0.0047900392673909,0.0047900392673909,9.8100004196167,0.008209131057953506,0.008985609841683818,-0.000730138087185564,6.061025136092604,0.5759447954334593,0.0005863881088302057
1776005030.1257675,-0.0047900392673909,0.0,9.80521011352539,0.0080720483760341,0.008942218800869414,-0.0006752905126993198,6.061025799693572,0.5759454808576728,0.0005863209560325599
1776005030.1467514,0.0,0.0,9.81478977203369,0.007935978693473032,0.008900974619559998,-0.00061643797059793,6.061041264611214,0.575961616800666,0.0005847988537886945
1776005030.1477904,0.0095800785347819,0.0,9.78125953674316,0.0078017395610425816,0.008861890487704416,-0.0005534923438758742,6.061042127857523,0.5759625247564053,0.0005847158272672317
1776005030.1687531,-0.0047900392673909,-0.0047900392673909,9.76688957214355,0.007670089158858124,0.008824984512774008,-0.00048645297636858284,6.061061138519746,0.5759826937019824,0.0005829447611448754
1776005030.1697743,0.0047900392673909,-0.0143701173365116,9.78604984283447,0.007541709256299959,0.008790308141849803,-0.00041558185052628996,6.061062112600095,0.5759837345959127,0.0005828565027903635
1776005030.1907473,0.0,-0.0095800785347819,9.79562950134277,0.007417217057635669,0.008757995635494105,-0.00034147578546621143,6.061084691127066,0.5760080536671512,0.0005808867227629009
1776005030.1918755,-0.0143701173365116,0.0,9.80041980743408,0.007297188532492778,0.0087282920206949,-0.00026495118627724355,6.061085999884319,0.5760094730424984,0.0005807764281436175
1776005030.2127774,0.0,0.0,9.8100004196167,0.007182199832146368,0.00870151072941269,-0.00018686997760076422,6.061111788201323,0.5760376498348707,0.0005786986268257716
1776005030.213836,0.0,-0.0047900392673909,9.8100004196167,0.007072853415264041,0.008677962167464977,-0.00010801238255150619,6.061113119370337,0.5760391138321622,0.0005785957611916993
1776005030.2149122,-0.0047900392673909,0.0095800785347819,9.80521011352539,0.006969747819947311,0.00865791442932485,-2.9008248613132103e-05,6.061114535442744,0.5760406722650949,0.0005784868663869835
1776005030.2347648,0.0047900392673909,0.0143701173365116,9.79562950134277,0.006873438710985367,0.008641555965290107,4.965951152275699e-05,6.061142156435916,0.5760712926063142,0.000576482061386742
1776005030.2357671,-0.0191601570695639,0.0,9.79562950134277,0.0067844360511010076,0.00862893888312798,0.00012758594365065907,6.061143545350874,0.5760728424625572,0.0005763866947789049
1776005030.256757,0.0047900392673909,0.0143701173365116,9.819580078125,0.006703231979075057,0.008619962532866789,0.00020438912597548433,6.0610043616414835,0.5761091721292659,0.0005887851270257005
1776005030.2578084,0.0095800785347819,0.0047900392673909,9.80041980743408,0.006630302764052861,0.008614400171373913,0.0002797409914508328,6.061004594839445,0.5761111216953927,0.0005887847607427938
1776005030.2788868,-0.0191601570695639,0.0,9.78604984283447,0.006566058614251055,0.008611927505568384,0.0003534016508391647,6.061010734800227,0.5761516146347035,0.000588859412429824
1776005030.279988,0.0,0.0,9.80521011352539,0.0065108402582616,0.008612169760150695,0.0004251572327938072,6.061011123552146,0.5761537674643517,0.000588867422981061
1776005030.3007607,-0.0047900392673909,-0.0191601570695639,9.76688957214355,0.006464972507767365,0.00861477683954727,0.0004947282396582005,6.0610201619669395,0.5761976304776616,0.0005891351536235684
1776005030.3017724,-0.0047900392673909,0.0143701173365116,9.8100004196167,0.006428770843680449,0.008619486977813094,0.0005617185953244652,6.061020648677641,0.5761997536615747,0.000589152785012699
1776005030.3228014,0.0047900392673909,0.023950194939971,9.80521011352539,0.006402508061023285,0.008626093724234852,0.000625638648967918,6.061032833962297,0.5762483863034985,0.000589685772604802
1776005030.3237793,0.0,-0.0047900392673909,9.80041980743408,0.006386381877355178,0.008634318363769251,0.0006860165394344914,6.061033394767318,0.576250462689225,0.0005897136301802025
1776005030.3247743,0.0095800785347819,0.0,9.79562950134277,0.006380479488987664,0.008643767231480848,0.0007424755875302401,6.061034023745225,0.5762527782315756,0.0005897452265668628
1776005030.344766,0.0143701173365116,0.0,9.79562950134277,0.006384740030473766,0.00865402621165328,0.0007947044038532862,6.061003479289156,0.5763026789753302,0.0005892865606117639
1776005030.345768,0.0,0.0047900392673909,9.8100004196167,0.006398924405186777,0.008664732796043122,0.0008424180635591709,6.061003662399841,0.5763051574523327,0.0005893053342597331
1776005030.3668835,-0.0047900392673909,0.0047900392673909,9.8100004196167,0.006422639185742341,0.008675563643895729,0.0008853896313481992,6.061009207169142,0.5763618688282889,0.0005899265888886154
1776005030.3676968,0.0095800785347819,0.0047900392673909,9.80521011352539,0.006455414808976137,0.008686202218612993,0.0009235151453648703,6.061009458686439,0.5763639679460475,0.00058995615572478
1776005030.388759,-0.0143701173365116,0.0095800785347819,9.80041980743408,0.0064967600847889015,0.008696320038069397,0.0009568286617603282,6.061017968605553,0.5764244933233865,0.000591000840334547
1776005030.3897781,-0.0191601570695639,-0.0143701173365116,9.8100004196167,0.006546208875666641,0.008705582627398255,0.00098546174733139,6.061018445490447,0.5764274687602253,0.0005910611615857832
1776005030.410777,0.0047900392673909,0.0095800785347819,9.80521011352539,0.006603393988588108,0.008713693584422515,0.001009616522269979,6.061030012810364,0.5764920651232643,0.0005925648126277633
1776005030.4117804,0.0095800785347819,0.0,9.80041980743408,0.006668039918403174,0.008720427395377768,0.0010295633960176113,6.061030558888746,0.5764948421375069,0.0005926372651296189
1776005030.4329503,0.0047900392673909,0.0191601570695639,9.8291597366333,0.006739843732821182,0.008725592015401068,0.001045642522543555,6.0610036029694045,0.5765639675840465,0.0005894608852251894
1776005030.4337652,-0.0143701173365116,-0.0047900392673909,9.79084014892578,0.006818404529708442,0.008728966718001382,0.001058285563771189,6.061003750552876,0.5765663374055381,0.0005894820651137765
1776005030.4347692,0.0,-0.0143701173365116,9.8100004196167,0.006903281105176988,0.00873031441608253,0.001068011327733492,6.061003969526695,0.5765697639618369,0.0005895135594261441
1776005030.4547706,0.0095800785347819,-0.0047900392673909,9.80041980743408,0.00699405445507368,0.008729482862415571,0.0010753604989611548,6.0610097421488724,0.5766388600657321,0.0005903585243261806
1776005030.4557762,0.0,0.0047900392673909,9.79084014892578,0.007090294625608801,0.008726472399563113,0.001080835402040268,6.061010095346437,0.5766423175943888,0.0005904107489932569
1776005030.4767795,0.023950194939971,0.0,9.80041980743408,0.007191489851474212,0.008721388338457172,0.001084857692443133,6.0610194077812185,0.5767191025428823,0.000591792837978517
1776005030.4779894,0.0,0.0,9.81478977203369,0.007297000556805095,0.008714364813508044,0.001087754726902869,6.06101999556924,0.5767233139968122,0.0005918802855366664
1776005030.4987519,0.0047900392673909,0.0095800785347819,9.81478977203369,0.007406060918199964,0.00870553419960189,0.0010898307385548583,6.061032469626373,0.5768026546991364,0.0005937335491314007
1776005030.4997914,-0.0095800785347819,0.0287402346730232,9.80521011352539,0.00751785097898096,0.008694983915686641,0.0010914617784013362,6.061033177214397,0.5768067217579298,0.0005938385487858439
1776005030.520883,-0.0047900392673909,0.0047900392673909,9.80521011352539,0.007631597672066018,0.008682668643960448,0.001093106335774548,6.06104948722085,0.5768921444851836,0.0005962496551223964
1776005030.5218375,0.0,0.0047900392673909,9.819580078125,0.007746634574736405,0.00866838054304852,0.001095261438555665,6.061050159761998,0.5768953944269869,0.0005963487669770306
1776005030.5427606,0.0,-0.0047900392673909,9.79084014892578,0.007862395741000656,0.008651837992052516,0.0010984418512953354,6.061003620235473,0.5769835112999534,0.0005895122939982289
1776005030.5437706,0.0095800785347819,0.0047900392673909,9.79084014892578,0.007978366530815895,0.008632796416947409,0.0011031360701697914,6.061003852986846,0.5769877783290086,0.0005895451272785205
1776005030.5447776,0.0143701173365116,0.0,9.80521011352539,0.008094020041704054,0.008611090416685096,0.001109713045360936,6.061004106582443,0.5769922801548892,0.0005895808719385563
1776005030.5647676,0.0,0.0047900392673909,9.81478977203369,0.008208763628102418,0.00858662134212418,0.0011184044899679479,6.061010712381063,0.5770805710210178,0.0005905038782437674
1776005030.5657697,-0.023950194939971,0.0,9.819580078125,0.008321967840782676,0.008559337435866251,0.0011294118717326087,6.061011091967164,0.5770846756220621,0.0005905566409385105
1776005030.5867913,0.0047900392673909,0.0,9.819580078125,0.008433090806415565,0.008529229392875155,0.0011430275441113719,6.061021786414545,0.5771812271058947,0.0005920364501508381
1776005030.5878382,-0.0047900392673909,-0.0047900392673909,9.79562950134277,0.008541752927567767,0.00849634333951128,0.001159667362812355,6.061022411386867,0.5771860929431055,0.0005921226554969989
1776005030.608768,0.0,0.0,9.8100004196167,0.008647690963180176,0.0084607997950303,0.0011797975917369348,6.061037023442069,0.5772862691595215,0.0005941350969862315
1776005030.6097698,-0.0047900392673909,0.0,9.80041980743408,0.00875070062913268,0.008422795915436494,0.0012038375152166503,6.061037762814554,0.5772908173736779,0.0005942368164602677
1776005030.6307452,0.0047900392673909,-0.0047900392673909,9.78125953674316,0.008850621767823906,0.008382589172932824,0.0012320985875213793,6.0610564139899905,0.5773949498948474,0.0005968059490882418
1776005030.6317773,0.0143701173365116,0.0,9.79084014892578,0.008947308151035956,0.0083404869604844,0.0012647123436143946,6.061057420300883,0.5774001068487329,0.0005969447204840435
1776005030.6333604,-0.0047900392673909,0.0047900392673909,9.80041980743408,0.009040571692283091,0.008296837012976066,0.0013015712710140032,6.061059026724667,0.5774082590079889,0.0005971663446239997
1776005030.652802,0.0047900392673909,0.0047900392673909,9.80521011352539,0.009130170204911282,0.008251992786279673,0.0013423762224877467,6.061003851410614,0.577508511502579,0.0005896620149070769
1776005030.6538777,0.0095800785347819,0.0095800785347819,9.8100004196167,0.009215840902339244,0.008206266605903028,0.0013867565593487924,6.061004116461466,0.5775139579174677,0.0005897012141846493
1776005030.6747062,0.0143701173365116,0.0,9.81478977203369,0.009297294854301922,0.008159903151870165,0.0014343731319570873,6.061011554821766,0.5776250312062648,0.0005908144785288894
1776005030.6757662,0.0,0.0047900392673909,9.80041980743408,0.009374178398741755,0.008113087772810876,0.001484971002363489,6.061012002735333,0.5776303236940321,0.000590881992348685
1776005030.6967483,0.0047900392673909,-0.0047900392673909,9.80521011352539,0.009446084492849088,0.008065979981871524,0.0015383673159580806,6.061004472587846,0.5777457805683186,0.0005896748379803847
1776005030.6977649,0.0,0.0,9.81478977203369,0.00951261064331853,0.008018750712054093,0.001594410076148498,6.061004763334481,0.5777515592711255,0.0005897196437002562
1776005030.7187698,0.0,0.0191601570695639,9.81478977203369,0.009573404016550081,0.007971587870239855,0.0016529858771108619,6.061012926417332,0.5778712975892635,0.0005910185241389794
1776005030.7197747,0.0047900392673909,0.0,9.8100004196167,0.009628177883974545,0.00792464478439632,0.001714064760626773,6.061013388441748,0.5778767060866126,0.0005910934026260866
1776005030.740688,0.0,-0.0047900392673909,9.8100004196167,0.009676707813445231,0.007878005392655481,0.0017777071239229926,6.061025889593399,0.577999003001741,0.0005931666566006396
1776005030.7417626,-0.0047900392673909,0.0095800785347819,9.78604984283447,0.00971882790226562,0.007831728657188156,0.0018440081618256003,6.0610266318194705,0.5780052601397797,0.0005932917833050244
1776005030.7427545,-0.0095800785347819,0.0047900392673909,9.77167987823486,0.00975445718598322,0.007785882211501036,0.0019129727370216648,6.061027331189982,0.5780110820927804,0.0005934099200358629
1776005030.7627618,0.0143701173365116,0.0047900392673909,9.77167987823486,0.00978362546151481,0.007740514812017388,0.0019843413926572315,6.0610437883899415,0.5781324253086713,0.0005962596650733462
1776005030.7637584,-0.0095800785347819,-0.0143701173365116,9.78125953674316,0.009806442285766239,0.007695654674324738,0.002057476164447667,6.061044593931959,0.5781377727300018,0.0005964018476885175
1776005030.7847476,-0.0095800785347819,0.0143701173365116,9.78604984283447,0.009823065425132683,0.007651359932261368,0.0021313891307513273,6.061005080181794,0.5782676839350059,0.0005898496406545168
1776005030.7857597,0.0,-0.0047900392673909,9.8100004196167,0.009833733748204204,0.0076077352275453584,0.0022048833485499983,6.061005379378576,0.5782740199240529,0.0005899102920099944
1776005030.8067086,0.023950194939971,0.0095800785347819,9.8100004196167,0.009838763972858785,0.0075648935066579374,0.002276744548397563,6.061013905165429,0.5784079346412221,0.0005917033993172084
1776005030.8077688,0.0,0.0143701173365116,9.8100004196167,0.009838443566958783,0.0075229148178929195,0.0023459133492053598,6.061014384608729,0.5784139554616806,0.0005918063955548549
1776005030.8287568,0.0047900392673909,0.0047900392673909,9.81478977203369,0.00983295304406742,0.007481807384608622,0.002411569914934927,6.061027461301817,0.5785513298984418,0.000594684169352594
1776005030.8297644,0.0,0.0191601570695639,9.78125953674316,0.009822404584504871,0.007441479731600481,0.0024731173341412094,6.061028240910079,0.5785583882072897,0.0005948586983828558
1776005030.8507547,0.0,0.023950194939971,9.82437038421631,0.009806910074095803,0.007401722588319754,0.0025301006613585577,6.061045766076665,0.5786983374564227,0.0005988582999658658
1776005030.8517752,-0.0047900392673909,0.0,9.81478977203369,0.009786617329352543,0.007362186468227164,0.0025821755639384263,6.061046711219068,0.5787051079815891,0.0005990772285665745
1776005030.85278,-0.0095800785347819,0.0143701173365116,9.81478977203369,0.0097617403833901,0.007322411887131292,0.002629179634767682,6.061047662467068,0.5787118599400918,0.0005992979109983113
1776005030.8726902,-0.0047900392673909,-0.0191601570695639,9.77647018432617,0.009732592930452501,0.0072819297754882235,0.002671147826948443,6.06100504073876,0.5788486016921913,0.000590187794898376
1776005030.873867,0.0095800785347819,0.0,9.8100004196167,0.009699585248225008,0.007240377210425227,0.0027081811851115863,6.061005368462613,0.5788564973819998,0.0005902742514384899
1776005030.8947563,-0.0095800785347819,0.0095800785347819,9.78125953674316,0.009663168585188123,0.007197560129802335,0.0027403174531896875,6.061013610478516,0.5790030681948558,0.0005924921070381028
1776005030.895761,0.0,0.0095800785347819,9.78125953674316,0.009623795866442927,0.007153401340418103,0.002767482344596304,6.061014101070333,0.5790100248524662,0.0005926256430789536
1776005030.9167607,-0.0143701173365116,0.0143701173365116,9.81478977203369,0.009581944057554305,0.007107830489673434,0.00278947118211881,6.061026868459493,0.5791611230937737,0.0005961426619735349
1776005030.9177783,-0.0095800785347819,0.0047900392673909,9.82437038421631,0.009538158429972047,0.007060725108980431,0.0028060297783750257,6.061027549600396,0.5791680627985638,0.0005963318904796335
1776005030.938916,0.0,0.0,9.819580078125,0.009493071788584901,0.007011925868359973,0.0028170530108639073,6.0610447864069075,0.57932275539302,0.0006011621480434779
1776005030.9396832,0.0143701173365116,0.0095800785347819,9.819580078125,0.009447354818181507,0.0069612888193951675,0.0028227215307435076,6.061045474166866,0.5793282886133346,0.0006013561657727935
1776005030.9607713,0.0,-0.0143701173365116,9.80041980743408,0.00940160855114394,0.006908729650066699,0.0028234808535243187,6.061067184223776,0.5794869313339758,0.0006075204030425398
1776005030.9617784,0.0047900392673909,0.0,9.80521011352539,0.009356299437879715,0.006854264894499134,0.0028199255292773095,6.061068216569636,0.5794938487917621,0.0006078150871206799
1776005030.98287,0.0047900392673909,0.0095800785347819,9.819580078125,0.009311774465474194,0.006798037088377324,0.0028126944584216528,6.061094301899303,0.5796555976940465,0.0006152973826883928
1776005030.9838777,0.0,-0.0143701173365116,9.80041980743408,0.009268292437599322,0.0067402828827746045,0.0028024500643347625,6.061095498545673,0.5796625125396,0.000615642034518318
1776005031.004778,0.0191601570695639,0.0095800785347819,9.79084014892578,0.009226029902304377,0.0066813004251884784,0.0027898685988615385,6.061005327278602,0.5798253568002039,0.0005906364055527919
1776005031.0267537,-0.0047900392673909,0.0143701173365116,9.79084014892578,0.009185065540636004,0.006621429385714413,0.002775549616046456,6.0610139017755085,0.57999933309982,0.0005932187893473121
1776005031.027779,0.0095800785347819,0.0,9.83395004272461,0.009145380953701213,0.006560985977373223,0.002759952673409822,6.0610143844269455,0.5800071184310557,0.0005933642515757592
1776005031.0487752,0.0047900392673909,0.0095800785347819,9.79562950134277,0.009106892627205671,0.0065002165331671325,0.0027434827876241085,6.061026977191375,0.5801774825594511,0.000597159256126318
1776005031.0497408,0.0095800785347819,0.0,9.79562950134277,0.009069466965350489,0.006439319075423249,0.0027265805991411795,6.0610275548054116,0.5801842344309347,0.0005973333170483909
1776005031.0708537,0.0047900392673909,0.0,9.82437038421631,0.0090329121992941,0.00637847930619991,0.002709686301139087,6.0610443999681625,0.5803580282127665,0.0006024066959245062
1776005031.0717726,0.0143701173365116,0.0095800785347819,9.81478977203369,0.008996976629953845,0.00631789257992382,0.0026932303015920873,6.061045237347976,0.5803657702155574,0.0006026587812997664
1776005031.0728061,0.0,0.0095800785347819,9.79084014892578,0.00896135230574559,0.006257752187217226,0.0026776940226840187,6.061046137377546,0.5803740177121778,0.0006029297097827479
1776005031.092808,0.0095800785347819,-0.0047900392673909,9.79084014892578,0.00892569191235737,0.00619821780002556,0.0026635615921307494,6.061005425991629,0.5805411473632007,0.00059069625248456
1776005031.0937748,0.0287402346730232,0.0095800785347819,9.78125953674316,0.008889615177787219,0.00613942343185137,0.002651166616543992,6.061005677680328,0.5805488677314492,0.0005907712023836096
1776005031.1149035,0.0143701173365116,-0.0143701173365116,9.80521011352539,0.008852654682071186,0.006081518845228698,0.002640602499503094,6.061013567824248,0.5807286597386172,0.0005931218173630244
1776005031.1157992,0.0,0.0095800785347819,9.80521011352539,0.008814215520287508,0.006024704397055083,0.0026317696798949476,6.0610139570658434,0.5807357441076085,0.0005932378098490917
1776005031.1368067,0.0095800785347819,0.0143701173365116,9.80041980743408,0.00877364628018204,0.005969221126361735,0.0026244955596726773,6.061025901049634,0.5809175465163701,0.0005967993391658639
1776005031.1379306,0.0095800785347819,-0.0095800785347819,9.79562950134277,0.00873033479711116,0.005915290044503724,0.0026186028032098335,6.0610265905001635,0.5809265723567881,0.0005970050232400056
1776005031.15865,0.0,-0.0047900392673909,9.81478977203369,0.008683733378601016,0.005863103749086383,0.0026139071795721106,6.0610423162504174,0.5811080533523871,0.0006017016599573046
1776005031.1597393,0.0143701173365116,0.0143701173365116,9.819580078125,0.008633358274421408,0.0058128840719810105,0.0026102503359518897,6.061043186986796,0.5811170526598067,0.0006019619464451081
1776005031.1807597,0.0191601570695639,0.0047900392673909,9.80041980743408,0.008578775876189573,0.005764870231559452,0.0026075790186508505,6.061063136273526,0.5813039426737722,0.0006079352163211517
1776005031.1818168,0.0095800785347819,-0.0095800785347819,9.80521011352539,0.008519551977954396,0.005719261055384624,0.0026059550902479854,6.0610642172388856,0.5813132142065639,0.0006082593366537908
1776005031.2028146,0.0,0.0,9.78604984283447,0.00845523487091223,0.0056762394567601605,0.002605467898526249,6.061088150641329,0.5815029035940956,0.0006154517749780876
1776005031.203874,0.0,0.0,9.79084014892578,0.008385423319281542,0.00563603198769992,0.0026061250841936607,6.061089368196662,0.5815118830179967,0.0006158183894478124
1776005031.2247837,-0.0047900392673909,-0.0143701173365116,9.78125953674316,0.00830985406877902,0.005598919936839747,0.002607769502736084,6.061116951492222,0.581702561367652,0.0006241478274452208
1776005031.24678,-0.0047900392673909,-0.0047900392673909,9.79084014892578,0.00822844884198871,0.005565247873953381,0.002610040930325461,6.061005120855463,0.5819065896603628,0.0005907062909625737
1776005031.2687643,0.0047900392673909,0.0095800785347819,9.819580078125,0.00814131767156601,0.0055354298822354805,0.0026124193982791514,6.061013111695314,0.5821114803320807,0.0005932270411046626
1776005031.27002,-0.0047900392673909,0.0047900392673909,9.8100004196167,0.00804872503178452,0.005509884845868898,0.0026143718001359014,6.061013719530092,0.5821239496636971,0.0005934194910499107
1776005031.2708201,0.0,0.0095800785347819,9.81478977203369,0.007951050542127028,0.0054889424398333695,0.0026155112029314317,6.061014124283969,0.5821321028528637,0.0005935477167797044
1776005031.290753,0.0,-0.0047900392673909,9.79562950134277,0.007848771291808054,0.005472811522504177,0.002615640114564278,6.0610250000036645,0.5823199575653549,0.0005970192630875932
1776005031.2917645,0.0143701173365116,0.0095800785347819,9.82437038421631,0.007742432535120162,0.005461610539036862,0.0026146989528135303,6.061025641366555,0.5823296609644826,0.0005972251705069282
1776005031.3127813,0.0,0.0,9.77647018432617,0.007632587307801221,0.005455398581127963,0.002612712089845668,6.06104078238644,0.5825329167185889,0.0006021238454646904
1776005031.3140113,-0.0047900392673909,0.0,9.819580078125,0.007519766340469228,0.005454185141758421,0.002609732445553668,6.061041718055702,0.5825442133816924,0.0006024284601615717
1776005031.3347695,0.0143701173365116,0.0143701173365116,9.80041980743408,0.007404504177716839,0.005457934613231445,0.0026058027152764582,6.0610046105381405,0.5827451524788723,0.0005906815835307168
1776005031.335755,0.0,0.0,9.82437038421631,0.007287343803508175,0.005466553385495614,0.0026009957437010595,6.061004838431354,0.5827545387778034,0.0005907599562457283
1776005031.3568013,-0.0095800785347819,-0.0047900392673909,9.80521011352539,0.007168818655338073,0.00547988389046595,0.00259548712320371,6.061011538635885,0.5829627493335429,0.00059309420713941
1776005031.35769,-0.0047900392673909,-0.0191601570695639,9.80521011352539,0.007049493135717157,0.005497769209001903,0.0025895681186798077,6.061011860862649,0.5829708206104932,0.0005932073541581992
1776005031.3787484,0.0,0.0,9.819580078125,0.0069300178139504775,0.00552015094956408,0.0025836034218469943,6.061021787421469,0.5831807361868341,0.0005967272538095417
1776005031.379754,-0.0287402346730232,0.0,9.76688957214355,0.006811140414897485,0.005547090824768461,0.0025779726803464775,6.06102231660592,0.5831904273595004,0.000596916260030942
1776005031.380769,0.0047900392673909,-0.023950194939971,9.78604984283447,0.006693722127603109,0.005578722844820191,0.002572951613252114,6.061022893580784,0.5832008704547205,0.0005971225070124764
1776005031.4007888,-0.0047900392673909,0.0047900392673909,9.819580078125,0.006578732329002537,0.005615241854657335,0.002568590703867399,6.061035446069264,0.5834039071704026,0.0006016553219031787
1776005031.4017816,0.0,-0.0095800785347819,9.81478977203369,0.00646716902939287,0.005656910100209859,0.0025647914131134188,6.061036057330174,0.5834128618308964,0.0006018778542650661
1776005031.4228144,-0.0047900392673909,-0.0047900392673909,9.80041980743408,0.006359986083373012,0.005704018717649072,0.0025615018213145705,6.061003771603941,0.5836277915925151,0.0005905834939566612
1776005031.4237618,-0.0143701173365116,-0.0095800785347819,9.78604984283447,0.006258091593595487,0.005756858760094871,0.002558757288713085,6.061003952697186,0.5836370691013768,0.0005906543982127886
1776005031.4447908,-0.0095800785347819,0.0047900392673909,9.79562950134277,0.0061623895434701915,0.0058157178799128064,0.002556558935356952,6.061009620657968,0.5838553955898093,0.0005929066681062045
1776005031.4457972,0.0095800785347819,0.0,9.79084014892578,0.006073797343368788,0.0058808471739114025,0.002554775235427055,6.0610099355207225,0.5838651363197858,0.0005930329117698636
1776005031.466765,0.0,0.0,9.80521011352539,0.005993182451207182,0.005952411737631752,0.002553146270823527,6.0610183967447835,0.5840854052895581,0.000596459826177774
1776005031.4677718,-0.0095800785347819,0.0047900392673909,9.8291597366333,0.005921287057931335,0.006030471081434273,0.002551375123902892,6.061018842661617,0.5840954430830209,0.0005966417588094475
1776005031.4888096,0.0,0.0191601570695639,9.819580078125,0.005858738304823707,0.0061149636654130365,0.0025492835199059415,6.061030106284771,0.5843196127002633,0.0006012741540679552
1776005031.4898186,0.0,0.0,9.79562950134277,0.00580608797563951,0.006205665062006807,0.0025469167432591567,6.061030642720541,0.5843291961916305,0.0006014961647938562
1776005031.4908142,0.0047900392673909,-0.0095800785347819,9.80041980743408,0.005763799286124551,0.006302193206619858,0.0025444749946526056,6.061031248074745,0.58433991822228,0.0006017468433818216
1776005031.5107558,-0.0191601570695639,0.0191601570695639,9.79562950134277,0.005732227722037079,0.006404088069065603,0.002542158465889234,6.06104454935037,0.5845554169591939,0.0006072903901449675
1776005031.511692,0.0,-0.0143701173365116,9.819580078125,0.005711661673967838,0.006510858877454202,0.002540100315681154,6.061045248418262,0.5845658649036692,0.0006075832976688285
1776005031.5328119,0.0047900392673909,0.0095800785347819,9.81478977203369,0.005702361709662737,0.00662198604540575,0.0025384267304114313,6.06100334157133,0.584794074158626,0.000590445695023741
1776005031.5338023,0.0047900392673909,-0.0143701173365116,9.80521011352539,0.005704516454296601,0.006736949220152982,0.0025373466290132497,6.061003510985751,0.5848044640712972,0.0005905186382001305
1776005031.5548103,0.0,0.0,9.819580078125,0.005718175624094311,0.006855268555740543,0.0025371706995323245,6.061008606550062,0.5850371070316145,0.0005927301041488004
1776005031.5557866,-0.0047900392673909,-0.0047900392673909,9.78125953674316,0.005743250641766,0.0069765265644836216,0.0025382615668226994,6.0610089302983905,0.585048899486284,0.0005928712570945494
1776005031.5767667,0.0191601570695639,0.0047900392673909,9.79562950134277,0.005779546850666138,0.007100355977365307,0.00254093469658252,6.061016608994238,0.5852821446521254,0.0005962240965228295
1776005031.5778058,0.023950194939971,-0.0047900392673909,9.80041980743408,0.005826727532821946,0.0072264031881721725,0.0025453531521735543,6.061017068423707,0.5852941348241802,0.0005964248957127051
1776005031.578821,0.0,0.0,9.78604984283447,0.005884229190561986,0.007354310153756909,0.002551504576531082,6.06101751302429,0.5853055842863033,0.0005966192026080905
1776005031.5987968,0.0,0.0143701173365116,9.80521011352539,0.005951274361913622,0.0074837078789105295,0.0025592354180847994,6.0610028880844276,0.5855325032065615,0.0005902956860485885
1776005031.6207988,-0.0143701173365116,-0.0095800785347819,9.79084014892578,0.006027010217196794,0.007614189695677493,0.0025682817541698108,6.061008046353673,0.5857853560184499,0.0005925104112538591
1776005031.6217844,0.0,0.0047900392673909,9.819580078125,0.0061106446680724786,0.0077453064831952065,0.002578318438965562,6.061008332198597,0.5857962647764668,0.000592632919083053
1776005031.6427927,0.0047900392673909,0.0095800785347819,9.8100004196167,0.006201484007103651,0.007876593505863647,0.0025890447633123877,6.061016162837677,0.5860421904802484,0.0005959733433143848
1776005031.643766,0.023950194939971,0.0095800785347819,9.82437038421631,0.00629886066365372,0.008007554911064769,0.0026002828332972842,6.061016560000224,0.586052811453523,0.0005961421954276102
1776005031.664777,0.0,0.0047900392673909,9.79084014892578,0.006402020233622503,0.008137621119572612,0.0026120209226701283,6.061027298600927,0.5863023593653759,0.0006006826293578857
1776005031.665688,0.0143701173365116,-0.0047900392673909,9.80041980743408,0.006510078673700958,0.008266161250169615,0.002624344951946269,6.0610278191695866,0.5863130724009071,0.0006009017869920268
1776005031.6868234,0.0191601570695639,0.0,9.79562950134277,0.006622048249394687,0.00839255074551822,0.0026373145426790553,6.061003815513897,0.5865676040063511,0.0005905272566708623
1776005031.687772,-0.0047900392673909,0.0,9.78604984283447,0.0067368570275759,0.008516229074997836,0.0026508839391620864,6.061004007697559,0.5865787605718068,0.0005906042215833323
1776005031.7089126,0.0,0.0,9.79084014892578,0.006853397149504625,0.008636709553851221,0.0026648663308166272,6.061010081471103,0.5868392878393985,0.0005930180629634237
1776005031.7099035,0.0,0.0,9.79562950134277,0.00697062279958938,0.008753565590261955,0.0026789183059419503,6.06101038161556,0.5868495350165827,0.0005931367940739668
1776005031.730762,0.0047900392673909,-0.0047900392673909,9.79084014892578,0.007087603058298327,0.008866427194640132,0.002692567492814241,6.0610195626842005,0.5871098134340617,0.0005967435566913298
1776005031.7317593,0.0,0.0,9.78604984283447,0.007203505650368434,0.008974990515404966,0.002705250771034482,6.061020011325903,0.5871207071983144,0.000596918920622046
1776005031.7527616,0.0,0.0,9.819580078125,0.0073175781546001096,0.009079021063437769,0.0027163438362200563,6.061032647185356,0.587388132770931,0.0006018246515809433
1776005031.7537472,0.0,0.0191601570695639,9.79562950134277,0.007429153074583275,0.009178321378320812,0.00272523906150946,6.061033188016995,0.5873982970366854,0.0006020335172407859
1776005031.7746758,0.0095800785347819,-0.0047900392673909,9.80041980743408,0.0075376472325932135,0.00927266889497825,0.0027314289646157668,6.061003912868615,0.5876663955548207,0.0005904711565440766
1776005031.7757664,0.0095800785347819,0.0,9.79562950134277,0.007642526186444496,0.009361798155925723,0.0027344986860299157,6.061004151420745,0.5876797556602493,0.0005905594771085182
1776005031.7969882,-0.0095800785347819,0.0,9.78604984283447,0.007743269503831399,0.00944545532817389,0.002734062821404545,6.061010942006343,0.5879583910994938,0.0005930421721630427
1776005031.7979023,0.0,0.0095800785347819,9.78604984283447,0.007839401741680794,0.009523435941996197,0.002729703131791411,6.061011251353965,0.5879684636369499,0.0005931544368516551
1776005031.7987704,0.0047900392673909,0.0095800785347819,9.81478977203369,0.0079305486581269,0.009595551959587369,0.0027209422093183986,6.0610116060787425,0.5879798389123129,0.0005932830721095723
1776005031.818753,0.0,0.0047900392673909,9.77647018432617,0.008016432328225652,0.009661582306682957,0.0027072910507647424,6.061021494550166,0.5882451478984815,0.0005968275233238107
1776005031.819762,0.0143701173365116,0.0,9.80041980743408,0.00809682303071229,0.009721270247187549,0.0026882899226262223,6.06102204144713,0.5882577795922346,0.0005970218826836007
1776005031.8407688,0.0095800785347819,0.0143701173365116,9.79562950134277,0.008171489441772446,0.009774356259281016,0.0026634913816496806,6.06103616631155,0.5885422237810479,0.000601985969126931
1776005031.8418665,0.0047900392673909,0.0047900392673909,9.80041980743408,0.00824016091211803,0.009820584693803628,0.002632471882743323,6.0610369388098695,0.5885560322651864,0.0006022550780780382
1776005031.8627465,-0.0047900392673909,0.0,9.82437038421631,0.008302543519775305,0.00985969240985075,0.002594901928378207,6.061004000124099,0.5888400482271016,0.0005902848810362744
1776005031.8847592,0.0095800785347819,0.0047900392673909,9.78604984283447,0.008358381577612867,0.009891433908461096,0.0025506219573991507,6.061011405256774,0.589146511854695,0.0005926300813929952
1776005031.8857667,0.0,-0.0143701173365116,9.80521011352539,0.008407488086336326,0.009915632821495256,0.0024996446166176693,6.061011796203621,0.5891591902059229,0.0005927528617460778
1776005031.9066734,-0.0047900392673909,0.0,9.78604984283447,0.008449739821547094,0.009932233582958257,0.002442068610881919,6.0610227372425385,0.5894538458685654,0.000596141439580128
1776005031.907671,-0.0191601570695639,-0.0047900392673909,9.8100004196167,0.008485111295545317,0.009941331039634956,0.0023780088963663926,6.061023350307468,0.5894679851019956,0.0005963293707459526
1776005031.9086778,0.0047900392673909,0.0095800785347819,9.80041980743408,0.008513741237835305,0.009943142159583349,0.0023076061356003662,6.06102402588127,0.5894833571138944,0.0005965361669824869
1776005031.9287643,0.0047900392673909,0.0,9.80521011352539,0.008535926778164619,0.009937937483885984,0.002231073151479007,6.061038405299659,0.5897713089405867,0.0006008573736151707
1776005031.929778,0.0047900392673909,0.0,9.80521011352539,0.008552026128535749,0.009925995164033405,0.002148720522502655,6.06103915887873,0.5897848141005062,0.0006010805062278271
1776005031.9507487,-0.0143701173365116,0.0143701173365116,9.79084014892578,0.008562392356028145,0.00990759192883403,0.0020609425886049817,6.0610049159816555,0.5900892640329898,0.0005903954086635085
1776005031.9518647,0.0191601570695639,0.0,9.80521011352539,0.008567390288549578,0.009882986760488951,0.0019681742824332995,6.061005212115759,0.5901055500769181,0.0005904723167311747
1776005031.9728713,-0.0095800785347819,0.0,9.819580078125,0.008567401974421586,0.009852407196234647,0.0018708753422169867,6.0610128371267065,0.5904168265309874,0.0005923707676369486
1776005031.9738958,-0.0095800785347819,0.0047900392673909,9.8100004196167,0.00856281373990865,0.009816076773251227,0.0017695938787903524,6.061013238245817,0.5904299130991579,0.0005924680613672308
1776005031.9947596,0.0,0.0,9.78125953674316,0.008554056641092671,0.009774242621802107,0.0016650060698882622,6.061024720930303,0.5907431136553388,0.0005951607238091557
1776005031.9959137,0.0191601570695639,0.0,9.8100004196167,0.00854161853643004,0.009727177009357971,0.0015578274364776985,6.06102553039156,0.5907620751538115,0.0005953457040045433
1776005032.016767,-0.0047900392673909,0.0,9.81478977203369,0.00852595872692233,0.009675182566064084,0.0014487323942687772,6.061040809332494,0.5910767058131492,0.0005987248964534458
1776005032.017802,0.0,0.0095800785347819,9.80521011352539,0.00850745286354017,0.009618591941004664,0.0013384066273554758,6.0610416785335115,0.5910927145296527,0.0005989120976054871
1776005032.0189023,-0.0095800785347819,0.0191601570695639,9.80521011352539,0.008486446021820094,0.009557723980509572,0.0012276082264336603,6.061042546278167,0.5911085383126483,0.000599098396742119
1776005032.0386748,-0.0047900392673909,-0.0191601570695639,9.78604984283447,0.008463328070753916,0.00949283367461307,0.0011171235715838064,6.061004433763074,0.59141272924435,0.00058989689807236
1776005032.0396845,0.0,0.0047900392673909,9.80041980743408,0.008438558152924113,0.009424152139557447,0.0010076688369996015,6.061004697127157,0.591429078220352,0.0005899385337562403
1776005032.0607433,0.0,-0.0143701173365116,9.80041980743408,0.008412637031093673,0.009351985311290886,0.0008998326530447949,6.061011895552833,0.5917569592131716,0.0005909779264523415
1776005032.0617607,0.0,0.0143701173365116,9.80521011352539,0.008386061323303232,0.009276745010898773,0.0007941017967578049,6.061012327652739,0.5917725554551347,0.0005910368261537375
1776005032.0827773,-0.0095800785347819,0.0143701173365116,9.80041980743408,0.008359305957725473,0.00919887914140274,0.0006909183445748029,6.06102347727202,0.5921065843261708,0.0005924528026300088
1776005032.0837715,-0.0095800785347819,0.0,9.79562950134277,0.008332852311179112,0.009118768756705212,0.0005906982910202699,6.061024026996843,0.5921206970712278,0.0005925189570277433
1776005032.1047502,-0.0143701173365116,0.0047900392673909,9.78125953674316,0.008307237545570171,0.009036697289075836,0.0004937914283081253,6.06103894433311,0.5924567396524503,0.0005941987797922657
1776005032.1057615,0.0,0.0,9.81478977203369,0.008283078255272042,0.008952902952344579,0.0004004263342280226,6.061039739850124,0.592472717859838,0.0005942834998095658
1776005032.1279101,0.0,0.0,9.8100004196167,0.008261033239738765,0.008867627947171212,0.00031074244756313003,6.061004867969861,0.5928315344844097,0.0005895083130679995
1776005032.1289048,0.0047900392673909,0.0047900392673909,9.80041980743408,0.008241723645621276,0.008781134223407351,0.00022490000700558388,6.0610051215737055,0.5928469224624371,0.0005895234577791343
1776005032.1298566,-0.0047900392673909,-0.0047900392673909,9.80041980743408,0.008225673865640992,0.008693703569102915,0.00014312129371700397,6.061005362201555,0.5928611351906657,0.0005895375857229912
1776005032.1487563,-0.0095800785347819,-0.0095800785347819,9.82437038421631,0.00821331815831557,0.008605650205793257,6.566012848509548e-05,6.06101214282234,0.5931720769725509,0.0005898580432789636
1776005032.149765,0.0,-0.0047900392673909,9.8100004196167,0.008205050090173893,0.008517361034949884,-7.172958719995473e-06,6.061012562701776,0.5931878308107073,0.0005898747862474162
1776005032.1707547,-0.0143701173365116,-0.0047900392673909,9.81478977203369,0.008201256088050739,0.00842932007767882,-7.495157131725416e-05,6.06102375464462,0.5935379978965164,0.0005902280651499698
1776005032.1717584,0.0,0.0047900392673909,9.78125953674316,0.008202322188068857,0.00834208040731915,-0.00013716244474425453,6.061024323578448,0.5935532907057549,0.0005902426244505494
1776005032.1927629,-0.0095800785347819,-0.0143701173365116,9.8100004196167,0.008208630864656861,0.00825621764183639,-0.00019332617189130218,6.0610395682740235,0.5939122950616218,0.0005905368662524207
1776005032.193962,0.0095800785347819,0.0,9.81478977203369,0.008220536565623462,0.008172319976916885,-0.00024306947301501236,6.061040234824409,0.593926284170671,0.0005905464682350438
1776005032.214743,0.0047900392673909,0.0,9.81478977203369,0.008238310574855138,0.008090996419676661,-0.00028606073253350996,6.0610587961548115,0.5942787658989744,0.0005907231781652494
1776005032.2157536,0.0,0.023950194939971,9.80521011352539,0.00826208638406564,0.008012827181494507,-0.0003219206546221168,6.06105973096168,0.5942949817093489,0.0005907282876178691
1776005032.21677,0.0,-0.0047900392673909,9.81478977203369,0.008291857883160093,0.007938265599951451,-0.00035022051585828246,6.061060787166405,0.5943131573928451,0.0005907336492986257
1776005032.2369256,0.0143701173365116,0.0095800785347819,9.79562950134277,0.008327509562274639,0.007867599174976146,-0.00037052898177791614,6.061004099876261,0.5946584010220702,0.0005889685844362658
1776005032.23786,0.0047900392673909,0.0,9.80521011352539,0.008368809019796211,0.007800995762313034,-0.00038246514357715935,6.0610042834099085,0.5946713761893924,0.0005889626019725517
1776005032.2587423,0.0143701173365116,0.0,9.81478977203369,0.008415376254885629,0.007738556977913777,-0.0003857346454173876,6.0610112964792915,0.5950336742622521,0.0005887086795915507
1776005032.2597692,0.0047900392673909,0.0095800785347819,9.8100004196167,0.008466681066099099,0.007680342680166799,-0.00038010363603387955,6.061011735348032,0.5950515244423021,0.0005886918785454421
1776005032.2807467,0.0,0.0,9.819580078125,0.00852207733775662,0.007626370636510992,-0.000365337460987558,6.061022690866239,0.5954185812417098,0.0005882632309170649
1776005032.281756,0.0,0.0191601570695639,9.8100004196167,0.008580868288542133,0.00757659516094979,-0.0003411661327900236,6.06102325889456,0.5954347938594022,0.0005882406939617492
1776005032.3027437,0.0,-0.0047900392673909,9.79562950134277,0.008642371418511898,0.007530885419188041,-0.00030730309429690376,6.061038168682908,0.5958052351951746,0.0005876569889393877
1776005032.303759,0.0095800785347819,-0.0047900392673909,9.8100004196167,0.00870593937584045,0.0074890468043346215,-0.0002635175986036141,6.0610389580911495,0.5958226117688898,0.0005876264415230797
1776005032.3247523,0.0095800785347819,0.0,9.79562950134277,0.008770930243275729,0.007450895856177508,-0.00020970003156927936,6.061004581549485,0.5961951830074279,0.000588829856338238
1776005032.325765,0.0047900392673909,-0.0047900392673909,9.80041980743408,0.008836665397437944,0.00741631514557616,-0.00014588164964102424,6.061004852053025,0.5962130548101895,0.0005888224297516537
1776005032.326886,0.0191601570695639,0.0,9.79562950134277,0.008902411795702185,0.007385251721350438,-7.224544172224466e-05,6.061005166901444,0.5962331649895649,0.0005888139489663319
1776005032.3467455,-0.0143701173365116,-0.0143701173365116,9.80041980743408,0.00896739385601158,0.0073577106866206735,1.0866460459527523e-05,6.061012582111207,0.5965893298836061,0.0005886657249600794
1776005032.3477705,0.0143701173365116,0.0,9.80521011352539,0.009030843251128852,0.007333770508917547,0.00010297431257358257,6.061013066816563,0.5966080289379082,0.0005886581432355995
1776005032.3687444,0.0191601570695639,0.0,9.78125953674316,0.009092032936461502,0.0073135821126666155,0.00020348945632483328,6.061024975217125,0.5969881246047745,0.0005885506273168574
1776005032.3697684,0.023950194939971,0.0,9.78604984283447,0.009150211297033518,0.007297324050199939,0.0003116885700772702,6.061025658030009,0.5970067345434005,0.0005885477329076302
1776005032.3908749,0.0191601570695639,0.0,9.78604984283447,0.009204504009482724,0.007285155358426375,0.00042664642181366774,6.061041944890903,0.5973934762458935,0.0005885867407656487
1776005032.3918843,0.0,0.0047900392673909,9.81478977203369,0.009253910289227608,0.007277197159216581,0.0005472419514236805,6.061042718302249,0.59740977310328,0.0005885926004356517
1776005032.4127526,-0.0143701173365116,0.0143701173365116,9.80041980743408,0.009297422400257382,0.007273508767566194,0.0006722825824620631,6.061063116092186,0.5977963644432971,0.0005888838971209614
1776005032.4137595,0.0,0.0143701173365116,9.77647018432617,0.00933419668331278,0.007274033641672841,0.0008006112070621459,6.061064122379192,0.5978137032327884,0.0005889038570969246
1776005032.4347572,0.0,-0.0047900392673909,9.8100004196167,0.00936364133195174,0.007278563504194946,0.0009310809659021674,6.061337098988988,0.5982024603614959,0.0005890921322587111
1776005032.4359584,0.0095800785347819,0.0047900392673909,9.8100004196167,0.009385372068191723,0.007286782966343196,0.0010625300591288848,6.0613403311075364,0.5982265860406953,0.0005891202999622848
1776005032.4567401,0.0047900392673909,0.0191601570695639,9.80521011352539,0.009399120702551235,0.0072983346471087816,0.0011938731137936297,6.061394182138948,0.5986142823566404,0.0005898402512714118
1776005032.4577546,-0.0095800785347819,-0.0143701173365116,9.79562950134277,0.009404690835104,0.007312823455209139,0.001324174115000686,6.061396868176625,0.5986329714536655,0.0005898877062029752
1776005032.4789853,-0.0047900392673909,0.0047900392673909,9.79084014892578,0.009401992790795547,0.007329833779676301,0.0014525994445974794,6.061456733855646,0.5990357293054037,0.0005912491858996196
1776005032.4796803,0.0191601570695639,0.023950194939971,9.80041980743408,0.009391080747883635,0.007348970354879186,0.0015783342659247328,6.0614585063177016,0.5990472815363644,0.0005912977672575936
1776005032.5007524,-0.0095800785347819,0.0143701173365116,9.80041980743408,0.009372105116528378,0.007369802510473902,0.0017005592011023253,6.061522218376359,0.5994502060531256,0.0005933745333145497
1776005032.5017526,-0.0095800785347819,0.0143701173365116,9.79562950134277,0.009345270989984293,0.007391765875352168,0.0018184827687585377,6.06152527122243,0.5994689516786953,0.0005934891836697014
1776005032.5227652,0.0,0.0143701173365116,9.819580078125,0.009310888293670817,0.007414154067358633,0.0019313820046650623,6.061593197434558,0.5998744767432305,0.0005964066206597645
1776005032.523793,0.023950194939971,0.0143701173365116,9.8100004196167,0.009269382868810967,0.007436165415872436,0.002038662417396151,6.061596505916483,0.5998936998888771,0.0005965655886385539
1776005032.544747,0.0,0.0,9.81478977203369,0.009221188122974979,0.007456948541468187,0.002139929253850487,6.061668306921006,0.6003002745010358,0.00060040462160853
1776005032.5457797,0.0287402346730232,0.0,9.79084014892578,0.00916663992970167,0.007475672276673795,0.0022349899156306045,6.061671924033281,0.6003202523736412,0.0006006166264660922
1776005032.566752,-0.0047900392673909,0.0,9.79562950134277,0.009105953080475127,0.007491611089553613,0.002323759073246966,6.061748186353881,0.6007315421736656,0.0006055001535303202
1776005032.5678778,0.0,0.0191601570695639,9.79562950134277,0.009039267291685804,0.007504173714152935,0.002406142557622634,6.0617524059902825,0.6007537777964338,0.0006057922292313474
1776005032.588892,0.0,0.0047900392673909,9.83395004272461,0.008966743108915279,0.007512848741328123,0.0024820208608183764,6.059662503994985,0.6011650674571565,0.0005897608177439007
1776005032.5898066,0.0047900392673909,0.0047900392673909,9.78604984283447,0.008888625809525645,0.00751714922726119,0.0025513475056053213,6.059654075747974,0.6011828353626067,0.0005898230635217477
1776005032.6107707,0.0,0.0143701173365116,9.80521011352539,0.008805233980130096,0.007516617386181603,0.0026141973248811528,6.0594586517488125,0.6016008173609371,0.0005918821236156147
1776005032.6117926,0.0095800785347819,0.0095800785347819,9.79562950134277,0.008716927305565829,0.0075108328589171235,0.00267068980530462,6.059449421525563,0.6016208500197374,0.0005920092713810301
1776005032.63293,-0.0047900392673909,0.0095800785347819,9.80041980743408,0.00862408720581493,0.0074993937731385055,0.00272091921425973,6.0592568923624865,0.602044836184252,0.0005953250224742036
1776005032.6340554,0.0095800785347819,0.0,9.79562950134277,0.008527112895678994,0.007481922282240295,0.002764947293701446,6.05924648869054,0.6020680875943721,0.0005955411249344865
1776005032.6547701,0.0,0.0095800785347819,9.80521011352539,0.008426421955644425,0.007458103711283697,0.002802810420303996,6.059061940520811,0.6024864788766762,0.0006000465834498055
1776005032.6558921,0.0047900392673909,-0.0095800785347819,9.819580078125,0.008322441795751846,0.007427723586653685,0.00283455618457194,6.05905167357429,0.6025100923339095,0.0006003354620334512
1776005032.6569314,-0.0095800785347819,0.0095800785347819,9.80521011352539,0.008215615002278132,0.007390693757723617,0.0028603216969380315,6.059043099418571,0.6025298398853292,0.0006005799050167019
1776005032.6767228,-0.0047900392673909,0.0095800785347819,9.78125953674316,0.008106437903597013,0.007347047354211428,0.0028803559162176463,6.058486313533609,0.6029311496743243,0.0005903357934627905
1776005032.6778586,-0.0095800785347819,-0.0047900392673909,9.78604984283447,0.007995505299059139,0.0072968943774848385,0.002894903757958699,6.058473176640444,0.6029540629324059,0.0005904284082656453
1776005032.6988802,0.0095800785347819,0.0095800785347819,9.79084014892578,0.007883512467241338,0.007240400329138725,0.0029040603972636993,6.058227958098166,0.6033866725459168,0.0005928477751077892
1776005032.6998417,0.0,0.0191601570695639,9.83874034881592,0.00777119500767392,0.007177780308746076,0.002907782894065046,6.058217902088024,0.6034046146626505,0.000592975415926884
1776005032.7206945,0.0047900392673909,0.0,9.82437038421631,0.0076592553606409436,0.007109250328465707,0.0029060955074923754,6.057978295593869,0.603836841976006,0.0005966983263655178
1776005032.721678,0.0047900392673909,0.0191601570695639,9.79562950134277,0.007548330568749211,0.007034990252431705,0.0028992846824662786,6.05796756167518,0.6038564198307841,0.0005968961842686024
1776005032.7426636,0.0,-0.0047900392673909,9.80521011352539,0.007438991150794136,0.0069551601064081385,0.0028878632566060295,6.057729341991838,0.6042956705114354,0.0006019880056918526
1776005032.743911,0.0,0.0047900392673909,9.78125953674316,0.007331753509065126,0.006869939967572842,0.0028723821718713263,6.057714747058588,0.6043228820083606,0.0006023442112602909
1776005032.7449043,0.0,0.0,9.80521011352539,0.007227103694139882,0.0067795764537506645,0.002853291496146914,6.057705488885352,0.6043401612951579,0.0006025728338828672
1776005032.7648723,0.0,0.0095800785347819,9.79084014892578,0.007125513314392342,0.006684399775975455,0.0028309052785433814,6.057608410063949,0.6047579536161598,0.0005905567503214307
1776005032.7657833,-0.0191601570695639,-0.0047900392673909,9.8100004196167,0.007027457196035997,0.006584802640633968,0.002805437799411477,6.05760060017791,0.6047756093450846,0.0005906271554896929
1776005032.7867856,0.0,0.0,9.79562950134277,0.00693345812832971,0.006481234334343126,0.002777061282714551,6.057405950155175,0.6052207558234466,0.0005930358483707631
1776005032.7877924,0.0047900392673909,-0.0047900392673909,9.80521011352539,0.006844102368277335,0.006374224939666962,0.0027459424060452056,6.057396463999424,0.6052427045763168,0.0005931858947326482
1776005032.8088472,0.0095800785347819,0.0,9.81478977203369,0.006759965542797572,0.00626440033971405,0.0027122646820074356,6.057204843353377,0.6056911694099437,0.000596873066746182
1776005032.8096526,0.0,0.0,9.80521011352539,0.006681519364258631,0.0061524676407386895,0.0026762686956772396,6.057198474003141,0.6057062456386639,0.0005970174455126052
1776005032.8306332,0.0143701173365116,0.0,9.80041980743408,0.006609100718821896,0.006039184219650884,0.0026382768425524455,6.057010211575124,0.6061568181516231,0.0006019222218257634
1776005032.8316326,0.0,0.0191601570695639,9.78604984283447,0.006542916915317561,0.005925313211673134,0.0025986400040202114,6.057001720479352,0.6061773696335127,0.0006021729542450302
1776005032.8526256,0.0,0.0095800785347819,9.77167987823486,0.006483064412139052,0.0058115508022956825,0.002557614303727779,6.056816277239707,0.6066311913717594,0.0006082860257982159
1776005032.8536289,0.0143701173365116,0.0143701173365116,9.8291597366333,0.006429563120837867,0.00569845632749844,0.0025152704599181613,6.0568080727096785,0.6066514933778165,0.0006085850732150835
1776005032.8546333,0.0047900392673909,0.0,9.80041980743408,0.006382360517749398,0.005586445929782366,0.0024715697243951214,6.056799300822644,0.6066732202788144,0.0006089074613457555
1776005032.874626,-0.0047900392673909,-0.0095800785347819,9.79562950134277,0.006341318736731599,0.005475861818295588,0.002426520069726719,6.056625698494916,0.6071076782975952,0.0006158487099728259
1776005032.8756363,0.0095800785347819,0.0,9.77647018432617,0.006306247681761597,0.0053670747546673584,0.0023801747545577037,6.0566168417839386,0.6071300745953597,0.0006162318809420994
1776005032.896624,0.0,0.0,9.8100004196167,0.006276942391139227,0.005260540302967596,0.002332510041073951,6.056609661439822,0.607582557645752,0.000590634262474078
1776005032.897626,0.0,0.0,9.80521011352539,0.006253184833649181,0.005156776373400767,0.0022834084754637645,6.056601393394268,0.607604003994746,0.0005907083864446042
1776005032.9186296,0.0,0.0191601570695639,9.78604984283447,0.00623475424626857,0.0050563043344581116,0.002232749215511717,6.056425595645161,0.6080649194420338,0.0005928148423081024
1776005032.9196477,0.0,0.0047900392673909,9.80521011352539,0.0062214489029796165,0.00495957713096282,0.0021804374683516694,6.056417402451863,0.6080866336446621,0.00059293810281595
1776005032.940644,0.0047900392673909,0.0047900392673909,9.79084014892578,0.006213087184707111,0.0048669317116873155,0.002126368980142828,6.056244619898692,0.6085494892752557,0.0005960513990986107
1776005032.9416418,0.0143701173365116,0.0047900392673909,9.80521011352539,0.006209478151650922,0.004778610066629215,0.0020704259285674476,6.056236624680952,0.6085711391152313,0.0005962195790071954
1776005032.9626856,0.0143701173365116,0.0,9.80041980743408,0.006210362298130868,0.004694808153607811,0.0020125038241349345,6.056065538273337,0.6090394570366313,0.0006003212123338677
1776005032.9638228,-0.0095800785347819,0.0047900392673909,9.80521011352539,0.00621537510977958,0.00461570488308974,0.0019525428714137968,6.056057001805993,0.609063080848262,0.0006005514188039293
1776005032.9648688,0.0,0.023950194939971,9.80521011352539,0.006224103642773474,0.0045414523180923915,0.0018905541027190308,6.056047906621247,0.6090882780883385,0.0006007993024713827
1776005032.9847565,0.0,0.0095800785347819,9.8100004196167,0.006236182651139128,0.004472111576367115,0.0018266364150782827,6.055890615823686,0.609528545114371,0.0006055008414818349
1776005032.9858155,0.0,0.0143701173365116,9.79562950134277,0.0062513240969256445,0.00440759513318469,0.0017609813238607865,6.055882433304016,0.6095516858512431,0.0006057671777501341
1776005033.0066793,0.0,0.0,9.79562950134277,0.006269294036857646,0.004347688507703163,0.0016938370498317213,6.055718460271591,0.6100205216319402,0.0006115442805545087
1776005033.0076492,0.0,0.0,9.77647018432617,0.006289896752630008,0.004292130517206914,0.0016254212830387512,6.055712261535808,0.6100384396388074,0.0006117793668753628
1776005033.0286283,-0.0191601570695639,0.0047900392673909,9.79562950134277,0.006312986719817852,0.0042406906413488925,0.0015558259031152888,6.0558705071098675,0.6105039159778856,0.0005903190096275198
1776005033.0296357,-0.0095800785347819,0.023950194939971,9.77647018432617,0.006338521242143812,0.004193178424096319,0.0014849720511054248,6.055865124160917,0.6105256476971727,0.0005903705024998319
1776005033.050696,0.0143701173365116,0.0,9.819580078125,0.006366590945421361,0.004149377856024061,0.0014126430011094364,6.055748165142036,0.6110048999302015,0.0005918391983852991
1776005033.0517159,0.0,0.0287402346730232,9.79084014892578,0.006397340655685049,0.004108992076691076,0.001338587038167078,6.05574375604919,0.6110232383751825,0.0005919079515441653
1776005033.0727983,0.0047900392673909,0.023950194939971,9.8100004196167,0.0064308584414094596,0.004071614771661044,0.0012626225673071196,6.05563082665471,0.6115000602972884,0.0005939845659431431
1776005033.0736928,0.0047900392673909,-0.0191601570695639,9.8100004196167,0.006467146613838524,0.004036720334361761,0.0011846835494070639,6.05562587155648,0.6115213050085048,0.0005940899222194912
1776005033.0947728,0.0,-0.0047900392673909,9.8100004196167,0.006506141156278635,0.004003773438276272,0.0011048438097434475,6.055516004580946,0.6119997596140406,0.0005967154020462581
1776005033.095788,0.0047900392673909,0.0143701173365116,9.80521011352539,0.006547729014119935,0.003972391277812483,0.0010233359516191554,6.055511170716649,0.6120211454833182,0.0005968439384472221
1776005033.1173139,0.0,0.0095800785347819,9.81478977203369,0.0065917633900185214,0.00394234186797749,0.0009405352393530764,6.055266190580421,0.6125087580895657,0.0005899475733663898
1776005033.1182256,0.0047900392673909,0.0047900392673909,9.81478977203369,0.006638072878781215,0.003913428989462634,0.0008569439891984881,6.055260676179492,0.6125285506130621,0.0005899775546296191
1776005033.1387458,0.0047900392673909,0.0191601570695639,9.80041980743408,0.006686460977095466,0.00388543726012396,0.0007731894122456369,6.05513220749525,0.61299572373018,0.00059085296321946
1776005033.1397824,0.0143701173365116,0.0,9.79562950134277,0.006736688841622016,0.003858128907785797,0.0006899725651993586,6.055125996044847,0.6130186136388501,0.0005909040172026442
1776005033.1609874,0.023950194939971,0.0,9.79562950134277,0.0067884268545741755,0.0038312629512271333,0.0006079634675959525,6.054994843733812,0.6135088138224671,0.0005921414207532122
1776005033.161838,-0.0047900392673909,0.0,9.80041980743408,0.006841206188738031,0.0038046546873025905,0.0005277249824817926,6.054990110030421,0.6135267591607118,0.0005921918663625087
1776005033.182754,0.023950194939971,0.0047900392673909,9.79084014892578,0.006894435604365432,0.003778221286536119,0.0004497008178081528,6.054865171049567,0.6140071499134777,0.0005936420163996658
1776005033.1838028,0.0143701173365116,0.0047900392673909,9.80041980743408,0.006947443348586,0.00375196764791886,0.0003742237169272369,6.054858672288078,0.6140325032086607,0.000593723792810323
1776005033.2056954,0.0047900392673909,0.0095800785347819,9.8100004196167,0.0069994796510033895,0.0037259431995936843,0.00030153643550300186,6.054549262984613,0.6145299497525967,0.0005894826067310682
1776005033.2066858,-0.0095800785347819,0.0047900392673909,9.80041980743408,0.007049758973280284,0.003700204669428115,0.0002318491844745467,6.054542424760103,0.6145516994561585,0.000589495217655561
1776005033.2267532,0.0095800785347819,0.0047900392673909,9.82437038421631,0.007097569942032723,0.0036748015831304707,0.0001654058171213986,6.054397557031764,0.6150180196450572,0.0005898007743591831
1776005033.2277892,0.0095800785347819,-0.0047900392673909,9.78604984283447,0.007142325145814833,0.0036497941387481337,0.00010251787618427033,6.054389745564393,0.6150434723966022,0.0005898193078233094
1776005033.248757,0.0,0.0,9.80521011352539,0.007183516197538634,0.0036252940265972507,4.353217775231423e-05,6.0542420171191225,0.6155310712659248,0.0005901844766515124
1776005033.2497776,-0.0047900392673909,0.0143701173365116,9.80041980743408,0.007220692206553804,0.0036014811549366556,-1.1244723674370323e-05,6.054235295105522,0.6155535471140473,0.0005902017149237341
1776005033.27077,0.0047900392673909,0.0047900392673909,9.80521011352539,0.007253501387111104,0.0035785566471706505,-6.157164800116756e-05,6.054090473507878,0.6160442008263917,0.0005905636896507343
1776005033.271775,-0.0191601570695639,-0.0143701173365116,9.80041980743408,0.007281729734814528,0.003556702569856832,-0.00010724616896046458,6.0540838039506495,0.6160671003298022,0.0005905798703485837
1776005033.272705,-0.0143701173365116,0.0,9.80041980743408,0.007305340972336389,0.0035361339449654625,-0.00014809465104067488,6.054077610779123,0.616088388766359,0.0005905948014155451
1776005033.2936788,0.0143701173365116,0.0,9.79562950134277,0.0073245083768052315,0.0035171638603704153,-0.00018398943989626773,6.053840065571984,0.616573468602439,0.0005891684455330645
1776005033.2948053,0.0,0.0,9.81478977203369,0.0073395445242142076,0.0035001841600050213,-0.0002148587340017865,6.053831142745172,0.6166006924379754,0.0005891657896148877
1776005033.3147533,0.0,-0.0047900392673909,9.80041980743408,0.007350779607624481,0.003485617719183876,-0.0002406556632815409,6.0536797653148975,0.6170679696036577,0.0005890702364047068
1776005033.3157754,0.0047900392673909,-0.0047900392673909,9.78125953674316,0.007358522388400459,0.0034739117199569596,-0.00026134045469988575,6.0536722023915805,0.6170915893677726,0.0005890628820079779
1776005033.3368328,0.0,0.0,9.78604984283447,0.0073630745328967925,0.003465548563133693,-0.0002769599918722752,6.053514337442115,0.617590829847101,0.000588842829996307
1776005033.3379304,0.0,0.0,9.79562950134277,0.007364734126359422,0.003461032852082874,-0.00028774875040968534,6.0535071767968756,0.6176137626635951,0.0005888297554201213
1776005033.3586745,0.0,0.0095800785347819,9.80521011352539,0.007363802869608736,0.0034608496022443935,-0.0002941131173279462,6.0533556290289114,0.6181052222201583,0.000588483626346095
1776005033.359698,-0.0047900392673909,0.0287402346730232,9.79562950134277,0.007360600610791165,0.003465389937967028,-0.00029652544662650516,6.053348535630994,0.6181285181378698,0.0005884640978380458
1776005033.3808477,-0.0047900392673909,-0.0047900392673909,9.79562950134277,0.007355481606069175,0.0034748630625225075,-0.0002954546597002451,6.05319725264275,0.6186318607614321,0.000587973288688599
1776005033.3817685,0.0,-0.0143701173365116,9.80521011352539,0.007348847721177971,0.003489309649676247,-0.0002913631238351539,6.053190526182635,0.6186545362332343,0.0005879480919208398
1776005033.382886,0.0,0.0095800785347819,9.80521011352539,0.007341137324497129,0.0035087399664231493,-0.0002846952477771603,6.053183219739281,0.6186791960643613,0.0005879203968368506
1776005033.4028533,0.0047900392673909,0.0287402346730232,9.81478977203369,0.007332789356391315,0.003533186812390118,-0.00027582476075217337,6.0531382601945465,0.619148592760611,0.0005889138677740654
1776005033.4038653,0.0047900392673909,0.0047900392673909,9.819580078125,0.007324203978655864,0.003562586533467517,-0.0002649891294197937,6.053131879035842,0.6191690865952586,0.000588906687336412
1776005033.424751,0.0,0.0143701173365116,9.79084014892578,0.007315718031424169,0.003596687798961094,-0.00025225697008285505,6.052977965505203,0.6196695908757603,0.0005886738337881634
1776005033.425775,0.0,-0.0143701173365116,9.78125953674316,0.007307610600040652,0.0036351099672471674,-0.00023760572169908152,6.0529700333969005,0.6196957146338908,0.000588658672075475
1776005033.4467583,0.0047900392673909,0.0,9.80041980743408,0.007300125486492778,0.0036774718092220642,-0.00022108338614332685,6.0528194383012695,0.6201980962751256,0.0005883162874578137
1776005033.447789,-0.0047900392673909,0.0,9.79562950134277,0.007293481947039698,0.0037234836950866485,-0.00020288466546175072,6.052811958961546,0.6202233721277409,0.0005882965376593578
1776005033.4687474,0.0,0.0095800785347819,9.80041980743408,0.007287883961507894,0.0037729430532190454,-0.00018329749745980226,6.0526651672872935,0.6207259597621566,0.0005878622333529507
1776005033.469777,0.0,0.0047900392673909,9.819580078125,0.007283536757708018,0.0038256649723595374,-0.0001626176735943702,6.05265764222252,0.6207520664789709,0.0005878375406317582
1776005033.4907746,0.0,0.0431103520095348,9.8100004196167,0.007280647769143376,0.0038813973376639827,-0.00014105891840711105,6.051977010834116,0.6212490168773114,0.00058885722338513
1776005033.4917872,-0.0095800785347819,0.0047900392673909,9.79084014892578,0.007279422975174244,0.003939719611555868,-0.00011869898810437836,6.051964955443893,0.6212737542187001,0.0005888513411586621
1776005033.4929287,0.0,0.0047900392673909,9.79562950134277,0.0072800851879319586,0.00400001084052208,-9.554314346981802e-05,6.051951734764795,0.6213009054998123,0.0005888447575641075
1776005033.5129359,0.0,0.0143701173365116,9.81478977203369,0.007282884904682868,0.004061550082318524,-7.162193922274901e-05,6.051717440088514,0.6217861069152583,0.0005887118631692626
1776005033.5139217,0.0,0.0,9.80041980743408,0.007288074573653409,0.004123620454942026,-4.698351241714609e-05,6.0517068620302625,0.6218081956454913,0.000588705150941612
1776005033.5347571,0.0095800785347819,0.0,9.80521011352539,0.007295869336723737,0.004185550447651676,-2.1635160198778504e-05,6.05146649621652,0.6223145170297676,0.0005885464393927159
1776005033.5357854,0.0,0.0,9.80521011352539,0.007306414007091019,0.0042467574264851045,4.462698193213423e-06,6.051454988039076,0.6223389730483975,0.0005885385637038118
1776005033.5566723,0.0047900392673909,0.0143701173365116,9.77647018432617,0.0073197686885993676,0.004306770911698191,3.1353701551675344e-05,6.051216358756812,0.6228506608236966,0.0005883810450823164
1776005033.5576866,-0.0095800785347819,0.0,9.80041980743408,0.007335931955512214,0.004365195311634946,5.9006087025065496e-05,6.051206064196421,0.6228729347184189,0.0005883745255961225
1776005033.5787702,0.0095800785347819,-0.0095800785347819,9.82437038421631,0.007354882747747642,0.004421686252891235,8.728061530758741e-05,6.053285516178516,0.6233797810803561,0.0005889319872917369
1776005033.5797985,0.0047900392673909,0.0,9.80041980743408,0.007376586005274957,0.004475998962924128,0.00011603814579480429,6.053294054887968,0.623402807366828,0.0005889329669368785
1776005033.6007757,0.0047900392673909,-0.0095800785347819,9.8291597366333,0.007400954562116596,0.004528041202412188,0.0001452697267899456,6.053487652581062,0.6239212977005161,0.000588988429957765
1776005033.6017892,0.0,0.0,9.80041980743408,0.007427830367345067,0.004577873379280597,0.0001751322382077075,6.053495802229242,0.623942976146586,0.0005889921598040773
1776005033.6026769,0.0047900392673909,0.0143701173365116,9.819580078125,0.007457008200282102,0.00462566375211942,0.0002059248789708654,6.053503990100022,0.6239647444310944,0.0005889960529139055
1776005033.6227465,0.0095800785347819,0.0,9.82437038421631,0.0074882521493020715,0.004671606002615354,0.00023806299917614944,6.053691942519122,0.6244612195374686,0.0005891346269028954
1776005033.6237686,-0.023950194939971,0.0047900392673909,9.80521011352539,0.007521305771507073,0.004715857503851615,0.0002720800485092272,6.053701251997303,0.6244856530475303,0.0005891439297359736
1776005033.6447616,-0.0047900392673909,0.0,9.78125953674316,0.007555961339422787,0.004758547563510344,0.00030858011598658484,6.053901900108435,0.6250087591256499,0.0005894142017666443
1776005033.6457803,-0.0095800785347819,-0.0191601570695639,9.819580078125,0.007592148234272091,0.004799827744062751,0.00034809742303753947,6.053910778270866,0.6250317529196293,0.0005894292189787317
1776005033.6667454,-0.0095800785347819,0.0143701173365116,9.8100004196167,0.0076299417515327,0.004839927135469973,0.0003910335370951855,6.053832025558751,0.6255422584130239,0.0005891140688238667
1776005033.6677709,0.0095800785347819,0.0,9.80041980743408,0.007669508482610278,0.004879146554480878,0.0004377302314347086,6.053838483129376,0.6255687104582197,0.0005891250538045045
1776005033.688781,0.0,-0.0047900392673909,9.80041980743408,0.0077110286113014626,0.0049177923363734,0.0004885016564245035,6.0539686799631305,0.6260958097998284,0.0005894569355029983
1776005033.689811,0.0095800785347819,0.0,9.80521011352539,0.007754616768541238,0.004956158650197707,0.0005435842620988779,6.053974477847505,0.6261190143091747,0.0005894765168410516
1776005033.7107646,0.0047900392673909,0.0047900392673909,9.80521011352539,0.007800281394671649,0.004994551206362167,0.000603116566740112,6.054107397189287,0.6266449828049111,0.000590056985356697
1776005033.7119987,0.0143701173365116,0.0,9.8100004196167,0.007847913028583915,0.0050332726248488524,0.0006671703762088032,6.054115170017734,0.6266753938190224,0.0005900985945159855
1776005033.7127392,0.0095800785347819,-0.0047900392673909,9.80521011352539,0.007897271532660694,0.005072601268005812,0.0007357865858634369,6.054119856555157,0.6266937116615606,0.0005901241408542356
1776005033.7327647,-0.0095800785347819,-0.0143701173365116,9.78604984283447,0.007947998472060755,0.005112820743821841,0.0008089714147493732,6.0542508823419,0.6272004147887567,0.0005909979230821014
1776005033.7337744,-0.0191601570695639,0.0,9.82437038421631,0.007999711015806436,0.005154274825713484,0.000886654826156211,6.054257458091123,0.627225575566683,0.0005910497466415063
1776005033.755841,0.0095800785347819,0.0,9.79562950134277,0.008052129463868588,0.005197374372738092,0.000968694880150927,6.053862269973153,0.6277710863023662,0.0005893429941720531
1776005033.7567852,0.0095800785347819,0.0,9.78604984283447,0.008105085375747632,0.005242541871562893,0.0010549081419241552,6.053863967814201,0.6277950939535801,0.0005893680323944564
1776005033.7757502,0.0047900392673909,0.0,9.79084014892578,0.008158406702718788,0.005290159656194623,0.0011450099600962015,6.053899516020981,0.6282770262237648,0.0005900844452531122
1776005033.7767632,0.0047900392673909,0.0095800785347819,9.80041980743408,0.008211841973910719,0.005340547717360663,0.0012385350029527824,6.05390144463956,0.6283021390454157,0.0005901329803004803
1776005033.7990234,0.0,0.0,9.8100004196167,0.008265078844499637,0.005393941098662204,0.0013348755347908088,6.053947548278692,0.6288756093931978,0.0005915882352027067
1776005033.7998178,0.0047900392673909,0.0095800785347819,9.80521011352539,0.008317786581208674,0.005450471566283251,0.001433397708625754,6.053948952576339,0.628892342502431,0.0005916406794949364
1776005033.800678,0.0095800785347819,-0.0191601570695639,9.80041980743408,0.008369631018341605,0.0055101876160677625,0.0015335193829701136,6.05395066065765,0.6289126416048377,0.0005917051422063931
1776005033.8207479,0.0,0.0095800785347819,9.8100004196167,0.008420261675087191,0.005573115424701705,0.0016347155892073105,6.053995779846326,0.6294290012487449,0.0005936837576727797
1776005033.821788,-0.0095800785347819,0.0047900392673909,9.79562950134277,0.008469322762583859,0.005639289260637536,0.0017365012488067444,6.05399828983578,0.6294566919796089,0.00059380830051908
1776005033.8437636,0.0095800785347819,0.0,9.81478977203369,0.008516505856368109,0.005708708264095124,0.0018384249056004648,6.053933455632147,0.6300095540678134,0.000589714978192879
1776005033.844775,0.0047900392673909,0.0,9.79084014892578,0.008561564097650413,0.005781304456308941,0.0019400675638556605,6.053934786888275,0.6300343446928345,0.0005897646874595122
1776005033.8647468,0.0143701173365116,0.0047900392673909,9.8100004196167,0.008604254810928308,0.0058569637435235125,0.0020410329514437796,6.053964380243835,0.6305530724168253,0.000591229323352558
1776005033.8657608,0.023950194939971,0.0047900392673909,9.80041980743408,0.008644265113950163,0.0059355357145119,0.0021409349213243555,6.053965961745786,0.6305792591895427,0.000591324740142246
1776005033.886765,0.0,0.0,9.78604984283447,0.008681162777799064,0.00601682092189446,0.0022393868769681182,6.054001124823709,0.6311293508916325,0.000593845694518873
1776005033.8878193,0.0095800785347819,0.0,9.8100004196167,0.008714416526768472,0.0061005779770397055,0.0023359715300632984,6.0540028520887885,0.6311549665123253,0.000593987083786844
1776005033.9087477,-0.0047900392673909,0.0143701173365116,9.79084014892578,0.008743483688473198,0.006186538792185503,0.0024302244897667366,6.05404171365129,0.6317029999607873,0.0005975600920998121
1776005033.9097586,0.0047900392673909,0.0047900392673909,9.81478977203369,0.008767889388662489,0.006274387532592596,0.0025216685556967468,6.054043654345351,0.6317290927663556,0.0005977562743318786
1776005033.9107656,0.0,-0.0047900392673909,9.81478977203369,0.008787258843614011,0.006363739188874774,0.0026098777195113615,6.05404568586707,0.6317562894364954,0.0005979634021083919
1776005033.9316378,0.0,-0.0047900392673909,9.79084014892578,0.008801318015973,0.006454186993431027,0.0026945354500366027,6.055651052078804,0.6322878923327724,0.0005900756559259979
1776005033.932693,0.0,0.0,9.80521011352539,0.008809888881337918,0.006545377571713485,0.0027754185045313477,6.055667341151321,0.6323148856508046,0.000590152647702505
1776005033.9527533,-0.0095800785347819,0.0047900392673909,9.79084014892578,0.008812897340882309,0.006637026918305273,0.0028523176899166772,6.055989687483341,0.632847365086146,0.0005922729064867158
1776005033.9537513,0.0,0.0095800785347819,9.79562950134277,0.008810391709289453,0.006728873017968955,0.002924983543431968,6.05600536192586,0.6328731763179447,0.0005924046894781418
1776005033.974996,0.0047900392673909,0.0143701173365116,9.78604984283447,0.008802539753535734,0.006820609702454029,0.002993098147250243,6.056352301952596,0.6334426481741248,0.0005960192225799939
1776005033.975685,0.0,-0.0191601570695639,9.79562950134277,0.00878958167200342,0.006911861366643393,0.003056252292164876,6.056361426265627,0.6334575781300438,0.0005961321038043075
1776005033.996685,-0.0095800785347819,-0.0047900392673909,9.80521011352539,0.008771793552910192,0.0070022572655604205,0.003113961948653466,6.056709176408475,0.6340249007612128,0.0006011266320459168
1776005033.9976726,0.0095800785347819,0.0,9.78125953674316,0.00874949887752814,0.0070915377669701005,0.003165722247237645,6.0567226316864335,0.634046786308219,0.0006013467013607071
1776005034.0186398,0.0047900392673909,0.0095800785347819,9.79562950134277,0.00872306036726133,0.0071795529525714745,0.0032110237902552006,6.056888688131054,0.6345924915586444,0.000590448604149487
1776005034.0196335,0.0,-0.0047900392673909,9.80521011352539,0.008692829399497323,0.007266178433640475,0.0032493368109264478,6.056902104413746,0.6346186764555504,0.0005905416799448389
1776005034.0206459,0.0,0.0,9.80041980743408,0.008659128894022004,0.007351278128950301,0.0032801543377867447,6.05691613462824,0.6346460499053082,0.000590642236650934
1776005034.0406303,0.0,-0.0047900392673909,9.80041980743408,0.008622282035809961,0.007434733175901055,0.003303063380358866,6.057195615584601,0.635189341482951,0.0005933301585351116
1776005034.041635,0.0047900392673909,0.0191601570695639,9.80521011352539,0.008582627893851266,0.007516453435946877,0.0033177658140224786,6.057208673093299,0.635214633297775,0.00059348721593258
1776005034.0636313,0.0143701173365116,0.0,9.79084014892578,0.008540495590404932,0.0075963267336348105,0.0033240648737753765,6.057519395058363,0.6358142288133856,0.00059803742015896
1776005034.064621,-0.0143701173365116,0.0095800785347819,9.79084014892578,0.008496169435141133,0.007674167534871729,0.003321826877667359,6.057533397913094,0.6358411494253536,0.0005982786885977096
1776005034.0846436,-0.0047900392673909,0.0143701173365116,9.78604984283447,0.008449920001882459,0.007749713159101277,0.0033109137518462727,6.057821568116225,0.6363933503818198,0.0006039172911617532
1776005034.0856347,0.0047900392673909,0.0095800785347819,9.80041980743408,0.008402077877056761,0.007822621687343366,0.003291138942318244,6.057834085096942,0.63641725878044,0.0006041909308391607
1776005034.10676,-0.0047900392673909,0.0047900392673909,9.8100004196167,0.008353039392143474,0.00789246708199963,0.003262303991278566,6.058085740316885,0.5710122556423712,0.0005905300529623918
1776005034.1077697,0.0,-0.0047900392673909,9.80521011352539,0.008303223134699982,0.007958783700493653,0.0032242988264188843,6.058099070204588,0.5710124714154365,0.0005906277394906497
1776005034.1287718,0.0095800785347819,0.0095800785347819,9.79562950134277,0.00825304545387252,0.008021139300717144,0.0031771687713125665,6.058388645597516,0.5710190023951682,0.0005934790727618151
1776005034.1297727,-0.0047900392673909,0.0047900392673909,9.78604984283447,0.008202895161161695,0.008079162463799732,0.003121074941742313,6.058400617961354,0.5710193473011297,0.0005936265201762223
1776005034.1517465,-0.0047900392673909,0.0143701173365116,9.78125953674316,0.008153125080875998,0.008132509455652238,0.0030561818007683993,6.0587058416302435,0.5710301242681206,0.000598128862452678
1776005034.1527588,-0.0095800785347819,0.0047900392673909,9.81478977203369,0.00810409675098027,0.008180823127611394,0.00298258325297867,6.058719439974011,0.5710306920577678,0.0005983622127356206
1776005034.1727657,0.0095800785347819,-0.0047900392673909,9.80041980743408,0.008056218026998026,0.008223737218830622,0.002900357060404111,6.05900227605892,0.571044174271279,0.000603802417045088
1776005034.1737666,0.0095800785347819,0.0,9.79562950134277,0.008009901010310558,0.008260936358109731,0.002809671544898479,6.059014920103445,0.5710448506205454,0.0006040713631340572
1776005034.194941,0.0,0.0,9.80041980743408,0.007965478691994203,0.008292215235056428,0.002710801891648967,6.0591668708324145,0.5710052404341877,0.0005905695720525643
1776005034.1957808,0.0047900392673909,0.0,9.78604984283447,0.00792317799664243,0.008317484641815472,0.0026040737841112,6.059176862766191,0.5710054449662996,0.0005906407439297298
1776005034.2167563,0.0,0.0,9.79084014892578,0.007883153981745357,0.008336749506890914,0.0024898062790760546,6.059441062338666,0.5710127318880418,0.0005930829229188041
1776005034.2177634,0.0,0.0191601570695639,9.8100004196167,0.007845523910335186,0.008350076285571927,0.0023682848557604976,6.059452981441582,0.5710131447892087,0.0005932180958308665
1776005034.2388737,0.0191601570695639,-0.0095800785347819,9.79562950134277,0.007810370696567291,0.008357543070073543,0.0022398034476711903,6.059722805056945,0.5710243898188141,0.0005967842701326244
1776005034.2397635,-0.0095800785347819,0.0191601570695639,9.80521011352539,0.007777716035777598,0.008359214367835129,0.0021047300589042478,6.059733364522122,0.5710249027715454,0.000596943172363452
1776005034.2409785,0.0,-0.0143701173365116,9.78125953674316,0.007747524120715864,0.008355158644057361,0.001963505474080559,6.059749415261937,0.5710256928444539,0.0005971871812338282
1776005034.2607448,0.0,0.0,9.819580078125,0.007719761427317483,0.008345489024605607,0.001816598075131121,6.060004033612568,0.5710398753186249,0.000601411596722198
1776005034.2617579,0.0,0.0,9.81478977203369,0.007694430188074526,0.00833041021891432,0.0016645252282233534,6.060017741352755,0.5710407257088232,0.0006016574693162003
1776005034.283772,0.023950194939971,0.0047900392673909,9.8100004196167,0.007671531769225333,0.008310218449835611,0.0015079523820913945,6.060306026586825,0.5710606066295837,0.0006071793772285517
1776005034.2847948,0.0143701173365116,0.0143701173365116,9.81478977203369,0.007650979619800414,0.008285239931540449,0.0013477449128025476,6.060319585253472,0.5710616341821428,0.0006074551827550465
1776005034.3047504,0.0,0.0047900392673909,9.79084014892578,0.00763253079123272,0.00825576096408999,0.0011849188593879613,6.060376832827768,0.5710043118694775,0.0005900716337805718
1776005034.3057747,0.0,0.0,9.78604984283447,0.007615828823950392,0.008222003427001596,0.0010205235723154222,6.0603908000559565,0.5710045725087275,0.0005901200438289484
1776005034.3267698,0.0047900392673909,0.0,9.79084014892578,0.007600510559607999,0.008184164950825175,0.0008554981027887338,6.060670241228514,0.5710116611824397,0.000591283593171654
1776005034.3277733,-0.0047900392673909,-0.0047900392673909,9.79562950134277,0.007586262620191685,0.008142479065273584,0.0006905931782352413,6.060682777442233,0.5710120617224304,0.0005913442294336452
1776005034.328862,0.0191601570695639,0.0143701173365116,9.8100004196167,0.007572817251732027,0.008097235595327348,0.000526410129105637,6.060696329040641,0.5710125025095988,0.0005914103404811136
1776005034.3488512,0.0,0.0,9.8100004196167,0.007559913958288779,0.008048745522134663,0.00036350853688235364,6.060965322066414,0.5710228950077845,0.0005927930267447281
1776005034.3497527,0.0095800785347819,-0.0047900392673909,9.78125953674316,0.007547262698550181,0.007997306470325613,0.0002024805276214836,6.060977082173806,0.5710234198211016,0.0005928563654918858
1776005034.3717594,0.0047900392673909,0.0,9.8100004196167,0.0075345476103845605,0.00794322940209466,4.391836276716918e-05,6.061277971008192,0.5710387820225663,0.0005944792960338679
1776005034.372764,0.0,0.0,9.79562950134277,0.0075214521886902115,0.007886878178475932,-0.00011164357258273276,6.061291144229214,0.571039538505983,0.0005945503140167408
1776005034.3927555,-0.0047900392673909,0.0047900392673909,9.79562950134277,0.007507693759450195,0.007828659270103405,-0.00026372600366436925,6.061688352127331,0.5710039402138033,0.0005893335882968235
1776005034.393758,-0.0143701173365116,0.0047900392673909,9.819580078125,0.007493082623336607,0.00776898217250812,-0.0004118805614692462,6.06170373231587,0.5710041814732038,0.0005893353348738828
1776005034.414766,0.0047900392673909,-0.0047900392673909,9.79084014892578,0.007477575541023401,0.007708234169250622,-0.0005556562739051847,6.062017182942449,0.571010858000198,0.0005892435440446595
1776005034.4157586,0.0,0.0047900392673909,9.77167987823486,0.007461263430413757,0.007646789102496811,-0.0006946102203276842,6.062031631501835,0.5710112456498228,0.0005892333887846345
1776005034.4369936,0.0047900392673909,0.0047900392673909,9.80041980743408,0.007444299004915478,0.007585019074165096,-0.0008284243970877046,6.062354176767854,0.5710216653325404,0.000588811300103054
1776005034.437972,0.0,0.0,9.80041980743408,0.00742683884479776,0.007523278361038367,-0.0009569735044029758,6.062367243549141,0.5710221578356465,0.0005887863045412879
1776005034.438891,-0.0047900392673909,0.0,9.79562950134277,0.007409037148208655,0.007461894078815419,-0.0010802425587267883,6.062380533588604,0.5710226642441725,0.0005887601169280343
1776005034.4587429,-0.0143701173365116,0.0047900392673909,9.80041980743408,0.007391083410268973,0.007401179912562782,-0.0011982385131938987,6.0626832787521305,0.5710356661757972,0.0005879209444067796
1776005034.4597518,0.0,0.0047900392673909,9.78125953674316,0.007373255378214233,0.007341434826763757,-0.0013109882314769577,6.062699963646766,0.5710364634784212,0.0005878611993414153
1776005034.4808385,0.0,0.023950194939971,9.8100004196167,0.007355924018181502,0.0072829032269516964,-0.0014185710154309393,6.0625289560513655,0.571004068309363,0.0005886052145055046
1776005034.4817815,0.0,0.0095800785347819,9.8100004196167,0.007339496122302384,0.0072257072263000426,-0.001521098255018296,6.062537929055524,0.5710042678876168,0.0005885732802315201
1776005034.502752,0.0143701173365116,0.0,9.80041980743408,0.007324347707532083,0.007169816386049898,-0.001618626917564979,6.062750859424931,0.5710106079079147,0.0005874519385229777
1776005034.5037637,-0.0047900392673909,0.0095800785347819,9.819580078125,0.007310776244056549,0.007115105660328945,-0.001711099751261263,6.062761571383312,0.5710110067967372,0.0005873773000957458
1776005034.5247722,-0.0047900392673909,0.0095800785347819,9.79084014892578,0.007298999609280185,0.007061422984531504,-0.0017983476837828613,6.062978826273912,0.5710206757139903,0.0005854582736448395
1776005034.5257688,-0.0191601570695639,-0.0047900392673909,9.81478977203369,0.0072892291773414865,0.007008603991740451,-0.0018801235136764803,6.062987884938488,0.5710211431270009,0.0005853616829708507
1776005034.5467458,0.0095800785347819,0.0143701173365116,9.8100004196167,0.007281748981561765,0.00695648473315805,-0.0019561316693131503,6.063208037016374,0.5710340144656055,0.0005825835221073843
1776005034.5477626,0.0095800785347819,-0.0143701173365116,9.79562950134277,0.0072768914285947905,0.00690492976773988,-0.002026028480786063,6.063219003105677,0.571034730288643,0.0005824237735855421
1776005034.5488694,-0.0143701173365116,0.0143701173365116,9.79084014892578,0.0072749427076963386,0.006853855722834324,-0.0020894577129919427,6.0632301018160515,0.5710354617889553,0.0005822599534319944
1776005034.5687635,0.0,0.0,9.79084014892578,0.007276127433943631,0.006803233481552235,-0.0021461500307554298,6.063443187903962,0.5710508393351575,0.0005786856388872851
1776005034.569763,0.0,-0.0287402346730232,9.80521011352539,0.007280665048691374,0.00675308939108842,-0.002195985080054045,6.0634533342064545,0.571051633779378,0.0005784953525038741
1776005034.590225,0.0143701173365116,0.0047900392673909,9.78125953674316,0.007288761615898299,0.0067035701496311675,-0.002238973668546135,6.063703287398064,0.5710038481740678,0.000588003264487636
1776005034.5909734,0.0,0.0,9.78125953674316,0.007300538295037495,0.0066549877042264335,-0.002275254059299115,6.063710022734149,0.5710039823317925,0.0005879622569421339
1776005034.6127653,-0.023950194939971,0.023950194939971,9.79562950134277,0.007316023198309873,0.006607721731478211,-0.0023051389417783944,6.06393686363141,0.5710100950387264,0.0005860237270926099
1776005034.6137683,0.0335302725434303,0.0,9.79562950134277,0.007335223008357254,0.00656207126806662,-0.0023291100441093578,6.063947025606838,0.5710104401168957,0.0005859119435444168
1776005034.633753,0.0,0.0191601570695639,9.83395004272461,0.007358115092062107,0.006518189844638579,-0.002347699414918385,6.064157054878141,0.571018881570096,0.0005831284391971104
1776005034.634761,0.0143701173365116,0.0,9.8100004196167,0.007384546441227215,0.0064761009542244835,-0.002361310370964266,6.06416797328172,0.57101938761374,0.0005829594170737102
1776005034.6567562,-0.0047900392673909,0.0191601570695639,9.81478977203369,0.007414214095018709,0.006435729931435357,-0.0023700970841021417,6.064403286739502,0.5710318400149649,0.0005787445308728067
1776005034.657762,0.0047900392673909,0.0,9.79562950134277,0.007446740856306127,0.00639692360597281,-0.0023739945210341277,6.064413494619588,0.5710324459347822,0.000578537345504548
1776005034.6587574,0.0095800785347819,0.0,9.80041980743408,0.007481732013261851,0.006359480910419708,-0.0023728456066268084,6.064424590145432,0.5710331105806159,0.0005783098835726103
1776005034.6799195,-0.0143701173365116,0.0,9.78604984283447,0.0075187894478559855,0.006323213961741349,-0.002366523321212354,6.064656061273764,0.5710483739838796,0.0005730381625501883
1776005034.680973,0.0,-0.0143701173365116,9.80041980743408,0.007557545370470329,0.0062880127364386435,-0.0023550082657931275,6.064665572451086,0.5710490572785765,0.0005728004050318527
1776005034.6997902,0.0,-0.0047900392673909,9.80041980743408,0.0075977122866762534,0.006253894751456692,-0.002338401614975956,6.06487320302324,0.5710650334536213,0.0005672112106165299
1776005034.7007797,0.0191601570695639,0.0,9.80521011352539,0.007639060013295602,0.006221024129088558,-0.002316874407502518,6.064884464961987,0.5710659570928631,0.000566886568661346
1776005034.722084,-0.0047900392673909,0.0,9.80521011352539,0.007681331040429963,0.006189669933029124,-0.0022906021204863476,6.065124413282414,0.5710869767191071,0.0005594706657580996
1776005034.7231953,-0.0047900392673909,-0.0143701173365116,9.78604984283447,0.0077242165215077345,0.00616015214707133,-0.0022597434936156664,6.065135721278896,0.5710880294444752,0.0005590980619493459
1776005034.7448785,-0.0191601570695639,0.0143701173365116,9.79084014892578,0.007767439984483044,0.006132829434424823,-0.0022244915976648693,6.065123463093263,0.5710037806898925,0.0005876406913025492
1776005034.7458856,-0.0047900392673909,0.0,9.77167987823486,0.007810862559362874,0.006108070825622957,-0.0021851683487058003,6.065133637785815,0.5710039810131501,0.0005875685900384907
1776005034.7659404,-0.0095800785347819,0.0047900392673909,9.80521011352539,0.0078545147291114,0.006086192582169792,-0.0021422858009733084,6.0653376571099065,0.5710092608667569,0.0005856781637694973
1776005034.766908,0.0095800785347819,0.0,9.77647018432617,0.007898543728156397,0.006067435162645856,-0.002096522438756088,6.065346802340707,0.571009552909128,0.0005855739619008375
1776005034.7888978,0.0,-0.0047900392673909,9.8100004196167,0.007943120057633785,0.006051991753356123,-0.0020486490394171454,6.065573630252785,0.5710182580060508,0.0005824954395051505
1776005034.7899175,0.0047900392673909,0.0143701173365116,9.81478977203369,0.007988362072509275,0.00604003289139947,-0.0019994340985272606,6.065584009597498,0.5710187223291424,0.0005823323079545127
1776005034.809891,-0.0095800785347819,0.0095800785347819,9.79084014892578,0.008034324189006296,0.006031680142329764,-0.0019495330517596905,6.065794025935362,0.5710293128065992,0.0005786467998049034
1776005034.8108969,-0.0191601570695639,0.0,9.80521011352539,0.00808105647215229,0.006026954109099861,-0.0018994512224767294,6.065804004219283,0.5710298717148418,0.0005784538011831863
1776005034.8326662,0.0095800785347819,0.0,9.81478977203369,0.008128681034369355,0.006025783120946732,-0.0018495827690402657,6.066827645324759,0.5710035940748556,0.0005876875916076485
1776005034.8336685,0.0,-0.0047900392673909,9.78604984283447,0.008177382741438968,0.006028071969607432,-0.0018002190271160941,6.066844589929419,0.5710037842410813,0.0005876267985418212
1776005034.853619,-0.023950194939971,0.0095800785347819,9.82437038421631,0.008227344492109925,0.006033747615869439,-0.0017515480517277843,6.067191512385373,0.5710089268795936,0.000586019571739094
1776005034.8546093,0.023950194939971,-0.0095800785347819,9.79084014892578,0.008278743843692987,0.006042754661243405,-0.0017036682715928701,6.067207500548413,0.5710092207113102,0.000585929051747301
1776005034.8756032,0.0,0.0047900392673909,9.79084014892578,0.008331737177910851,0.0060550469720317395,-0.0016566097005534788,6.0675759370710045,0.5710173559740539,0.0005834706035709403
1776005034.876606,-0.0095800785347819,0.0047900392673909,9.80521011352539,0.008386390458333729,0.006070589046723679,-0.001610400079959363,6.067592697870038,0.571017787577965,0.0005833420121002361
1776005034.8776488,0.0,0.0143701173365116,9.79562950134277,0.008442694673192351,0.0060893225910279535,-0.001565108093869111,6.067614970034021,0.5710183693291144,0.0005831690047459544
1776005034.8976002,-0.0047900392673909,-0.0047900392673909,9.80041980743408,0.008500640083623067,0.0061111169006606795,-0.0015208192383740853,6.067964886728543,0.5710287339238556,0.000580147725750225
1776005034.8986053,0.0,0.0,9.80041980743408,0.008560231876748682,0.006135779314542899,-0.0014776150771007818,6.067982520850141,0.5710293165833847,0.0005799805879018508
1776005034.920675,0.0,0.0,9.80041980743408,0.0086214688101366,0.006163116553186381,-0.001435568532385266,6.066852346581713,0.5710035479857956,0.0005880300962913823
1776005034.9216402,0.0,0.0,9.80041980743408,0.008684325145508584,0.006192969634403886,-0.001394735630355761,6.066855682130567,0.5710037155250413,0.0005879894688769998
1776005034.941607,0.0,0.0047900392673909,9.80521011352539,0.00874873991120146,0.006225204407636408,-0.0013551486510435498,6.066934436435211,0.571008876269792,0.0005867697754609549
1776005034.9426124,0.0095800785347819,0.0,9.76688957214355,0.008814608231403974,0.006259690353183717,-0.0013168363896626535,6.066938363558418,0.5710091912996579,0.0005866965280442293
1776005034.9646084,-0.0047900392673909,0.0,9.80521011352539,0.008881765933918734,0.006296291199450068,-0.0012799016095031176,6.067029758014596,0.571017946426431,0.0005847073217031525
1776005034.9656053,0.0,-0.0143701173365116,9.78125953674316,0.008949994500778343,0.006334887206509759,-0.001244581484698552,6.067033544869447,0.5710183651548673,0.0005846137501603115
1776005034.9855986,0.0143701173365116,0.0143701173365116,9.79562950134277,0.009019043255689738,0.006375411130683402,-0.0012112239337044534,6.067120395234085,0.5710290974380801,0.0005822598881875583
1776005034.9866033,-0.0095800785347819,0.023950194939971,9.77647018432617,0.009088622893220082,0.006417809256537541,-0.0011802573549465644,6.067124586916277,0.5710296677297029,0.0005821366865360583
1776005034.9876018,0.0143701173365116,0.0,9.79084014892578,0.009158396313964833,0.006461922094933606,-0.0011522024170478875,6.067129005659738,0.5710302739462673,0.0005820059421702202
1776005035.008608,0.0095800785347819,0.0047900392673909,9.80521011352539,0.009227980228961093,0.006507440449539435,-0.0011276590774620832,6.067224651183019,0.571044615030359,0.0005789767824217043
1776005035.0096083,0.023950194939971,0.0143701173365116,9.819580078125,0.009296904269989532,0.0065539734041267445,-0.0011071995229576914,6.06722896061704,0.5710453135855673,0.0005788317686778283
1776005035.0306008,0.0,-0.0095800785347819,9.75251960754395,0.009364560417609177,0.0066011029147432865,-0.0010912600554254133,6.067328627347031,0.5710626417293557,0.0005752987294685402
1776005035.0316052,0.0191601570695639,0.0,9.80521011352539,0.009430218080181872,0.00664842209106832,-0.0010802056163988773,6.067333475222173,0.5710635393944259,0.0005751185202790125
1776005035.0526009,-0.0143701173365116,0.0047900392673909,9.81478977203369,0.009493094780483796,0.006695589298495484,-0.0010744324632579098,6.066956710458442,0.5710035980136721,0.0005882133327838363
1776005035.0536048,0.0143701173365116,0.023950194939971,9.819580078125,0.009552438782089397,0.006742313223534268,-0.001074260938801793,6.0669586786740854,0.5710037985655486,0.0005881784855304079
1776005035.0735962,0.0,0.0095800785347819,9.82437038421631,0.009607577799874567,0.0067882536910537986,-0.0010797375393034976,6.0670007828986865,0.5710093049324972,0.0005872425849089818
1776005035.0746012,-0.0047900392673909,0.0047900392673909,9.82437038421631,0.009657921088185386,0.0068329598235947345,-0.0010905476387990168,6.067002968543917,0.5710096482033575,0.0005871850071023047
1776005035.096602,-0.0047900392673909,0.0,9.80521011352539,0.009702977852127289,0.00687591817697779,-0.0011060362975239073,6.067054134442616,0.5710190440083852,0.0005856211289102355
1776005035.0976295,-0.0047900392673909,0.0047900392673909,9.8100004196167,0.009742402146661515,0.006916642011413128,-0.0011253078317586677,6.067056561076334,0.5710195482366704,0.0005855376387321203
1776005035.0986118,0.023950194939971,0.0143701173365116,9.78604984283447,0.009775982159712527,0.006954703997241537,-0.0011473739471466447,6.067058957039571,0.5710200508587464,0.0005854544262963345
1776005035.118627,-0.0143701173365116,0.0047900392673909,9.78125953674316,0.009803560837905788,0.006989703281334003,-0.0011713112253449907,6.06710990192703,0.571031775130474,0.0005835106040189316
1776005035.1197522,-0.0095800785347819,0.0047900392673909,9.80521011352539,0.009825011084407127,0.007021237497701359,-0.001196385878541909,6.067113033575286,0.5710325552067825,0.0005833811014421993
1776005035.1395986,-0.0191601570695639,0.0191601570695639,9.78604984283447,0.009840330713842901,0.00704890944628511,-0.001222071645387697,6.0671674967420985,0.5710470759616868,0.000580959950956614
1776005035.1406143,0.0,0.0095800785347819,9.81478977203369,0.009849730208319488,0.007072315769683935,-0.0012479766799614659,6.067170462535763,0.5710479146057801,0.0005808195997421027
1776005035.1616497,-0.0047900392673909,0.0143701173365116,9.80041980743408,0.009853605578376808,0.007091016197111227,-0.0012737585891414082,6.067232777980024,0.5710665347454817,0.0005776834700933581
1776005035.1626148,0.0,0.0191601570695639,9.81478977203369,0.009852448374672699,0.007104525433632466,-0.0012990519394021115,6.0672356596532335,0.5710674385565346,0.0005775304150466638
1776005035.1846182,-0.0047900392673909,0.0,9.78604984283447,0.009846780865665558,0.007112324396834337,-0.0013234416716177495,6.067689295289837,0.5710039560315553,0.000588325500312218
1776005035.1856062,0.0095800785347819,0.0047900392673909,9.83874034881592,0.009837126242456928,0.0071139049768461525,-0.001346480132011807,6.067694107824262,0.5710041734295824,0.000588286467357671
1776005035.206611,0.0,0.0,9.8100004196167,0.009823974469308012,0.007108847004428899,-0.0013676505533091678,6.067800993607115,0.5710105454516347,0.0005871214797526091
1776005035.2076073,0.0,0.0,9.79084014892578,0.009807753473500361,0.00709686992491478,-0.001386311409989487,6.0678058948694735,0.5710109053978176,0.0005870549561541234
1776005035.2285993,0.0047900392673909,-0.0095800785347819,9.8100004196167,0.009788835371998256,0.007077853696723145,-0.001401767327190202,6.0679172721796535,0.5710205550501023,0.0005852500866476884
1776005035.229606,0.0,-0.0143701173365116,9.8100004196167,0.00976755086153797,0.0070518719638011556,-0.0014133776984590338,6.067922869903964,0.5710211112463518,0.0005851451559918183
1776005035.2506075,0.0047900392673909,0.0047900392673909,9.80041980743408,0.0097441888617371,0.007019222215314536,-0.001420558239959048,6.068038480289852,0.5710339963719228,0.0005826921747992906
1776005035.2516067,-0.0047900392673909,0.0095800785347819,9.78125953674316,0.009719000884246707,0.006980379723758477,-0.0014227820321602448,6.0680439535031665,0.5710346698247147,0.0005825630613753104
1776005035.2736025,0.0047900392673909,-0.0095800785347819,9.80041980743408,0.009692217984977871,0.0069358915568993405,-0.0014196661634421996,6.068564727736075,0.5710042021218934,0.0005882333418742578
1776005035.2936134,-0.0047900392673909,-0.0143701173365116,9.80521011352539,0.009664065285352488,0.006886345784924615,-0.001411022284824392,6.068740449000801,0.5710100389795988,0.0005870604110703802
1776005035.2946103,0.0,0.0095800785347819,9.80521011352539,0.009634769950993279,0.006832426355087877,-0.0013967897400707383,6.0687489633899645,0.5710103877330741,0.0005869900565596935
1776005035.29561,0.0,0.0095800785347819,9.8100004196167,0.00960456782120675,0.00677489790361308,-0.0013769386539372662,6.068758295497863,0.5710107767306409,0.0005869115686333086
1776005035.3166041,0.0191601570695639,0.0,9.81478977203369,0.009573682982001093,0.006714501115169501,-0.0013514132451466882,6.068946690037909,0.571020083677734,0.0005850343375377715
1776005035.3176086,0.0095800785347819,0.0287402346730232,9.79562950134277,0.009542258808945148,0.00665187674066821,-0.0013201099776941575,6.068955584857445,0.5710205898763876,0.0005849322763141765
1776005035.3386037,0.0,0.0,9.8100004196167,0.009510304660320231,0.006587527815556342,-0.0012829027832381833,6.069149516851183,0.5710330300580868,0.0005824343118445672
1776005035.3396063,0.0095800785347819,0.0047900392673909,9.79084014892578,0.009477725435763095,0.006521814824866429,-0.0012396993234063468,6.069158928417699,0.5710337004056562,0.0005823001671496883
1776005035.360603,-0.0047900392673909,0.0143701173365116,9.82437038421631,0.00944438672431708,0.006455009088547606,-0.001190466940504454,6.069359279022719,0.5710493415392749,0.000579193796902357
1776005035.361661,0.0047900392673909,0.0,9.80521011352539,0.009410157741117413,0.006387334697391873,-0.0011351938077269513,6.069367692167674,0.5710500542701562,0.0005790531585416834
1776005035.3826013,-0.0143701173365116,0.0,9.819580078125,0.00937494780666389,0.00631898303389287,-0.0010738213760324922,6.069271819940544,0.5710039533317063,0.000588239199832528
1776005035.3836045,0.0047900392673909,0.0,9.819580078125,0.009338745489499747,0.006250155515438897,-0.001006204956334192,6.069279086297391,0.5710041450093699,0.0005882045248987533
1776005035.4036374,0.0047900392673909,-0.0047900392673909,9.8100004196167,0.00930162075391497,0.006181108239475179,-0.0009321030089633248,6.069435244617973,0.5710095185406597,0.0005872711534619305
1776005035.4046113,0.0047900392673909,0.0,9.8100004196167,0.009263669818096948,0.006112167538860742,-0.0008511995891099826,6.069442721727685,0.5710098343458266,0.0005872177436232065
1776005035.4266028,-0.0047900392673909,0.0,9.79562950134277,0.009224968000403854,0.006043724922290309,-0.0007631762227024474,6.0696182419227895,0.571018675526079,0.0005857870638436965
1776005035.4276123,0.0,0.0143701173365116,9.81478977203369,0.009185585876411186,0.005976201628178802,-0.0006677904337333081,6.06962639558637,0.5710191509282263,0.0005857126694270335
1776005035.4486086,0.0,0.0047900392673909,9.82437038421631,0.009145624534145715,0.005909983496746505,-0.0005648814531133162,6.069798343280477,0.5710304203096651,0.0005840314043201134
1776005035.4496367,0.0143701173365116,0.023950194939971,9.79562950134277,0.009105206335231701,0.0058453572834225725,-0.00045430541088588153,6.069806717573491,0.5710310282086462,0.000583944288967712
1776005035.4696026,0.0,0.0095800785347819,9.8100004196167,0.00906442371445343,0.005782466236793209,-0.00033592336825071005,6.070084692209464,0.5710033046073415,0.0005885143687093455
1776005035.470605,0.0095800785347819,0.023950194939971,9.8100004196167,0.009023304655301215,0.005721286947989232,-0.00020966015559224058,6.070094564035339,0.5710034893600872,0.0005884979266031057
1776005035.4926183,-0.0143701173365116,0.023950194939971,9.8100004196167,0.00898183580993072,0.00566162032472705,-7.551925195658868e-05,6.070308064525275,0.5710088811812308,0.0005881254250829698
1776005035.4936116,-0.0143701173365116,0.0,9.83395004272461,0.008940042884994639,0.005603099069542771,6.646998795779454e-05,6.070317263105543,0.571009172082974,0.0005881087930418036
1776005035.5146024,0.0,0.0047900392673909,9.80521011352539,0.00889807988826698,0.005545260820824568,0.0002163231527517817,6.070525100646185,0.5710169592624499,0.0005877851158739498
1776005035.5156026,0.0,0.0095800785347819,9.81478977203369,0.008856234354823684,0.005487663275747628,0.00037412146538575347,6.070534519440725,0.5710173660793847,0.0005877728998942886
1776005035.5166178,0.0143701173365116,-0.0047900392673909,9.80521011352539,0.008814835309039473,0.005429943155645324,0.00053995091549561,6.070544522328582,0.571017803059437,0.0005877603841912992
1776005035.5366046,0.0,0.0095800785347819,9.79562950134277,0.008774152944548455,0.005371826762258735,0.0007138202607143174,6.070746867356826,0.5710276961970582,0.000587658465776378
1776005035.5376081,0.0,0.0095800785347819,9.79562950134277,0.008734365688350555,0.005313125102441918,0.0008955879585283708,6.070756919470775,0.571028238973763,0.0005876609502630593
1776005035.5586045,0.0,-0.0095800785347819,9.8100004196167,0.00869559780605726,0.005253711627011496,0.0010849148676561366,6.071007783723897,0.5710030582367323,0.0005892661703566012
1776005035.559607,0.0047900392673909,0.0095800785347819,9.79562950134277,0.008657960489605081,0.005193528490048314,0.0012812868537113483,6.07101824796588,0.5710032261000404,0.000589292194143606
1776005035.5806093,0.0,0.0047900392673909,9.81478977203369,0.008621552369719213,0.0051326039828619545,0.001484075027644683,6.0712345202626565,0.5710078508836468,0.000590166051938399
1776005035.5816164,0.0,0.0,9.79562950134277,0.008586451420400244,0.005071027542702066,0.0016925799185627147,6.071245282791853,0.5710081374393089,0.0005902261808240437
1776005035.6017406,0.0143701173365116,0.0095800785347819,9.81478977203369,0.008552712579561379,0.0050089234577992406,0.001906057226943592,6.071455718379106,0.5710147536255755,0.0005917932119524249
1776005035.6026137,0.023950194939971,0.0,9.80521011352539,0.008520322920033598,0.0049464452820035965,0.002123740585963139,6.071465068428723,0.5710150914822928,0.0005918799908137962
1776005035.624599,0.0095800785347819,0.0,9.81478977203369,0.008489117079569047,0.004883774959812681,0.002344874442980164,6.071699322238117,0.5710247038147916,0.0005946199354656253
