Timestamp,IMU_Linear_Acc_X,IMU_Linear_Acc_Y,IMU_Linear_Acc_Z,Filtered_X,Filtered_Y,Filtered_Z,Pose_X,Pose_Y,Pose_Z
1731474135.7085116,-0.34383755922317505,0.42492765188217163,-9.9898099899292,-6.178665671459999e-07,7.635832168743239e-07,0.0,-1.1701599177300766e-06,1.4461285360769351e-06,0.0
1731474136.3588867,-0.27416113018989563,0.43637028336524963,-9.988398551940918,-5.396757888483907e-06,6.757169135933687e-06,1.268157478969233e-09,-1.1956945634933788e-06,1.4777033070469723e-06,2.615315951971839e-13
1731474136.6086814,-0.3212164640426636,0.5026140809059143,-9.98022747039795,-2.3815686450660605e-05,3.0214056867287022e-05,1.85468218096774e-08,-1.2447837693069474e-06,1.5387625271654866e-06,9.097002228277104e-12
1731474136.6586556,-0.3097893297672272,0.373074471950531,-9.942727088928223,-7.25220352498426e-05,9.303693641832992e-05,1.4849242805825813e-07,-1.317560563709132e-06,1.6303827180860783e-06,6.953803542847305e-11
1731474136.7085814,-0.36415764689445496,0.45885133743286133,-10.01577377319336,-0.00017465451052306336,0.0002258172448363143,6.742949122336424e-07,-1.4670964618215219e-06,1.8210217288959746e-06,3.855401339802295e-10
1731474136.7586725,-0.3174515664577484,0.43460458517074585,-9.97563648223877,-0.00035874504123656846,0.0004659419454162257,2.0400870626196987e-06,-1.7849417307457598e-06,2.2299201152570112e-06,1.5557145223908449e-09
1731474136.808501,-0.37348827719688416,0.42250683903694153,-9.971975326538086,-0.0006576821776416893,0.0008560030776022094,4.716540512160487e-06,-2.4173855942787683e-06,3.048004660138359e-06,4.822124680755064e-09
1731474136.858473,-0.3333224654197693,0.4560640752315521,-10.020543098449707,-0.0011076796350388129,0.0014424475012434603,9.147398201885728e-06,-3.6067332015837003e-06,4.591133144804474e-06,1.2453516787214094e-08
1731474136.9084017,-0.3716474175453186,0.4254069924354553,-9.993083000183105,-0.0017473119213707669,0.002274324363642098,1.569556107477372e-05,-5.724935180699292e-06,7.34342617344176e-06,2.8136385254916797e-08
1731474136.9583972,-0.30855798721313477,0.4505065679550171,-9.975634574890137,-0.0026165929336133013,0.0034021687876089383,2.455136215520327e-05,-9.114626400620889e-06,1.1749757281721137e-05,5.565970081057848e-08
1731474137.0092394,-0.33945232629776,0.44332513213157654,-10.006049156188965,-0.0037560396588284745,0.004877003062558819,3.5767074609427196e-05,-1.4618547255793512e-05,1.8902893119807876e-05,1.0306499610018851e-07
1731474137.0592687,-0.30693483352661133,0.45724576711654663,-9.974886894226074,-0.005205740630147535,0.006749491237064222,4.933004604036375e-05,-2.296843716055709e-05,2.974819854751764e-05,1.7750543374255036e-07
1731474137.1091747,-0.3404017686843872,0.42924872040748596,-9.97957992553711,-0.007004487435478271,0.009069284776368126,6.514868519022543e-05,-3.492717305051721e-05,4.526837992447546e-05,2.858594632121624e-07
1731474137.159192,-0.33027854561805725,0.4503231644630432,-9.993732452392578,-0.009189062315619216,0.011884443564219874,8.302831536774951e-05,-5.2081453163531214e-05,6.751189002601854e-05,4.4173800351608933e-07
1731474137.2090607,-0.3312438130378723,0.4298307001590729,-9.984983444213867,-0.011793762904991886,0.015240830545070704,0.00010265042217623462,-7.564247487364426e-05,9.803721256552198e-05,6.542877513814907e-07
1731474137.2591295,-0.32849225401878357,0.44427555799484253,-9.991825103759766,-0.014850084207589648,0.01918151790623517,0.00012354069936793943,-0.0001078272817080886,0.00013970484460911202,9.40168638761098e-07
1731474137.308942,-0.3466336131095886,0.43178790807724,-9.988767623901367,-0.01838645884900677,0.02374627046681602,0.00014506760090735388,-0.00014987771972384614,0.00019411347879050588,1.3054554801835856e-06
1731474137.3589773,-0.3226473927497864,0.4400995373725891,-9.986501693725586,-0.0224280682209868,0.028971120204434285,0.000166468004693366,-0.0002050752538963026,0.0002655042462783254,1.7715013339492406e-06
1731474137.4088914,-0.3401765823364258,0.42628738284111023,-10.006254196166992,-0.026996694855540324,0.03488801789818771,0.00018686631511040402,-0.00027549882862825764,0.0003565675185023431,2.346154812581172e-06
1731474137.4588525,-0.32638588547706604,0.4399968981742859,-9.992179870605469,-0.03211058381738876,0.041524550398839746,0.0002052611240643735,-0.00036438164204352457,0.000471494494394446,3.043322531735118e-06
1731474137.50879,-0.3352645933628082,0.4304140508174896,-9.980989456176758,-0.03778434850614409,0.04890373649545604,0.00022052236201237376,-0.00047471441426023836,0.0006141730529322049,3.870732297802288e-06
1731474137.5588923,-0.33292460441589355,0.43939563632011414,-9.997173309326172,-0.04402893211653254,0.05704390552857799,0.0002314586990728107,-0.000611801191120923,0.0007914960699101401,4.847935741436518e-06
1731474137.6086698,-0.3363683819770813,0.4308415949344635,-9.980420112609863,-0.05085164314669333,0.06595861035792772,0.0002368986639475526,-0.0007790781746963718,0.0010079569892369586,5.974529446891033e-06
1731474137.6586838,-0.3302421271800995,0.4421899914741516,-9.979595184326172,-0.05825630143175474,0.07565651720695335,0.00023575143235141224,-0.0009778527394539238,0.001265308617591802,7.232075728200472e-06
1731474137.7086177,-0.3302421271800995,0.4421899914741516,-9.979595184326172,-0.06624342902464037,0.086141320306933,0.00022708670658763233,-0.0012149068480927544,0.0015724079202377238,8.631823412317133e-06
1731474137.758543,-0.3301190137863159,0.4375700056552887,-9.977168083190918,-0.07481037163339467,0.09741177978595536,0.00021019838441482263,-0.0014984160215900958,0.0019399455035187998,1.0182182063425593e-05
1731474137.8085432,-0.34019094705581665,0.43010377883911133,-9.982741355895996,-0.08395136662774817,0.10946184971756905,0.00018461091675626138,-0.0018300283573737133,0.0023701726958166663,1.184810384593397e-05
1731474137.8584952,-0.33192288875579834,0.43809831142425537,-9.991263389587402,-0.09365764003994792,0.12228081698356123,0.00015004174215293837,-0.0022192437969293898,0.0028755459970398333,1.3628466967306988e-05
1731474137.9083514,-0.34595686197280884,0.4304082989692688,-9.981121063232422,-0.10391753655055652,0.13585347025688455,0.00010633838707106344,-0.0026786453718400894,0.0034725665729703494,1.5520939390492664e-05
1731474137.9583144,-0.3420066237449646,0.443705290555954,-9.989968299865723,-0.11471666524146786,0.15016032746150643,5.3431282019732346e-05,-0.0031829047887863295,0.004128451572353683,1.737455574939422e-05
1731474138.0092392,-0.34163692593574524,0.42966023087501526,-9.989768028259277,-0.1260380591667199,0.16517790072351066,-8.68439585192125e-06,-0.003786494534029346,0.004914229519483917,1.9326827453996422e-05
1731474138.0592258,-0.33824580907821655,0.44014066457748413,-9.97556209564209,-0.13786232127677564,0.18087896771297346,-7.995762245603187e-05,-0.004463215517356708,0.005796000356051237,2.1218832080459482e-05
1731474138.1091983,-0.341629296541214,0.4363786280155182,-9.98953914642334,-0.15016775174689834,0.1972328425368802,-0.00016026734420902003,-0.005230989929297364,0.0067972936599476974,2.3037885716955027e-05
1731474138.1591976,-0.3402191698551178,0.43175989389419556,-9.978646278381348,-0.1629304936238211,0.21420565781848766,-0.00024940081252480817,-0.006094695423966723,0.00792466707580178,2.472465665281132e-05
1731474138.209059,-0.3476492762565613,0.432100772857666,-9.985774040222168,-0.17612471990278974,0.23176064416423187,-0.0003470613681463426,-0.007061795811770681,0.00918805789589665,2.622215583935741e-05
1731474138.2590916,-0.33999305963516235,0.4344528317451477,-9.983550071716309,-0.18972284596428032,0.24985840310769825,-0.0004528902979145903,-0.00815033721478524,0.010611252524773135,2.7478903699544915e-05
1731474138.3088815,-0.34422069787979126,0.4327370822429657,-9.9750337600708,-0.2036957275012371,0.2684571985786659,-0.0005664768640725962,-0.00934833684904686,0.012178777442637706,2.8406212376184935e-05
1731474138.3589008,-0.3437175154685974,0.44072937965393066,-9.988846778869629,-0.21801283322226359,0.2875132692593682,-0.000687352246389415,-0.010686034698756076,0.013930392741900624,2.8950026328704542e-05
1731474138.4087975,-0.34332624077796936,0.4315757751464844,-9.98684024810791,-0.2326424185151265,0.3069811455753829,-0.0008149983782488237,-0.012172375571910421,0.01587802760379699,2.9023999279893305e-05
1731474138.458818,-0.33988749980926514,0.436118483543396,-9.992659568786621,-0.2475517028712417,0.3268139502159729,-0.0009488957825829534,-0.013796503034681667,0.0180076354998275,2.854794155802922e-05
1731474138.5087607,-0.3460216820240021,0.428290456533432,-9.99396800994873,-0.26270704003588446,0.346963669231831,-0.0010885777812298884,-0.015580879682267025,0.020348831258627777,2.743809551164209e-05
1731474138.5588555,-0.32766076922416687,0.4385663866996765,-9.993430137634277,-0.278074081101916,0.36738141206137,-0.001233663568855377,-0.017545262781554005,0.02292771458574418,2.5593217548475213e-05
1731474138.6086557,-0.3306537866592407,0.4353063106536865,-9.987985610961914,-0.2936179103286859,0.3880176875098997,-0.0013838639307378075,-0.01970507165398969,0.02576470529174414,2.2903250432017318e-05
1731474138.6586676,-0.3333236277103424,0.4373985528945923,-9.995209693908691,-0.30930316116418377,0.4088226925520878,-0.0015389596931265938,-0.022005124087843945,0.02878741814214429,1.9368194055430038e-05
1731474138.7086084,-0.3319365978240967,0.4339129328727722,-9.97912311553955,-0.32509416219844073,0.42974658494208184,-0.001698769662509009,-0.02452522597254097,0.032100822840629054,1.479281176678397e-05
1731474138.758562,-0.333381712436676,0.4398839473724365,-9.9823637008667,-0.34095510263225676,0.4507397331043811,-0.0018631043023570513,-0.02723678390277704,0.03566742675298576,9.14275345798308e-06
1731474138.8085184,-0.3302189111709595,0.438150554895401,-9.991358757019043,-0.35685018157037535,0.47175296151643353,-0.002031715802075818,-0.030182601462886514,0.03954360588289317,2.2450021207287145e-06
1731474138.8586066,-0.3308621346950531,0.44120118021965027,-9.983616828918457,-0.37274375711693186,0.49273779027455217,-0.002204294794444423,-0.033370390646147885,0.0437395825041695,-6.013487228773638e-06
1731474139.2399957,-0.3376094102859497,0.43933042883872986,-9.987139701843262,-0.38860051495489034,0.5136466530354848,-0.002380499233544624,-0.06555691515322758,0.08614964745063086,-0.00011734424620132047
1731474139.2900891,-0.3423849642276764,0.43753117322921753,-9.985186576843262,-0.4043856626588265,0.5344330867460396,-0.0025599632553232558,-0.0708335663222723,0.09310669379377892,-0.0001384319777176475
1731474139.3398674,-0.34360605478286743,0.4366273581981659,-9.992426872253418,-0.4200651417372764,0.5550518929173962,-0.002742299477659049,-0.07633443010576528,0.10036012484240842,-0.00016103841379581658
1731474139.389985,-0.3389294445514679,0.4368346929550171,-9.979833602905273,-0.4356058166977767,0.5754592791201328,-0.002927112544776563,-0.08213905941202995,0.10801479554189747,-0.00018556587928953314
1731474139.4397805,-0.3331068754196167,0.42958614230155945,-9.990646362304688,-0.4509756026147891,0.5956129885317294,-0.003114000663248424,-0.08836137338762058,0.1162208967856057,-0.00021260236467972811
1731474139.4898527,-0.335146963596344,0.4248596131801605,-9.98840618133545,-0.4661435384097287,0.6154724042715791,-0.0033025507795436935,-0.09456638156400667,0.12440465470618021,-0.0002403034018301315
1731474139.539713,-0.3328384459018707,0.4296468496322632,-9.984148025512695,-0.4810798501426528,0.6349986281766303,-0.0034923492762842395,-0.10118796226931863,0.13313818990092738,-0.0002706505645959152
1731474139.5897124,-0.3308675289154053,0.4361976087093353,-9.986226081848145,-0.49575602769611654,0.6541545799009967,-0.0036829792698395113,-0.10815914608209826,0.14233307001955423,-0.0003034433822465079
1731474139.639718,-0.3300713300704956,0.44613346457481384,-9.986385345458984,-0.5101448980542609,0.6729051550950648,-0.0038739837299795075,-0.11544645494648582,0.15194500574851172,-0.00033860922016616305
1731474139.6895943,-0.3355879783630371,0.4400116503238678,-9.9830961227417,-0.5242206924704801,0.6912174097678357,-0.004064827352460989,-0.12303517759487952,0.16195444224079747,-0.00037614973425307115
1731474139.7396622,-0.3371192514896393,0.4425605237483978,-9.980547904968262,-0.537959130624267,0.7090606951445029,-0.004254877120788977,-0.13098365561737374,0.17243816459184355,-0.00041643067039020686
1731474139.789675,-0.33719924092292786,0.4419511556625366,-9.980554580688477,-0.5513375187985353,0.726406718223548,-0.004443391688836158,-0.13923990561303243,0.18332742933538418,-0.0004592629817332078
1731474139.8395355,-0.3354564905166626,0.445912629365921,-9.973817825317383,-0.564334828717682,0.7432295710103071,-0.004629513522442191,-0.14785305696863657,0.19468684237121636,-0.0005049715622418846
1731474139.8896139,-0.3405797779560089,0.44538143277168274,-9.989174842834473,-0.576931745127103,0.7595057611190685,-0.004812273128768446,-0.15681498044893546,0.20650547795355265,-0.0005535862750087647
1731474139.9394777,-0.33414551615715027,0.4462050497531891,-9.99086856842041,-0.5891106980750003,0.7752142361463839,-0.004990635239525089,-0.1661433920142668,0.21880648493079677,-0.0006052731934080713
1731474139.9894018,-0.3440423011779785,0.44702938199043274,-9.984944343566895,-0.6008558876825968,0.790336389430602,-0.005163580681133475,-0.17582044976286962,0.231566115791118,-0.0006599983708774325
1731474140.0392613,-0.32870543003082275,0.43953606486320496,-9.982325553894043,-0.6121532958924254,0.80485604234109,-0.005330151601868342,-0.18586468666609943,0.24480858250051654,-0.0007179264107363751
1731474140.089296,-0.34796392917633057,0.4402678906917572,-9.993621826171875,-0.6229906824992325,0.8187593962227468,-0.005489443816112586,-0.19638211999546556,0.25867340636822644,-0.000779743495480697
1731474140.1402464,-0.33399584889411926,0.432169646024704,-9.98773193359375,-0.6333575835316377,0.8320349540391525,-0.005640611668961988,-0.2074332607430817,0.2732400627332104,-0.0008459001156187381
1731474140.1902158,-0.339699923992157,0.42898687720298767,-9.98838996887207,-0.6432453183740601,0.8446734179617233,-0.005782892172050715,-0.21871491857869793,0.2881086751589461,-0.0009146294134930331
1731474140.2401154,-0.34191736578941345,0.42445263266563416,-9.988052368164062,-0.6526469818543147,0.8566675740668268,-0.005915605317007121,-0.23038779165711432,0.3034908339326756,-0.0009869304626535945
1731474140.2900033,-0.32970547676086426,0.4250764548778534,-9.985917091369629,-0.6615574136070111,0.8680121918513861,-0.006038137417078137,-0.24241830145374044,0.3193420610029599,-0.0010626297936353415
1731474140.3400288,-0.32910072803497314,0.4251329004764557,-9.99003791809082,-0.6699731331684784,0.8787039586222263,-0.006149932614428788,-0.2549540059700516,0.3358565181898275,-0.0011427004384637768
1731474140.3900661,-0.3384392559528351,0.42610400915145874,-9.983735084533691,-0.6778922488569734,0.8887414416387762,-0.006250492535972012,-0.26787546036276505,0.35287658760067714,-0.0012264208263538996
1731474140.439955,-0.3377346694469452,0.435489296913147,-9.978569030761719,-0.6853144037127976,0.8981250685336608,-0.006339365686234494,-0.2812367265421571,0.3704732399078297,-0.0013141662720522723
1731474140.4899478,-0.33423569798469543,0.4322376847267151,-9.991771697998047,-0.6922407621065619,0.9068571236894496,-0.006416123574600498,-0.29495998015287855,0.3885437543829488,-0.0014054411870062563
1731474140.5398195,-0.3368098735809326,0.4413033127784729,-9.979137420654297,-0.6986739738024822,0.9149417444591108,-0.0064803576922142885,-0.3091395464265445,0.4072121088365786,-0.0015008838021853578
1731474140.5896668,-0.32903242111206055,0.43979355692863464,-9.979314804077148,-0.7046181012868313,0.9223849000742826,-0.0065316895214122175,-0.3236885959394771,0.426363761788569,-0.0015999150805091407
1731474140.6397073,-0.33598414063453674,0.4474576413631439,-9.982017517089844,-0.7100785353272651,0.929194356041812,-0.006569755137779575,-0.338818468653241,0.4462766494721174,-0.0017039852625115185
1731474140.6897366,-0.341476172208786,0.44930747151374817,-9.990230560302734,-0.7150619328698042,0.935379645765415,-0.0065941968660287766,-0.35436463016342257,0.4667339525311287,-0.0018119714716346622
1731474140.7397206,-0.3397352695465088,0.44789478182792664,-9.97748851776123,-0.7195762080288044,0.9409520733093599,-0.006604687213339751,-0.3704078259390086,0.48784168657127075,-0.0019244263223964213
1731474140.7895658,-0.3330007493495941,0.44037196040153503,-9.997563362121582,-0.7236305300426059,0.945924702182525,-0.006600949180397013,-0.38676728005986577,0.5093618101069594,-0.002040058333963555
1731474140.8395772,-0.03880907967686653,0.5903394818305969,-9.978856086730957,-0.7272349869051622,0.9503123839823646,-0.006582769942442709,-0.4037137735477656,0.5316502997757637,-0.0021607572087196042
1731474140.8895676,-0.0758434385061264,0.5316457748413086,-10.008713722229004,-0.7303994794819502,0.9541320432019961,-0.006550029553248412,-0.42096211520341914,0.5543318542286123,-0.002284459933799749
1731474140.9393978,0.48951706290245056,0.8079436421394348,-9.981762886047363,-0.7331318542659033,0.9574032518454512,-0.0065027402404510696,-0.43870783784712963,0.5776634295829678,-0.0024125227609255173
1731474140.9892786,0.7771492004394531,0.6103816628456116,-10.015816688537598,-0.7354351780582051,0.9601488951982041,-0.00644108090767978,-0.4568852894510162,0.6015585143808957,-0.0025444282969426615
1731474141.0394018,0.1431780755519867,0.499295175075531,-10.044015884399414,-0.7373049986115481,0.9623952629464896,-0.006365471923184823,-0.47574212431999496,0.6263424418364738,-0.002681931867589533
1731474141.0892773,0.413790225982666,0.48516714572906494,-9.909783363342285,-0.7387292494627392,0.9641709368617328,-0.0062766369634327,-0.4948192110979863,0.6514116771163265,-0.0028216262688934863
1731474141.1401522,0.038903508335351944,0.3011943995952606,-9.996171951293945,-0.7396910291363843,0.9655050692255004,-0.006175402677287178,-0.5147942851762336,0.6776567672322215,-0.0029684155501759346
1731474141.1902132,0.22217567265033722,0.33590275049209595,-10.001534461975098,-0.7401715382061036,0.9664258981936783,-0.006062405350607788,-0.534951621952774,0.7041373941438466,-0.0031169753889354604
1731474141.2402446,0.017560504376888275,0.20069876313209534,-9.97430419921875,-0.7401516892534596,0.9669594089948292,-0.005938138243737165,-0.555611866157135,0.731275128863034,-0.0032695848959442947
1731474141.2901216,-0.7728275656700134,-0.02461777999997139,-9.977519989013672,-0.7396129455586802,0.9671275094870881,-0.0058031566697221305,-0.5765403967843425,0.7587622742123512,-0.0034244282411875476
1731474141.3400016,-0.7728275656700134,-0.02461777999997139,-9.977519989013672,-0.7385394593189908,0.9669456731425856,-0.005658117560067661,-0.5980197165346621,0.7869705429386696,-0.0035835099849643864
1731474141.3900766,-0.23980385065078735,0.27316224575042725,-9.937684059143066,-0.7369212464082,0.966421637166057,-0.00550370979305235,-0.6199732377116784,0.815800220407762,-0.003746176891752533
1731474141.4400213,-0.7082184553146362,0.12128511071205139,-10.163931846618652,-0.7347549675695169,0.9655564664921981,-0.005340710195435114,-0.6424584091783518,0.845327866226001,-0.003912764177476828
1731474141.4898539,-0.29287877678871155,0.4290388226509094,-9.929959297180176,-0.73204246038105,0.9643468963012388,-0.0051703591910905455,-0.6652545831131699,0.875265070583687,-0.0040815449206461135
1731474141.5398967,-0.5628702044487,0.09986446797847748,-10.001678466796875,-0.7287896499744233,0.9627873073630082,-0.004994582348450837,-0.688599614475678,0.9059257788485066,-0.004254186067195861
1731474141.5897396,-0.3513105511665344,0.46714502573013306,-10.08678913116455,-0.7250059657648285,0.9608709051129608,-0.004815719177710792,-0.7122135334170755,0.9369440489976816,-0.0044285250026188955
1731474141.6397777,-0.5107159614562988,0.16161222755908966,-9.946783065795898,-0.7207038269452555,0.9585904562747325,-0.004636365546347689,-0.7365162293873351,0.9688734623627757,-0.004607567030498475
1731474141.6896517,-0.4068586826324463,0.43703973293304443,-9.962201118469238,-0.7158983395234305,0.9559389110502623,-0.004459323261710292,-0.7611074397944649,1.0011903566279556,-0.004788271801099317
1731474141.7396317,-0.49801453948020935,0.2526971399784088,-10.004266738891602,-0.7106071190663015,0.9529099168143421,-0.004287244853489936,-0.7863266941740619,1.0343433265969155,-0.004973047261869134
1731474141.789641,-0.37864023447036743,0.4197238087654114,-9.953781127929688,-0.7048504555709119,0.9494984543992113,-0.004122404251415601,-0.8118212174651881,1.0678711390102278,-0.005159228655041425
1731474141.8394883,-0.42949461936950684,0.29616859555244446,-9.941106796264648,-0.698652318486227,0.9457019671991457,-0.00396676199968983,-0.8377621418875091,1.102001380967421,-0.005347998724098827
1731474141.8893626,-0.41107162833213806,0.3372349739074707,-10.000696182250977,-0.6920417481408879,0.9415215573835107,-0.0038219973007844847,-0.8640614486595818,1.1366209379540413,-0.005538655231059588
1731474141.9393225,-0.41107162833213806,0.3372349739074707,-10.000696182250977,-0.6850533557969989,0.9369624057988899,-0.0036896019320988927,-0.890893033090248,1.1719616042756498,-0.005732401963679629
1731474141.9893405,-0.4000968039035797,0.667378306388855,-9.877378463745117,-0.6777267031987734,0.9320337987091296,-0.0035710231895511335,-0.9182464583133171,1.2080127928012778,-0.005929108837532704
1731474142.0393183,-0.4872780740261078,1.1421082019805908,-9.997286796569824,-0.6701053938619127,0.926750329376683,-0.003467514021841269,-0.9460475318201593,1.2446798498792437,-0.006128201069204766
1731474142.0892508,-0.4453103244304657,0.9864438772201538,-9.849359512329102,-0.6622364132766718,0.9211345832029544,-0.003379826737252341,-0.9740498905169626,1.2816405422047867,-0.006327897793603843
1731474142.139246,-0.5104879140853882,0.7967690229415894,-10.028023719787598,-0.6541696425295037,0.9152189437694953,-0.00330810383030724,-1.0026396425715078,1.3194074192529248,-0.006530939919299334
1731474142.1901712,-0.3782177269458771,0.7711344957351685,-9.996058464050293,-0.6459572385452137,0.909044434926128,-0.0032520963943990476,-1.0321432722827648,1.3584158848506573,-0.006739612613664731
1731474142.2401364,-0.4499201774597168,0.7072227597236633,-10.010408401489258,-0.63765272754501,0.902657849318961,-0.003211655324585539,-1.0615221948068025,1.3972956218277404,-0.006946577729373593
1731474142.2900872,-0.3696022629737854,0.713841438293457,-10.044113159179688,-0.6293099903729675,0.8961093390482617,-0.0031871282464700137,-1.091247217858308,1.4366714778223106,-0.007155192617270719
1731474142.3400176,-0.3696022629737854,0.713841438293457,-10.044113159179688,-0.6209823702497864,0.8894511679619046,-0.0031794341177987812,-1.1213806239735784,1.4766286680409382,-0.007365922098726671
1731474142.3899982,-0.30900314450263977,0.6061761379241943,-10.027217864990234,-0.6127218368243974,0.8827376606801445,-0.0031898205695841436,-1.1518492056371428,1.5170727421746164,-0.0075782922850451415
1731474142.4399173,-0.36433690786361694,0.5541598200798035,-9.993165969848633,-0.6045782022458775,0.8760254784331556,-0.0032193440353545447,-1.1828853746876324,1.558315111400552,-0.007793967002121136
1731474142.4898849,-0.3449501693248749,0.5600143671035767,-10.049895286560059,-0.5965986425440081,0.869372974348311,-0.0032684174459609865,-1.2140476633422261,1.599771503094321,-0.008009939403058967
1731474142.5398262,-0.3187732696533203,0.5636372566223145,-10.002037048339844,-0.5888275226790894,0.8628389112592045,-0.003336725993449762,-1.24562117543001,1.6418231618699917,-0.008228261644828516
1731474142.5898345,-0.30297085642814636,0.5662887096405029,-10.012564659118652,-0.5813062057534599,0.856481474831334,-0.003423334681578457,-1.2775761863325221,1.6844329617777973,-0.008448807819089778
1731474142.6396751,-0.3056734502315521,0.5174658894538879,-10.006267547607422,-0.5740727527486393,0.8503576028811548,-0.0035267291389546917,-1.309984800858942,1.727699555037577,-0.008672164709355218
1731474142.689624,-0.32618317008018494,0.5069574117660522,-9.982719421386719,-0.567161728354593,0.8445222830038639,-0.0036448023928572345,-1.3425879069314368,1.7712790072406053,-0.008896646391853611
1731474142.7396877,-0.273434042930603,0.514680802822113,-9.964303016662598,-0.5606041829470001,0.8390278151009458,-0.0037748196299177616,-1.3758424893764056,1.8157845864700237,-0.009125505440736415
1731474142.7895157,-0.2996521592140198,0.5227103233337402,-9.985552787780762,-0.5544276362257706,0.8339232692762168,-0.003913350410164952,-1.409042966402295,1.860273733823003,-0.009353996284502878
1731474142.8395174,-0.3358599841594696,0.5379204750061035,-9.958097457885742,-0.5486560631102726,0.829254228077535,-0.0040562708112231935,-1.443066980912977,1.905924661932865,-0.009588274200889105
1731474142.8894358,-0.336078017950058,0.4931144118309021,-9.98670482635498,-0.5433100568343161,0.8250624524014043,-0.004198919693149114,-1.4768594336586942,1.951323350788185,-0.009821184701079937
1731474142.939421,-0.33337661623954773,0.5128029584884644,-10.005820274353027,-0.5384070397445718,0.8213849166247055,-0.004336472841919818,-1.511458743046048,1.9978664565485147,-0.010059994483231046
1731474142.989331,-0.3498041331768036,0.4721747934818268,-9.94282341003418,-0.5339613234037561,0.8182525024691909,-0.004464423413311446,-1.5460239941609457,2.0444248304446693,-0.010299002637811144
1731474143.0392566,-0.32534632086753845,0.5132566094398499,-9.986802101135254,-0.5299841385593265,0.8156893304657504,-0.004578792935753551,-1.5812287103231142,2.0919072968439476,-0.01054295956333358
1731474143.0892653,-0.3674081265926361,0.5218324065208435,-10.014200210571289,-0.5264837481503443,0.8137129645629189,-0.004676094885828599,-1.6165883857854064,2.1396624584388544,-0.010788592602699865
1731474143.1392438,-0.40713658928871155,0.5078936219215393,-9.99518871307373,-0.5234656803419908,0.8123349895479042,-0.004753420282605764,-1.6524785819177668,2.1881993124078414,-0.011038580416383472
1731474143.1901145,-0.3748840391635895,0.5032426118850708,-9.95654582977295,-0.5209331050797874,0.8115615498636559,-0.004808542166853426,-1.6890960232839274,2.2377872353322155,-0.01129436458417056
1731474143.2401328,-0.41319382190704346,0.513997495174408,-10.000679969787598,-0.518887167857885,0.8113937429950103,-0.004839787756797251,-1.7255984485817384,2.2872871474641445,-0.011550097410151327
1731474143.2901106,-0.4174082279205322,0.5009680390357971,-9.988465309143066,-0.5173271761386795,0.81182797911116,-0.004845883905661381,-1.7623334873427368,2.337170593722127,-0.01180821755792889
1731474143.3401623,-0.4119400978088379,0.5024043917655945,-9.968817710876465,-0.5162507616257467,0.8128563602720458,-0.004825947017922073,-1.7995483591678973,2.3877750408517557,-0.01207046554617291
1731474143.3899338,-0.3861069083213806,0.4877097010612488,-9.973749160766602,-0.5156539847443704,0.8144670235304203,-0.004779442112170023,-1.8366897369161062,2.4383489420752613,-0.01233291819701094
1731474143.4400024,-0.3813762664794922,0.4656544327735901,-10.00214672088623,-0.5155313128998399,0.8166443958151621,-0.0047060718825682685,-1.8747225546401292,2.4902081948541723,-0.01260236257183326
1731474143.489819,-0.3586125075817108,0.4547431170940399,-9.964475631713867,-0.5158756242870743,0.8193693093653577,-0.004605718749823149,-1.9124042330516409,2.541659628841449,-0.012869939204234343
1731474143.5397732,-0.3363964855670929,0.4302753210067749,-9.970362663269043,-0.5166782767991449,0.8226190404740763,-0.004478376065932793,-1.9509025450015975,2.594298626545207,-0.013143861742053531
1731474143.5897393,-0.3230259418487549,0.4246014356613159,-10.018203735351562,-0.5179290722424744,0.8263674278570627,-0.004324061022023002,-1.989377599959491,2.646978524036824,-0.013418066053017553
1731474143.6397502,-0.3195480704307556,0.4174511432647705,-9.99730110168457,-0.5196161200395022,0.8305851234844754,-0.004142889927588288,-2.0286200714867317,2.700783419546643,-0.013698076201542914
1731474143.6896462,-0.29733991622924805,0.400546669960022,-9.969202995300293,-0.5217257542466791,0.8352399276720543,-0.00393522490747298,-2.0678092552697125,2.754589380820997,-0.013977908165032771
1731474143.7396011,-0.2849956750869751,0.3818894624710083,-10.001726150512695,-0.5242425137359679,0.840297131295661,-0.0037016435021879597,-2.1075120940319336,2.8091753168683877,-0.014261460180152188
1731474143.789569,-0.2620607912540436,0.3989132344722748,-10.011852264404297,-0.5271491187867816,0.8457198358427416,-0.0034428598840560844,-2.147457118143365,2.8641692241384042,-0.014546628307749124
1731474143.8395295,-0.3114404082298279,0.37750130891799927,-9.98075008392334,-0.5304264994222817,0.8514693156961498,-0.0031597779347058777,-2.1877175641040947,2.9196724784480605,-0.014833753272836255
1731474143.8895874,-0.29066282510757446,0.38888999819755554,-10.001361846923828,-0.5340540053557283,0.8575054342363881,-0.002853522760556185,-2.228431815913326,2.975876863062975,-0.01512362096067732
1731474143.939539,-0.31284046173095703,0.36997202038764954,-10.00731372833252,-0.538009757422798,0.8637870434487351,-0.002525388828928889,-2.2694152289229823,3.032528215530203,-0.015414700954641715
1731474143.9893997,-0.27976566553115845,0.3753986358642578,-10.026233673095703,-0.5422708543512502,0.8702722583637075,-0.0021768412762378773,-2.3106563345875366,3.0896107252158256,-0.01570668673032648
1731474144.0392823,-0.2954639196395874,0.3394887149333954,-9.958551406860352,-0.5468131853475072,0.8769184474221626,-0.0018094880402397722,-2.3522394080927644,3.147241128064712,-0.015999935335616604
1731474144.089266,-0.5322554707527161,-0.19363191723823547,-10.011695861816406,-0.5516112805893045,0.8836815502155784,-0.0014248715337534486,-2.39417154335575,3.2054294284103904,-0.016294241921990412
1731474144.139285,-0.4975226819515228,-0.47324222326278687,-10.109478950500488,-0.5566390482085626,0.8905139803424017,-0.0010243762164208175,-2.4366861524603696,3.2645001526483837,-0.01659096431078783
1731474144.1902807,-0.6517626047134399,-0.1517183631658554,-10.05496883392334,-0.561871204500317,0.8973618027890189,-0.0006095917969976072,-2.480196088706946,3.325029018399171,-0.01689264658157119
1731474144.2401178,-0.7958483099937439,-0.4603233337402344,-10.047149658203125,-0.5672846255232435,0.9041636649844944,-0.00018273155516034174,-2.523246445136825,3.384991221951883,-0.017188926771211793
1731474144.2899477,-0.3774668574333191,0.1904527246952057,-9.920002937316895,-0.5728591783663055,0.9108523185560948,0.0002535127916708722,-2.566380335062571,3.44513994481519,-0.017483334672192537
1731474144.3399312,-0.7103548049926758,-0.2533815801143646,-10.023809432983398,-0.5785774336481744,0.9173574787265231,0.0006965783494113977,-2.6103317845800196,3.5064984091158657,-0.017780563909766636
1731474144.389945,-0.5084047317504883,0.20593859255313873,-9.930323600769043,-0.5844237174143785,0.9236086560567065,0.0011445057211658496,-2.6544160284532357,3.5681101371471047,-0.018075660659920913
1731474144.4399543,-0.6116470098495483,0.06604569405317307,-9.929553985595703,-0.590383664087474,0.9295372949385016,0.0015961031547945814,-2.698984668252885,3.6304649064619943,-0.018370683713583746
1731474144.489831,-0.5259138345718384,0.24936124682426453,-9.96333122253418,-0.5964440664283978,0.9350785431003374,0.002051053670856883,-2.743666684968892,3.69304167643413,-0.018662886775879715
1731474144.5398407,-0.5633005499839783,0.1612505167722702,-9.892698287963867,-0.6025928247260354,0.940172508996177,0.002509846885874612,-2.7889833738792733,3.7565684990323227,-0.01895536740818774
1731474144.5897121,-0.5227437615394592,0.1753193736076355,-9.91405963897705,-0.6088196302922518,0.9447642493597955,0.0029733014914338773,-2.8345132484871214,3.820452333347827,-0.01924508139826651
1731474144.6397834,-0.530639111995697,0.1455938071012497,-9.948212623596191,-0.6151170602928923,0.948802840908992,0.0034419288417994257,-2.880601031481155,3.8851740833863477,-0.019533903999826657
1731474144.6897333,-0.4877649247646332,0.19532594084739685,-9.93302059173584,-0.6214809465957918,0.9522407460808806,0.003915482872319177,-2.9269602130458074,3.950328298621256,-0.019819712482211784
1731474144.7396362,-0.4850020408630371,0.15887004137039185,-9.961091995239258,-0.6279098317647025,0.9550339427268895,0.00439278008312064,-2.9737231253649776,4.016097128251433,-0.02010301666449563
1731474144.7895703,-0.042006008327007294,0.42955347895622253,-9.968608856201172,-0.6344037987381606,0.9571425478376042,0.00487167914356471,-3.0207230451331597,4.082241760799389,-0.02038250800638939
1731474144.8395107,0.20982344448566437,0.5299987196922302,-9.996824264526367,-0.6409621249678175,0.9585320621649052,0.005349064327745031,-3.06837125688259,4.14933648293787,-0.02066029303737167
1731474144.8894217,-0.2961362600326538,0.27400559186935425,-10.028383255004883,-0.6475803942794098,0.959174876812304,0.005820767383543783,-3.116280508997619,4.216830985787445,-0.020933775590446776
1731474144.9395008,-0.07620701938867569,0.45252323150634766,-9.962984085083008,-0.6542496483333776,0.9590507129460818,0.006281515032318842,-3.164776263879785,4.285178109993447,-0.02120449062405589
1731474144.989377,-0.3626199960708618,0.24273060262203217,-10.05359172821045,-0.6609579490071518,0.9581458841558341,0.0067250354057712776,-3.2134768918221206,4.353833804611206,-0.021470007901580584
1731474145.0394049,-0.1496284306049347,0.48473837971687317,-10.041500091552734,-0.6676920997829028,0.9564525285535286,0.007144188058734727,-3.262891456194818,4.423508995699453,-0.021732790859859952
1731474145.0892012,-0.3409866988658905,0.2217046469449997,-10.007319450378418,-0.674438299467025,0.9539682747148002,0.007531085711960492,-3.312082344215752,4.4928743811235705,-0.021987650939620244
1731474145.1393504,-0.3409866988658905,0.2217046469449997,-10.007319450378418,-0.681181869477941,0.9506959189972086,0.007877649394645598,-3.362520669451937,4.563996598063253,-0.022241919273290615
1731474145.1891997,-0.3174585700035095,0.26658883690834045,-9.997493743896484,-0.687906773242591,0.9466427452339115,0.008176527093570269,-3.4127000401676963,4.634743386710487,-0.02248775209272165
1731474145.2401588,-0.2567730247974396,0.41878947615623474,-9.975645065307617,-0.6945954889301287,0.9418200579237108,0.008421696972313467,-3.4645912397104657,4.707884146421499,-0.022734484189139845
1731474145.290124,-0.31867489218711853,0.322895348072052,-10.004502296447754,-0.701229054793101,0.936243475154074,0.00860860605011258,-3.515870796595115,4.7801347383258745,-0.022970864833510136
1731474145.3400424,-0.2900391221046448,0.4151308536529541,-9.99188232421875,-0.7077872391328441,0.92993332580798,0.00873409501465192,-3.567691728236492,4.853110922509227,-0.02320229804439209
1731474145.390102,-0.331870973110199,0.35072141885757446,-9.961592674255371,-0.7142489569216738,0.9229145520918881,0.008796263867779212,-3.6200633167869385,4.926815622500357,-0.023428703940812846
1731474145.4399805,-0.31109046936035156,0.4003080129623413,-9.982954025268555,-0.7205927634756264,0.9152163249162897,0.008794413922479725,-3.672593920005165,5.000687736054054,-0.023648392064354172
1731474145.4899025,-0.3297779858112335,0.40445318818092346,-9.977746963500977,-0.7267972670079674,0.9068716365956272,0.008729022341178777,-3.7256941219925594,5.075294415740976,-0.02386311998810011
1731474145.5398126,-0.3312694728374481,0.4171616733074188,-9.975252151489258,-0.7328414533100633,0.8979169638977594,0.008601622271641164,-3.7792132523603073,5.150413070043305,-0.024072305711150533
1731474145.589731,-0.3365127444267273,0.42672958970069885,-9.98169231414795,-0.7387049638695966,0.8883919792738955,0.008414644018265726,-3.8330716700576453,5.225921324901112,-0.024275751838414742
1731474145.6397784,-0.6444383859634399,0.252627432346344,-9.986760139465332,-0.7443688893605279,0.8783390888517131,0.008171253926054844,-3.8878533139563145,5.302625785229537,-0.024475719602688913
1731474145.6896195,-0.5891392230987549,0.3251998722553253,-9.954066276550293,-0.7498180125782693,0.8678026079846843,0.007875157098103202,-3.94277584989838,5.379419422106526,-0.024669483007650574
1731474145.739691,-0.7718563675880432,0.09749940782785416,-9.974160194396973,-0.7550437623719196,0.8568276981660012,0.007530446239450893,-3.998331457315015,5.456979469619499,-0.02485899789635509
1731474145.7895942,-0.46285444498062134,0.407083123922348,-9.982929229736328,-0.7600456491970851,0.8454594495255904,0.007141524879190007,-4.054006016530208,5.534577430312961,-0.025042759394114163
1731474145.839546,0.17480438947677612,0.5993920564651489,-9.956948280334473,-0.7648297579403083,0.8337429275088288,0.006713016227976183,-4.110578202196218,5.61328684445633,-0.02522357329624502
1731474145.8895202,-0.4296962022781372,0.3416212499141693,-10.036373138427734,-0.7694049293009864,0.8217243767760736,0.006249634965146956,-4.167187154676753,5.691898678795674,-0.025398957166130002
1731474145.9394314,-0.10667605698108673,0.5735830664634705,-9.944799423217773,-0.7737797896600338,0.8094520572551079,0.0057560305077776,-4.2248013665456705,5.771745993640838,-0.02557219275577642
1731474145.9893925,-0.4261827766895294,0.25164923071861267,-9.998679161071777,-0.7779625484492898,0.796975801950754,0.005236703232273763,-4.282361711498704,5.851349673272103,-0.025740402032469783
1731474146.0393891,-0.4261827766895294,0.25164923071861267,-9.998679161071777,-0.7819620201447285,0.7843458122589567,0.004696032834066078,-4.340932904096781,5.9321707900593745,-0.025907024905462202
1731474146.0892906,-0.36952340602874756,0.26452311873435974,-9.984543800354004,-0.7857885288541522,0.7716111424365185,0.004138243676204267,-4.399483319889722,6.012774556711567,-0.026069457380191268
1731474146.1392066,-0.2180897742509842,0.5275964140892029,-9.984308242797852,-0.7894541186821057,0.7588188563330636,0.003567334714627445,-4.458608757381796,6.093972079941633,-0.026229741319242182
1731474146.1892066,-0.35027265548706055,0.3020928204059601,-9.998504638671875,-0.7929714801302161,0.7460145427698395,0.0029871074123162984,-4.518395915738842,6.17587009544002,-0.026388440358926502
1731474146.2392662,-0.24522694945335388,0.4789474606513977,-9.97572135925293,-0.7963520375944068,0.7332431675966946,0.0024012270328128364,-4.578864506499887,6.258482791477112,-0.02654593690555935
1731474146.2900531,-0.32880857586860657,0.3587845265865326,-9.992473602294922,-0.7996042628802529,0.7205493225335844,0.001813277676150913,-4.640610547217434,6.342608233682255,-0.02670408344536675
1731474146.3401139,-0.28920209407806396,0.4533703923225403,-9.996732711791992,-0.8027330279627893,0.7079770882990699,0.001226790933610648,-4.7021478008734015,6.42621050857698,-0.026859433853899346
1731474146.3900425,-0.32036682963371277,0.38436904549598694,-9.975886344909668,-0.8057399312565063,0.6955697945654389,0.0006452113619610834,-4.763783104285016,6.509702546447339,-0.02701318341609504
1731474146.4399643,-0.3222068250179291,0.4288286566734314,-9.992498397827148,-0.8086239079871161,0.6833697190512023,7.187066886557374e-05,-4.826333024507684,6.594180216424715,-0.027167727639399217
1731474146.4898868,-0.3282969295978546,0.4256960153579712,-9.982223510742188,-0.8113817895230409,0.671417805363103,-0.0004900006318096521,-4.888959617791934,6.678502058876846,-0.027321344683090564
1731474146.5398424,-0.3282969295978546,0.4256960153579712,-9.982223510742188,-0.814008802566702,0.6597534607603883,-0.0010372772356067855,-4.952361019363098,6.763599403582767,-0.027476094540481763
1731474146.5898244,-0.3272224962711334,0.4375999867916107,-9.990431785583496,-0.8164989751355536,0.6484144022459383,-0.0015669546349790268,-5.015981919387599,6.848717762017381,-0.027630952256227612
1731474146.6398294,-0.3272224962711334,0.4375999867916107,-9.990431785583496,-0.8188454542532206,0.6374364996703875,-0.0020761774279270343,-5.080707668333672,6.9350306300251185,-0.02778839388833852
1731474146.6897447,-0.3311549723148346,0.43346843123435974,-9.981561660766602,-0.8210407758139152,0.6268536250698524,-0.0025622830402072883,-5.145145955867519,7.020674125744575,-0.027945336776718427
1731474146.7396312,-0.3635404109954834,0.40990909934043884,-9.988479614257812,-0.8230771555964987,0.616697569613843,-0.003022824167736267,-5.210516585074752,7.107263740298454,-0.02810504281974131
1731474146.789546,-0.32311975955963135,0.4552238881587982,-9.978585243225098,-0.8249468436171137,0.6069982020126752,-0.0034555857181401313,-5.275965228899758,7.193660173859723,-0.02826569703368384
1731474146.8395026,-0.3543110489845276,0.4205108880996704,-9.987153053283691,-0.8266424263278609,0.5977838413631245,-0.003858618099263449,-5.342402803407214,7.281058244144501,-0.02842979457247458
1731474146.8894835,-0.33690303564071655,0.44204410910606384,-9.983466148376465,-0.828156988956475,0.589081435777257,-0.004230259274286792,-5.409445465837559,7.368942233768658,-0.02859664000852063
1731474146.939377,-0.3456494212150574,0.4204249382019043,-9.974058151245117,-0.8294842168758605,0.5809163789248477,-0.004569128494395867,-5.476717336042048,7.456814381904171,-0.02876551111064099
1731474146.9893372,-0.32335811853408813,0.44455331563949585,-9.994388580322266,-0.8306184648657376,0.5733122173125103,-0.004874101177509981,-5.544735042960716,7.545344008746446,-0.028937902296550536
1731474147.0392928,-0.3419918715953827,0.4153200089931488,-9.980100631713867,-0.8315547697285728,0.5662904165871829,-0.005144303104162989,-5.61306841406519,7.633965641978085,-0.0291129014825663
1731474147.0892532,-0.33232659101486206,0.44813141226768494,-9.970808982849121,-0.8322888631268697,0.5598701736230126,-0.005379112282560764,-5.68215628935942,7.72324331246146,-0.029291790504220042
1731474147.1392598,-0.3414287269115448,0.42118310928344727,-9.989472389221191,-0.832817227174745,0.554068272013489,-0.005578116529364846,-5.751736696247885,7.812832715892261,-0.029474034388188953
1731474147.1892078,-0.32821929454803467,0.43675288558006287,-9.983247756958008,-0.8331371515550815,0.5488989772804549,-0.005741083029235611,-5.821642445568952,7.902516372510654,-0.029659297370097402
1731474147.239118,-0.3308393657207489,0.41653814911842346,-9.989508628845215,-0.8332467470410686,0.5443739346255662,-0.0058679903095323034,-5.8921558039354895,7.992653950993323,-0.02984841266735055
1731474147.2890556,-0.3233639597892761,0.44228991866111755,-9.99915599822998,-0.8331448845981996,0.5405021098752207,-0.005959062450392898,-5.963192972505269,8.083135070807835,-0.030041227893571696
1731474147.34003,-0.3317860960960388,0.42187803983688354,-9.981391906738281,-0.8328310299025466,0.5372898744648168,-0.006014757262746653,-6.036112572258577,8.175678818445327,-0.03024154380979898
1731474147.389953,-0.3199501931667328,0.43816444277763367,-9.984302520751953,-0.832305048221181,0.5347411784779288,-0.006035695304902848,-6.108390795687126,8.267079410090231,-0.030442461306054033
1731474147.4399762,-0.3348630368709564,0.410004585981369,-9.995926856994629,-0.8315671241876257,0.5328576329690695,-0.006022574746355144,-6.1811850043063865,8.35880750726317,-0.030647143798401538
1731474147.4898822,-0.31965500116348267,0.4335654675960541,-9.987404823303223,-0.8306178090102785,0.5316384703761737,-0.005976156241904564,-6.2541671168851956,8.450451617404996,-0.0308546357834399
1731474147.5398347,-0.33629316091537476,0.42236918210983276,-9.98745346069336,-0.8294581009375208,0.5310805070513214,-0.005897290911531435,-6.327629921305672,8.542382065529555,-0.03106571554963665
1731474147.5897639,-0.32917505502700806,0.4344494938850403,-9.999245643615723,-0.8280895192168855,0.531178181187645,-0.005786925594371345,-6.401812116167215,8.634897319656545,-0.03128101973784458
1731474147.6397233,-0.3516184091567993,0.42074695229530334,-9.990751266479492,-0.8265141912915804,0.5319236267384244,-0.005646111652665633,-6.476433159641475,8.72764810505583,-0.03149966408187287
1731474147.6896822,-0.3454195261001587,0.43337929248809814,-9.982441902160645,-0.8247349609735218,0.5333067374111058,-0.005476014265928308,-6.551509318150661,8.82065744536751,-0.031721596964818445
1731474147.739603,-0.3505779504776001,0.42843934893608093,-9.977140426635742,-0.8227554826789204,0.5353152371687309,-0.005277862588559565,-6.627124290338143,8.91403173701719,-0.031946953379004966
1731474147.7895708,-0.3442579209804535,0.44717955589294434,-10.014467239379883,-0.820580253298612,0.5379347928927749,-0.005052894117068683,-6.703637487198895,9.008215423973308,-0.03217669031047843
1731474147.839557,-0.2940550446510315,0.5944892764091492,-9.976007461547852,-0.8182145070448128,0.5411494486400932,-0.00480241160716403,-6.780482446817302,9.102513603292909,-0.032408969275930836
1731474147.889536,-0.20518560707569122,0.54371577501297,-9.946371078491211,-0.8156637987112748,0.5449427970849325,-0.004527868918982223,-6.857719285361373,9.197005829807543,-0.032643803697438814
1731474147.939503,-0.20518560707569122,0.54371577501297,-9.946371078491211,-0.8129332661733298,0.5492993499223617,-0.004230788809088885,-6.9354797748782975,9.291858447533087,-0.032881418069812055
1731474147.9893682,-0.2412494719028473,0.5809628963470459,-10.00178050994873,-0.8100270372124798,0.554205048462898,-0.003912619965398166,-7.0133838559235775,9.386614695991655,-0.03312045813785844
1731474148.0393229,-0.4226839542388916,0.305077463388443,-9.972904205322266,-0.8069483784672319,0.5596467994668481,-0.0035748004479045263,-7.092156059569673,9.482161321457562,-0.033362948122489425
1731474148.0892675,-0.4226839542388916,0.305077463388443,-9.972904205322266,-0.8037006976866374,0.5656112605387718,-0.0032189264692203084,-7.171243192829627,9.577832342181011,-0.033606978493460775
1731474148.1391916,-0.017241640016436577,0.4965020716190338,-10.021503448486328,-0.8002883697191789,0.5720834676790543,-0.002846811858445619,-7.251095907118283,9.674178935723836,-0.03385371946438681
1731474148.1891968,0.08745230734348297,0.6030604839324951,-10.011589050292969,-0.7967158153316998,0.5790466988671935,-0.002460559680146685,-7.3313166614229806,9.770727620302198,-0.034101714009606286
1731474148.2391913,0.08745230734348297,0.6030604839324951,-10.011589050292969,-0.7929851864845107,0.5864837237096184,-0.0020627071322688916,-7.412165160597441,9.867798210690626,-0.03435152686622153
1731474148.289004,-0.13256236910820007,0.6477596163749695,-9.916261672973633,-0.7890950058020689,0.5943780087818217,-0.0016561770669309799,-7.493274510947183,9.964958239687848,-0.034601781769173855
1731474148.3390393,-0.5607509613037109,0.18505153059959412,-10.030675888061523,-0.7850413180239951,0.6027137323312947,-0.0012439632611430254,-7.57505179962902,10.062703624266259,-0.03485348708010796
1731474148.3899746,-0.24053697288036346,0.6703055500984192,-9.993346214294434,-0.7808205620112716,0.6114746690125534,-0.0008289318636781737,-7.658834708280572,10.162635316706615,-0.03511048293123769
1731474148.4399455,-0.4149532914161682,0.18424800038337708,-9.922703742980957,-0.7764316249817395,0.6206433198583184,-0.00041382780880337006,-7.74178506614692,10.261376240368948,-0.03536380861570306
1731474148.4898977,-0.32263457775115967,0.564312756061554,-10.011099815368652,-0.7718759121206482,0.6302009443616478,-1.122252232268472e-06,-7.825040091746517,10.360294668710566,-0.03561671623620213
1731474148.539939,-0.4096713662147522,0.33358514308929443,-9.978320121765137,-0.7671568391998962,0.6401277506347064,0.00040715767974515383,-7.908805166462363,10.459644662766873,-0.0358695854491137
1731474148.5898108,-0.33266475796699524,0.4822407364845276,-9.983787536621094,-0.7622796867559634,0.6504030472039549,0.0008093223155675024,-7.992808564434247,10.559114408358322,-0.03612135884811845
1731474148.6398258,-0.36633315682411194,0.4079146981239319,-10.017582893371582,-0.7572514635597881,0.6610054321620864,0.0012038590980221705,-8.077879291088202,10.659694791735316,-0.03637426830637434
1731474148.6896837,-0.37975364923477173,0.41329842805862427,-9.984230041503906,-0.7520806680376073,0.6719128685780432,0.001589340310261863,-8.162707517099754,10.75984790685093,-0.036624191671213564
1731474148.7397082,-0.3236582279205322,0.45023560523986816,-9.957239151000977,-0.7467770978383185,0.683102692101251,0.001964399023772748,-8.248349163907033,10.86083212926384,-0.03687402644862208
1731474148.7895982,-0.4094269871711731,0.40006208419799805,-10.010847091674805,-0.7413516875122714,0.6945516385165117,0.0023278394339051344,-8.33416353230114,10.96190279767155,-0.03712168165173594
1731474148.8395123,-0.3341081142425537,0.49790847301483154,-9.974881172180176,-0.7358163693848254,0.7062359604003355,0.002678701665094516,-8.420371094522956,11.063331484676294,-0.03736759840326824
1731474148.8895173,-0.40162166953086853,0.3858509361743927,-9.979796409606934,-0.730183984155955,0.7181316012338187,0.00301620279790208,-8.507497688509133,11.165747636922143,-0.03761305162520837
1731474148.9394271,-0.33520281314849854,0.49349677562713623,-9.995915412902832,-0.7244682449575227,0.7302141552912299,0.0033397181476592613,-8.595085939685136,11.268624534053481,-0.03785653121031945
1731474148.989394,-0.39363962411880493,0.3769837021827698,-9.9759521484375,-0.7186838939921707,0.7424582831393862,0.003648792222469548,-8.683193863919321,11.37204208233939,-0.03809800597542292
1731474149.0393794,-0.32641667127609253,0.49767252802848816,-9.984671592712402,-0.7128469678628715,0.7548368922433046,0.003943128123325769,-8.771315554602756,11.475418796621405,-0.03833593293102324
1731474149.0893095,-0.39658495783805847,0.40310895442962646,-9.991823196411133,-0.7069748202086459,0.7673208461977087,0.004222588237876909,-8.859869800805749,11.57925839311511,-0.038571301054271194
1731474149.139286,-0.31508591771125793,0.49019932746887207,-9.974615097045898,-0.7010858686210747,0.7798792949829987,0.0044871787722229085,-8.949023926739416,11.683769062156788,-0.038804385698456845
1731474149.1892076,-0.3865351676940918,0.38851404190063477,-9.984769821166992,-0.6951992649922079,0.792480125702022,0.004737033531866597,-9.038623253329565,11.78878153002323,-0.039034620578882406
1731474149.2392628,-0.3284973204135895,0.4553205966949463,-9.989445686340332,-0.6893345922643715,0.8050902702370826,0.004972416511654427,-9.129040267463264,11.894744472832064,-0.03926279358540973
1731474149.2891707,-0.36882221698760986,0.4021817743778229,-9.976908683776855,-0.6835116160372534,0.8176759366186219,0.005193699169619133,-9.219264628971121,12.000485937531606,-0.03948623859917988
1731474149.3390863,-0.339903861284256,0.46282950043678284,-9.997218132019043,-0.6777500661063385,0.8302028984481385,0.005401325257234914,-9.31002753865979,12.106874890344304,-0.039706677431542166
1731474149.3890233,-0.36403632164001465,0.4146801829338074,-9.983406066894531,-0.6720694402557683,0.8426368670812888,0.0055957805444006165,-9.4014538949662,12.214069812431026,-0.039924270946749225
1731474149.4399798,-0.3282560706138611,0.4430561661720276,-9.990992546081543,-0.666488828758267,0.85494384100962,0.005777559642399329,-9.49528979881372,12.324131299910285,-0.040142898675189324
1731474149.489963,-0.34830936789512634,0.4099680185317993,-9.985173225402832,-0.6610267299569735,0.8670902799167227,0.005947144489250078,-9.587424031103925,12.43224882005572,-0.04035289032978519
1731474149.5398574,-0.3367198407649994,0.4484230577945709,-9.979958534240723,-0.6557009014875268,0.8790430106513307,0.006104982583575228,-9.67989943449848,12.540829269165544,-0.04055897289737524
1731474149.5898209,-0.3511849343776703,0.42940324544906616,-9.9827299118042,-0.6505282972771624,0.8907690664303152,0.006251466210791371,-9.772906918555396,12.650108095285852,-0.040761479956272655
1731474149.639785,-0.3449540138244629,0.44740235805511475,-9.993281364440918,-0.6455250394838815,0.9022357807179395,0.006386924725199926,-9.866157314708422,12.7597564311643,-0.04095970378697793
1731474149.689714,-0.348348468542099,0.4309273660182953,-9.968509674072266,-0.6407063687794934,0.9134111053007894,0.006511618281822536,-9.9599688953226,12.87015918515473,-0.04115424635893735
1731474149.7397473,-0.3465837836265564,0.4344233572483063,-9.99363899230957,-0.6360865731326566,0.9242639219531532,0.006625753939379512,-10.054373456862399,12.981364683825579,-0.041345077465107856
1731474149.7896135,-0.35121646523475647,0.43669408559799194,-9.989757537841797,-0.6316789158682884,0.9347642846372195,0.006729502011688881,-10.148711912028265,13.092606035119266,-0.041530823615615074
1731474149.839714,-0.3436480164527893,0.4485608637332916,-9.986307144165039,-0.6274955764822305,0.9448836545793425,0.006822965261293386,-10.243985460307277,13.205073617438147,-0.041713393358737284
1731474149.8895714,-0.3596985638141632,0.44395580887794495,-9.989258766174316,-0.6235476052053704,0.9545951586780247,0.006906155155251153,-10.339064772576654,13.317443339131495,-0.041890575799541765
1731474149.9394937,-0.3440133035182953,0.440993994474411,-9.989282608032227,-0.6198448972728898,0.9638738176561236,0.006979009691522969,-10.43526019660388,13.431272949428875,-0.04206475709781864
1731474149.9894161,-0.3629949986934662,0.4327376186847687,-9.978323936462402,-0.61639618212265,0.9726966832135686,0.0070414199955394375,-10.530927433983324,13.544624532866926,-0.042232936509270576
1731474150.0394707,-0.35161831974983215,0.4358040392398834,-9.977865219116211,-0.6132090227558151,0.9810429223459162,0.007093269529189142,-10.62774217137867,13.65949103933183,-0.042398039634781705
1731474150.0892787,-0.3588835597038269,0.44195646047592163,-9.983288764953613,-0.6102898317884374,0.9888939579024262,0.007134468930778744,-10.724140817885113,13.77402450241594,-0.04255737677672975
1731474150.1392915,-0.3525645434856415,0.4376795291900635,-9.988021850585938,-0.6076438845930469,0.996233670077983,0.007164937298483998,-10.82182877500616,13.89025827757929,-0.04271373854461334
1731474150.1892414,-0.3525645434856415,0.4376795291900635,-9.988021850585938,-0.6052753106915979,1.0030485268356917,0.007184546694088552,-10.919206482439966,14.00629594400948,-0.04286453413774907
1731474150.239233,-0.35390523076057434,0.44004589319229126,-9.980785369873047,-0.6031870754435189,1.009327591517238,0.007193092211088399,-11.01761518679175,14.12374144787766,-0.04301183683251816
1731474150.2891834,-0.34808841347694397,0.4356316924095154,-9.990507125854492,-0.6013809702798509,1.015062479439206,0.007190307837143582,-11.115884623479515,14.241203702043252,-0.04315388412123474
1731474150.3391497,-0.3495331108570099,0.4318283796310425,-9.987534523010254,-0.599857612091749,1.0202472977510642,0.0071758880745075235,-11.214691592210704,14.35949536000662,-0.043291688324513786
1731474150.3889644,-0.34229859709739685,0.43807172775268555,-9.979005813598633,-0.598616442747202,1.0248785625296148,0.007149496565290785,-11.31345828661836,14.47792803555445,-0.043424476238595286
1731474150.4399717,-0.35194361209869385,0.43843650817871094,-9.987793922424316,-0.59765573780667,1.0289551210677077,0.007110792551767683,-11.415166564664913,14.600087181011508,-0.04355611678175418
1731474150.4899325,-0.3497510850429535,0.43838438391685486,-9.9824857711792,-0.596972647949201,1.0324780950565882,0.007059464526777174,-11.515060876941462,14.720265109773432,-0.04368045546692294
1731474150.5399475,-0.3440338671207428,0.4448617100715637,-9.980924606323242,-0.5965632660613831,1.0354508214155218,0.006995244111344415,-11.61553095816523,14.841333372086524,-0.04380065106458272
1731474150.5898569,-0.3435697555541992,0.4436219334602356,-9.993441581726074,-0.5964226692158212,1.0378787903784277,0.006917924277076461,-11.716117359866546,14.962740058916422,-0.04391620200144954
1731474150.6397717,-0.3434273302555084,0.4445556402206421,-9.981748580932617,-0.5965449167195139,1.0397695951704593,0.006827402417881781,-11.81695806281025,15.084651963318025,-0.044027345497058445
1731474150.6896904,-0.34205594658851624,0.4357181191444397,-9.985618591308594,-0.5969230510972795,1.0411328616538742,0.006723740202647569,-11.917969767436318,15.20696827348583,-0.04413407168872741
1731474150.7397027,-0.3368449807167053,0.4365089237689972,-9.985532760620117,-0.5975491356854921,1.0419801152700205,0.006607208706081972,-12.020755003699811,15.331633342039417,-0.04423806138851457
1731474150.7896504,-0.3370206654071808,0.44003918766975403,-9.988101959228516,-0.5984143114636724,1.0423246099742507,0.006478284498501214,-12.12248881652908,15.455220610238833,-0.04433653352912359
1731474150.839731,-0.34878137707710266,0.4350849390029907,-9.995030403137207,-0.5995088703735982,1.0421811755414754,0.006337603426174749,-12.225314111476036,15.580330550951704,-0.044431693044969
1731474150.8894904,-0.34958556294441223,0.43955448269844055,-9.992443084716797,-0.60082237612825,1.0415660858082225,0.006185898060798089,-12.327620127627805,15.705001686823469,-0.044522149624588496
1731474150.9395454,-0.33814793825149536,0.4347154200077057,-9.992836952209473,-0.6023438064875941,1.0404969248979914,0.006023945211969407,-12.431271679238934,15.83150509677242,-0.04460964520098412
1731474150.9894862,-0.3534073531627655,0.43426117300987244,-9.98823356628418,-0.6040616519376221,1.0389924473357404,0.005852547568093664,-12.534707426581777,15.95793424799775,-0.044692941593192356
1731474151.0393903,-0.35689619183540344,0.43784937262535095,-9.982269287109375,-0.6059639996361962,1.0370724359197068,0.005672550864915502,-12.63924752275591,16.08590064509619,-0.04477320404669267
1731474151.089344,-0.34376397728919983,0.4424741268157959,-9.984296798706055,-0.6080386466800052,1.034757577186469,0.005484880047796773,-12.742831630599147,16.212877840068376,-0.044848996573535936
1731474151.1394033,-0.34501925110816956,0.4349685609340668,-9.980411529541016,-0.6102731803667895,1.0320693526199922,0.005290556068134983,-12.848842176743505,16.343010707324183,-0.044922876651431194
1731474151.1892505,-0.35001081228256226,0.4367660880088806,-9.98748779296875,-0.6126550048429664,1.029029895022872,0.005090651048679066,-12.952987471003434,16.471027015725834,-0.04499198308074444
1731474151.2393665,-0.35077399015426636,0.4410512447357178,-9.983784675598145,-0.6151713906520456,1.0256618129599544,0.00488620032413721,-13.05912871819413,16.601667474243502,-0.045059036639533735
1731474151.2891529,-0.3346041738986969,0.4414082169532776,-9.978825569152832,-0.6178095477916576,1.0219880560018422,0.004678145971091577,-13.16446231590411,16.73147826364212,-0.045122371951449566
1731474151.339152,-0.3532467186450958,0.44168803095817566,-9.982125282287598,-0.6205566642262659,1.0180318323311264,0.004467345767377325,-13.271051967308718,16.86299741168865,-0.0451833750764331
1731474151.38902,-0.3444956839084625,0.44681721925735474,-9.989038467407227,-0.623399940816281,1.0138165341895342,0.0042545957980952365,-13.377191569777743,16.994115221154274,-0.045241197679625575
1731474151.4390323,-0.3412024676799774,0.45108357071876526,-9.988518714904785,-0.6263266563522525,1.0093656668167141,0.00404061331849598,-13.484901371667199,17.127323131800622,-0.04529705986608741
1731474151.4888942,-0.35135704278945923,0.44728460907936096,-9.988907814025879,-0.6293242219362286,1.0047027884439075,0.003826000631739993,-13.592157247582376,17.260113448749347,-0.045350030734003614
1731474151.5399947,-0.3428148031234741,0.43845781683921814,-9.985496520996094,-0.6323802256285668,0.9998514272423333,0.003611235301108895,-13.702553495534506,17.396934437992712,-0.04540195381064801
1731474151.589838,-0.35130253434181213,0.43799132108688354,-9.989453315734863,-0.6354824901902514,0.9948349474179978,0.0033966886872314685,-13.810343244323484,17.530657730126364,-0.04545026712095622
1731474151.6397727,-0.34227749705314636,0.4340595602989197,-9.994230270385742,-0.6386191235821246,0.9896763963870499,0.003182639428956508,-13.919181639492384,17.665807905225396,-0.045496820785738336
1731474151.6898038,-0.345090389251709,0.4354267120361328,-9.992863655090332,-0.6417785492533532,0.9843983800097983,0.0029692727193449883,-14.028386772427583,17.801533577726175,-0.04554143670511511
1731474151.7628806,-0.3515869379043579,0.4293767511844635,-9.992466926574707,-0.6449495304825288,0.9790229710711952,0.0027567079923234376,-14.188688075168573,18.000967914658762,-0.04560343598416339
1731474151.839626,-0.3230764865875244,0.15276339650154114,-9.979936599731445,-0.6481211913896393,0.973571381306795,0.0025450764770214044,-14.358208575695462,18.212119513464945,-0.045664826535471804
1731474151.8895721,-0.22208143770694733,0.187400683760643,-10.070066452026367,-0.6512828923227876,0.9680629646543231,0.0023345318806743025,-14.468690075906277,18.34986159245282,-0.04570270663543662
1731474151.939552,-0.3626958727836609,-0.3957504630088806,-10.0033597946167,-0.6544239191407203,0.9625134653525779,0.0021250649173219214,-14.579929632360617,18.48864326003294,-0.04573931485471743
1731474151.989412,-0.49128592014312744,-0.6028002500534058,-10.101073265075684,-0.6575335712037212,0.9569323826429756,0.0019162419405211162,-14.690781927068322,18.627029226442087,-0.045774411762060964
1731474152.039409,-0.33004650473594666,0.15001556277275085,-9.991525650024414,-0.6606019494827418,0.951320564440882,0.001707071294775995,-14.803015011090032,18.767220971541175,-0.045808684335829866
1731474152.0893848,-0.42409035563468933,-0.23452405631542206,-9.928579330444336,-0.6636205480755226,0.945670785036695,0.0014961853228488277,-14.915607020893331,18.90793717676036,-0.045841935873842055
1731474152.139399,-0.3635537326335907,0.16380023956298828,-9.96257495880127,-0.666582134922549,0.9399709249923243,0.0012824129359374444,-15.028634553701684,19.049267634145966,-0.04587432211760287
1731474152.1892323,-0.3265819549560547,0.03705446049571037,-9.926668167114258,-0.669480429565813,0.9342067346636018,0.001065324145514631,-15.14138980376712,19.19032085432402,-0.04590578210547043
1731474152.2392316,-0.34383344650268555,0.2610261142253876,-9.951214790344238,-0.6723097798820765,0.9283636375156411,0.0008453764775973591,-15.255226839603639,19.33278482983141,-0.04593683036213175
1731474152.2891235,-0.35642221570014954,0.23940710723400116,-9.95168685913086,-0.6750648861559981,0.9224280986805163,0.0006237821508361569,-15.368697209002324,19.4748409718299,-0.04596720893733691
1731474152.3392637,-0.3735845685005188,0.305618554353714,-9.976515769958496,-0.6777408228353816,0.9163881577613263,0.0004021774028262363,-15.483714806759258,19.618879643078753,-0.04599756679945059
1731474152.389072,-0.3662432134151459,0.2762035131454468,-9.98367977142334,-0.6803332621590099,0.9102332125498904,0.0001821654611911854,-15.598150351010803,19.762228559605635,-0.046027477524269195
1731474152.4390504,-0.3853393793106079,0.2848801612854004,-9.992253303527832,-0.6828386323321622,0.903953775610653,-3.50347144398857e-05,-15.713742483648653,19.907059602171316,-0.046057533392179016
1731474152.4890246,-0.3745778203010559,0.2969180941581726,-9.987142562866211,-0.6852541637046816,0.8975415092926482,-0.00024873504047472246,-15.82922753539119,20.051783687017885,-0.04608753885384272
1731474152.539969,-0.36941108107566833,0.32635197043418884,-10.017279624938965,-0.6875778672356441,0.8909893926804103,-0.0004588082137718786,-15.947948464837532,20.200584827375618,-0.046118498874767655
1731474152.5898287,-0.3613957464694977,0.32036691904067993,-9.987659454345703,-0.6898084388150572,0.8842919531886906,-0.0006656948207110553,-16.06425976876377,20.346381226521416,-0.04614907027959289
1731474152.6398501,-0.3558109700679779,0.3377763330936432,-10.017905235290527,-0.6919451104189609,0.8774454833904611,-0.0008703833968187912,-16.18181708898227,20.49374881990682,-0.04618033743374942
1731474152.6896672,0.11172740161418915,0.9410831928253174,-9.988750457763672,-0.6939870907004235,0.8704486929951101,-0.0010743403346594738,-16.2981983441298,20.63964538475063,-0.04621177750479753
1731474152.7397246,0.6022413969039917,1.6053311824798584,-9.950591087341309,-0.6959314194187165,0.8633054105671608,-0.0012793618292174932,-16.416749413173406,20.78825931275057,-0.04624442382638301
1731474152.7897217,0.45707929134368896,1.1785728931427002,-9.883322715759277,-0.6977691806430504,0.8560292633971258,-0.001487225905162223,-16.534798540769565,20.936235361435873,-0.0462776746291375
1731474152.8396256,0.18722468614578247,0.8254978060722351,-10.014012336730957,-0.6994824946841254,0.8486466507221206,-0.0016992052961577746,-16.653939605292507,21.085565503931242,-0.046312107775608936
1731474152.889567,-0.2138817459344864,0.33085402846336365,-10.020838737487793,-0.701044116486477,0.8411956791571648,-0.0019158489328516524,-16.773030769022785,21.234812645423204,-0.04634752827935574
1731474152.939633,-0.84199458360672,-0.42900434136390686,-10.077438354492188,-0.7024198614464456,0.8337219331267065,-0.0021372469519757194,-16.892938240784094,21.385056529666922,-0.04638432942090694
1731474152.9894435,-1.1347620487213135,-0.6553553342819214,-10.159132957458496,-0.7035739889782091,0.8262717632180847,-0.002363592003459869,-17.011838016379254,21.534006480207893,-0.04642207343323265
1731474153.0395005,-0.5375619530677795,0.026560742408037186,-10.053828239440918,-0.7044750817433503,0.8188858356441704,-0.0025957453213498443,-17.133525544646904,21.686411306509395,-0.04646212475220164
1731474153.0893981,-0.6419805884361267,-0.14039817452430725,-10.018117904663086,-0.7050980503340067,0.8115974736187199,-0.002835357709784897,-17.253868903297633,21.83709069736885,-0.04650327875771636
1731474153.13939,-0.48468977212905884,0.17504572868347168,-9.904268264770508,-0.7054222636612246,0.8044352762904505,-0.0030842682805567274,-17.376239441398926,21.9902609961162,-0.046546839236247195
1731474153.1893013,-0.5061772465705872,0.20886747539043427,-9.975037574768066,-0.7054294273535726,0.7974260279669384,-0.0033436014662038193,-17.497273559172488,22.141707623214582,-0.04659176149707209
1731474153.2392278,-0.504601240158081,0.35937514901161194,-9.961531639099121,-0.7051027032361749,0.7905966295063689,-0.003613257300073932,-17.619490233900592,22.294578957324006,-0.04663912224209457
1731474153.2890863,-0.5235366225242615,0.4285810589790344,-9.942535400390625,-0.7044265482580058,0.7839755166598297,-0.0038919628088376797,-17.741257387749542,22.446829903233716,-0.046688454306402664
1731474153.3391986,-0.5182399153709412,0.41647854447364807,-9.95583724975586,-0.7033869111771454,0.7775935105041205,-0.004177478736066935,-17.86495740169865,22.60143541243114,-0.04674091648044297
1731474153.3890479,-0.5484158992767334,0.4480695128440857,-9.937871932983398,-0.7019721888428805,0.771483624689593,-0.004466777685489168,-17.988400055709356,22.755654524537285,-0.0467957815699366
1731474153.4390175,-0.5478430390357971,0.4370619058609009,-9.939542770385742,-0.7001760252222793,0.7656793278433336,-0.0047563957273170894,-18.112847345264413,22.911061494382306,-0.04685378877498259
1731474153.4889638,-0.5263280868530273,0.4694240391254425,-9.992203712463379,-0.6980009472305528,0.760212117608808,-0.005042933861444471,-18.237180816789486,23.066257643247045,-0.04691459727901133
1731474153.5389593,-0.5467596054077148,0.46723413467407227,-9.985711097717285,-0.6954599265831902,0.7551101201617418,-0.005323500564760693,-18.36193929529521,23.221914549124413,-0.04697862884625859
1731474153.5898702,-0.551529049873352,0.4757702946662903,-9.996859550476074,-0.692575538342274,0.7503979438349688,-0.005595998316611922,-18.489445181424376,23.38092688539361,-0.04704733750598252
1731474153.6398945,-0.5152885317802429,0.4587487578392029,-9.976001739501953,-0.6893784912880989,0.7460968636607829,-0.005859206676986792,-18.615925984152202,23.538588817265733,-0.0471188926075861
1731474153.6898081,-0.5710768699645996,0.47691261768341064,-10.003650665283203,-0.6859062515580274,0.7422249124609712,-0.006112699861733321,-18.74158080547817,23.69515087866132,-0.04719345989042567
1731474153.7397523,-0.525538980960846,0.48766395449638367,-9.994609832763672,-0.6822017748682053,0.7387969703103947,-0.006356746621701101,-18.868049510941542,23.852657529403928,-0.047272133000352747
1731474153.789613,-0.5084438323974609,0.5185731053352356,-9.965476989746094,-0.6783123384659637,0.7358249625779758,-0.0065922292409347875,-18.994825281100304,24.010478290672104,-0.04735475876469326
1731474153.8396065,-0.5292466878890991,0.4623800218105316,-9.98769760131836,-0.6742883565566713,0.733318108030576,-0.006820488679416156,-19.122578272506978,24.16944844362066,-0.04744194023549796
1731474153.88953,-0.48913973569869995,0.46731847524642944,-9.979022026062012,-0.6701822629293974,0.7312830056650745,-0.007043147133634728,-19.250621435613965,24.328714462046104,-0.047533370719453995
1731474153.9395475,-0.4685397744178772,0.5056860446929932,-9.99309253692627,-0.6660474512337131,0.7297236272760301,-0.0072619846417047345,-19.379284779024292,24.488688860333255,-0.047629429530822005
1731474153.9894257,-0.45702219009399414,0.4998912811279297,-9.956080436706543,-0.6619370297312112,0.7286416042605824,-0.007478718434077899,-19.50722036774632,24.64769870884079,-0.04772920126257136
1731474154.0394197,-0.4022035002708435,0.5028836131095886,-9.970311164855957,-0.657902507271929,0.7280367659402454,-0.0076946364373191205,-19.636433725232926,24.808239481728336,-0.04783437343288021
1731474154.089314,-0.42270535230636597,0.48164358735084534,-9.983999252319336,-0.6539927864712504,0.727907454726285,-0.007910352263152376,-19.765544110853963,24.9685982736604,-0.04794397619011719
1731474154.1392968,-0.38456615805625916,0.5007065534591675,-9.960416793823242,-0.6502535607138764,0.7282505182344335,-0.008125831631593453,-19.895803142176415,25.13033253005091,-0.04805922118222
1731474154.1892097,-0.3837924003601074,0.4896668791770935,-10.00211238861084,-0.6467269654833008,0.7290612430765728,-0.008340532336212835,-20.025966127722995,25.291899818970652,-0.048179155961044995
1731474154.2391903,-0.3806689977645874,0.47306615114212036,-10.001392364501953,-0.6434513458696136,0.7303333385365907,-0.008553569166719274,-20.156981027173977,25.454480140386707,-0.048304787029357504
1731474154.2891269,-0.5227342247962952,0.9770021438598633,-9.972333908081055,-0.6404612596612563,0.732059347395004,-0.00876389812851848,-20.287976956257047,25.61699612533072,-0.04843541463926602
1731474154.3391964,-0.6536251306533813,1.1910713911056519,-9.957026481628418,-0.637788082350879,0.7342325148982108,-0.008970358305629736,-20.419785831470815,25.780483290213823,-0.04857200026453417
1731474154.389024,-0.5680765509605408,0.5152410864830017,-9.884139060974121,-0.6354611094693985,0.7368492814823535,-0.009171460662602715,-20.551598373174077,25.94394127031362,-0.04871383503109792
1731474154.438984,-0.8518714904785156,1.0223649740219116,-10.114818572998047,-0.6335085085761644,0.7399095226761501,-0.009365213743134995,-20.68350824792884,26.107489892628802,-0.048861102635915005
1731474154.4890203,-0.5428992509841919,0.5303182005882263,-9.948053359985352,-0.6319579040500116,0.7434147091099446,-0.009549471049645555,-20.816739390493613,26.272649864593383,-0.04901532739304554
1731474154.8706543,-0.253031849861145,0.3442539572715759,-9.981415748596191,-0.6308361484297069,0.747365987441891,-0.009722543822640362,-21.844274119460465,27.545705966784638,-0.05038976461672389
1731474154.9205117,-0.23775433003902435,1.9156547784805298,-9.855184555053711,-0.6301675022923605,0.751763337234256,-0.009883270076003153,-21.9815515658488,27.71569335217361,-0.050597603637891016
1731474154.9705315,-0.4001409411430359,0.5899046659469604,-9.77047061920166,-0.6299714178988189,0.7566076536242845,-0.010030373667032206,-22.116550420888267,27.882843170631645,-0.050807538662613005
1731474155.020408,-0.1947299689054489,1.112312912940979,-10.022409439086914,-0.6302618226718552,0.7619033547721168,-0.01016175483725389,-22.254703667296223,28.053885477310878,-0.05102811200054881
1731474155.0704117,-0.21322882175445557,0.8714746236801147,-10.088143348693848,-0.6310473374249301,0.767657449750056,-0.010274731839354186,-22.39081806389509,28.22239364580488,-0.05125112740124265
1731474155.1203022,-0.2239534556865692,0.9041865468025208,-9.905142784118652,-0.6323312139778026,0.7738773383227728,-0.010367182851667794,-22.53046867414906,28.39527248421466,-0.051485828002723305
1731474155.1704328,-1.3943976163864136,-0.5810168385505676,-10.084527969360352,-0.6341123972152504,0.7805684720135007,-0.010438184755354981,-22.666883993020956,28.56414210103195,-0.05172085143681369
1731474155.2202253,-0.5982986688613892,0.3721615672111511,-10.063822746276855,-0.6363893054290168,0.7877295107850275,-0.010487956452495032,-22.809280064393413,28.74041392362273,-0.05197223618441498
1731474155.2702136,-0.46314603090286255,0.03619835898280144,-10.011496543884277,-0.6391629897303523,0.7953480091749563,-0.0105179419160966,-22.943685083300494,28.906794826627237,-0.052215162291094214
1731474155.320184,-0.5183843374252319,0.10595713555812836,-10.015792846679688,-0.6424358812706927,0.8034005581859026,-0.010530802710888673,-23.088839445944274,29.086486465615685,-0.05248363545365341
1731474155.3702235,-0.11161405593156815,0.15249505639076233,-10.028287887573242,-0.646208121943938,0.8118545938578978,-0.010529970361352378,-23.222826904740625,29.252360144919937,-0.05273704574756888
1731474155.4200754,-0.11161405593156815,0.15249505639076233,-10.028287887573242,-0.6504736487029199,0.8206686575290071,-0.01051906915947022,-23.362741678536494,29.425580050922363,-0.053007337396060596
1731474155.469965,-0.25383296608924866,0.3448643088340759,-9.974748611450195,-0.6552165447507939,0.829792244939252,-0.010501404172499583,-23.503004687567817,29.599241646473708,-0.05328405341339575
1731474155.5198517,-0.10165785253047943,0.2227284014225006,-9.922452926635742,-0.660409790418362,0.8391669308674693,-0.010479494691355309,-23.643531928999426,29.773242826708994,-0.053566997325484776
1731474155.5699394,-0.1839110553264618,0.4192267656326294,-9.99095344543457,-0.6660164758067544,0.8487284733311571,-0.010454689566719081,-23.78555981987337,29.94911640065886,-0.053858694275408216
1731474155.6198208,-0.19280876219272614,0.3612631559371948,-9.950533866882324,-0.6719914190326957,0.858408914549584,-0.010427065677275287,-23.93199002039998,30.13045788694421,-0.05416538659750397
1731474155.6698928,-0.00384950777515769,0.6912849545478821,-9.922014236450195,-0.6782825529453442,0.868138641077558,-0.010395584009093671,-24.069828663774327,30.30117589000154,-0.05445953342470343
1731474155.7207956,0.744889497756958,1.6483407020568848,-9.939879417419434,-0.6848311797148673,0.8778496405008374,-0.010358168815008492,-24.21630648366966,30.482612296981614,-0.05477782416004797
1731474155.770732,0.3141680657863617,1.1341841220855713,-10.00156307220459,-0.6915702261267413,0.8874806804654731,-0.010311775967616878,-24.357918810367423,30.65804082441398,-0.05509104986078069
1731474155.8206358,-0.22723086178302765,1.8611536026000977,-9.893811225891113,-0.6984234447403184,0.8969820317142353,-0.010252664821416936,-24.503195424153514,30.838028436294515,-0.05541791218558467
1731474155.8706558,-0.4820658564567566,1.1263463497161865,-9.909140586853027,-0.7053091992492455,0.9063171852482155,-0.010176554981614752,-24.645521957876984,31.014380915842505,-0.055743470107192786
1731474155.9206085,-0.49431735277175903,1.4234706163406372,-9.892594337463379,-0.7121472177198521,0.9154629550399229,-0.010078589991631217,-24.789741899588797,31.193099739643724,-0.056078629831084706
1731474155.970523,-0.07631285488605499,0.5004467964172363,-10.070384979248047,-0.7188640398531254,0.9244107164313627,-0.009953836411325434,-24.934152460694257,31.37207544968523,-0.056419421350141115
1731474156.0204434,-0.24069371819496155,-0.35270124673843384,-10.206377029418945,-0.7253950276955276,0.9331666743843282,-0.009798734500578839,-25.07938490798242,31.55209083442317,-0.056767243667163084
1731474156.0704284,-0.6625279188156128,-0.9579870700836182,-10.202309608459473,-0.7316841930673573,0.9417459178434602,-0.00961283883219173,-25.225083071395776,31.732704955438532,-0.05712114805189607
1731474156.1203353,-0.7205891013145447,-0.26662561297416687,-10.021163940429688,-0.7376849244989458,0.9501628091688888,-0.009399674455470589,-25.371144813579885,31.91379172897567,-0.057480748528951874
1731474156.170457,-0.539745032787323,-0.3440362215042114,-10.02015209197998,-0.7433617501507936,0.9584261502450723,-0.009166086419671579,-25.518378956276965,32.09635475915095,-0.057847917214539836
1731474156.220292,-0.539745032787323,-0.3440362215042114,-10.02015209197998,-0.7486905152844084,0.9665403955220637,-0.008920796592803676,-25.665095979024475,32.278299909884446,-0.05821827068404664
1731474156.270222,-0.4648881256580353,-0.01231425255537033,-9.95477294921875,-0.753656633347083,0.9745080482904516,-0.008673305081077323,-25.812658056890186,32.4613173179798,-0.05859505770242023
1731474156.320121,-0.6345815658569336,0.11943099647760391,-9.89240837097168,-0.7582532397040646,0.9823315502986546,-0.008433204552724508,-25.96209163306437,32.64668173806651,-0.05898081438224588
1731474156.370157,-0.4727819561958313,0.4156271815299988,-9.890789985656738,-0.7624801534064058,0.9900156914092741,-0.00820947002316553,-26.109130524443,32.82910221768667,-0.05936431732567111
1731474156.419992,-0.4746846556663513,0.4383656084537506,-9.960733413696289,-0.766343088042849,0.9975701540621754,-0.008009923028486764,-26.257660157191417,33.01340024068342,-0.05975548811523705
1731474156.4700122,-0.4082532823085785,0.4868992269039154,-9.922954559326172,-0.7698523866895189,1.005010274021606,-0.007841198725062889,-26.40755696613526,33.19942485583399,-0.06015395292303279
1731474156.5199811,-0.42095184326171875,0.46034306287765503,-9.94420051574707,-0.7730213957151246,1.0123540479338413,-0.007708918913537291,-26.55733051878269,33.38532851667671,-0.06055566111485136
1731474156.5699735,-0.3570947051048279,0.568742036819458,-9.979055404663086,-0.7758650285936758,1.0196170250944627,-0.007617748200832524,-26.708114653186612,33.57252079263007,-0.06096357577851187
1731474156.6198468,-0.35170891880989075,0.5658196806907654,-10.006991386413574,-0.7783987843160394,1.0268095048107,-0.007571542555236481,-26.858619567901425,33.75940278365506,-0.06137415231962221
1731474156.6698449,-0.35522300004959106,0.5524300336837769,-9.985919952392578,-0.780638163174627,1.0339368127510857,-0.00757368392474158,-27.010394240554188,33.947900493253535,-0.061791599020774114
1731474156.7197773,-0.3219449818134308,0.549161434173584,-9.999293327331543,-0.7825983536289212,1.0410002240193725,-0.007627314002852114,-27.161719876583327,34.135881973942325,-0.06221119711464385
1731474156.7707493,-0.28970977663993835,0.5290778875350952,-9.999696731567383,-0.7842940235759908,1.0479974817646631,-0.007735368239921905,-27.31734763622747,34.32925353126514,-0.0626462662884606
1731474156.8206139,-0.3143123984336853,0.5126650929450989,-10.002466201782227,-0.785739085788531,1.0549231421593284,-0.007900563566474991,-27.472790417611083,34.52244441680682,-0.06308445386416088
1731474156.870688,-0.2599155902862549,0.5240530371665955,-9.9974946975708,-0.7869465182064287,1.0617688844964943,-0.00812539960933124,-27.624036980822122,34.71046998231531,-0.06351438329200682
1731474156.9205627,-0.2969132363796234,0.4891177713871002,-9.995007514953613,-0.7879282939279315,1.068523841975957,-0.008412131546217512,-27.778179902431344,34.90214981318986,-0.063956293687567
1731474156.9705002,-0.2292598932981491,0.49995648860931396,-10.004132270812988,-0.7886953440235169,1.0751749435296918,-0.008762722312876111,-27.93182420192663,35.09326638902727,-0.06440069899376677
1731474157.0204966,-0.2579132318496704,0.4924958348274231,-10.007848739624023,-0.7892573705250194,1.0817072463250161,-0.009178751825980646,-28.088397420641364,35.288087661713334,-0.06485781112039189
1731474157.0704823,-0.24598565697669983,0.4703907370567322,-10.037233352661133,-0.7896222976822773,1.0881042924658328,-0.009661182107480997,-28.24190303180857,35.47915520186128,-0.06531035176812279
1731474157.1203732,-0.2604096531867981,0.4892358183860779,-9.96359920501709,-0.7897956589664816,1.0943484600567257,-0.010210025906157312,-28.39796739426645,35.67347493752602,-0.06577516661080213
1731474157.1703653,-0.2412901222705841,0.49372807145118713,-10.008519172668457,-0.7897804734908682,1.1004213083330219,-0.010824094258506804,-28.553917710094723,35.86772360257958,-0.06624472189868387
1731474157.2202988,-0.25269076228141785,0.49582356214523315,-9.967084884643555,-0.7895775674498693,1.1063039765413758,-0.011500905958596925,-28.710475735316656,36.06280367405156,-0.06672156884212323
1731474157.2702527,-0.29472479224205017,0.49913355708122253,-9.967273712158203,-0.7891860254054033,1.111977585332308,-0.012236722217735169,-28.86762905059227,36.25870366179213,-0.06720612144381172
1731474157.3201697,-0.2970694601535797,0.489962100982666,-10.00029182434082,-0.7886037396941848,1.1174235570472781,-0.013026639740933741,-29.025427081213053,36.45548921462283,-0.06769902328212574
1731474157.370167,-0.34497785568237305,0.48454904556274414,-9.985206604003906,-0.7878280380555733,1.1226238415056191,-0.01386478123859375,-29.184009631772856,36.65333888569012,-0.06820124867981465
1731474157.4200604,-0.34497785568237305,0.48454904556274414,-9.985206604003906,-0.786856271661418,1.1275610685542912,-0.014744561294753962,-29.342370997165407,36.85100143119131,-0.06871012071950189
1731474157.4700716,-0.3997398614883423,0.48361581563949585,-10.031452178955078,-0.7856863257070275,1.132218678288541,-0.015658915635254345,-29.501853659933168,37.05015627173002,-0.06923051100713593
1731474157.5199513,-0.34380197525024414,0.5006750226020813,-9.992836952209473,-0.7843170174518604,1.1365810796864215,-0.016600533004976718,-29.66565677934041,37.254806242410325,-0.06977379831550798
1731474157.570007,-0.40116724371910095,0.47793707251548767,-9.987176895141602,-0.7827484228661622,1.1406338204279007,-0.017562062297423544,-29.822144475028228,37.45041391626095,-0.07030164748185984
1731474157.6199002,-0.3695700168609619,0.49243950843811035,-9.979872703552246,-0.780982411759444,1.1443636797559447,-0.018536187763242926,-29.985129865727156,37.65424767118853,-0.07086112431252974
1731474157.6698487,-0.41193339228630066,0.5345649719238281,-9.984530448913574,-0.7790233481613625,1.1477587264647289,-0.019515652696131203,-30.143786863105884,37.85277283071106,-0.07141576722917471
1731474157.7197323,-0.39578092098236084,0.5249258279800415,-9.9964017868042,-0.7768784385666785,1.1508085170573021,-0.02049332862592803,-30.305440182593497,38.05515605182771,-0.07199158129023692
1731474157.7697887,-0.4148857295513153,0.5152393579483032,-10.009360313415527,-0.7745576074524338,1.1535043570555068,-0.021462336029379712,-30.467836601284628,38.25858273165993,-0.07258142767689743
1731474157.8206913,-0.38384121656417847,0.5252273082733154,-9.947656631469727,-0.7720731787778119,1.1558393959403226,-0.02241614652919192,-30.63881041043269,38.47287910412749,-0.07321530857816126
1731474157.8705866,-0.37471675872802734,0.512197732925415,-9.963825225830078,-0.7694394574496811,1.1578085830769487,-0.023348513550923822,-30.796150464725944,38.67020268773794,-0.07381077039492404
1731474157.9205194,-0.39332878589630127,0.548274040222168,-9.980907440185547,-0.7666722514268767,1.1594086374631707,-0.024253302594719146,-30.963048266136067,38.879636237696026,-0.07445560301976833
1731474157.970504,-0.3940364420413971,0.5331264734268188,-9.951216697692871,-0.7637884938708654,1.160638084849556,-0.025124463532923906,-31.124019248124398,39.0817547173417,-0.07509083548294118
1731474158.0204077,-0.3720216453075409,0.5273372530937195,-10.012054443359375,-0.7608059991488763,1.1614972974965838,-0.025956141042004055,-31.29113323585843,39.29171543206389,-0.07576456058443193
1731474158.070431,-0.36154696345329285,0.5203379988670349,-9.981355667114258,-0.7577431876883153,1.161988422818195,-0.026742834141349724,-31.45376671312638,39.49617462345749,-0.07643453890136627
1731474158.1203873,-0.33269548416137695,0.5211107134819031,-9.980409622192383,-0.7546186370780188,1.1621152572336397,-0.027479555715698486,-31.623628983631196,39.70985782806269,-0.07714975142545476
1731474158.170318,-0.3207956552505493,0.5135068893432617,-9.99845027923584,-0.7514504183814616,1.1618832400040089,-0.02816189736521109,-31.78543123936851,39.91353228045127,-0.07784601696385632
1731474158.2202368,-0.30687013268470764,0.5224953889846802,-9.994780540466309,-0.748255387246058,1.161299538398556,-0.028786054413333016,-31.95566189846489,40.12795500371162,-0.07859464116949022
1731474158.2701979,-0.3119085729122162,0.5182780623435974,-9.960308074951172,-0.7450487561784127,1.160373051744996,-0.029348852036976743,-32.118235846803806,40.33286694484987,-0.07932522688595965
1731474158.3202002,-0.3232634663581848,0.5220323204994202,-9.994431495666504,-0.741844034710127,1.1591143032431328,-0.029847673150440162,-32.29074365327711,40.550443253972865,-0.08011737659220088
1731474158.3702445,-0.28144803643226624,0.5371149778366089,-9.997028350830078,-0.7386531380121786,1.1575353080499826,-0.03028037799195905,-32.454305815174806,40.756873718956726,-0.08088469309223541
1731474158.4200966,-0.28144803643226624,0.5371149778366089,-9.997028350830078,-0.735486438121653,1.1556494784195226,-0.030645356242703793,-32.6222316739835,40.96895048924109,-0.08168905591714586
1731474158.4701083,-0.2963423728942871,0.5248386859893799,-9.973089218139648,-0.7323527365028302,1.1534715354636718,-0.030941584796945355,-32.7911265052279,41.18239302327231,-0.08251507659656904
1731474158.5199509,-0.2880183458328247,0.5108221173286438,-10.006240844726562,-0.7292593268864311,1.1510173348916415,-0.03116857083149586,-32.96001249137484,41.39596666163859,-0.08335815225296023
1731474158.5699735,-0.2980497181415558,0.49068212509155273,-9.973512649536133,-0.7262121779017688,1.148303578132348,-0.031326277621929126,-33.130196697862715,41.61132561384378,-0.08422499527123671
1731474158.6198955,-0.2980497181415558,0.49068212509155273,-9.973512649536133,-0.7232161228679325,1.1453474799686736,-0.03141506911689313,-33.30087369083796,41.82745238171303,-0.08511172429215023
1731474158.6698563,-0.3087119460105896,0.5085582733154297,-10.039146423339844,-0.7202750191291954,1.142166513576638,-0.031435653386654175,-33.471334153370385,42.043448399926895,-0.08601460220305975
1731474158.719787,-0.37044280767440796,0.5171928405761719,-9.983965873718262,-0.7173919242419663,1.1387783301510677,-0.03138911767266897,-33.642138420017055,42.260022967854646,-0.0869364814861337
1731474158.769825,-0.35450124740600586,0.50801682472229,-9.950888633728027,-0.7145693755335518,1.1352007986753416,-0.031276930675271875,-33.81357744354803,42.47754519454225,-0.08787890536467582
1731474158.8206687,-0.3457523584365845,0.5308553576469421,-10.02107048034668,-0.7118096919113922,1.1314520231839085,-0.031100747259880143,-33.98847465650062,42.6996013794481,-0.08885779128324905
1731474158.8708599,-0.3598632216453552,0.5240755081176758,-9.973990440368652,-0.709115094192051,1.1275503166153065,-0.030862281764361697,-34.16277586076771,42.92104637892499,-0.08985061871291329
1731474158.9206185,-0.37419551610946655,0.5006221532821655,-9.971975326538086,-0.7064877083815884,1.1235141447451835,-0.030563356824320865,-34.334003815261596,43.13872690477252,-0.09084244931259439
1731474158.970634,-0.3892771303653717,0.5268489718437195,-10.022506713867188,-0.703929648169682,1.1193619920168698,-0.03020591128715476,-34.50723025090086,43.35908770677032,-0.09186218252688261
1731474159.0204418,-0.42074161767959595,0.5047159194946289,-9.953629493713379,-0.7014431900761171,1.115112205879305,-0.02979200107558324,-34.68053932654466,43.579692495025434,-0.09289848125289488
1731474159.0705018,-0.4061630666255951,0.5313308238983154,-9.978107452392578,-0.699030960624181,1.1107829083455778,-0.029323792719351406,-34.8549024058348,43.80177729769915,-0.09395692346796579
1731474159.1203768,-0.4061630666255951,0.5313308238983154,-9.978107452392578,-0.696696027155266,1.1063919684001071,-0.028803455179158385,-35.02940874958879,44.02418166813136,-0.09503172600332783
1731474159.170345,-0.3965300917625427,0.502784788608551,-9.966509819030762,-0.694441821719025,1.1019569844473538,-0.028233090449596196,-35.20501216066684,44.24812070493564,-0.09612847885576062
1731474159.2203305,-0.38581791520118713,0.508468508720398,-9.955740928649902,-0.6922720232283142,1.0974951664326358,-0.027614763023536333,-35.38022200349311,44.47169226562556,-0.09723748963049565
1731474159.2702694,-0.3934820294380188,0.535594642162323,-9.982986450195312,-0.690190609074959,1.0930231282176868,-0.02695059349760061,-35.55592664485865,44.69602795571754,-0.09836389410564596
1731474159.3201983,-0.35386738181114197,0.5342658758163452,-9.970437049865723,-0.6882020121018497,1.0885567924743196,-0.026242943832914017,-35.73202896577431,44.921002648908186,-0.09950665488567348
1731474159.3701587,-0.3599652647972107,0.5136325359344482,-9.988588333129883,-0.6863110778820348,1.0841114284871454,-0.025494587502126458,-35.90890759682979,45.147099171321,-0.10066781915269157
1731474159.4200087,-0.32312655448913574,0.5253065824508667,-10.006949424743652,-0.6845227688966553,1.0797016362192355,-0.024708783058468547,-36.08891380689706,45.377325080110786,-0.10186268343852459
1731474159.4701254,-0.32851725816726685,0.5242536067962646,-9.958294868469238,-0.6828418223014239,1.075341262557905,-0.023889293781341765,-36.2646944002329,45.60227227074571,-0.10304174054431191
1731474159.5200732,-0.2989529073238373,0.5134327411651611,-9.978981018066406,-0.6812724686544465,1.0710433552980942,-0.023040293675646684,-36.44220106537025,45.82955215634213,-0.10424404956462126
1731474159.5699933,-0.2976040542125702,0.528435468673706,-10.035711288452148,-0.6798182094558287,1.0668201435336933,-0.02216622936742159,-36.62013484172678,46.057501477472805,-0.10546041440065435
1731474159.6201284,-0.2584826648235321,0.5214108228683472,-9.999695777893066,-0.6784816257453407,1.062683026391427,-0.021271876731226796,-36.799966555713254,46.28800451633861,-0.10670047815772973
1731474159.6698892,-0.29298895597457886,0.5123870372772217,-9.98195743560791,-0.6772642184818163,1.0586425773650712,-0.0203624488562909,-36.97831149486386,46.51672089333525,-0.10794031067599828
1731474159.7198591,-0.2805013358592987,0.5189118385314941,-9.997715950012207,-0.6761663723718729,1.0547085225231534,-0.01944346717413524,-37.15910277407965,46.74869311497257,-0.10920669160299207
1731474159.7697053,-0.25231388211250305,0.526025652885437,-9.983038902282715,-0.6751873203450247,1.0508897305404512,-0.01852051138447084,-37.337275320080245,46.97741967447362,-0.11046350394004012
1731474159.8196115,-0.2625800669193268,0.5331252813339233,-9.989421844482422,-0.6743247217293545,1.0471943140853306,-0.017599002241762692,-37.521375070741136,47.21387201339375,-0.11177062009488474
1731474159.870672,-0.25197145342826843,0.5226522088050842,-10.016423225402832,-0.6735740152582421,1.043629791489038,-0.016684033875325712,-37.702722322590446,47.446902765759056,-0.11306600480015402
1731474159.9206076,-0.2829984724521637,0.5082409381866455,-9.991646766662598,-0.6729282089962739,1.0402031426420923,-0.015780343279899363,-37.88411329984061,47.680100114604464,-0.11436883603383846
1731474159.9705005,-0.28480449318885803,0.5353925824165344,-9.947487831115723,-0.6723782289367117,1.0369207385155954,-0.014892315408264398,-38.06559201117788,47.913518384181515,-0.115678833494304
1731474160.0204332,-0.2747306227684021,0.5366898775100708,-10.02096939086914,-0.6719134322229945,1.0337883089257818,-0.014023863440198361,-38.26410885390442,48.16897226335397,-0.11711862011343954
1731474160.0705328,-0.2890772521495819,0.5572153329849243,-9.990310668945312,-0.6715220192621544,1.030811035938061,-0.01317838751809695,-38.43077487264032,48.38353584424125,-0.11833239595337736
1731474160.120394,-0.30816128849983215,0.5108066201210022,-9.969518661499023,-0.6711913636576645,1.0279936499413656,-0.012358896242407153,-38.613696771782806,48.61912536743112,-0.11966924184741674
1731474160.1703773,-0.3075338900089264,0.5318730473518372,-9.989680290222168,-0.6709083707130401,1.0253403797447571,-0.011568028612949754,-38.7974096003585,48.85583501383839,-0.12101627825864765
1731474160.220353,-0.3376113772392273,0.514896035194397,-9.994827270507812,-0.6706598536540886,1.0228548048502226,-0.01080799349005171,-38.9817934178885,49.09350936309322,-0.12237216349705751
1731474160.2703774,-0.34983736276626587,0.5286862254142761,-9.962014198303223,-0.6704328882050858,1.0205397648663879,-0.01008059631211198,-39.166353015398286,49.33150877745942,-0.12373279216063576
1731474160.3201654,-0.3544542193412781,0.5517596006393433,-9.99022388458252,-0.6702152372304986,1.0183974068215145,-0.009387252192919367,-39.34993974304905,49.568349513034704,-0.1250892128820697
1731474160.370143,-0.3516252934932709,0.5374683141708374,-9.990341186523438,-0.6699959474179786,1.016429388898648,-0.008728953356146424,-39.53512082607944,49.80734221055206,-0.1264599674741105
1731474160.4202018,-0.35329899191856384,0.519231379032135,-9.9598970413208,-0.6697659296732276,1.0146370906243996,-0.008106283269070529,-39.7213466470007,50.04777793371755,-0.1278406245479746
1731474160.4702244,-0.3345542550086975,0.5284436941146851,-9.966591835021973,-0.6695181652227644,1.0130216150924989,-0.007519402948659338,-39.909216971975916,50.29043156189524,-0.12923528013234975
1731474160.5200076,-0.3611922562122345,0.5078816413879395,-10.020652770996094,-0.6692475424889774,1.0115836463371575,-0.006968028369927252,-40.09401103398833,50.52920330918983,-0.1306085083021761
1731474160.570008,-0.3498118817806244,0.5143244862556458,-10.008946418762207,-0.6689506354306428,1.010323324799001,-0.006451599082573716,-40.28048575205036,50.770237309688405,-0.131995301355339
1731474160.6198819,-0.33152875304222107,0.5191381573677063,-9.96742057800293,-0.6686255298579108,1.0092401757956433,-0.005969522676798391,-40.46763988708661,51.01224001724522,-0.13338791737418848
1731474160.6699362,-0.3189314603805542,0.520063042640686,-9.994635581970215,-0.6682715793338091,1.0083331079053308,-0.005521186112934616,-40.65578943911155,51.25562030157738,-0.1347884230953448
1731474160.7198498,-0.31146132946014404,0.49782794713974,-9.991044998168945,-0.6678890754222878,1.0076004439179673,-0.005105830269969899,-40.84457637087592,51.49991538210803,-0.13619388708538005
1731474160.7696915,-0.27925825119018555,0.5191643238067627,-9.976333618164062,-0.6674789246243634,1.0070399060340889,-0.004722528844124846,-41.03106260685564,51.7413214554796,-0.13758218913554213
1731474160.8196826,-0.26903486251831055,0.5131709575653076,-9.989280700683594,-0.6670423393803862,1.0066486011910412,-0.004370211622263563,-41.22012279033975,51.98614838779667,-0.13898939079003014
1731474160.8696597,-0.2614664137363434,0.5186227560043335,-10.001703262329102,-0.6665804598621374,1.0064230457801768,-0.004047665871022485,-41.40967350180161,52.2316999654805,-0.14039977194291248
1731474160.9207711,-0.2740640342235565,0.5009732246398926,-9.956851959228516,-0.6660938448420148,1.0063591129452085,-0.0037535366956297695,-41.60528679141297,52.48519882054938,-0.1418545703039991
1731474160.9705622,-0.274027019739151,0.5083372592926025,-10.000702857971191,-0.6655820118619915,1.0064518782802199,-0.0034862692649338827,-41.793588898178356,52.72931257445387,-0.14325416472563354
1731474161.02048,-0.2422710508108139,0.5382094979286194,-10.02502155303955,-0.6650432915112395,1.0066955608992654,-0.0032440988091799747,-41.98499075133702,52.97753483674764,-0.14467581100681326
1731474161.070523,-0.2966766655445099,0.5066756010055542,-9.966814994812012,-0.6644749403463567,1.0070836621687136,-0.003025203820868558,-42.175358571599105,53.224506169975726,-0.146088655633987
1731474161.1204453,-0.24885393679141998,0.5543649792671204,-9.974495887756348,-0.6638733548417,1.0076091645969982,-0.002827772426914555,-42.367513746454414,53.47388757430382,-0.14751351052059863
1731474161.1704516,-0.2737577557563782,0.5325854420661926,-10.017370223999023,-0.6632343030356562,1.0082647036563936,-0.0026498923704973113,-42.558751131757106,53.72216917583074,-0.14893020276266342
1731474161.2202854,-0.2737577557563782,0.5325854420661926,-10.017370223999023,-0.6625531007831367,1.0090427167406453,-0.002489588721254106,-42.751098224431146,53.97198378206125,-0.15035365624327182
1731474161.2703397,-0.3137006163597107,0.5183002948760986,-9.986680030822754,-0.6618248186000826,1.0099354951075359,-0.002345028244483588,-42.943320649218904,54.22172942659819,-0.15177464279537278
1731474161.3202085,-0.3137006163597107,0.5183002948760986,-9.986680030822754,-0.6610446066457905,1.0109351329950407,-0.002214563769835064,-43.137033226273864,54.47350576909861,-0.15320501054525051
1731474161.370244,-0.3098906874656677,0.528404951095581,-10.000290870666504,-0.6602080172916788,1.01203348917568,-0.0020966049538662206,-43.33014511558593,54.72459661027178,-0.15462924648235302
1731474161.4202275,-0.33454248309135437,0.49304723739624023,-9.936529159545898,-0.6593112607494682,1.0132221782473907,-0.001989563257140896,-43.525217495117516,54.97833390886351,-0.15606616581617067
1731474161.470167,-0.3619610667228699,0.5299280881881714,-10.047443389892578,-0.6583515906260864,1.0144924953552423,-0.0018920166463725222,-43.71834603612104,55.229640076068435,-0.15748696095637973
1731474161.5199888,-0.36124423146247864,0.5293492674827576,-9.995766639709473,-0.657327840769809,1.0158353441661885,-0.0018031062145070858,-43.91290397969841,55.48290511363565,-0.15891641301694515
1731474161.570011,-0.3769206404685974,0.5511707663536072,-9.91990852355957,-0.6562407593214848,1.0172413513432055,-0.0017228189139589195,-44.10796885385638,55.73693076165837,-0.16034768055176318
1731474161.6198852,-0.3783719837665558,0.543317973613739,-9.976374626159668,-0.6550930024263881,1.018701111216824,-0.001651755146545616,-44.303665373469904,55.99188148304518,-0.161781631805617
1731474161.6698837,-0.24439649283885956,0.7247949242591858,-9.980547904968262,-0.6538888563542273,1.0202055359858055,-0.0015907358895836036,-44.49940259312387,56.2469891658527,-0.1632139030685724
1731474161.7198694,0.5133981704711914,1.6614665985107422,-9.919093132019043,-0.6526328899764696,1.0217473995337425,-0.0015406994741337355,-44.695788736553155,56.50304836948992,-0.1646489177760653
1731474161.769799,0.2999531030654907,1.1952157020568848,-10.016883850097656,-0.6513266701731648,1.0233250162943208,-0.0015026910158228244,-44.89233134781103,56.75941900708744,-0.16608305603908716
1731474161.8197489,0.4892212450504303,1.505788803100586,-9.938413619995117,-0.6499652771973247,1.0249456771317313,-0.001477842478223179,-45.08960364941482,57.016850936812276,-0.16752048588598326
1731474161.8706505,-0.516516387462616,-0.022402653470635414,-9.965340614318848,-0.6485369287192979,1.0266249120540716,-0.001467390709455307,-45.291031908059,57.27982092738307,-0.168986105004885
1731474161.9206002,-0.9550522565841675,-0.21024510264396667,-10.16689682006836,-0.6470272961618445,1.0283801748866082,-0.001472789385456208,-45.4890432448228,57.53844458450107,-0.17042481842061477
1731474161.9705899,-0.7593311667442322,-0.04050649330019951,-10.03207015991211,-0.6454268485688935,1.030221727508351,-0.001496117619151262,-45.68745287936453,57.79770407483776,-0.17186442197763963
1731474162.0203743,-0.5015047788619995,0.2697582244873047,-10.028075218200684,-0.6437367178758104,1.032146273121442,-0.0015402305470612716,-45.88424714012268,58.05496887705042,-0.17329036340789228
1731474162.0706327,-0.6376875638961792,0.10086476802825928,-9.939265251159668,-0.6419700572983333,1.0341359274282027,-0.0016080069368147314,-46.08575489622252,58.31851730257737,-0.17474851032186425
1731474162.1203902,-0.4812456965446472,0.29825708270072937,-9.977543830871582,-0.640150307460623,1.0361603448922811,-0.0017013427486936206,-46.28580101837393,58.580277946904246,-0.17619420134180855
1731474162.1703827,-0.5795964598655701,0.24074093997478485,-9.958183288574219,-0.6383089506303821,1.038179460154427,-0.0018206807909573513,-46.48404815616866,58.839808362756564,-0.17762512897454277
1731474162.2203078,-0.508014976978302,0.46040502190589905,-9.957934379577637,-0.6364836535342675,1.0401461467676194,-0.001965022320492959,-46.685280672639124,59.10337501011357,-0.17907591230742778
1731474162.2702415,-0.508804440498352,0.4490143060684204,-9.982624053955078,-0.634716724394162,1.0420088874704014,-0.0021321155092426675,-46.88546169823417,59.36569428423525,-0.18051753763049969
1731474162.320172,-0.48865872621536255,0.4541880786418915,-9.978496551513672,-0.6330536997921425,1.0437142165968685,-0.002318705359119411,-47.086457940452604,59.62921385315868,-0.18196357834344884
1731474162.370213,-0.5410983562469482,0.4174778163433075,-9.919493675231934,-0.6315420766452752,1.0452083931286218,-0.002520758026351334,-47.28848362491273,59.894217924100474,-0.1834156929862135
1731474162.4201007,-0.47556886076927185,0.47924375534057617,-9.938119888305664,-0.6302303319789111,1.046438303989527,-0.002733486731509555,-47.4906829750211,60.159586367651535,-0.18486786231391988
1731474162.47022,-0.47460830211639404,0.529241681098938,-10.030539512634277,-0.6291670632334997,1.0473522271869204,-0.002951353827551848,-47.69321962934252,60.42553530850731,-0.18632140395267702
1731474162.5199964,-0.4850676357746124,0.5224998593330383,-9.974165916442871,-0.6283998273784686,1.0479013050252117,-0.003168463749075233,-47.895631745190336,60.691458926023955,-0.18777314726683372
1731474162.5699408,-0.48955443501472473,0.4771479666233063,-9.996931076049805,-0.6279734222017174,1.0480423249975992,-0.0033792241770972636,-48.09821798449739,60.957749547148204,-0.1892253747516623
1731474162.6199024,-0.4665283262729645,0.4885329604148865,-9.979948997497559,-0.6279280789319432,1.0477407063371156,-0.0035787923349693634,-48.30243702857585,61.22632573485101,-0.1906886668454028
1731474162.669962,-0.46965348720550537,0.5105751752853394,-9.998185157775879,-0.6282984393573754,1.0469717352210244,-0.0037631905067615477,-48.50692822450438,61.495398718080935,-0.19215338833398496
1731474162.7198188,-0.4509274959564209,0.5246589779853821,-10.004263877868652,-0.6291133835814705,1.0457201440439359,-0.003929292132014825,-48.71072292505674,61.763691594094496,-0.19361271194514973
1731474162.7698064,-0.4414564073085785,0.5083518624305725,-9.974061965942383,-0.6303961434708569,1.043979320551812,-0.004074791563573502,-48.91512292634154,62.03291549111482,-0.195076054496103
1731474162.8197534,-0.41812509298324585,0.5166147947311401,-9.975350379943848,-0.6321644194514948,1.0417505018526763,-0.004198093309867153,-49.12038422110637,62.303405764274004,-0.19654532420285933
1731474162.8696876,-0.38708367943763733,0.5227304100990295,-9.974908828735352,-0.6344304675409258,1.0390419050611124,-0.004298114668589097,-49.32545702737039,62.57377573073285,-0.19801306729320414
1731474162.9196005,-0.36882284283638,0.5231413841247559,-9.979649543762207,-0.6372011476337872,1.0358679102570743,-0.004374139881632835,-49.53151602831544,62.84557019677716,-0.19948773492081695
1731474162.970591,-0.3273898661136627,0.5379171371459961,-10.020581245422363,-0.6404779607397044,1.03224833253524,-0.004425815080424227,-49.7431321459971,63.124818672584865,-0.20100206086651667
1731474163.0204976,-0.3707225024700165,0.505232036113739,-9.976547241210938,-0.6442571590657709,1.028207725792223,-0.004453243903770663,-49.94898593554067,63.39657788587752,-0.20247505279603883
1731474163.070438,-0.3476724922657013,0.5362069010734558,-9.949875831604004,-0.648529933711761,1.0237746801357575,-0.00445700760757796,-50.15518957063248,63.66890574412873,-0.20395044280233393
1731474163.1203568,-0.3835640251636505,0.5246970653533936,-9.991329193115234,-0.6532824625959165,1.018981183899863,-0.004438042099221334,-50.3627363181451,63.94310812668759,-0.20543531216748206
1731474163.1703653,-0.3614824414253235,0.5287243723869324,-9.99287223815918,-0.6584958519211919,1.0138620989957627,-0.004397602454007808,-50.57052864102742,64.21772839190483,-0.206921767264296
1731474163.2202575,-0.377625972032547,0.5039097666740417,-9.963214874267578,-0.6641463806576622,1.0084546276091366,-0.004337366707091358,-50.77846488978658,64.49262417178207,-0.20840902600517336
1731474163.2702463,-0.3766827881336212,0.5053097605705261,-10.006082534790039,-0.6702061061498114,1.0027976849342637,-0.004259450941605158,-50.98786676150026,64.76953493002104,-0.20990647092476264
1731474163.3201778,-0.37935033440589905,0.516689121723175,-9.970401763916016,-0.6766435556023565,0.9969312800551136,-0.004166333623713702,-51.19736721552313,65.04664453884509,-0.21140424327127824
1731474163.3702471,-0.40080633759498596,0.4964871406555176,-10.002296447753906,-0.6834243916390185,0.9908960161043576,-0.004060807174659206,-51.406582572476474,65.32343585000125,-0.21289951158052733
1731474163.4201424,-0.38300633430480957,0.5083088278770447,-10.015450477600098,-0.6905120515693053,0.9847326750252541,-0.003945966811283353,-51.61696842268162,65.60182505671295,-0.21440257889014372
1731474163.470025,-0.443865567445755,0.4779611825942993,-10.014248847961426,-0.6978683622596885,0.9784818074713899,-0.003825262637720256,-51.826836998792054,65.8795689970859,-0.21590128294680305
1731474163.5200374,-0.3783123791217804,0.5307408571243286,-9.943964958190918,-0.7054541280899983,0.9721833564608768,-0.003702495209737595,-52.03785215018214,66.15885947432498,-0.21740739731387362
1731474163.569949,-0.4149475693702698,0.529784619808197,-9.995633125305176,-0.7132295991756061,0.965876432641809,-0.0035815825986491,-52.24884821040845,66.43814347592392,-0.21891249087158718
1731474163.6199312,-0.4006003737449646,0.5575022101402283,-9.984058380126953,-0.7211548308185327,0.9595992881235043,-0.0034662688992397658,-52.46114269330743,66.71915452079215,-0.2204258502713788
1731474163.6698508,-0.4396592080593109,0.5405032634735107,-9.956144332885742,-0.7291901866981325,0.9533893734027418,-0.003359938876227891,-52.67268383997394,66.99916628361655,-0.2219327478515328
1731474163.719805,-0.4295702874660492,0.5543187260627747,-9.9859037399292,-0.7372970053794435,0.9472833139708488,-0.0032654298909431064,-52.88574790123963,67.28118123723766,-0.22344930052587061
1731474163.7697442,-0.42668965458869934,0.5741111636161804,-9.961564064025879,-0.7454381068055748,0.9413167691727662,-0.0031848914170293755,-53.0985809132505,67.56286733549456,-0.22496293038169696
1731474163.8196783,-0.4360142648220062,0.5671287775039673,-9.956544876098633,-0.7535780006934875,0.9355242725529016,-0.0031197831581009847,-53.31208113092377,67.8454031211933,-0.22647994857431622
1731474163.8696399,-0.4315682351589203,0.557338535785675,-9.982433319091797,-0.7616829577336559,0.929939072298957,-0.0030709096163125697,-53.52694656676511,68.12970173835906,-0.22800523243336038
1731474163.9195507,-0.42473089694976807,0.5397765636444092,-10.009066581726074,-0.7697210647237552,0.9245928768229835,-0.003038529966845359,-53.74088559990451,68.41272117094606,-0.2295224585545487
1731474163.9695463,-0.42673540115356445,0.5290296673774719,-9.97465991973877,-0.777662244349573,0.9195155078210395,-0.003022592803871989,-53.95578081139261,68.69694238667198,-0.23104493718183328
1731474164.0205133,-0.41879597306251526,0.5388911366462708,-9.974834442138672,-0.7854782400600234,0.9147345744707684,-0.0030228830488483664,-54.1765220936872,68.98882021950854,-0.23260720818681857
1731474164.070491,-0.38974595069885254,0.5596628785133362,-10.005626678466797,-0.7931425714167837,0.9102752936013132,-0.0030390016666165267,-54.39189548902151,69.27351792209684,-0.23412988277864183
1731474164.1204576,-0.38453778624534607,0.5208667516708374,-9.979079246520996,-0.8006304138561228,0.9061604610883695,-0.0030703769293644084,-54.60921608986538,69.56069866245686,-0.23566470859553684
1731474164.1704335,-0.3518224358558655,0.524154782295227,-9.996140480041504,-0.8079183691332303,0.902410371476684,-0.0031163329316100385,-54.82538379223102,69.84625742159946,-0.2371897850351792
1731474164.2203336,-0.34355854988098145,0.5191760063171387,-10.006608963012695,-0.8149841051037742,0.8990425535777069,-0.003176099410146936,-55.04330638699663,70.13402751887395,-0.2387256326768074
1731474164.270315,-0.3270731568336487,0.5440074801445007,-9.949302673339844,-0.821805964612119,0.8960715236858858,-0.0032487716972196476,-55.260928414558364,70.4212867016746,-0.2402577711690029
1731474164.3202639,-0.3096349239349365,0.5479848384857178,-10.00139331817627,-0.8283627531871571,0.8935088000327294,-0.0033332248027280013,-55.4800938199688,70.71046152019315,-0.2417991999375645
1731474164.3701947,-0.3083556592464447,0.5252760648727417,-10.021833419799805,-0.8346337308640953,0.8913630986054839,-0.0034280910835215025,-55.698288051336796,70.998227865783,-0.24333226619686993
1731474164.4201214,-0.32990550994873047,0.5256478190422058,-9.975671768188477,-0.8405987256341911,0.8896404643073904,-0.0035319223987125637,-55.91922416039796,71.28947576819537,-0.24488308635070727
1731474164.4701505,-0.3092363774776459,0.5399481058120728,-9.969268798828125,-0.8462383594011825,0.8883443084918106,-0.0036432874060226264,-56.13875278241867,71.57872940642292,-0.2464225732328317
1731474164.520042,-0.2887982428073883,0.5596032738685608,-9.972800254821777,-0.8515342748293053,0.8874755292927485,-0.0037606319592327036,-56.359117346948565,71.8689411260962,-0.2479665228305555
1731474164.5699935,-0.3595009446144104,0.7189980745315552,-9.982955932617188,-0.8564692827861409,0.8870329164164653,-0.0038821511488472855,-56.58016676720418,72.15990689863519,-0.24951392423964874
1731474164.6199439,-0.6427477598190308,1.415651559829712,-9.925313949584961,-0.8610278770447071,0.887014599390022,-0.0040057842539220545,-56.80204617546741,72.45181326776779,-0.2510658451295813
1731474164.6699345,-0.6165494918823242,0.5551245808601379,-9.866538047790527,-0.8651976051441189,0.8874205963399029,-0.004129077190931427,-57.02452930095296,72.74435871593751,-0.2526207578062772
1731474164.719879,-1.4786083698272705,0.4926488995552063,-10.089213371276855,-0.8689723793749125,0.8882534434038609,-0.004248904424436851,-57.24709874051522,73.03686044329116,-0.25417510782742
1731474164.7698503,-0.5003513693809509,0.51936936378479,-9.853687286376953,-0.8723589719632603,0.8895152158284613,-0.004361348148507402,-57.470950259402606,73.33088733945833,-0.2557373008858425
1731474164.8198128,0.04512631148099899,0.05102386325597763,-10.057523727416992,-0.8753820392178386,0.8912040060870776,-0.004461640820175094,-57.69461809373796,73.62451242367774,-0.2572971600690562
1731474164.869673,0.020476045086979866,0.24266284704208374,-10.213884353637695,-0.8780811948187686,0.8933117989203904,-0.004544373674341662,-57.91885585740976,73.9187246202678,-0.2588599906460484
1731474164.9197352,-0.06659018248319626,0.2546806335449219,-9.995284080505371,-0.880503911468822,0.895823405172748,-0.004604402895454572,-58.144694241646555,74.21487443779735,-0.26043300244608963
1731474164.9696233,-0.22866807878017426,0.2495405673980713,-9.991610527038574,-0.8827016331920168,0.89871687335291,-0.004637459230609669,-58.3695279075966,74.50954573974725,-0.2619980708603799
1731474165.0195842,-0.17199070751667023,0.28089892864227295,-9.977840423583984,-0.8847292488179855,0.9019648581709122,-0.004639623663326879,-58.59640577169255,74.80673475469783,-0.26357642165417794
1731474165.0705101,-0.17834487557411194,0.4154818058013916,-9.964560508728027,-0.8866449852293158,0.9055359369750305,-0.00460661353513243,-58.826458634184746,75.10791886482262,-0.2651758771547333
1731474165.1204085,-0.16542883217334747,0.4964807629585266,-9.969206809997559,-0.8885095995144647,0.9093960865234751,-0.004533583171540769,-59.05391768569641,75.40554691959775,-0.26675629143377605
1731474165.1703877,-0.23587629199028015,0.5165247917175293,-9.943984985351562,-0.890385254706186,0.9135104082377681,-0.004415161989344647,-59.28270594706675,75.70475564368977,-0.268344869386856
1731474165.220306,-0.22092512249946594,0.4952094256877899,-9.973434448242188,-0.8923346612794159,0.9178444781802728,-0.0042455280924461125,-59.50963415660581,76.00137688823982,-0.2699193809391697
1731474165.2703137,-0.2323492467403412,0.5198451280593872,-9.967941284179688,-0.8944193381985711,0.9223649923912652,-0.004018658230953262,-59.738597324253455,76.30050395755373,-0.27150672561527184
1731474165.3203123,-0.25136658549308777,0.5174309611320496,-9.953958511352539,-0.8966946782331809,0.927040041621062,-0.0037289438492966076,-59.968265770586214,76.60039915253245,-0.27309750073985556
1731474165.37022,-0.22930991649627686,0.5732638835906982,-9.989588737487793,-0.8992034609399223,0.9318393922223556,-0.003371926245766644,-60.19850562117217,76.90088851609534,-0.27469056508551765
1731474165.4201612,-0.27895158529281616,0.5520592331886292,-10.02342414855957,-0.9019726880801134,0.9367347934317745,-0.002944746557871314,-60.42865479100443,77.20110945704292,-0.2762810892858773
1731474165.4701998,-0.257144570350647,0.5125899314880371,-9.987648010253906,-0.9050144525131327,0.9417001206458778,-0.0024463205393925828,-60.66015872118216,77.50294807839707,-0.2778787586550145
1731474165.520094,-0.27159884572029114,0.5109673142433167,-10.002777099609375,-0.9083279866844733,0.9467111990928572,-0.0018773145933225707,-60.89259076635838,77.80584752848071,-0.27948026383253305
1731474165.5700138,-0.2805241048336029,0.5076335072517395,-10.030702590942383,-0.9119015144107733,0.9517454554783966,-0.001239962124161567,-61.12452130866956,78.10794577956764,-0.28107537589936127
1731474165.6199641,-0.29612553119659424,0.549163281917572,-9.971040725708008,-0.9157139481662775,0.9567817191195884,-0.0005378782969730446,-61.35710299803707,78.41074528354366,-0.2826716078311691
1731474165.6699429,-0.11691132932901382,0.7504041194915771,-9.982314109802246,-0.9197363364374707,0.9618004636173205,0.00022417675257765382,-61.58979499662499,78.7135422311568,-0.2842647851574893
1731474165.7198658,0.6160908341407776,1.6543776988983154,-9.985828399658203,-0.9239320521384096,0.9667854787197729,0.0010406471369564928,-61.824261962694216,79.01850189411674,-0.2858657755233447
1731474165.7698388,0.2742922902107239,1.1484307050704956,-9.935419082641602,-0.9282550086922032,0.9717275381757762,0.0019054868776558914,-62.05833356472488,79.32280085518347,-0.28745921285433024
1731474165.8198068,0.5598775744438171,1.5156831741333008,-9.900559425354004,-0.9326471937901621,0.9766284481814007,0.0028124129259832864,-62.294620857132536,79.62983246622396,-0.2890622750447426
1731474165.8697546,-0.5117053389549255,-0.020943261682987213,-10.053956031799316,-0.9370372122227411,0.9815035285751754,0.0037549739954343877,-62.52923124464,79.93453876560905,-0.29064798442659545
1731474165.9196506,-0.9748305082321167,-0.22038394212722778,-10.095508575439453,-0.9413421437541567,0.9863799658142537,0.0047260340291902765,-62.765729431418514,80.24154991951907,-0.2922398542506364
1731474165.9696872,-0.8960928916931152,-0.2285120189189911,-10.036360740661621,-0.9454740863363684,0.9912900514832262,0.005716937168049959,-63.0026216441566,80.54892538269928,-0.2938271545501411
1731474166.0196366,-0.5056830048561096,0.34094709157943726,-10.030682563781738,-0.9493467642992153,0.9962650365917942,0.00671723026527221,-63.24080767579225,80.857832039237,-0.2954152500863765
1731474166.069539,-0.6234802007675171,0.0900634303689003,-9.969280242919922,-0.9528773298745865,1.0013344805814897,0.007715149318490103,-63.48062716072277,81.16870889457702,-0.297005672521342
1731474166.120549,-0.49311283230781555,0.2666221857070923,-9.95162296295166,-0.9559853327248838,1.006528139363685,0.008698390151487235,-63.7229701092635,81.48270746156106,-0.2986035169458046
1731474166.1704626,-0.5917204022407532,0.2500773072242737,-9.959190368652344,-0.958592315998621,1.0118767339111991,0.009654795156596566,-63.96062904842013,81.79049322395322,-0.30016084375741237
1731474166.2203753,-0.5344301462173462,0.44564783573150635,-9.94918155670166,-0.9606223937927747,1.0174119421685934,0.010572783270897394,-64.20182292924882,82.10271400531023,-0.30173105095853275
1731474166.2703657,-0.5411988496780396,0.44175106287002563,-10.002894401550293,-0.9620030589073643,1.023166700660787,0.011441477928427285,-64.44128824174635,82.41255787507097,-0.3032792740671217
1731474166.3203707,-0.4982243478298187,0.440775603055954,-9.996415138244629,-0.9626658239563473,1.029175542080742,0.012250604001439989,-64.68414069187438,82.72664653204369,-0.30483802263165893
1731474166.3701982,-0.5401157140731812,0.4218352735042572,-9.947385787963867,-0.9625476434683786,1.0354733636589553,0.012990393518417513,-64.92326239447436,83.03577903962784,-0.3063612428376599
1731474166.4201555,-0.5067511796951294,0.471881628036499,-9.999462127685547,-0.9615951269586696,1.0420908915772797,0.013651805771421898,-65.16582944920293,83.3492382365743,-0.30789431811463563
1731474166.4702005,-0.4705067574977875,0.552297055721283,-9.99241828918457,-0.9597700798427063,1.0490489043971793,0.014226874020148599,-65.40915025611089,83.663548871645,-0.30941963189606697
1731474166.520082,-0.46714261174201965,0.5296739935874939,-9.957019805908203,-0.9570519528119147,1.0563557271343995,0.014708808305100508,-65.6524273992476,83.97768752031509,-0.31093190252460906
1731474166.5699782,-0.5027879476547241,0.7166739106178284,-10.007081985473633,-0.9534367094982875,1.064008408027228,0.015091966187859376,-65.89581248829835,84.29185793849061,-0.3124319045046415
1731474166.619982,-0.7795722484588623,1.4734464883804321,-9.913012504577637,-0.9489351483452386,1.0719957144285126,0.015371873487887454,-66.1409292003329,84.60816376852473,-0.31392940105746536
1731474166.6698933,-0.6510591506958008,0.6669668555259705,-9.871582984924316,-0.9435721334415057,1.080302207402041,0.015545396816046397,-66.38597036957101,84.92428173426399,-0.31541319111115984
1731474166.7198677,-0.7435884475708008,0.8559263348579407,-9.995081901550293,-0.9373859807536593,1.0889107632349684,0.015611035034648611,-66.6318267905903,85.24137118564416,-0.3168886512959287
1731474166.7698317,-1.0246074199676514,0.7830585241317749,-10.052181243896484,-0.9304274441191859,1.0978018901860829,0.015568773554200752,-66.87839934484806,85.55931486476233,-0.3183551748501354
1731474166.819787,-0.6633448600769043,-0.09543535858392715,-9.869963645935059,-0.9227587374027768,1.1069517799305506,0.015419449078775396,-67.12512266492985,85.87739536828994,-0.31980950942681385
1731474166.869679,0.09758414328098297,0.14885461330413818,-10.152352333068848,-0.914451318592025,1.116329591575079,0.015164361843549993,-67.37230165418903,86.19601814445014,-0.32125365049039256
1731474166.9196308,-0.10657283663749695,0.15302258729934692,-10.094240188598633,-0.9055803195655505,1.125894435314845,0.01480509041560295,-67.62054394974629,86.51597917703225,-0.3226913415707773
1731474166.9695954,-0.24901315569877625,0.22527316212654114,-9.930318832397461,-0.8962176900216838,1.13559435180465,0.014343461488242327,-67.86884778723102,86.83600058304165,-0.32411706921562533
1731474167.0195537,-0.2635975480079651,0.19347549974918365,-10.03125,-0.8864284569163252,1.1453672938204242,0.013782308710094043,-68.11866695810407,87.15796982896896,-0.3255395016652425
1731474167.0694854,-0.25550612807273865,0.27125734090805054,-9.987833023071289,-0.8762706784257539,1.1551428371998465,0.01312639479846428,-68.36788419601807,87.47917222055057,-0.32694701036056956
1731474167.1204903,-0.23449304699897766,0.3860339820384979,-9.952412605285645,-0.865796492405398,1.164844395006957,0.012382543347637194,-68.6245177395286,87.809957348248,-0.32838497757582585
1731474167.1704047,-0.27211546897888184,0.46041738986968994,-9.987509727478027,-0.8550528106057359,1.1743918330341363,0.011559420282168446,-68.87534862876531,88.13330136408986,-0.3297798255580856
1731474167.220449,-0.22294831275939941,0.4955655038356781,-9.976760864257812,-0.8440818143924348,1.183704100547743,0.010667347599874942,-69.12693897511691,88.45767676132337,-0.33116900882119943
1731474167.2703028,-0.29952070116996765,0.47761327028274536,-9.947431564331055,-0.8329214617923911,1.1927013493380982,0.009718022463515406,-69.37827747459667,88.78179404450286,-0.3325475851085985
1731474167.3202782,-0.2390664666891098,0.5071632862091064,-9.96912670135498,-0.821606009604426,1.201306296761034,0.008724263613098247,-69.63089921148529,89.10764735000548,-0.3339246199898159
1731474167.3702247,-0.2619829773902893,0.5499357581138611,-9.986207962036133,-0.8101664846522164,1.2094451209853487,0.007699798077209569,-69.88435341348523,89.43467017443548,-0.3352982708136346
1731474167.4201815,-0.29614388942718506,0.557115912437439,-10.006966590881348,-0.7986310514982915,1.217048273962791,0.006658907778457729,-70.13747716247657,89.76137588271556,-0.33666294016570497
