Timestamp,IMU_Linear_Acc_X,IMU_Linear_Acc_Y,IMU_Linear_Acc_Z,Filtered_X,Filtered_Y,Filtered_Z,Pose_X,Pose_Y,Pose_Z
1731474136.25901,-0.34130141139030457,0.4240894317626953,-9.983531951904297,-7.660788450903677e-05,-0.0003230199669267672,0.00019136901747492216,2.4492900868600875,8.122177679677709,0.8775228445622969
1731474136.3090398,-0.34130141139030457,0.4240894317626953,-9.983531951904297,-8.945532206439263e-05,-0.00039391618953339014,0.00023458739485014062,2.449483039266096,8.122640600379615,0.8775643685156971
1731474136.3588867,-0.27416113018989563,0.43637028336524963,-9.988398551940918,-0.0001179280990394524,-0.0005602630657287351,0.0003375736544283128,2.4496789688349634,8.165297677459158,0.877989377561939
1731474136.408835,-0.27416113018989563,0.43637028336524963,-9.988398551940918,-0.0001340829653487592,-0.0006551182938935163,0.0003975151340874047,2.449887411287105,8.166463350956853,0.8780282345857157
1731474136.408835,-0.46316227316856384,0.3740302622318268,-9.99268913269043,-0.00015255255515224636,-0.0007572412074720735,0.00046306067018573856,2.4499503328414307,8.166815227414288,0.8780399642486046
1731474136.4588637,-0.7430660724639893,0.23497319221496582,-10.004386901855469,-0.0001738988630522496,-0.0008658746359100102,0.0005340510317562879,2.453510201358924,8.186723107734434,0.8787036568840083
1731474136.5088224,-0.1835746020078659,0.5284029841423035,-9.957141876220703,-0.00019692785483800806,-0.0009794085799504078,0.0006102037379512439,2.4647651199798797,8.249664270460006,0.8808030248071781
1731474136.5587819,-0.1835746020078659,0.5284029841423035,-9.957141876220703,-0.00021879116548066219,-0.00109560528928166,0.000691222358994655,2.4760497127989143,8.312771693742725,0.8829096544958189
1731474136.5587819,-0.32869449257850647,0.37620213627815247,-10.047292709350586,-0.00023698157198491902,-0.0012126075883914535,0.0007769260207348323,2.4761442858054212,8.31330058070673,0.882927317332591
1731474136.6086814,-0.3212164640426636,0.5026140809059143,-9.98022747039795,-0.0002505580876907908,-0.0013293978291210053,0.0008671256798921338,2.4872825420876237,8.375589935610103,0.8834682737050451
1731474136.6586556,-0.3097893297672272,0.373074471950531,-9.942727088928223,-0.0002596801868995225,-0.001445462609390674,0.0009614549112974907,2.498547036390239,8.43858531297393,0.8852178577161367
1731474136.7085814,-0.3097893297672272,0.373074471950531,-9.942727088928223,-0.00026500150801318697,-0.0015603903084894042,0.001059569772539487,2.5097916251129653,8.501469372175091,0.885016304040506
1731474136.7085814,-0.36415764689445496,0.45885133743286133,-10.01577377319336,-0.0002674984663694602,-0.0016735559773210092,0.0011614425128935184,2.5098823895900764,8.501976960503985,0.8850281585438657
1731474136.7586725,-0.36415764689445496,0.45885133743286133,-10.01577377319336,-0.00026826352722152433,-0.0017841169275387922,0.0012672428739390201,2.5210836900026528,8.564618398361052,0.8864927515441661
1731474136.7586725,-0.3174515664577484,0.43460458517074585,-9.97563648223877,-0.0002682345120707053,-0.0018913801019809092,0.0013769782769064882,2.521169319004539,8.56509726181818,0.8865039601177052
1731474136.808501,-0.3174515664577484,0.43460458517074585,-9.97563648223877,-0.0002681795661057052,-0.001995009340067121,0.0014903961676849696,2.5323046150124613,8.627368756900102,0.8858339621220033
1731474136.808501,-0.37348827719688416,0.42250683903694153,-9.971975326538086,-0.00026886614205168154,-0.0020949115238969203,0.0016071767090918053,2.5323971529208102,8.627886246987286,0.8858440502277825
1731474136.858473,-0.37348827719688416,0.42250683903694153,-9.971975326538086,-0.00027101781753450876,-0.0021910710183952677,0.0017271006199336132,2.5435681203533784,8.690355645809264,0.8870640399601118
1731474136.858473,-0.3333224654197693,0.4560640752315521,-10.020543098449707,-0.00027508723910516625,-0.0022834820748573893,0.0018500452116696883,2.543637354830476,8.69074280818298,0.8870716145841253
1731474136.9084017,-0.3716474175453186,0.4254069924354553,-9.993083000183105,-0.00028119901056440264,-0.002372197840718929,0.00197583099981382,2.5550699231396568,8.754673415490434,0.8861878789861165
1731474136.9583972,-0.30855798721313477,0.4505065679550171,-9.975634574890137,-0.00028928171167489443,-0.002457404081762078,0.002104084849349941,2.5660832955747868,8.816257714143052,0.8871881007595867
1731474137.0092394,-0.33945232629776,0.44332513213157654,-10.006049156188965,-0.0002992339143558224,-0.002539436753348327,0.0022342794125473067,2.5775023737777363,8.880108763756724,0.8862729489123755
1731474137.0592687,-0.30693483352661133,0.45724576711654663,-9.974886894226074,-0.00031108536875599233,-0.0026187978293053344,0.0023658276842214473,2.5888046368820854,8.943304145452933,0.887138588451821
1731474137.1091747,-0.3404017686843872,0.42924872040748596,-9.97957992553711,-0.00032508805108347254,-0.0026961733085934547,0.002498127675299219,2.600017788581757,9.005999421634014,0.8862171894794412
1731474137.159192,-0.33027854561805725,0.4503231644630432,-9.993732452392578,-0.0003416877643125934,-0.002772387170791003,0.002630614425110993,2.6112949224859903,9.06904993174425,0.8869535168287427
1731474137.2090607,-0.33027854561805725,0.4503231644630432,-9.993732452392578,-0.0003614326947292555,-0.0028483384527413576,0.0027627677398900435,2.622514155378249,9.131774614321307,0.8876928320864763
1731474137.2090607,-0.3312438130378723,0.4298307001590729,-9.984983444213867,-0.00038491178148287883,-0.0029249851211152903,0.002894052717309666,2.6225775799273037,9.132129203555724,0.8876970312531173
1731474137.2591295,-0.32849225401878357,0.44427555799484253,-9.991825103759766,-0.0004127441995063675,-0.00300331193271635,0.003023897299332442,2.6338057900620626,9.19490258859295,0.8864982659532976
1731474137.308942,-0.3466336131095886,0.43178790807724,-9.988767623901367,-0.00044556180983554517,-0.003084261479358452,0.003151716421329831,2.645014256985727,9.257563592022194,0.8871218226440395
1731474137.3589773,-0.3226473927497864,0.4400995373725891,-9.986501693725586,-0.00048396390903702763,-0.0031686932538859073,0.0032769280092251126,2.6562882770551925,9.320590282828782,0.8860955799952109
1731474137.4088914,-0.3401765823364258,0.42628738284111023,-10.006254196166992,-0.0005284927587768465,-0.0032573662054522085,0.003398949460955177,2.6675300770739274,9.383435376689402,0.8866318189744826
1731474137.4588525,-0.32638588547706604,0.4399968981742859,-9.992179870605469,-0.0005796474031079593,-0.003350916593033704,0.003517163614585469,2.678770190886322,9.446271042762787,0.8857278918525853
1731474137.50879,-0.3352645933628082,0.4304140508174896,-9.980989456176758,-0.0006378965510711827,-0.0034498495092021905,0.0036308970348882573,2.6899827297764545,9.508952060641747,0.8861925487570426
1731474137.5588923,-0.33292460441589355,0.43939563632011414,-9.997173309326172,-0.0007036755980898078,-0.003554553418654082,0.0037394702816495123,2.7012779982075017,9.5720961813695,0.8866699578327543
1731474137.6086698,-0.3363683819770813,0.4308415949344635,-9.980420112609863,-0.0007773723152062059,-0.003665318030708086,0.003842258561947229,2.7125744948851565,9.635249110668964,0.885677279121308
1731474137.6586838,-0.3302421271800995,0.4421899914741516,-9.979595184326172,-0.0008593099023694013,-0.0037823463628675704,0.0039387195001124335,2.7237040854889374,9.697470463967536,0.8860857731150217
1731474137.7086177,-0.3302421271800995,0.4421899914741516,-9.979595184326172,-0.0009497507458694809,-0.0039057784112272384,0.004028434711118941,2.7349274551029152,9.760219828179645,0.8852418618024677
1731474137.7086177,-0.3371421694755554,0.43059173226356506,-9.996553421020508,-0.0010489127368213708,-0.004035721570864181,0.004111133623676039,2.735413910235591,9.762939626992663,0.885257396731584
1731474137.758543,-0.3301190137863159,0.4375700056552887,-9.977168083190918,-0.001156967288524452,-0.004172246290272848,0.0041866517690400075,2.7461775406984623,9.823122434950774,0.8856061885579308
1731474137.8085432,-0.34019094705581665,0.43010377883911133,-9.982741355895996,-0.0012740220532307476,-0.0043153510526170455,0.004254893793888277,2.757394524142906,9.885846321811282,0.8859800685017413
1731474137.8584952,-0.33192288875579834,0.43809831142425537,-9.991263389587402,-0.0014001066332786733,-0.004464943683002194,0.004315843284085395,2.768642259476903,9.948749893352474,0.8863658079289699
1731474137.9083514,-0.34595686197280884,0.4304082989692688,-9.981121063232422,-0.0015351588123274007,-0.0046208464929007285,0.004369557259599903,2.780070246306576,10.012671862825169,0.8852776706627205
1731474137.9583144,-0.3420066237449646,0.443705290555954,-9.989968299865723,-0.0016789998398463314,-0.004782812308775227,0.0044161377575556,2.7910435747493842,10.074060293424537,0.8856028105071225
1731474138.0092392,-0.34163692593574524,0.42966023087501526,-9.989768028259277,-0.0018313065924313696,-0.004950547865851834,0.004455714692694566,2.8024969628510763,10.138148071401282,0.883605475959771
1731474138.0592258,-0.33824580907821655,0.44014066457748413,-9.97556209564209,-0.0019916128933361163,-0.005123728737465604,0.004488438158423926,2.81372465593527,10.2009862203395,0.8837754236572736
1731474138.1091983,-0.341629296541214,0.4363786280155182,-9.98953914642334,-0.00215934259044745,-0.005302001774144642,0.004514493970119568,2.8249093986406892,10.26359994307961,0.8839560171218015
1731474138.1591976,-0.3402191698551178,0.43175989389419556,-9.978646278381348,-0.0023338387264252433,-0.005484988503818606,0.004534128423484047,2.8361166519271928,10.326357622276634,0.8841483627420734
1731474138.209059,-0.3476492762565613,0.432100772857666,-9.985774040222168,-0.0025143699630992182,-0.005672276651377585,0.004547648240585243,2.8472864257110766,10.388925332492471,0.8843514746403033
1731474138.2590916,-0.33999305963516235,0.4344528317451477,-9.983550071716309,-0.0027001232678796087,-0.0058633993936871125,0.00455540870464963,2.858483133202042,10.451667379233202,0.8826628753800857
1731474138.3088815,-0.34422069787979126,0.4327370822429657,-9.9750337600708,-0.002890206124185317,-0.0060578330697763525,0.0045578090527009845,2.869606072497332,10.514018745374388,0.8827945833718872
1731474138.3589008,-0.3437175154685974,0.44072937965393066,-9.988846778869629,-0.003083665235308359,-0.006255018185277215,0.004555298423125514,2.8807836040959245,10.576702525710985,0.8829383816935248
1731474138.4087975,-0.34332624077796936,0.4315757751464844,-9.98684024810791,-0.003279502754115972,-0.006454387197250567,0.0045483654087694865,2.891977409519788,10.63950808396326,0.8811339226478285
1731474138.458818,-0.33988749980926514,0.436118483543396,-9.992659568786621,-0.0034766898275527982,-0.006655378695813242,0.004537488956375889,2.9031081780916534,10.701989181471019,0.8811961314586201
1731474138.5087607,-0.33988749980926514,0.436118483543396,-9.992659568786621,-0.0036741926311380842,-0.006857433613190272,0.004523084384345282,2.91424300053666,10.764526185506794,0.8812696925674134
1731474138.5087607,-0.3460216820240021,0.428290456533432,-9.99396800994873,-0.0038709975264091213,-0.007059989866479033,0.004505472498409466,2.9143123233493626,10.764915633943263,0.8812701860411177
1731474138.5588555,-0.32766076922416687,0.4385663866996765,-9.993430137634277,-0.004066125041304408,-0.007262475630705235,0.004484868806098384,2.9254329745893646,10.827411899893923,0.8793872489271387
1731474138.6086557,-0.3306537866592407,0.4353063106536865,-9.987985610961914,-0.004258668072611329,-0.007464310765561051,0.004461393432782758,2.9366636144133493,10.890564778673573,0.87936976128307
1731474138.6586676,-0.3333236277103424,0.4373985528945923,-9.995209693908691,-0.004447854452095082,-0.007664930017912251,0.004435097395565233,2.9476547171792675,10.9524147284667,0.8774853051447489
1731474138.7086084,-0.3319365978240967,0.4339129328727722,-9.97912311553955,-0.004633071110684057,-0.007863802161060033,0.0044059930727375265,2.958766957854315,11.014990806521993,0.8768951870691714
1731474138.758562,-0.333381712436676,0.4398839473724365,-9.9823637008667,-0.004813842108898528,-0.008060431080152973,0.0043740979705139005,2.969811652082152,11.077230256192188,0.8767945796365498
1731474138.8085184,-0.333381712436676,0.4398839473724365,-9.9823637008667,-0.0049898036375702615,-0.00825436221482578,0.004339489824230907,2.980886222905525,11.13968652538285,0.8767044342852418
1731474138.8085184,-0.3302189111709595,0.438150554895401,-9.991358757019043,-0.005160689363530576,-0.0084452005513598,0.004302324385785705,2.9809532916348123,11.140064918126662,0.8767039210348964
1731474138.8586066,-0.3308621346950531,0.44120118021965027,-9.983616828918457,-0.005326326244509912,-0.00863262029684999,0.004262801180120408,2.9920012061627834,11.202422563318969,0.8766246598541664
1731474138.8586066,-0.3308621346950531,0.44120118021965027,-9.983616828918457,-0.005486636621063738,-0.008816364632753308,0.004221132819577736,2.9954652215475357,11.221988389364677,0.8761769040448772
1731474139.2399957,-0.3376094102859497,0.43933042883872986,-9.987139701843262,-0.0056416273530626275,-0.008996246422579814,0.004177548535712901,2.4942544119954806,11.67832955743593,0.8755035547207071
1731474139.2900891,-0.3423849642276764,0.43753117322921753,-9.985186576843262,-0.0057913498012997534,-0.009172140662915315,0.0041322994612955554,2.4952429570306585,11.741080597420625,0.8755294660254734
1731474139.3398674,-0.34360605478286743,0.4366273581981659,-9.992426872253418,-0.005935838173442466,-0.009343961765106625,0.004085642366752459,2.468127426550019,9.04933553350279,0.875266617171345
1731474139.389985,-0.3389294445514679,0.4368346929550171,-9.979833602905273,-0.006075062502052383,-0.009511639045390421,0.004037820344857994,2.4684954981485134,9.062227398114938,0.8753049290178829
1731474139.4397805,-0.3331068754196167,0.42958614230155945,-9.990646362304688,-0.006208932026958824,-0.009675096544612514,0.003989063666465418,2.468852671839708,9.075269404682913,0.8753541449950009
1731474139.4898527,-0.335146963596344,0.4248596131801605,-9.98840618133545,-0.006337342327044957,-0.009834220815585003,0.003939596949806232,2.4691781214770763,9.087685181809615,0.8754107105699974
1731474139.539713,-0.3328384459018707,0.4296468496322632,-9.984148025512695,-0.006460221835965412,-0.009988816388042152,0.0038896307570939013,2.4541554149923615,9.100411380438342,0.8751291022678924
1731474139.5897124,-0.3308675289154053,0.4361976087093353,-9.986226081848145,-0.00657755339187447,-0.010138592727220615,0.003839360145688915,2.4452001668690326,9.113204515255006,0.8749396593129541
1731474139.639718,-0.3300713300704956,0.44613346457481384,-9.986385345458984,-0.006689385899126307,-0.01028321759201188,0.0037889792296963726,2.4450013579517678,9.125780255803358,0.8750034861146464
1731474139.6895943,-0.3355879783630371,0.4400116503238678,-9.9830961227417,-0.006795840323146002,-0.010422406789418324,0.003738688252934096,2.444784716846929,9.138400232775512,0.8750770045941836
1731474139.7396622,-0.3371192514896393,0.4425605237483978,-9.980547904968262,-0.006897091163684388,-0.010555983212072056,0.003688700511340891,2.4445493659923363,9.151081267404294,0.8751603665004767
1731474139.789675,-0.33719924092292786,0.4419511556625366,-9.980554580688477,-0.006993327127276415,-0.010683881328745872,0.003639262774765302,2.444298475537861,9.163639972855993,0.875252235248159
1731474139.8395355,-0.3354564905166626,0.445912629365921,-9.973817825317383,-0.0070847221401465245,-0.010806134591264999,0.0035906790577319063,2.4440294296277782,9.176202206836148,0.875353338521309
1731474139.8896139,-0.3405797779560089,0.44538143277168274,-9.989174842834473,-0.007171427755249978,-0.010922875708573143,0.0035433209527572776,2.4373566051611113,9.188739233191615,0.8750335660285524
1731474139.9394777,-0.33414551615715027,0.4462050497531891,-9.99086856842041,-0.007253571290699213,-0.011034341828708964,0.0034975947222989734,2.436972410223535,9.201299582191544,0.8751328076770898
1731474139.9894018,-0.3440423011779785,0.44702938199043274,-9.984944343566895,-0.007331252239985691,-0.011140871846240885,0.0034538714773795927,2.432403488558572,9.213684707436878,0.8748957705273934
1731474140.0392613,-0.32870543003082275,0.43953606486320496,-9.982325553894043,-0.007404542816107626,-0.011242890549683403,0.0034124528328177777,2.4319428366853333,9.22611789896904,0.8749940000262284
1731474140.089296,-0.34796392917633057,0.4402678906917572,-9.993621826171875,-0.007473495699010586,-0.011340872278017368,0.003373588337748308,2.4314621496941102,9.23856160644593,0.8751010189559334
1731474140.1402464,-0.33399584889411926,0.432169646024704,-9.98773193359375,-0.007538144122085233,-0.011435287268485445,0.0033374779828282968,2.4309532944830914,9.25120509750283,0.8752186438944173
1731474140.1902158,-0.339699923992157,0.42898687720298767,-9.98838996887207,-0.007598493477704181,-0.011526543086677337,0.003304250605807109,2.427688609812485,9.26356689588762,0.8749383781927161
1731474140.2401154,-0.34191736578941345,0.42445263266563416,-9.988052368164062,-0.007654524482525866,-0.011614926431643992,0.0032739633451411266,2.4271536821422357,9.275960193016296,0.8750494213152022
1731474140.2900033,-0.32970547676086426,0.4250764548778534,-9.985917091369629,-0.007706204011535368,-0.0117005570264236,0.003246621128417898,2.4246533364426397,9.288179412004633,0.8748361489552502
1731474140.3400288,-0.32910072803497314,0.4251329004764557,-9.99003791809082,-0.007753513919646462,-0.011783370961776254,0.0032221919133845834,2.422486025644142,9.300560407722307,0.8747038156831782
1731474140.3900661,-0.3384392559528351,0.42610400915145874,-9.983735084533691,-0.007796497383713122,-0.011863135016909252,0.0032006143137601317,2.421879504984059,9.312816675133387,0.8748045574997603
1731474140.439955,-0.3377346694469452,0.435489296913147,-9.978569030761719,-0.007835263225119116,-0.011939486157632594,0.0031818144908571213,2.4212560072877674,9.324994121738285,0.8749128214972318
1731474140.4899478,-0.33423569798469543,0.4322376847267151,-9.991771697998047,-0.007869945029312205,-0.012011993300793574,0.003165735375907755,2.420152176578171,9.337257009013374,0.8748471436374708
1731474140.5398195,-0.3368098735809326,0.4413033127784729,-9.979137420654297,-0.007900678700154186,-0.012080224645354529,0.0031523441682754587,2.419561198896465,9.349280759821662,0.874961040945505
1731474140.5896668,-0.32903242111206055,0.43979355692863464,-9.979314804077148,-0.00792761306192315,-0.012143802831703304,0.00314162598534952,2.4189473822565937,9.361343010443411,0.8750833318323742
1731474140.6397073,-0.33598414063453674,0.4474576413631439,-9.982017517089844,-0.007950928962607254,-0.012202450154047868,0.003133602160885755,2.418308312984583,9.373480832172582,0.8752145452425807
1731474140.6897366,-0.341476172208786,0.44930747151374817,-9.990230560302734,-0.007970839906721509,-0.012256029598089774,0.0031283385406480433,2.417645189526438,9.38555864244217,0.8751038791354158
1731474140.7397206,-0.3397352695465088,0.44789478182792664,-9.97748851776123,-0.00798755620801071,-0.012304576797085064,0.0031259144835110615,2.417036818946144,9.39764797879949,0.8752371414985257
1731474140.7895658,-0.3330007493495941,0.44037196040153503,-9.997563362121582,-0.008001249248455734,-0.012348300014306285,0.0031263918392694674,2.4164134128285224,9.409610261948881,0.8753771177150789
1731474140.8395772,-0.03880907967686653,0.5903394818305969,-9.978856086730957,-0.008012328793162304,-0.012387667283450194,0.003129796556673008,2.415765471295888,9.421627602530513,0.8755259345195487
1731474140.8895676,-0.0758434385061264,0.5316457748413086,-10.008713722229004,-0.008022464943396422,-0.012423805633817689,0.0031360926484164677,2.4146614157970148,9.433514197374404,0.8753705435428448
1731474140.9393978,0.48951706290245056,0.8079436421394348,-9.981762886047363,-0.008036364007488403,-0.012459206443744974,0.003145147288849388,2.4139841625425946,9.445402756543192,0.8755168449236295
1731474140.9892786,0.7771492004394531,0.6103816628456116,-10.015816688537598,-0.008064403208242912,-0.012498519807520496,0.0031566998507176875,2.412760062198546,9.457247881673464,0.8753255513190041
1731474141.0394018,0.1431780755519867,0.499295175075531,-10.044015884399414,-0.008125280460194385,-0.012548771809041105,0.003170289866148722,2.4120274236077432,9.469207647532947,0.875465190415567
1731474141.0892773,0.413790225982666,0.48516714572906494,-9.909783363342285,-0.00824602124794526,-0.01261837563456622,0.0031851972058803846,2.411284715399135,9.480967972674787,0.8756107741583369
1731474141.1401522,0.038903508335351944,0.3011943995952606,-9.996171951293945,-0.008459112668466065,-0.012715530433107436,0.0032006437711293786,2.4099591845589172,9.49293719760688,0.8754013711013845
1731474141.1902132,0.22217567265033722,0.33590275049209595,-10.001534461975098,-0.008799481381446435,-0.012846853874048639,0.0032160875758452754,2.4091494905032556,9.504765116708253,0.8755402644537529
1731474141.2402446,0.017560504376888275,0.20069876313209534,-9.97430419921875,-0.009302478054028531,-0.013016380437605484,0.0032311899116499302,2.4072661706654164,9.516500703277726,0.8753658868153031
1731474141.2901216,-0.7728275656700134,-0.02461777999997139,-9.977519989013672,-0.01000172044889926,-0.013224703821454006,0.00324566485032584,2.4063383918242174,9.52815183190146,0.8754976810820947
1731474141.3400016,-1.2074174880981445,-0.021463442593812943,-10.009428024291992,-0.010924811154410182,-0.013467888826657757,0.0032592845558256124,2.404886805557463,9.539823390607127,0.8753464255222279
1731474141.3900766,-0.23980385065078735,0.27316224575042725,-9.937684059143066,-0.012088245679569589,-0.013736787806063583,0.0032718990490195735,2.4038716506138424,9.55148976123384,0.8754750711241156
1731474141.4400213,-0.7082184553146362,0.12128511071205139,-10.163931846618652,-0.013496426892104233,-0.014017930339565842,0.0032833220998078933,2.40283052513089,9.563053618070741,0.8756111374384608
1731474141.4898539,-0.29287877678871155,0.4290388226509094,-9.929959297180176,-0.015144913952545044,-0.014295458012151763,0.0032930058071424795,2.402976473378997,9.574541761295405,0.8754258739485186
1731474141.5398967,-0.5628702044487,0.09986446797847748,-10.001678466796875,-0.017023463667380646,-0.014552729823630815,0.003299888832428477,2.4019812048893083,9.58618605103605,0.8755582400037257
1731474141.5897396,-0.3513105511665344,0.46714502573013306,-10.08678913116455,-0.01911751703915393,-0.014773175640759598,0.003302667008287649,2.40096473984402,9.59752195534429,0.8756956404609617
1731474141.6397777,-0.5107159614562988,0.16161222755908966,-9.946783065795898,-0.02140910715479504,-0.01494074532599558,0.003299919173424561,2.399121929699839,9.609017178351198,0.8756100251131189
1731474141.6896517,-0.4068586826324463,0.43703973293304443,-9.962201118469238,-0.023877508878443816,-0.0150402760108372,0.0032901283591274147,2.3979145362569425,9.620367682539735,0.8757536383368131
1731474141.7396317,-0.49801453948020935,0.2526971399784088,-10.004266738891602,-0.02649971916484661,-0.01505778131597903,0.0032720101850888515,2.3966321092292544,9.631791760693737,0.8759068892480315
1731474141.789641,-0.37864023447036743,0.4197238087654114,-9.953781127929688,-0.029250910434600846,-0.014980694756260906,0.003244736101198966,2.3952917862830443,9.64307684717263,0.8760668798325095
1731474141.8394883,-0.42949461936950684,0.29616859555244446,-9.941106796264648,-0.032105015283500765,-0.014798074307191038,0.003207916580000681,2.3946939115466632,9.654348723531063,0.8758902149299328
1731474141.8893626,-0.41107162833213806,0.3372349739074707,-10.000696182250977,-0.03503537248381465,-0.01450063155558964,0.0031616445925235818,2.391397951897225,9.665552845069406,0.8757368243512936
1731474141.9393225,-0.3805420398712158,0.7001015543937683,-9.957939147949219,-0.03801522039777785,-0.014080907416997092,0.0031064638166791777,2.389666354413317,9.676787154398852,0.8758791885578682
1731474141.9893405,-0.4000968039035797,0.667378306388855,-9.877378463745117,-0.04101808112841542,-0.013534365082365107,0.0030432954929985887,2.3865700850233975,9.687982738919004,0.8757399225847375
1731474142.0393183,-0.4872780740261078,1.1421082019805908,-9.997286796569824,-0.044018018699037265,-0.012861386025580773,0.0029735851561353025,2.3844784347997328,9.699194480192201,0.8758768327114088
1731474142.0892508,-0.4453103244304657,0.9864438772201538,-9.849359512329102,-0.04698957547590485,-0.012069334858734125,0.002899446902278698,2.382295124217948,9.710260958690247,0.8760196400234613
1731474142.139246,-0.5104879140853882,0.7967690229415894,-10.028023719787598,-0.04990756186738971,-0.011173531051451508,0.002823592784808398,2.38148676059665,9.721371452477882,0.8758398620702766
1731474142.1901712,-0.5104879140853882,0.7967690229415894,-10.028023719787598,-0.052746971755523064,-0.010196087642176893,0.0027490082370431102,2.379159945444536,9.73264200772295,0.8759775255422158
1731474142.1901712,-0.3782177269458771,0.7711344957351685,-9.996058464050293,-0.05548310309356378,-0.009163497308230892,0.0026783642434877034,2.3791455641095807,9.732709590125317,0.8759783734816766
1731474142.2401364,-0.4499201774597168,0.7072227597236633,-10.010408401489258,-0.05809204688037921,-0.008104723581700866,0.0026136240612683642,2.3790299327123186,9.743709700150758,0.8758117232066089
1731474142.2900872,-0.3696022629737854,0.713841438293457,-10.044113159179688,-0.060551362790853096,-0.007049973376501531,0.0025560540069890893,2.376704510202607,9.754705634207728,0.8759381332611222
1731474142.3400176,-0.42195576429367065,0.5679761171340942,-9.984193801879883,-0.06284051139024857,-0.00602961106504994,0.002506280511219261,2.3742089392564076,9.765758118319125,0.8760717290020245
1731474142.3899982,-0.30900314450263977,0.6061761379241943,-10.027217864990234,-0.0649410892735184,-0.0050730538813582885,0.0024643477310539856,2.3715761407538896,9.776701848748347,0.8762103497058656
1731474142.4399173,-0.36433690786361694,0.5541598200798035,-9.993165969848633,-0.06683710688750133,-0.004207805548469005,0.0024298661885625234,2.3735617405747704,9.78770548051869,0.8759604545295001
1731474142.4898849,-0.36433690786361694,0.5541598200798035,-9.993165969848633,-0.06851520309009312,-0.0034588722536733852,0.0024021548220874373,2.3709879754782763,9.798640832931337,0.8760869694445405
1731474142.4898849,-0.3449501693248749,0.5600143671035767,-10.049895286560059,-0.06996459021709563,-0.002848511485574836,0.0023803216683640025,2.3709630512972213,9.798743276186133,0.8760881832747288
1731474142.5398262,-0.3187732696533203,0.5636372566223145,-10.002037048339844,-0.07117690361406187,-0.002396177881730744,0.00236322635141945,2.37184316962996,9.809606788921046,0.8758788983702797
1731474142.5898345,-0.30297085642814636,0.5662887096405029,-10.012564659118652,-0.0721462201029821,-0.002118626217707522,0.0023494163343419313,2.3714004201506254,9.820531087877672,0.8757466445386579
1731474142.6396751,-0.3056734502315521,0.5174658894538879,-10.006267547607422,-0.07286915306355093,-0.0020300252760938322,0.002337212039671164,2.3687259895380026,9.831573800288337,0.8758529234617237
1731474142.689624,-0.32618317008018494,0.5069574117660522,-9.982719421386719,-0.07334481124559931,-0.0021419162970490796,0.002324868915100897,2.3659148994876964,9.842428948440748,0.8759632131551992
1731474142.7396877,-0.273434042930603,0.514680802822113,-9.964303016662598,-0.07357460849881815,-0.0024630710771462866,0.002310748987282337,2.3628746170784516,9.853450811449378,0.8760810772927682
1731474142.7895157,-0.2996521592140198,0.5227103233337402,-9.985552787780762,-0.07356209757346903,-0.002999483514688167,0.0022935130471118475,2.364524784883367,9.864280457131732,0.875872245592775
1731474142.8395174,-0.3358599841594696,0.5379204750061035,-9.958097457885742,-0.07331282607973352,-0.0037545868373953205,0.002272231584938635,2.361477775873402,9.875297009515423,0.8759813669035377
1731474142.8894358,-0.336078017950058,0.4931144118309021,-9.98670482635498,-0.07283400824243758,-0.004729537336447172,0.00224638244634727,2.358305081505143,9.886046358683776,0.8758077555870196
1731474142.939421,-0.33337661623954773,0.5128029584884644,-10.005820274353027,-0.07213408537056556,-0.005923377365369378,0.002215766709306381,2.3548981199824133,9.897019379612837,0.8759100186970522
1731474142.989331,-0.3498041331768036,0.4721747934818268,-9.94282341003418,-0.07122241672755293,-0.007333076849288661,0.00218037862885631,2.3513558683728824,9.907838987541597,0.8760164582875825
1731474143.0392566,-0.32534632086753845,0.5132566094398499,-9.986802101135254,-0.07010910775955301,-0.008953587398677593,0.002140385441903473,2.34761038002641,9.9187208790446,0.8761290970200815
1731474143.0892653,-0.3674081265926361,0.5218324065208435,-10.014200210571289,-0.06880487916727726,-0.010778029788710185,0.0020961649360922746,2.343702521753264,9.92948914541874,0.8758942777812843
1731474143.1392438,-0.40713658928871155,0.5078936219215393,-9.99518871307373,-0.06732086214542364,-0.01279802095055593,0.0020481628421496994,2.3395990156617428,9.940353115867834,0.8759975442379226
1731474143.1901145,-0.3748840391635895,0.5032426118850708,-9.95654582977295,-0.0656682599538109,-0.015003963425271922,0.0019967339225101,2.335297979880675,9.951161631266126,0.87596376651906
1731474143.2401328,-0.41319382190704346,0.513997495174408,-10.000679969787598,-0.06385806129824748,-0.01738519107855758,0.001942217916215827,2.330876919639981,9.961784292742799,0.8760311576380906
1731474143.2901106,-0.4174082279205322,0.5009680390357971,-9.988465309143066,-0.06190090927681127,-0.019930083360909984,0.0018850446656312671,2.3263051804738297,9.972472250176194,0.8761525065451516
1731474143.3401623,-0.4119400978088379,0.5024043917655945,-9.968817710876465,-0.059807001904108856,-0.022626201989313397,0.001825697217922049,2.3215618490466916,9.983150484610702,0.8762790132998225
1731474143.3899338,-0.3861069083213806,0.4877097010612488,-9.973749160766602,-0.05758605709644706,-0.02546039492125963,0.0017647081623896176,2.316728191436268,9.993645661334599,0.8764084974724053
1731474143.4400024,-0.3813762664794922,0.4656544327735901,-10.00214672088623,-0.055247450508385976,-0.028418840688036358,0.001702714425443652,2.3116838081268614,1.0206469273278456,0.8768310878037471
1731474143.489819,-0.3586125075817108,0.4547431170940399,-9.964475631713867,-0.05280044845016013,-0.03148702762937917,0.0016404220086700771,2.306558508466482,0.8394948466120307,0.8770022064304003
1731474143.5397732,-0.3363964855670929,0.4302753210067749,-9.970362663269043,-0.05025443545732134,-0.03464969474738306,0.0015785649710142763,2.3012704448324826,0.6570624624847258,0.8771784820643783
1731474143.5897393,-0.3230259418487549,0.4246014356613159,-10.018203735351562,-0.047619131666536585,-0.03789078544678874,0.0015179253581802392,2.2959158871023755,1.2534088107580186,0.8776431602903594
1731474143.6397502,-0.3195480704307556,0.4174511432647705,-9.99730110168457,-0.044904771031461344,-0.04119345274557033,0.0014592415876085582,2.290375483284664,1.1176178125322098,0.8778509381378191
1731474143.6896462,-0.29733991622924805,0.400546669960022,-9.969202995300293,-0.04212218930576815,-0.044540130765443865,0.0014030609501433366,2.2847833939007356,0.9831035980922976,0.8780601553706125
1731474143.7396011,-0.2849956750869751,0.3818894624710083,-10.001726150512695,-0.03928285890049665,-0.04791262450532699,0.0013497684806169602,2.279058679135803,0.8476224342270976,0.8787374964591489
1731474143.789569,-0.2620607912540436,0.3989132344722748,-10.011852264404297,-0.036398936399272434,-0.05129218864986017,0.0012996635687786647,2.2732472891170645,0.7123010767573238,0.8789928092142266
1731474143.8395295,-0.3114404082298279,0.37750130891799927,-9.98075008392334,-0.03348326646701259,-0.0546596598224357,0.0012529041446032564,2.2673416347962285,0.5765735093122928,0.8797527700598575
1731474143.8895874,-0.3114404082298279,0.37750130891799927,-9.98075008392334,-0.03054919272679688,-0.057995643625993104,0.0012094904559776017,2.261358531250257,0.44087245939485437,0.8800588685452211
1731474143.8895874,-0.29066282510757446,0.38888999819755554,-10.001361846923828,-0.027610219199835313,-0.06128069456888113,0.0011693711538118738,2.26131872293256,0.4399748485916495,0.8800609022282208
1731474143.939539,-0.31284046173095703,0.36997202038764954,-10.00731372833252,-0.02467976516718872,-0.06449550448999626,0.001132473640338052,2.2552890411676456,0.3046298002498325,0.8803687789082412
1731474143.9893997,-0.27976566553115845,0.3753986358642578,-10.026233673095703,-0.02177107000346252,-0.06762108982177717,0.0010985852575910134,2.24920808880779,0.16926032020715684,0.8806790993146464
1731474144.0392823,-0.2954639196395874,0.3394887149333954,-9.958551406860352,-0.018897148794881004,-0.07063890605172138,0.0010672624614629974,2.2430568656534904,0.033144639036077915,0.8809406953327702
1731474144.089266,-0.5322554707527161,-0.19363191723823547,-10.011695861816406,-0.016070537522377526,-0.0735303891424158,0.0010379237140111545,2.236855395197212,-0.10316516624020428,0.8812435998037917
1731474144.139285,-0.4975226819515228,-0.47324222326278687,-10.109478950500488,-0.013302421067495844,-0.07627485753120715,0.001009889371508468,2.2306047612249325,-0.24008414929052482,0.8811683203316112
1731474144.1902807,-0.6517626047134399,-0.1517183631658554,-10.05496883392334,-0.01060139081844231,-0.07884641583122731,0.0009820417293423492,2.2242055512303573,-0.3796348693712846,0.8814366206857723
1731474144.2401178,-0.7958483099937439,-0.4603233337402344,-10.047149658203125,-0.007972371231865252,-0.08121254514301313,0.0009524508206070197,2.217931068786883,-0.5163216661761398,0.8813507872328545
1731474144.2899477,-0.3774668574333191,0.1904527246952057,-9.920002937316895,-0.005416049863444418,-0.08333531151012152,0.000918559310663431,2.2116668364596412,-0.6524676816335416,0.8815787184234803
1731474144.3399312,-0.7103548049926758,-0.2533815801143646,-10.023809432983398,-0.002929409690755647,-0.0851739384029134,0.0008778254232549263,2.2053264804670993,-0.790434245165526,0.8814856227702345
1731474144.389945,-0.5084047317504883,0.20593859255313873,-9.930323600769043,-0.0005069059659632359,-0.08668737688207255,0.0008282294364669633,2.1989987513712936,-0.9280698507734955,0.8816870788166636
1731474144.4399543,-0.6116470098495483,0.06604569405317307,-9.929553985595703,0.0018588736427302924,-0.08783620679948109,0.000768466053740312,2.1926770913134224,-1.066029374226433,0.8815843040958833
1731474144.489831,-0.5259138345718384,0.24936124682426453,-9.96333122253418,0.004176861153823201,-0.0885841922593825,0.0006980763918436614,2.18638151421465,-1.2038180940312635,0.8815260299130607
1731474144.5398407,-0.5633005499839783,0.1612505167722702,-9.892698287963867,0.0064570196488925435,-0.0888995395870138,0.000617521506773236,2.1800698195103196,-1.3422639061857051,0.8816819921890325
1731474144.5897121,-0.5227437615394592,0.1753193736076355,-9.91405963897705,0.008709880874531043,-0.08875545229288881,0.0005281838974226877,2.1738074399444605,-1.4802621400538225,0.8818386257584799
1731474144.6397834,-0.530639111995697,0.1455938071012497,-9.948212623596191,0.010946162403245148,-0.08813005144775314,0.0004323702090864896,2.1675321558292167,-1.619308084238576,0.8819973986767473
1731474144.6897333,-0.4877649247646332,0.19532594084739685,-9.93302059173584,0.01317641553105458,-0.08700604787980956,0.00033314769703965885,2.161317167489417,-1.7581626087753528,0.8818193806724661
1731474144.7396362,-0.4850020408630371,0.15887004137039185,-9.961091995239258,0.015410667723209407,-0.08537052097259114,0.00023402719002765367,2.1551259547285433,-1.8972425064585718,0.8819551703478661
1731474144.7895703,-0.042006008327007294,0.42955347895622253,-9.968608856201172,0.01765769868152793,-0.08321502181754985,0.00013868700435768226,2.1489952248692785,-2.036095342907049,0.8820909969333186
1731474144.8395107,0.20982344448566437,0.5299987196922302,-9.996824264526367,0.019923102775241203,-0.08053635136431772,5.072233262569533e-05,2.1428923204314994,-2.1758884858126266,0.8818846630660877
1731474144.8894217,-0.2961362600326538,0.27400559186935425,-10.028383255004883,0.02220677321156509,-0.07733765173411047,-2.66463449217686e-05,2.136841732691852,-2.315586679749069,0.8819993380555056
1731474144.9395008,-0.07620701938867569,0.45252323150634766,-9.962984085083008,0.02450239186430952,-0.07362847901243982,-9.081965916408842e-05,2.1308459235878425,-2.4558972778955446,0.8818255425667616
1731474144.989377,-0.3626199960708618,0.24273060262203217,-10.05359172821045,0.026799298053132924,-0.06942374428333921,-0.0001398882595189377,2.1249383025445114,-2.5954821801397765,0.8819215910958403
1731474145.0394049,-0.1496284306049347,0.48473837971687317,-10.041500091552734,0.029084486258154435,-0.06474266729882255,-0.0001726605713578668,2.119085001964338,-2.7359752062320624,0.8817702948282468
1731474145.0892012,-0.3409866988658905,0.2217046469449997,-10.007319450378418,0.03134370767441957,-0.059608149946661595,-0.00018878518991713664,2.1133313298765777,-2.875657751924113,0.8818506702547063
1731474145.1393504,-0.3409866988658905,0.2217046469449997,-10.007319450378418,0.033562185306214215,-0.054046044783673926,-0.0001887162342605956,2.1076019869354177,-3.0172960769788375,0.8817169065554186
1731474145.1393504,-0.19522902369499207,0.4383619427680969,-10.02239990234375,0.03572525761156473,-0.04808418182210221,-0.00017346253020043904,2.1075673032664244,-3.018157823813899,0.8817173220985098
1731474145.1891997,-0.3174585700035095,0.26658883690834045,-9.997493743896484,0.03781862246261675,-0.04175194671796341,-0.00014439855301611596,2.1020197525750635,-3.157195334855552,0.8817841653072104
1731474145.2401588,-0.2567730247974396,0.41878947615623474,-9.975645065307617,0.03982823773232924,-0.035080446775478495,-0.00010314229378619613,2.0963812570695426,-3.301108116458791,0.8818529883647692
1731474145.290124,-0.31867489218711853,0.322895348072052,-10.004502296447754,0.04174044485245078,-0.02810248007936391,-5.137379071930275e-05,2.090988315890184,-3.441445393632634,0.8819198687515156
1731474145.3400424,-0.2900391221046448,0.4151308536529541,-9.99188232421875,0.04354228368864234,-0.02085229663720927,9.289148757879318e-06,2.0856969045310603,-3.5825004961863565,0.8817373554517247
1731474145.390102,-0.331870973110199,0.35072141885757446,-9.961592674255371,0.04522174258362689,-0.013365375284947597,7.731299593488229e-05,2.0804872425589953,-3.723853159943784,0.8817923532752827
1731474145.4399805,-0.31109046936035156,0.4003080129623413,-9.982954025268555,0.046767952936108775,-0.005678155266789582,0.00015132269084128854,2.0754448673835144,-3.8643928184328256,0.8816478896056277
1731474145.4899025,-0.3297779858112335,0.40445318818092346,-9.977746963500977,0.04817132377575767,0.0021722439375409857,0.00023020039449038918,2.070483801604758,-4.0053635110054095,0.8816938307710068
1731474145.5398126,-0.3312694728374481,0.4171616733074188,-9.975252151489258,0.04942360887168624,0.010148222932541539,0.0003130821197086249,2.065630489449139,-4.14673301527711,0.8817405880731956
1731474145.589731,-0.3365127444267273,0.42672958970069885,-9.98169231414795,0.05051794697137842,0.018211846403250624,0.0003993079362885629,7.135992459733018,-4.2866260008871215,0.8816009687619167
1731474145.6397784,-0.6444383859634399,0.252627432346344,-9.986760139465332,0.05144916374164926,0.0263251812857514,0.0004883811557648302,7.1992847768342765,-4.428140434782296,0.8816411948188039
1731474145.6896195,-0.5891392230987549,0.3251998722553253,-9.954066276550293,0.05221476823530845,0.03445107055768433,0.000579936782049815,7.262228065565175,-4.568510218232894,0.8816824469057529
1731474145.739691,-0.7718563675880432,0.09749940782785416,-9.974160194396973,0.05281630793912864,0.0425541789199949,0.0006737744532133411,7.325728434330233,-4.70973228354491,0.8817255493078737
1731474145.7895942,-0.46285444498062134,0.407083123922348,-9.982929229736328,0.053260017760918946,0.05060180849398183,0.0007699054141905774,7.9470130296367145,-4.849763986550696,0.8815735894823634
1731474145.839546,0.17480438947677612,0.5993920564651489,-9.956948280334473,0.05355549965950138,0.058563650493703684,0.0008685140641317183,8.004985441440423,-4.9907088086830855,0.881611880163627
1731474145.8895202,-0.4296962022781372,0.3416212499141693,-10.036373138427734,0.05371237105180184,0.06641035137788806,0.0009698585305104641,8.062643250750728,-5.130387381415416,0.8814956178547088
1731474145.9394314,-0.4296962022781372,0.3416212499141693,-10.036373138427734,0.05373801299170131,0.07411266033528248,0.0010740583619547358,8.120960428901013,-5.271182610289314,0.8815316476561109
1731474145.9394314,-0.10667605698108673,0.5735830664634705,-9.944799423217773,0.05363829471807496,0.08164195402037935,0.0011808505013656031,8.121337328297939,-5.272090889446408,0.8815318890418461
1731474145.9893925,-0.4261827766895294,0.25164923071861267,-9.998679161071777,0.0534185317264947,0.08897069071158979,0.0012896659691920256,8.178814574632291,-5.410316929435116,0.8814348260031556
1731474146.0393891,-0.4261827766895294,0.25164923071861267,-9.998679161071777,0.05308352837058892,0.0960727304218894,0.0013999090156901917,8.237426751848941,-5.5507407438315095,0.8814705636813996
1731474146.0393891,-0.1757666915655136,0.5858380794525146,-10.030649185180664,0.05263800553970568,0.10292407149780079,0.0015109759107115295,8.237791132461384,-5.551611971781223,0.8814707966394464
1731474146.0892906,-0.36952340602874756,0.26452311873435974,-9.984543800354004,0.052086759059328594,0.1095029019673545,0.001622076563460428,8.295564776154258,-5.689460481712031,0.8815096826138689
1731474146.1392066,-0.2180897742509842,0.5275964140892029,-9.984308242797852,0.051434157139375346,0.11578900303587568,0.001732215868746064,8.354038984937233,-5.828395702333261,0.8815531079571687
1731474146.1892066,-0.35027265548706055,0.3020928204059601,-9.998504638671875,0.05068393970344767,0.12176362176882846,0.0018403575491113696,8.412918478227684,-5.967692093341568,0.8816012167676608
1731474146.2392662,-0.24522694945335388,0.4789474606513977,-9.97572135925293,0.04983937155311911,0.12740966028436423,0.001945550268499668,8.471729124707316,-6.106188632998475,0.8814599372370477
1731474146.2900531,-0.32880857586860657,0.3587845265865326,-9.992473602294922,0.04890338188677842,0.13271177430273395,0.002046959088879305,8.531598048066776,-6.246576237690564,0.8815083095117211
1731474146.3401139,-0.28920209407806396,0.4533703923225403,-9.996732711791992,0.0478786838736847,0.13765638567908728,0.0021438667018803593,8.590908022574979,-6.385001722083827,0.8814034731685176
1731474146.3900425,-0.32036682963371277,0.38436904549598694,-9.975886344909668,0.04676791840203579,0.14223165397868534,0.002235647789680944,8.649907369099646,-6.522100547121331,0.8814526749172217
1731474146.4399643,-0.3222068250179291,0.4288286566734314,-9.992498397827148,0.045573805303758506,0.14642747772855091,0.002321761649644222,8.709470253902102,-6.6598774809872,0.8815079684763163
1731474146.4898868,-0.3282969295978546,0.4256960153579712,-9.982223510742188,0.04429927702783551,0.15023549767271022,0.0024017795592625934,8.768943888449105,-6.79681575559013,0.8815689931624047
1731474146.5398424,-0.3282969295978546,0.4256960153579712,-9.982223510742188,0.04294758431606356,0.1536490403927334,0.0024753938916244906,8.828281773911314,-6.932784049638262,0.8814367318996397
1731474146.5398424,-0.3342430889606476,0.41899538040161133,-9.977553367614746,0.04152234578869847,0.15666305011247905,0.0025424248000494266,8.828771567564834,-6.933904018734578,0.8814372121084134
1731474146.5898244,-0.3272224962711334,0.4375999867916107,-9.990431785583496,0.04002755031904146,0.15927407345507272,0.0026028331399287194,8.887702033242034,-7.06830727261801,0.8813560951048947
1731474146.6398294,-0.3272224962711334,0.4375999867916107,-9.990431785583496,0.038467526921951545,0.16148022826976,0.0026566907536074266,8.947711366142151,-7.204585924045999,0.8814148850866107
1731474146.6398294,-0.348007470369339,0.42216381430625916,-9.980985641479492,0.03684690339051084,0.1632811306163094,0.002704121682236207,8.948226457483281,-7.205752961944299,0.8814154182690139
1731474146.6897447,-0.3311549723148346,0.43346843123435974,-9.981561660766602,0.03517060321515333,0.16467786750070568,0.0027452871655808814,9.007178450897277,-7.339021045686855,0.8814797537771285
1731474146.7396312,-0.3635404109954834,0.40990909934043884,-9.988479614257812,0.033443871914100004,0.1656730236318304,0.002780412181536363,9.06709219203329,-7.473861444790456,0.8815518969201954
1731474146.789546,-0.32311975955963135,0.4552238881587982,-9.978585243225098,0.0316722827849874,0.1662706816720833,0.002809790953105027,9.126660517711223,-7.607333206521196,0.881630434533973
1731474146.8395026,-0.3543110489845276,0.4205108880996704,-9.987153053283691,0.02986168672943771,0.16647633769562797,0.0028337728060641894,9.18675164882468,-7.7413424056629765,0.8814720315646617
1731474146.8894835,-0.33690303564071655,0.44204410910606384,-9.983466148376465,0.02801812780982246,0.16629678178801652,0.0028527528688217004,9.24703734676166,-7.875253938821467,0.8815497113358453
1731474146.939377,-0.3456494212150574,0.4204249382019043,-9.974058151245117,0.02614778366794447,0.16574003444954907,0.0028671678458615157,9.307089057868792,-8.008030687822304,0.8812670567125793
1731474146.9893372,-0.32335811853408813,0.44455331563949585,-9.994388580322266,0.02425690619768526,0.16481531494370016,0.0028775003971963364,9.367397542463737,-8.140874463522623,0.8813278146458139
1731474147.0392928,-0.3419918715953827,0.4153200089931488,-9.980100631713867,0.022351722848154967,0.16353298572650218,0.0028842645967225647,9.427619387163336,-8.272990405921893,0.8813956050784165
1731474147.0892532,-0.33232659101486206,0.44813141226768494,-9.970808982849121,0.020438354409785694,0.16190448448036196,0.0028879841451398915,9.488034829517055,-8.405007480652273,0.8814707611185078
1731474147.1392598,-0.3414287269115448,0.42118310928344727,-9.989472389221191,0.018522790824988318,0.1599422444344004,0.0028892153170944463,9.548531019571849,-8.53663155688669,0.8812065016000205
1731474147.1892078,-0.32821929454803467,0.43675288558006287,-9.983247756958008,0.01661088282741824,0.1576596049871382,0.002888558404166128,9.608899289266244,-8.667545501407027,0.8812727925071647
1731474147.239118,-0.3308393657207489,0.41653814911842346,-9.989508628845215,0.01470830334617072,0.1550707481589089,0.002886607240334788,9.669327680995533,-8.79811590122911,0.8813462969755075
1731474147.2890556,-0.3233639597892761,0.44228991866111755,-9.99915599822998,0.012820483031860251,0.1521906476971215,0.002883887418471123,9.729811526340988,-8.928281844275595,0.8835529647858914
1731474147.34003,-0.3317860960960388,0.42187803983688354,-9.981391906738281,0.010952555118899828,0.14903498180928135,0.002880813874613277,9.791663515470477,-9.061006362829916,0.8838373808578873
1731474147.389953,-0.3199501931667328,0.43816444277763367,-9.984302520751953,0.009109330319498385,0.14562002092204493,0.002877695173832362,9.852222407661346,-9.190530308980271,0.884122993345153
1731474147.4399762,-0.3348630368709564,0.410004585981369,-9.995926856994629,0.007295291141106554,0.14196254334814587,0.0028747805093321307,9.912967813429905,-9.320049172037505,0.8844165912806933
1731474147.4898822,-0.31965500116348267,0.4335654675960541,-9.987404823303223,0.005514595937408098,0.1380797913014566,0.0028722709574048734,9.973556351700772,-9.448771832591804,0.8865442957435695
1731474147.5398347,-0.33629316091537476,0.42236918210983276,-9.98745346069336,0.003771089412081463,0.13398941566519496,0.002870297542998691,10.034112657878621,-9.577139596217366,0.8869799558717758
1731474147.5897639,-0.32917505502700806,0.4344494938850403,-9.999245643615723,0.0020683212216009695,0.12970936879919853,0.0028689207538101186,10.094670465323663,-9.70508320460173,0.8905721053119109
1731474147.6397233,-0.32917505502700806,0.4344494938850403,-9.999245643615723,0.0004095711619384971,0.12525777080319583,0.0028681177013818032,10.155248187500089,-9.832827599458211,0.8913028820327377
1731474147.6397233,-0.3516184091567993,0.42074695229530334,-9.990751266479492,-0.0012021236615303544,0.12065279458547677,0.002867746246034018,10.155614281172438,-9.83359865169339,0.8913073200677164
1731474147.6896822,-0.3454195261001587,0.43337929248809814,-9.982441902160645,-0.002763908749042989,0.11591259758373862,0.0028675601049009906,10.215852388370358,-9.96033333837574,0.8920411615483451
1731474147.739603,-0.3505779504776001,0.42843934893608093,-9.977140426635742,-0.004273028894567966,0.11105527288057154,0.002867297330533676,10.276293057819979,-10.087139059391529,0.8919361608692076
1731474147.7895708,-0.3442579209804535,0.44717955589294434,-10.014467239379883,-0.005726795498450161,0.10609875964157849,0.0028667467488335376,10.33718098174009,-10.214729210245993,0.8925771201148398
1731474147.839557,-0.2940550446510315,0.5944892764091492,-9.976007461547852,-0.007122662614589109,0.1010605717195448,0.0028657094880260867,10.397817785518997,-10.341468455459749,0.8924560538092698
1731474147.889536,-0.20518560707569122,0.54371577501297,-9.946371078491211,-0.008458531317756335,0.0959571912162205,0.0028639899707114647,10.458402442150051,-10.46799127643516,0.8930136373038369
1731474147.939503,-0.43645983934402466,0.24578015506267548,-9.995434761047363,-0.009733123577689398,0.09080372927425531,0.0028615385852816706,10.519050378028984,-10.594354470350808,0.8895948794100166
1731474147.9893682,-0.2412494719028473,0.5809628963470459,-10.00178050994873,-0.01094590026470291,0.08561455072033623,0.002858513062586301,10.579234051941553,-10.719689044642369,0.8897283928220351
1731474148.0393229,-0.4226839542388916,0.305077463388443,-9.972904205322266,-0.012096630688598155,0.08040400775575697,0.0028551252473902676,10.639802634997693,-10.845678120039484,0.8898699454750204
1731474148.0892675,-0.17636924982070923,0.6643232107162476,-9.994385719299316,-0.013185238604407989,0.07518633328467801,0.002851531158224142,10.700186416019168,-10.971154441089121,0.8900182500696457
1731474148.1391916,-0.017241640016436577,0.4965020716190338,-10.021503448486328,-0.014212344230096544,0.06997497547818796,0.002847824933156732,10.760474256523809,-11.096203039243754,0.8875500838389984
1731474148.1891968,0.08745230734348297,0.6030604839324951,-10.011589050292969,-0.015180689507885287,0.06478188578108905,0.002843940899301055,10.82081402437166,-11.221262136883665,0.8840412770109718
1731474148.2391913,-0.9778934717178345,0.07814757525920868,-9.990920066833496,-0.016095803003492982,0.05961761471840911,0.0028395354863299488,10.88136374561568,-11.346804161188107,0.8836906181279621
1731474148.289004,-0.13256236910820007,0.6477596163749695,-9.916261672973633,-0.016963817033851407,0.05449253411387408,0.002834111898244506,10.941508606009812,-11.471450025060099,0.8833491267383261
1731474148.3390393,-0.5607509613037109,0.18505153059959412,-10.030675888061523,-0.01778874622479476,0.04941775529565442,0.0028273382280816564,11.001892349017126,-11.59655113020545,0.8830131066338582
1731474148.3899746,-0.24053697288036346,0.6703055500984192,-9.993346214294434,-0.01857234399052385,0.04440487289289638,0.002819135408470344,11.063034438360344,-11.723062598447104,0.8824997126354711
1731474148.4399455,-0.4149532914161682,0.18424800038337708,-9.922703742980957,-0.01931520321702611,0.03946539856086525,0.0028095085549134594,11.123425594542438,-11.84814769337142,0.8822184638299887
1731474148.4898977,-0.32263457775115967,0.564312756061554,-10.011099815368652,-0.02001734089125958,0.034610602643599254,0.002798566708603274,11.183544452017582,-11.972532326386144,0.8818468534189147
1731474148.539939,-0.4096713662147522,0.33358514308929443,-9.978320121765137,-0.02067837820372506,0.029851567807120914,0.0027866306492628852,11.243760664204737,-12.097287896072144,0.881613628096861
1731474148.5898108,-0.33266475796699524,0.4822407364845276,-9.983787536621094,-0.021297534488313542,0.025199053185219554,0.002774121473635045,11.303555249681084,-12.221055921264794,0.8813442477173837
1731474148.6398258,-0.36633315682411194,0.4079146981239319,-10.017582893371582,-0.021873665457762592,0.020663264726717416,0.0027614132871820927,11.363694232065109,-12.345744631786841,0.8811524208638752
1731474148.6896837,-0.37975364923477173,0.41329842805862427,-9.984230041503906,-0.022405401187239778,0.016253760899938602,0.0027487535002816113,11.423348246406011,-12.469334014203481,0.880959333466147
1731474148.7397082,-0.3236582279205322,0.45023560523986816,-9.957239151000977,-0.022891234379669122,0.011979445701348321,0.002736250901222304,11.483334423687223,-12.593855257276838,0.8808039181320427
1731474148.7895982,-0.4094269871711731,0.40006208419799805,-10.010847091674805,-0.023329579628606472,0.007848559197123198,0.0027239976870186635,3.201961719142614,-12.717464278097125,0.8806680956252804
1731474148.8395123,-0.3341081142425537,0.49790847301483154,-9.974881172180176,-0.02371880922865044,0.0038685945326855124,0.0027121455483371396,2.4895606272896935,-12.84121535754101,0.880549808786695
1731474148.8895173,-0.40162166953086853,0.3858509361743927,-9.979796409606934,-0.024057239589174065,4.617123995078528e-05,0.002700857573681631,2.44141846526722,-12.965676104840844,0.8804472565761395
1731474148.9394271,-0.33520281314849854,0.49349677562713623,-9.995915412902832,-0.024343150117684405,-0.0036130240548971687,0.0026902977062001486,2.393280307206624,-13.08997448497889,0.8803515835053584
1731474148.989394,-0.39363962411880493,0.3769837021827698,-9.9759521484375,-0.02457485209484172,-0.007104192620069356,0.0026806429540714664,2.34510121918198,-13.214234186013886,0.8802626581830921
1731474149.0393794,-0.32641667127609253,0.49767252802848816,-9.984671592712402,-0.024750766097267736,-0.010423350386852555,0.002672070541269205,2.087846600514326,-13.338136562945785,0.8802236933597479
1731474149.0893095,-0.39658495783805847,0.40310895442962646,-9.991823196411133,-0.024869496188636573,-0.013567312394428191,0.0026647627269691197,2.0460087310319177,-13.462168670355464,0.8801593677320703
1731474149.139286,-0.31508591771125793,0.49019932746887207,-9.974615097045898,-0.024929883812980804,-0.016533734401218553,0.0026589032162345465,2.004013366490198,-13.586521085072494,0.8801015358920025
1731474149.1892076,-0.3865351676940918,0.38851404190063477,-9.984769821166992,-0.02493105859104244,-0.019321115834780925,0.0026546747185181518,1.8793453131292563,-13.71028840134216,0.8800914975525398
1731474149.2392628,-0.3284973204135895,0.4553205966949463,-9.989445686340332,-0.024872482694055183,-0.02192868724512563,0.0026522745250287935,1.843029279532885,-13.835012338157332,0.8800542478162978
1731474149.2891707,-0.36882221698760986,0.4021817743778229,-9.976908683776855,-0.024753959735515765,-0.024356248525852508,0.0026519040103559145,1.8067894575951235,-13.9593196782094,0.8800237553512504
1731474149.3390863,-0.339903861284256,0.46282950043678284,-9.997218132019043,-0.024575632491388465,-0.026604091680917992,0.002653744960295657,1.7704822728252805,-14.083710844142022,0.8799998643513356
1731474149.3890233,-0.36403632164001465,0.4146801829338074,-9.983406066894531,-0.024337976500183815,-0.02867303224288523,0.0026579400926440414,1.7341393638034677,-14.207555845090848,0.8800078244683646
1731474149.4399798,-0.36403632164001465,0.4146801829338074,-9.983406066894531,-0.02404175830816392,-0.030564417652691387,0.0026645768180760788,1.6968624831738994,-14.334983269564159,0.8800001450678153
1731474149.4399798,-0.3282560706138611,0.4430561661720276,-9.990992546081543,-0.023687990267170007,-0.03228004288222628,0.0026736989525828927,1.696591542331429,-14.335908962572269,0.880000114714152
1731474149.489963,-0.34830936789512634,0.4099680185317993,-9.985173225402832,-0.0232779695076251,-0.033822092436347026,0.002685320562359258,1.6602628907682204,-14.459972097830384,0.8799993873275622
1731474149.5398574,-0.3367198407649994,0.4484230577945709,-9.979958534240723,-0.022813367327830264,-0.03519315928106781,0.0026994257850591675,1.6237864712783678,-14.58380352342433,0.8800022958552222
1731474149.5898209,-0.3511849343776703,0.42940324544906616,-9.9827299118042,-0.022296239909611392,-0.036396276272017705,0.002715992260626943,1.5870913319838198,-14.708898696569618,0.8800146239582011
1731474149.639785,-0.3449540138244629,0.44740235805511475,-9.993281364440918,-0.021728959322586373,-0.0374349551111762,0.002735013482234908,1.550439149165282,-14.833752368240104,0.880033714380679
1731474149.689714,-0.348348468542099,0.4309273660182953,-9.968509674072266,-0.021114139312832302,-0.03831320803453399,0.002756488134352263,1.5135800660284207,-14.958519645948702,0.8800258817855902
1731474149.7397473,-0.3465837836265564,0.4344233572483063,-9.99363899230957,-0.020454584961631703,-0.039035511439019496,0.0027804218755878977,1.4766839173546729,-15.084028707449388,0.8800553216140892
1731474149.7896135,-0.35121646523475647,0.43669408559799194,-9.989757537841797,-0.01975325852827744,-0.03960673524744047,0.0028068307401793472,1.4400262269974833,10.423065460106638,0.8800450773593
1731474149.839714,-0.3436480164527893,0.4485608637332916,-9.986307144165039,-0.019013247216656367,-0.04003209877062912,0.0028356986762734654,1.4030893747947453,9.846425982180968,0.8800436342580366
1731474149.8895714,-0.3436480164527893,0.4485608637332916,-9.986307144165039,-0.018237745518575387,-0.040317186087707665,0.0028669460193048776,1.3662664415775307,10.06695079930867,0.8800843694086457
1731474149.8895714,-0.3596985638141632,0.44395580887794495,-9.989258766174316,-0.017430043373359176,-0.04046797191632381,0.0029004455753704637,1.3660880905075832,10.06801800494865,0.8800845838734421
1731474149.9394937,-0.3440133035182953,0.440993994474411,-9.989282608032227,-0.01659348163720113,-0.04049079161116412,0.002936034825738869,1.3292033333526916,10.288552323236505,0.8801325729592888
1731474149.9894161,-0.3629949986934662,0.4327376186847687,-9.978323936462402,-0.01573139228854274,-0.04039225177118701,0.0029735184665465684,1.2922619481345134,10.509084815651123,0.8801879211958087
1731474150.0394707,-0.35161831974983215,0.4358040392398834,-9.977865219116211,-0.014847055505761264,-0.040179121776026616,0.0030127031601390668,1.2548725904921765,10.066325875759723,0.8801495369898983
1731474150.0892787,-0.3588835597038269,0.44195646047592163,-9.983288764953613,-0.013943667385816857,-0.03985825416411708,0.0030534511427146725,1.2181313990662317,10.233019344017423,0.88021007811205
1731474150.1392915,-0.3525645434856415,0.4376795291900635,-9.988021850585938,-0.013024324771218697,-0.03943655882042961,0.0030956900736068835,1.1809062063222868,10.401657449934167,0.8802790247897188
1731474150.1892414,-0.3610277473926544,0.4366692900657654,-9.989734649658203,-0.012092025002988184,-0.03892099582180762,0.0031393662357027423,1.1438108482768938,10.093262718245612,0.8802190105295723
1731474150.239233,-0.35390523076057434,0.44004589319229126,-9.980785369873047,-0.011149659743395483,-0.03831854676878858,0.0031843981901886627,1.1063628350434516,10.226218237897532,0.8802923596971091
1731474150.2891834,-0.34808841347694397,0.4356316924095154,-9.990507125854492,-0.01020001669726332,-0.037636179041381196,0.0032306728360724005,1.0693429085338293,10.357465398400574,0.8803727842852406
1731474150.3391497,-0.3495331108570099,0.4318283796310425,-9.987534523010254,-0.00924581269555384,-0.0368808112933549,0.003278055755254611,1.0320635804414233,10.10682717883852,0.8802917677439839
1731474150.3889644,-0.34229859709739685,0.43807172775268555,-9.979005813598633,-0.008289738503718082,-0.036059269700999666,0.0033263913055228177,0.9949750619199716,10.21156201252443,0.8803749127075119
1731474150.4399717,-0.35194361209869385,0.43843650817871094,-9.987793922424316,-0.0073344818089886845,-0.035178258989695364,0.003375518354774783,0.9568495949196006,10.040934674073219,0.8803069923535277
1731474150.4899325,-0.3497510850429535,0.43838438391685486,-9.9824857711792,-0.0063827146742884075,-0.03424436412034114,0.003425293010879533,0.9195482390747997,9.939541048020493,0.8802685317593842
1731474150.5399475,-0.3440338671207428,0.4448617100715637,-9.980924606323242,-0.005437060855396925,-0.03326405942611023,0.0034755930897707632,0.8821620773574359,10.011320350918576,0.8803530935636429
1731474150.5898569,-0.3435697555541992,0.4436219334602356,-9.993441581726074,-0.00450008593246986,-0.03224371678320301,0.003526314339902851,0.844900980983795,10.082754195610015,0.8804460636711726
1731474150.6397717,-0.3434273302555084,0.4445556402206421,-9.981748580932617,-0.00357431523099078,-0.031189613283694313,0.0035773531345111584,0.8076360141634038,9.963856425430269,0.8803743920614824
1731474150.6896904,-0.34205594658851624,0.4357181191444397,-9.985618591308594,-0.0026622428154313444,-0.030107916241957623,0.003628588164238298,0.7703509661344038,10.022979092427155,0.8804709654306391
1731474150.7397027,-0.3368449807167053,0.4365089237689972,-9.985532760620117,-0.0017663282683844682,-0.0290046319854564,0.0036798893577472055,0.7327995233974487,9.921776821343524,0.8804019735229284
1731474150.7896504,-0.3368449807167053,0.4365089237689972,-9.985532760620117,-0.0008890025753834298,-0.027885543255830317,0.0037311302339432632,0.6955122397782108,9.97080991555348,0.880502489550537
1731474150.7896504,-0.3370206654071808,0.44003918766975403,-9.988101959228516,-3.2677721101452854e-05,-0.026756174727913078,0.0037821829430897172,0.6952829658230689,9.971111189439295,0.880503136283294
1731474150.839731,-0.34878137707710266,0.4350849390029907,-9.995030403137207,0.0008002708748506898,-0.0256217904325179,0.003832900773740828,0.6580103377227263,9.87966837496692,0.8804299626987628
1731474150.8894904,-0.34878137707710266,0.4350849390029907,-9.995030403137207,0.0016075678344642658,-0.02448739053205974,0.003883083581817903,0.6208768039374714,9.919977168752245,0.8805335537025364
1731474150.8894904,-0.34958556294441223,0.43955448269844055,-9.992443084716797,0.00238711838945196,-0.02335769692841618,0.003932443642076016,0.6206517612203406,9.920221283820354,0.8805342107293255
1731474150.9395454,-0.33814793825149536,0.4347154200077057,-9.992836952209473,0.0031370464611536,-0.022237148691107954,0.003980603908937767,0.5833246797109806,9.96068820500006,0.8806481912066451
1731474150.9894862,-0.3534073531627655,0.43426117300987244,-9.98823356628418,0.003855678307798064,-0.021129903650692738,0.004027126569083971,0.5460607235485383,10.001042189974372,0.8807719628670417
1731474151.0393903,-0.35689619183540344,0.43784937262535095,-9.982269287109375,0.0045415393203503684,-0.020039830270093727,0.0040715569211877195,0.5087760389299499,9.882240033933922,0.8806120335624037
1731474151.089344,-0.34376397728919983,0.4424741268157959,-9.984296798706055,0.005193393629925171,-0.01897051141349578,0.004113477371224516,0.47150632333510983,9.914384582418236,0.8807342568692392
1731474151.1394033,-0.34501925110816956,0.4349685609340668,-9.980411529541016,0.0058102507162748965,-0.017925270635327385,0.004152552288226663,0.4340706984624516,9.819198294156799,0.8806006331546804
1731474151.1892505,-0.35001081228256226,0.4367660880088806,-9.98748779296875,0.006391316265832084,-0.01690718416830321,0.00418854300842431,0.3969259382452596,9.84465326830319,0.8807228994817791
1731474151.2393665,-0.35077399015426636,0.4410512447357178,-9.983784675598145,0.006935965949107976,-0.015919069545660483,0.004221294240152993,0.35945839261212875,9.8702997152677,0.8808568386007103
1731474151.2891529,-0.3346041738986969,0.4414082169532776,-9.978825569152832,0.007443748500076761,-0.014963489909700714,0.004250716499241667,0.3223700169551862,9.895662518195019,0.8806897491644068
1731474151.339152,-0.3532467186450958,0.44168803095817566,-9.982125282287598,0.007914361004971435,-0.01404278055096695,0.004276791627758143,0.28509831506412003,9.921125601709418,0.8808218462350444
1731474151.38902,-0.3444956839084625,0.44681721925735474,-9.989038467407227,0.008347624221565493,-0.013159072531604251,0.004299579404547744,0.24799605327053534,9.94645520793406,0.8806782333801068
1731474151.4390323,-0.3412024676799774,0.45108357071876526,-9.988518714904785,0.00874349024512562,-0.012314317788585934,0.004319185589687854,0.21064925010032282,9.971932207398076,0.8808110014794591
1731474151.4888942,-0.35135704278945923,0.44728460907936096,-9.988907814025879,0.009102041906347141,-0.011510322898227723,0.004335712098382631,0.1735933845782347,9.99719874549686,0.8806807815090207
1731474151.5399947,-0.3428148031234741,0.43845781683921814,-9.985496520996094,0.009423484944243193,-0.010748757055009432,0.004349234563729746,0.1355568393714087,10.023119014321427,0.8808174407941188
1731474151.589838,-0.35130253434181213,0.43799132108688354,-9.989453315734863,0.00970815589078795,-0.010031106143817442,0.004359809221056646,0.09855545618129954,10.048324121640968,0.8809614091834126
1731474151.6397727,-0.34227749705314636,0.4340595602989197,-9.994230270385742,0.009956525418131329,-0.009358604560488013,0.004367475676814808,0.06146078155748424,10.073588384109636,0.8807897844804206
1731474151.6898038,-0.345090389251709,0.4354267120361328,-9.992863655090332,0.01016918418951265,-0.008732191100271607,0.004372235171963754,0.024309488857843772,10.09888270080175,0.880933101933288
1731474151.7628806,-0.345090389251709,0.4354267120361328,-9.992863655090332,0.010346819579557784,-0.00815249856670634,0.004374026008232821,-0.029821129817492527,10.135734433269867,0.8808447948350504
1731474151.7628806,-0.3515869379043579,0.4293767511844635,-9.992466926574707,0.010490206755556996,-0.0076198609002914395,0.004372722534877826,-0.03006432155521942,10.13589996839757,0.8808457294479521
1731474151.7896523,-0.3438718020915985,0.40278133749961853,-9.977875709533691,0.010600222309495897,-0.007134290339640722,0.004368163337394069,-0.04965413289329969,10.1492343371279,0.8809225750963013
1731474151.839626,-0.3230764865875244,0.15276339650154114,-9.979936599731445,0.010677827284280784,-0.006695153912246203,0.0043602145317098205,-0.08672045645706589,10.174469133848817,0.8807761245025509
1731474151.8895721,-0.22208143770694733,0.187400683760643,-10.070066452026367,0.01072387679035382,-0.00630022550884452,0.0043487610094068724,-0.12364807685898076,10.1996077733108,0.8809177261999951
1731474151.939552,-0.3626958727836609,-0.3957504630088806,-10.0033597946167,0.010738772791097178,-0.0059440857410521155,0.004333484899521365,-0.1606080840345318,10.224771413684296,0.8810703892568031
1731474151.989412,-0.49128592014312744,-0.6028002500534058,-10.101073265075684,0.010722540581938335,-0.0056156362269977516,0.004313574348281283,1.0978108897954335,10.249787649839359,0.8808796837571217
1731474152.039409,-0.33004650473594666,0.15001556277275085,-9.991525650024414,0.01067559757806685,-0.005295771261483648,0.004287592256287049,1.2091175284087494,10.274961221223457,0.8807609206686877
1731474152.0893848,-0.42409035563468933,-0.23452405631542206,-9.928579330444336,0.010599320302095193,-0.004958001068071913,0.004253674578152629,1.1998043971459182,10.300144182493538,0.8809005879992668
1731474152.139399,-0.3635537326335907,0.16380023956298828,-9.96257495880127,0.010495903493720031,-0.0045716729304336795,0.004210117714699208,1.190527633403618,10.325288331873262,0.8810507103732975
1731474152.1892323,-0.3265819549560547,0.03705446049571037,-9.926668167114258,0.010368019134208624,-0.004104771627014996,0.00415593646806044,1.181321724925907,10.35029994500358,0.8812105060488857
1731474152.2392316,-0.34383344650268555,0.2610261142253876,-9.951214790344238,0.010218477257750633,-0.0035257553504138227,0.004091022550659933,1.17210017888758,10.375414347009485,0.8813813151954939
1731474152.2891235,-0.35642221570014954,0.23940710723400116,-9.95168685913086,0.010049926665145127,-0.0028051287156832336,0.004016059595011185,1.2331731854575805,10.400378935673732,0.8810895383766065
1731474152.3392637,-0.3735845685005188,0.305618554353714,-9.976515769958496,0.009864827114227832,-0.0019166752411020724,0.0039323440357007695,1.2262053008521667,10.425606384373324,0.8812512429732242
1731474152.389072,-0.3662432134151459,0.2762035131454468,-9.98367977142334,0.009665612151351274,-0.0008381755704565816,0.003841528710928684,1.2528235664452922,10.450543986571356,0.8834302780645812
1731474152.4390504,-0.3853393793106079,0.2848801612854004,-9.992253303527832,0.00945481869033132,0.00044841936789691674,0.003745363228457375,1.2469371393465731,10.475658243235287,0.8838320852895637
1731474152.4890246,-0.3745778203010559,0.2969180941581726,-9.987142562866211,0.009235142738557127,0.0019571591003554475,0.003645508086780725,1.2620423119519835,10.500696383296365,0.886088577825878
1731474152.539969,-0.36941108107566833,0.32635197043418884,-10.017279624938965,0.009009439595239083,0.003698307329323619,0.0035434286267485974,1.256736243166579,10.52630351289549,0.8867146768946855
1731474152.5898287,-0.3613957464694977,0.32036691904067993,-9.987659454345703,0.008780650094396564,0.005678460094919454,0.003440318177696719,1.2515779092925856,10.551317258047337,0.8873347526096133
1731474152.6398501,-0.3613957464694977,0.32036691904067993,-9.987659454345703,0.008551678881014048,0.007900665088322559,0.0033370815086058523,1.2635180109463044,10.576509861161673,0.8872192268981708
1731474152.6398501,-0.3558109700679779,0.3377763330936432,-10.017905235290527,0.00832529158193975,0.010364648938051675,0.0032343978946681533,1.2634891358221902,10.576669814325323,0.8872227465019257
1731474152.6896672,0.11172740161418915,0.9410831928253174,-9.988750457763672,0.00810363045485683,0.013066537462042819,0.003132745048052642,1.259030711360514,10.601437876730781,0.8877712152661558
1731474152.7397246,0.6022413969039917,1.6053311824798584,-9.950591087341309,0.007886124896258574,0.01599641683652663,0.0030324273346699912,1.2664060982900411,10.626740731020305,0.8877083251850784
1731474152.7897217,0.45707929134368896,1.1785728931427002,-9.883322715759277,0.007665736928003371,0.01913387465871356,0.002933845048659527,1.26225592096265,10.652022274424242,0.8882148450251313
1731474152.8396256,0.18722468614578247,0.8254978060722351,-10.014012336730957,0.007426465402371152,0.022445757547398824,0.00283788308808858,1.2581401887731276,10.677260631101637,0.8887266641153659
1731474152.889567,-0.2138817459344864,0.33085402846336365,-10.020838737487793,0.007144841844327796,0.025889438224533483,0.00274587683074698,1.2540512534564374,10.70250564933925,0.8892443353554809
1731474152.939633,-0.84199458360672,-0.42900434136390686,-10.077438354492188,0.006794916477195592,0.029419941854564854,0.002659022845039131,1.262439094267658,10.727961964586537,0.8887796504405259
1731474152.9894435,-1.1347620487213135,-0.6553553342819214,-10.159132957458496,0.006354776765308317,0.03299799905399342,0.0025776607679129995,1.2588504759569568,10.753278037605275,0.8892319463846555
1731474153.0395005,-1.1347620487213135,-0.6553553342819214,-10.159132957458496,0.005812383116861502,0.0365965838876821,0.0025006562412100124,1.2552333848978028,10.778987272091875,0.8864315868709167
1731474153.0395005,-0.5375619530677795,0.026560742408037186,-10.053828239440918,0.00516794670236736,0.040203106732110264,0.002425081124221064,1.2552089814316614,10.779161413846584,0.8864325794665915
1731474153.0893981,-0.6419805884361267,-0.14039817452430725,-10.018117904663086,0.0044317044297687526,0.043816519709673984,0.002346587015159044,1.2516637808651239,10.80455263410288,0.8865798893259702
1731474153.13939,-0.6419805884361267,-0.14039817452430725,-10.018117904663086,0.0036197594055690464,0.04744265277094536,0.002260298558925773,1.2480798435321665,10.830407099562567,0.8867349735867027
1731474153.13939,-0.48468977212905884,0.17504572868347168,-9.904268264770508,0.00275132827344311,0.051091207678266574,0.0021616314526657393,1.2480558529972232,10.830580790256347,0.886736032186069
1731474153.1893013,-0.5061772465705872,0.20886747539043427,-9.975037574768066,0.001847374679905323,0.05477381167684173,0.002046881166766044,1.2445237449008835,10.856237206396997,0.886894515093231
1731474153.2392278,-0.504601240158081,0.35937514901161194,-9.961531639099121,0.0009294457551355822,0.058501704715701784,0.0019135493188332134,1.2409608244636254,10.882283266829967,0.8870594564052184
1731474153.2890863,-0.5235366225242615,0.4285810589790344,-9.942535400390625,1.8905560950822247e-05,0.062283662605988006,0.0017602973429813283,1.2374243728825096,10.908289820312728,0.8849668037558641
1731474153.3391986,-0.5182399153709412,0.41647854447364807,-9.95583724975586,-0.0008632969114215274,0.06612472362193904,0.0015867779863441242,1.2338507112973487,10.93472654097739,0.8849988029698813
1731474153.3890479,-0.5484158992767334,0.4480695128440857,-9.937871932983398,-0.0016966991002111077,0.07002567443060792,0.0013935594073000363,1.2302913447501114,10.961199286181355,0.8844098928255817
1731474153.4390175,-0.5478430390357971,0.4370619058609009,-9.939542770385742,-0.002461369939933831,0.07398317106099411,0.001182065679193722,1.2267152137080377,10.987942442173534,0.884451787513857
1731474153.4889638,-0.5263280868530273,0.4694240391254425,-9.992203712463379,-0.0031379610236211847,0.07799013665525968,0.0009544563808000589,1.2231389312001557,11.014819258731858,0.8841862618928931
1731474153.5389593,-0.5467596054077148,0.46723413467407227,-9.985711097717285,-0.0037078531259669813,0.08203616853400629,0.0007133618595909808,1.2195535998463707,11.041904413387874,0.8842514495914569
1731474153.5898702,-0.551529049873352,0.4757702946662903,-9.996859550476074,-0.004153338937844534,0.08610792404888958,0.0004615309184273363,1.2158893078948863,11.069720231284482,0.8840525201632882
1731474153.6398945,-0.5152885317802429,0.4587487578392029,-9.976001739501953,-0.004457749077591992,0.0901895441704963,0.00020161232140027488,1.2122690131430371,11.097347929802705,0.8841289447106643
1731474153.6898081,-0.5710768699645996,0.47691261768341064,-10.003650665283203,-0.004605575373806725,0.09426314019293501,-6.388770043799642e-05,1.2086635099530576,11.125000006493355,0.8840875308514414
1731474153.7397523,-0.525538980960846,0.48766395449638367,-9.994609832763672,-0.0045825726611988206,0.09830925238621531,-0.0003326202347228169,1.2050393559378871,11.152946538199942,0.8840165482358596
1731474153.789613,-0.5084438323974609,0.5185731053352356,-9.965476989746094,-0.004375844546581315,0.10230717105826986,-0.0006024180531275392,1.2014084574650548,11.181114829967532,0.8841105829622566
1731474153.8396065,-0.5292466878890991,0.4623800218105316,-9.98769760131836,-0.0039740260545599124,0.1062351792156986,-0.000871237043932691,1.1977536474703077,11.209648136244649,0.8842031264702124
1731474153.88953,-0.48913973569869995,0.46731847524642944,-9.979022026062012,-0.0033674761311290246,0.1100709288412713,-0.0011370664359341615,1.194096829998225,11.23839539356663,0.8842929845676555
1731474153.9395475,-0.4685397744178772,0.5056860446929932,-9.99309253692627,-0.002548414537942006,0.1137919362404534,-0.0013979344950116465,1.190421494359053,11.267502377490478,0.8841256728316241
1731474153.9894257,-0.45702219009399414,0.4998912811279297,-9.956080436706543,-0.001511111364711578,0.11737590369207043,-0.001651949907258721,1.1867621028909854,11.296729583144977,0.8839527924600623
1731474154.0394197,-0.4022035002708435,0.5028836131095886,-9.970311164855957,-0.0002521154035526312,0.12080083427205542,-0.001897257297231161,1.1830844068745285,11.326390946054136,0.8840124623558359
1731474154.089314,-0.42270535230636597,0.48164358735084534,-9.983999252319336,0.0012295509049337126,0.12404519395484791,-0.0021319625366871117,1.1794130577843864,11.356316407037605,0.8840670224587934
1731474154.1392968,-0.38456615805625916,0.5007065534591675,-9.960416793823242,0.002932287035291338,0.1270881908949542,-0.0023541487498255926,1.175743986783497,11.386579115022025,0.8841160262528465
1731474154.1892097,-0.3837924003601074,0.4896668791770935,-10.00211238861084,0.004851936197029822,0.12991003936463003,-0.002561951513397823,1.1720962991968342,11.417064579879083,0.8841587646740647
1731474154.2391903,-0.3806689977645874,0.47306615114212036,-10.001392364501953,0.006981882012531162,0.1324921613414059,-0.0027536629903131436,1.1684440657389719,11.44803995893502,0.8841950813652834
1731474154.2891269,-0.5227342247962952,0.9770021438598633,-9.972333908081055,0.009313341592711698,0.1348169486941071,-0.0029278591921782678,1.1648251899954838,11.479227077671611,0.8840302316485593
1731474154.3391964,-0.6536251306533813,1.1910713911056519,-9.957026481628418,0.011836223434435116,0.1368660552030319,-0.003083388575145348,1.1612190600274657,11.510883740232785,0.884049738218135
1731474154.389024,-0.5680765509605408,0.5152410864830017,-9.884139060974121,0.014540447606105629,0.13861805305322117,-0.003219111124914132,1.1576570804578792,11.542785869474761,0.884061314908975
1731474154.438984,-0.8518714904785156,1.0223649740219116,-10.114818572998047,0.017417082558858023,0.14004833064183825,-0.0033336777510072427,1.1541475641965677,11.574905499183894,0.883995679229947
1731474154.4890203,-0.5428992509841919,0.5303182005882263,-9.948053359985352,0.020459016862561588,0.14113108118492382,-0.0034257941721402424,1.1506567487475263,11.60765368493785,0.8839962865565616
1731474154.4890203,-0.5428992509841919,0.5303182005882263,-9.948053359985352,0.02366085932376634,0.14184125506162884,-0.0034946086122656086,1.1495700085272917,11.618025694685358,0.8839946873809547
1731474154.8706543,-0.253031849861145,0.3442539572715759,-9.981415748596191,0.02701762156577448,0.14215656059266357,-0.0035395622423965885,1.1262202169733844,11.868716959019032,0.884118137433996
1731474154.9205117,-0.23775433003902435,1.9156547784805298,-9.855184555053711,0.03052266798855035,0.1420581121900812,-0.003559979270563774,1.1233006459424522,11.904624509978786,0.8841005916571213
1731474154.9705315,-0.4001409411430359,0.5899046659469604,-9.77047061920166,0.03416615959369493,0.14152737521435146,-0.0035546071086090115,1.1205146179614243,11.940235740770031,0.8840588860355669
1731474155.020408,-0.1947299689054489,1.112312912940979,-10.022409439086914,0.03793480028292297,0.14054309019686667,-0.0035210953491144645,1.117761656835026,11.976916207319832,0.8840484534469443
1731474155.0704117,-0.1947299689054489,1.112312912940979,-10.022409439086914,0.041812216385213534,0.13908201129289657,-0.00345623251232763,1.115158751484014,12.013273961973752,0.8839942689878776
1731474155.0704117,-0.21322882175445557,0.8714746236801147,-10.088143348693848,0.045778981354123505,0.1371205411841859,-0.003357134002324802,1.1151425208764891,12.013506334889128,0.88399389725922
1731474155.1203022,-0.2239534556865692,0.9041865468025208,-9.905142784118652,0.04981268844876276,0.13463554051672072,-0.003222150155436131,1.1126103837395072,12.050837564492813,0.8839303498576291
1731474155.1704328,-1.3943976163864136,-0.5810168385505676,-10.084527969360352,0.05388958222553085,0.13160692622344977,-0.003050806315542393,1.1102319805121563,12.088139952778464,0.8838595950063535
1731474155.2202253,-0.5982986688613892,0.3721615672111511,-10.063822746276855,0.05798858273811599,0.12802298349560443,-0.0028435301175322083,1.1079450975680938,12.126589278457155,0.8837797445201905
1731474155.2702136,-0.46314603090286255,0.03619835898280144,-10.011496543884277,0.062094446650125514,0.1238845976618501,-0.0026017805815551232,1.1059119140809115,12.163481553771241,0.8838446042661058
1731474155.320184,-0.5183843374252319,0.10595713555812836,-10.015792846679688,0.06619649357500704,0.11920503273100391,-0.0023280822572377545,1.1039205938446763,12.202941805169848,0.883763240778432
1731474155.3702235,-0.11161405593156815,0.15249505639076233,-10.028287887573242,0.07028528282545482,0.11400770612167441,-0.002025687139101521,1.1022043990628438,12.24048868197218,0.8838180687380296
1731474155.4200754,-0.11161405593156815,0.15249505639076233,-10.028287887573242,0.07435012402419713,0.1083245512963327,-0.0016983075364710146,1.1006229475592613,12.279259059676265,0.8837409940609633
1731474155.4200754,0.01588253118097782,0.03391246125102043,-10.020575523376465,0.07837712127171888,0.10219461251336581,-0.0013500494574120942,1.1005791710066801,12.280404878141336,0.8837386608782306
1731474155.469965,-0.25383296608924866,0.3448643088340759,-9.974748611450195,0.0823481632235419,0.09566275981944396,-0.0009853002271220743,1.0992278992928204,12.318507461834663,0.8836601003115007
1731474155.5198517,-0.10165785253047943,0.2227284014225006,-9.922452926635742,0.08624153660151368,0.08877818035811477,-0.000608405480187141,1.0980525194262474,12.357675639892518,0.8835778673161326
1731474155.5699394,-0.1839110553264618,0.4192267656326294,-9.99095344543457,0.09003324725419587,0.08159244477530896,-0.0002232340845353737,1.0970856389404495,12.397447305463295,0.8836839034256224
1731474155.6198208,-0.19280876219272614,0.3612631559371948,-9.950533866882324,0.09369799952185925,0.07415779282415474,0.00016702991017206916,1.0963304751264225,12.438725107905682,0.8836114221353731
1731474155.6698928,-0.00384950777515769,0.6912849545478821,-9.922014236450195,0.09720972266795481,0.0665256623477043,0.0005598443436610816,1.095857853458711,12.477229401107532,0.883831799246045
1731474155.7207956,0.744889497756958,1.6483407020568848,-9.939879417419434,0.10054089836144481,0.058744081576189,0.0009533405883409336,1.095607499885008,12.518320702296409,0.8841015223139189
1731474155.770732,0.3141680657863617,1.1341841220855713,-10.00156307220459,0.10365995449435254,0.05085307682196654,0.0013463560014817869,1.0956208144501267,12.558314126311597,0.8840929545330483
1731474155.8206358,-0.22723086178302765,1.8611536026000977,-9.893811225891113,0.10652966797481225,0.042880477228149916,0.0017382533752993202,1.095898357023835,12.598980634940308,0.884088145724306
1731474155.8706558,-0.4820658564567566,1.1263463497161865,-9.909140586853027,0.10911021234565442,0.034840669695010575,0.0021288464799257656,1.0964374631718343,12.639081080738519,0.8840881834017467
1731474155.9206085,-0.49431735277175903,1.4234706163406372,-9.892594337463379,0.11136488759494986,0.02673605766652036,0.00251863208639614,1.171905298735357,12.679480144730835,0.884247002492409
1731474155.970523,-0.07631285488605499,0.5004467964172363,-10.070384979248047,0.11326362462516537,0.01856057313864669,0.002908824287411425,1.1802064328246038,12.719815148680533,0.8844555549366044
1731474156.0204434,-0.24069371819496155,-0.35270124673843384,-10.206377029418945,0.11478263994520811,0.01030566185075431,0.0033005950499079457,1.1818724222434687,12.760438701367253,0.88449899567613
1731474156.0704284,-0.6625279188156128,-0.9579870700836182,-10.202309608459473,0.11590296132652851,0.0019691069203569287,0.003693661967887308,1.1838309256215722,12.801176331372151,0.8845512886313152
1731474156.1203353,-0.7205891013145447,-0.26662561297416687,-10.021163940429688,0.11661110890887179,-0.006436532780645318,0.004085325688126939,1.186074101661841,12.841799051436697,0.8846131404902933
1731474156.170457,-0.539745032787323,-0.3440362215042114,-10.02015209197998,0.11690119266522472,-0.014881408190201282,0.004470889254444251,1.1881215135742758,1.123142125954128,0.8847374579536943
1731474156.220292,-0.539745032787323,-0.3440362215042114,-10.02015209197998,0.11677540091994737,-0.023321723373015232,0.004844888244158822,1.1904892504726097,0.9553779655235595,0.884819932553991
1731474156.220292,-0.7099660634994507,-0.18074804544448853,-9.97559928894043,0.11624276047762927,-0.031703930652950865,0.005201974830942818,1.1905068493770474,0.9542032192449014,0.8848205523968176
1731474156.270222,-0.4648881256580353,-0.01231425255537033,-9.95477294921875,0.1153180302192909,-0.039967851684950616,0.005537314968560935,1.1912226982378447,1.3157603732763707,0.8848561756930552
1731474156.320121,-0.6345815658569336,0.11943099647760391,-9.89240837097168,0.11402092278125225,-0.04804989639081422,0.005846949068405552,1.1937187361172545,1.1871354770518443,0.8849548061071785
1731474156.370157,-0.4727819561958313,0.4156271815299988,-9.890789985656738,0.11237510609005288,-0.05588657554816205,0.006128216134469129,1.1944796251868237,1.3088079720692245,0.884970516260511
1731474156.419992,-0.4727819561958313,0.4156271815299988,-9.890789985656738,0.11040714971245458,-0.06341781307579943,0.006380058785177639,1.197096892486644,1.2083666937632924,0.8850831215791695
1731474156.419992,-0.4746846556663513,0.4383656084537506,-9.960733413696289,0.10814549838419943,-0.07058946994154283,0.006602995495936901,1.1971168184152317,1.2076394756395123,0.8850839935272916
1731474156.4700122,-0.4082532823085785,0.4868992269039154,-9.922954559326172,0.10561956485873143,-0.07735451674689912,0.006798733731645533,1.200006988903605,1.1068633143657793,0.8852131733587567
1731474156.5199811,-0.4082532823085785,0.4868992269039154,-9.922954559326172,0.10285904304947396,-0.0836732306739029,0.006969742386178865,1.199232698798472,1.2199346658735133,0.8851748123438031
1731474156.5199811,-0.42095184326171875,0.46034306287765503,-9.94420051574707,0.09989334182288613,-0.0895130599080263,0.007119051681151548,1.1992524981180315,1.2193573627124754,0.8851757643185636
1731474156.5699735,-0.3570947051048279,0.568742036819458,-9.979055404663086,0.09675118489424421,-0.09484832477107827,0.007250107160571782,1.2021556062966714,1.1381010929961863,0.8853185784269405
1731474156.6198468,-0.35170891880989075,0.5658196806907654,-10.006991386413574,0.09346028862071244,-0.09965999355823268,0.007366442794203386,1.2019463082012187,1.2172012726139985,0.8852693109259746
1731474156.6698449,-0.35522300004959106,0.5524300336837769,-9.985919952392578,0.09004699754332951,-0.1039356092895448,0.007471285898303069,1.2049286832034318,1.1501984574087505,0.8854262476788652
1731474156.7197773,-0.3219449818134308,0.549161434173584,-9.999293327331543,0.08653602857572408,-0.10766899526888615,0.0075673383740663975,1.2081292485655182,1.0829903838224204,0.8856018523056765
1731474156.7707493,-0.28970977663993835,0.5290778875350952,-9.999696731567383,0.08295031871346208,-0.11085962644561254,0.0076567606955249695,1.2116125504353454,1.0141468828608575,0.8858006050563865
1731474156.8206139,-0.3143123984336853,0.5126650929450989,-10.002466201782227,0.07931084609144919,-0.11351189530668235,0.007741204871350963,1.2087521036645466,1.130108103736858,0.885721577736219
1731474156.870688,-0.2599155902862549,0.5240530371665955,-9.9974946975708,0.07563650512524611,-0.11563440895167963,0.007821836303263958,1.2077504623875055,1.1934611397492023,0.8857899501132034
1731474156.9205627,-0.2969132363796234,0.4891177713871002,-9.995007514953613,0.07194409061854827,-0.11723937082563492,0.007899386111446454,1.2107101351746363,1.1483923689925795,0.8860009177162127
1731474156.9705002,-0.2292598932981491,0.49995648860931396,-10.004132270812988,0.06824831398368762,-0.11834203537311835,0.00797422594156446,1.209661215194529,1.2030446226455214,0.886061788422614
1731474157.0204966,-0.2579132318496704,0.4924958348274231,-10.007848739624023,0.06456180401875833,-0.11896020814281362,0.00804641105490567,1.2126402589657639,1.1638256761696362,0.8863015257417398
1731474157.0704823,-0.24598565697669983,0.4703907370567322,-10.037233352661133,0.06089512831671322,-0.11911381355967492,0.008115652539586692,1.2157602540454122,1.1245161459333304,0.8865601784067421
1731474157.1203732,-0.2604096531867981,0.4892358183860779,-9.96359920501709,0.0572569330101466,-0.11882450590390858,0.008181283618698885,1.2190385903208605,1.084776794520972,0.8868400958497301
1731474157.1703653,-0.2412901222705841,0.49372807145118713,-10.008519172668457,0.05365417710523841,-0.11811534264332571,0.008242370439845464,1.2159144827268165,1.0449256397250304,0.886683112114297
1731474157.2202988,-0.25269076228141785,0.49582356214523315,-9.967084884643555,0.05009233684023821,-0.11701058074844536,0.008297929422823553,1.214969491796221,1.004707262182462,0.8868487262468228
1731474157.2702527,-0.29472479224205017,0.49913355708122253,-9.967273712158203,0.046575607928479326,-0.11553552995631541,0.008347093968314843,1.217859839434596,0.9641728786332532,0.8871510324426539
1731474157.3201697,-0.2970694601535797,0.489962100982666,-10.00029182434082,0.043107231702350084,-0.11371637148317446,0.00838920802245315,1.2208582647852178,0.9234042598526662,0.8874738078297458
1731474157.370167,-0.34497785568237305,0.48454904556274414,-9.985206604003906,0.03968992384669598,-0.11157992685059454,0.008423808081105006,1.2239612956333223,0.882335374783799,0.887817687821233
1731474157.4200604,-0.34497785568237305,0.48454904556274414,-9.985206604003906,0.03632628652555407,-0.10915339616493347,0.008450516305551211,1.2202116776596308,0.8410710787953832,0.8874472250849447
1731474157.4200604,-0.33604687452316284,0.4833928644657135,-9.957088470458984,0.03301910749077432,-0.1064641146539828,0.008469024104596072,1.2203294279403696,0.8393087690416912,0.8874608183168117
1731474157.4700716,-0.3997398614883423,0.48361581563949585,-10.031452178955078,0.02977151218016886,-0.10353936082605288,0.008479148698176555,1.2230320504903447,0.7992742463328071,0.8877788656882473
1731474157.5199513,-0.3997398614883423,0.48361581563949585,-10.031452178955078,0.02658711039592853,-0.10040620319822181,0.008480718903398292,1.2202708466396506,0.7564081748918452,0.8874555399355689
1731474157.5199513,-0.34380197525024414,0.5006750226020813,-9.992836952209473,0.023470149077530676,-0.09709138266050668,0.008473315284067216,1.2202894192464886,0.7561000373256406,0.8874578039812742
1731474157.570007,-0.40116724371910095,0.47793707251548767,-9.987176895141602,0.02042544114330007,-0.09362123191221688,0.008456220048167803,1.2227673575333484,0.7152784823847753,0.8877669083769797
1731474157.6199002,-0.3695700168609619,0.49243950843811035,-9.979872703552246,0.017458156455255457,-0.09002158175850423,0.008428645101156797,1.2215717501187928,0.6724118395250412,0.8874627663569085
1731474157.6698487,-0.41193339228630066,0.5345649719238281,-9.984530448913574,0.014573735250991522,-0.08631767970669024,0.008389950123732094,1.223985725065683,0.6303969011533276,0.8877671353736664
1731474157.7197323,-0.39578092098236084,0.5249258279800415,-9.9964017868042,0.01177789763188828,-0.08253424056378905,0.008339702011201513,1.222407684545507,0.5876673610682452,0.8874842342661586
1731474157.7697887,-0.4148857295513153,0.5152393579483032,-10.009360313415527,0.009076645774806602,-0.07869554347610583,0.008277608127025375,1.2246511725559217,0.5446024369174918,0.8877858995452752
1731474157.8206913,-0.38384121656417847,0.5252273082733154,-9.947656631469727,0.006476209604545832,-0.07482537737479755,0.008203441075908938,1.2244126068239607,0.49940049741222753,0.8876645141616825
1731474157.8705866,-0.37471675872802734,0.512197732925415,-9.963825225830078,0.003982878527333724,-0.07094687575974362,0.008117130215051269,1.226508501615572,0.45729061218289463,0.8879668829721605
1731474157.9205194,-0.39332878589630127,0.548274040222168,-9.980907440185547,0.0016027602037563147,-0.0670823918631033,0.008018949040134787,1.2287072350071024,0.41308083009696334,0.8883033835771682
1731474157.970504,-0.3940364420413971,0.5331264734268188,-9.951216697692871,-0.0006583739209364964,-0.06325346598572942,0.007909556321990294,1.2308452169689272,0.3699560724305262,0.8886500359537881
1731474158.0204077,-0.3720216453075409,0.5273372530937195,-10.012054443359375,-0.002795122207839601,-0.05948081855946615,0.007789895165700919,1.2330339042519545,0.3255650701652241,0.8890254365965505
1731474158.070431,-0.36154696345329285,0.5203379988670349,-9.981355667114258,-0.004802530217732826,-0.0557842535174671,0.007661039292722492,1.2297431166895578,0.2821303011102002,0.8883879883728285
1731474158.1203873,-0.33269548416137695,0.5211107134819031,-9.980409622192383,-0.006676292665292275,-0.052182487882177414,0.007524042015545459,1.2316356072285544,0.23686913901344192,0.8887396565925028
1731474158.170318,-0.3207956552505493,0.5135068893432617,-9.99845027923584,-0.008413007697693273,-0.04869300955996797,0.007379893981801286,1.2313075277868193,0.19362105314102232,0.8882318774618884
1731474158.2202368,-0.30687013268470764,0.5224953889846802,-9.994780540466309,-0.010010404563406263,-0.04533199053026489,0.007229526116446281,1.2308040039919637,0.14812902679859657,0.8879316990848533
1731474158.2701979,-0.3119085729122162,0.5182780623435974,-9.960308074951172,-0.01146748093885783,-0.042114247321866416,0.007073791050053316,1.232414309431485,0.10499054761893459,0.8882173113483705
1731474158.3202002,-0.3232634663581848,0.5220323204994202,-9.994431495666504,-0.012784499347788494,-0.039053239245396255,0.006913519029627332,1.2340853647122862,0.05929145566505359,0.888537024510182
1731474158.3702445,-0.3232634663581848,0.5220323204994202,-9.994431495666504,-0.01396284795456839,-0.036161079446663996,0.00674957636579071,1.2328784743110885,0.015566334866236936,0.8881296882451347
1731474158.3702445,-0.28144803643226624,0.5371149778366089,-9.997028350830078,-0.015004887958740085,-0.03344856160588085,0.006582794857893426,1.2328874845436375,0.015286274794001424,0.8881314919478682
1731474158.4200966,-0.28144803643226624,0.5371149778366089,-9.997028350830078,-0.015913947062565704,-0.030925226923692116,0.006413869984421599,1.2342930734552102,-0.02904996046214449,0.888424690855965
1731474158.4200966,-0.31811031699180603,0.5085797905921936,-9.998974800109863,-0.01669437950638178,-0.02859942300796307,0.006243330380840713,1.2343282259139072,-0.03017575148129566,0.8884323333635584
1731474158.4701083,-0.2963423728942871,0.5248386859893799,-9.973089218139648,-0.01735145966404935,-0.026478267831969906,0.006071567016124492,1.2337204459830988,-0.07404028440097404,0.8878947619043599
1731474158.5199509,-0.2880183458328247,0.5108221173286438,-10.006240844726562,-0.01789116684643355,-0.02456756627572675,0.005898902899722012,1.2349932704341724,-0.11894331143050389,0.888154465507661
1731474158.5699735,-0.2880183458328247,0.5108221173286438,-10.006240844726562,-0.018320082205809,-0.022871777987738717,0.005725615868692568,1.2362251180797783,-0.1640626762961117,0.8884296570239539
1731474158.5699735,-0.2980497181415558,0.49068212509155273,-9.973512649536133,-0.01864535735562704,-0.021394005160153953,0.005551886882998612,1.2362332690254307,-0.16436714424782017,0.8884315616765349
1731474158.6198955,-0.2980497181415558,0.49068212509155273,-9.973512649536133,-0.018874610408461737,-0.02013594639551518,0.005377836992745127,1.2374059175350802,-0.20906816419759297,0.8887177040085837
1731474158.6198955,-0.31672346591949463,0.5230117440223694,-9.992152214050293,-0.01901575223570085,-0.01909788646958603,0.005203667533093889,1.2374142865378246,-0.20939386364959217,0.8887198362528241
1731474158.6698563,-0.3087119460105896,0.5085582733154297,-10.039146423339844,-0.0190767995504107,-0.018278824411019082,0.0050296565064972265,1.235554883527029,-0.2539379203645228,0.8881172692224238
1731474158.719787,-0.37044280767440796,0.5171928405761719,-9.983965873718262,-0.019065671102097066,-0.01767667640066852,0.004855955613946295,1.2364942746694716,-0.2990982914354328,0.8883742850752113
1731474158.769825,-0.35450124740600586,0.50801682472229,-9.950888633728027,-0.018989917239692206,-0.017288408235346497,0.0046825175620395345,1.2364770632898032,-0.3442805615654896,0.887911535880144
1731474158.8206687,-0.3457523584365845,0.5308553576469421,-10.02107048034668,-0.01885646726496814,-0.017110108088668738,0.004509296765413278,1.2373900599187546,-0.39052687455332186,0.8881506192895255
1731474158.8708599,-0.3598632216453552,0.5240755081176758,-9.973990440368652,-0.018671565032747195,-0.017137091538652487,0.004336376484543494,1.2382359732709283,-0.43582269100838406,0.8883957542461283
1731474158.9206185,-0.37419551610946655,0.5006221532821655,-9.971975326538086,-0.018440815075135897,-0.017364007738645007,0.004163911739038975,1.2390341888435656,-0.48108733913520996,0.8886510949636822
1731474158.970634,-0.3892771303653717,0.5268489718437195,-10.022506713867188,-0.018169146120673028,-0.017784861940876383,0.003992111907744093,1.2381323386284544,-0.5261302556341033,0.8881645877096984
1731474159.0204418,-0.3892771303653717,0.5268489718437195,-10.022506713867188,-0.017860707095643743,-0.018393030545697707,0.003821167439863545,1.2387931877335987,-0.5713196485232949,0.888398729354308
1731474159.0204418,-0.42074161767959595,0.5047159194946289,-9.953629493713379,-0.017518787002626518,-0.01918134981455946,0.00365109138727758,1.238797598580244,-0.571631937395476,0.8884003794956735
1731474159.0705018,-0.4061630666255951,0.5313308238983154,-9.978107452392578,-0.017145762628214052,-0.02014218572483997,0.003481793801723687,1.2409031514461737,-0.6168634651461514,0.8881384372380667
1731474159.1203768,-0.4061630666255951,0.5313308238983154,-9.978107452392578,-0.01674310058285737,-0.02126748327043222,0.003313338341763985,1.2419613548803492,-0.6623221563869321,0.8878605438343504
1731474159.1203768,-0.40526318550109863,0.5140536427497864,-10.022367477416992,-0.016311466742553724,-0.022548864248995753,0.003145995983313168,1.2419677336657147,-0.6626316855319864,0.8878619031904527
1731474159.170345,-0.3965300917625427,0.502784788608551,-9.966509819030762,-0.0158508977455861,-0.023977671942050405,0.002980077123434015,1.2428807291737185,-0.707920844188111,0.8880643746877872
1731474159.2203305,-0.3965300917625427,0.502784788608551,-9.966509819030762,-0.015360968677386424,-0.02554490206336999,0.0028158635532480884,1.2437589073910775,-0.7534687018158046,0.8882749308104715
1731474159.2203305,-0.38581791520118713,0.508468508720398,-9.955740928649902,-0.014840952232561183,-0.027241143634518544,0.0026537624688343334,1.2437645706010252,-0.753769227676616,0.888276342357588
1731474159.2702694,-0.3934820294380188,0.535594642162323,-9.982986450195312,-0.014289962167800572,-0.029056643895993276,0.0024944588424688613,1.2446013563326037,-0.799151770151369,0.8884924284176223
1731474159.3201983,-0.35386738181114197,0.5342658758163452,-9.970437049865723,-0.013707087756456477,-0.030981499544120952,0.00233888730090614,1.2455091565755132,-0.8449533210725786,0.8880461905105446
1731474159.3701587,-0.3599652647972107,0.5136325359344482,-9.988588333129883,-0.013091569599949178,-0.03300585157329293,0.002188103654233005,1.2463454161713987,-0.8907801306348324,0.8882339005733707
1731474159.4200087,-0.32312655448913574,0.5253065824508667,-10.006949424743652,-0.01244302063668027,-0.03511994281327963,0.002043150785987433,1.247855177620108,-0.9368259293159359,0.8878843336234766
1731474159.4701254,-0.32851725816726685,0.5242536067962646,-9.958294868469238,-0.011761633206756123,-0.03731408752557842,0.001904947137188382,1.248741974382689,-0.9826723376339342,0.8880483382804555
1731474159.5200732,-0.32851725816726685,0.5242536067962646,-9.958294868469238,-0.01104831082004942,-0.03957868366285629,0.0017743143785188802,1.2496029558813029,-1.0287487887849387,0.8882174060819777
1731474159.5200732,-0.2989529073238373,0.5134327411651611,-9.978981018066406,-0.010304702793832454,-0.04190425106217473,0.001652140967305313,1.2496082153018926,-1.029035167423786,0.8882184695774086
1731474159.5699933,-0.2976040542125702,0.528435468673706,-10.035711288452148,-0.009533220839359036,-0.04428144030517592,0.0015393911239428306,1.2504354018104655,-1.074769871216634,0.8883900036245289
1731474159.6201284,-0.2584826648235321,0.5214108228683472,-9.999695777893066,-0.008737116223968337,-0.046701050393774465,0.0014368384555389284,1.2515200322954279,-1.1213459826099812,0.8878413143450439
1731474159.6698892,-0.29298895597457886,0.5123870372772217,-9.98195743560791,-0.007920562106453708,-0.04915406701335058,0.0013448461657216055,1.2523578847724575,-1.1676981497191674,0.8879779714723982
1731474159.7198591,-0.29298895597457886,0.5123870372772217,-9.98195743560791,-0.00708860525433283,-0.05163166277544356,0.0012634553992355193,1.2531778040653594,-1.2142182391790268,0.8881180030014802
1731474159.7198591,-0.2805013358592987,0.5189118385314941,-9.997715950012207,-0.006246960465685291,-0.05412517150468239,0.0011925884362760754,1.2531831299012013,-1.21452414972023,0.8881189329566305
1731474159.7697053,-0.25231388211250305,0.526025652885437,-9.983038902282715,-0.0054018391560488165,-0.05662611493948654,0.0011321151789082673,1.2544848271644147,-1.2605178126320058,0.8875788916342373
1731474159.8196115,-0.2625800669193268,0.5331252813339233,-9.989421844482422,-0.0045599413605231145,-0.059126295861299784,0.00108183546684916,1.255350457830891,-1.3083926484438408,0.8876880366342692
1731474159.870672,-0.25197145342826843,0.5226522088050842,-10.016423225402832,-0.003728480139501466,-0.061617897395593015,0.0010414621805691683,1.2561852140025525,-1.355289461672862,0.8877972784432984
1731474159.9206076,-0.25197145342826843,0.5226522088050842,-10.016423225402832,-0.0029151175415267254,-0.06409352150009578,0.0010105398345522543,1.2570140223765174,-1.4024751191233416,0.8879093898017452
1731474159.9206076,-0.2829984724521637,0.5082409381866455,-9.991646766662598,-0.002127822523249324,-0.06654615152419817,0.0009883374796643574,1.2570192061549166,-1.4027720582111152,0.8879101021013818
1731474159.9705005,-0.28480449318885803,0.5353925824165344,-9.947487831115723,-0.001374639667765562,-0.06896909907636714,0.000973920466635278,1.2582728683743947,-1.449662600250181,0.8874562974823348
1731474160.0204332,-0.2747306227684021,0.5366898775100708,-10.02096939086914,-0.0006634158862204136,-0.07135602958944703,0.000966390291212251,1.260683691178265,-1.5016341900031993,0.887185259715909
1731474160.0705328,-0.2890772521495819,0.5572153329849243,-9.990310668945312,-1.622967873337309e-06,-0.07370108997008984,0.0009649766728493758,1.2615983442839367,-1.544844579718295,0.8872551438665639
1731474160.120394,-0.2890772521495819,0.5572153329849243,-9.990310668945312,0.0006037272046404469,-0.07599906280182568,0.0009689189529853448,1.2626068495488718,-1.5926312353243155,0.8873344380550163
1731474160.120394,-0.30816128849983215,0.5108066201210022,-9.969518661499023,0.0011461822057378531,-0.07824542581982366,0.000977430233450397,1.2626146278449872,-1.5930002558152399,0.8873350585334433
1731474160.1703773,-0.3075338900089264,0.5318730473518372,-9.989680290222168,0.0016199820481652139,-0.08043622638350524,0.0009898088840466085,1.2636244212047898,-1.6409118784468413,0.8874166868963564
1731474160.220353,-0.3376113772392273,0.514896035194397,-9.994827270507812,0.0020201979777093666,-0.08256787279653294,0.0010054942582955358,1.2645248884236258,-1.6891360287875756,0.8871080797581624
1731474160.2703774,-0.34983736276626587,0.5286862254142761,-9.962014198303223,0.002342887842252145,-0.08463702523490177,0.0010240270099697562,1.2655232910612073,-1.7376516598865648,0.8871775891914983
1731474160.3201654,-0.3544542193412781,0.5517596006393433,-9.99022388458252,0.0025852602132813494,-0.0866406176156827,0.0010450484545749626,1.267408956143946,-1.7858813129821867,0.8869466857162742
1731474160.370143,-0.3516252934932709,0.5374683141708374,-9.990341186523438,0.002745764842113036,-0.08857596511809067,0.0010683267129037368,1.2684539854965724,-1.8347114787949548,0.8867922255606218
1731474160.4202018,-0.35329899191856384,0.519231379032135,-9.9598970413208,0.002824056135522391,-0.09044084194986596,0.0010937268292867549,1.26954674932516,-1.884083346371316,0.8868460435655284
1731474160.4702244,-0.3345542550086975,0.5284436941146851,-9.966591835021973,0.002820863241212254,-0.0922334141381981,0.0011212269927237707,1.2706419696738127,-1.9334754809344703,0.8869024105144144
1731474160.5200076,-0.3611922562122345,0.5078816413879395,-10.020652770996094,0.002737825584431251,-0.09395210453725564,0.0011509657666747609,1.2717419803671282,-1.9830031983489924,0.8869615010664645
1731474160.570008,-0.3611922562122345,0.5078816413879395,-10.020652770996094,0.0025773810462682086,-0.0955954888373995,0.0011830933129328377,1.271734279181831,-2.032559831227591,0.8868750310666751
1731474160.570008,-0.3498118817806244,0.5143244862556458,-10.008946418762207,0.0023427304367227885,-0.09716222166475617,0.0012174883309146285,1.2717402819097936,-2.0328575211644084,0.8868753934497021
1731474160.6198819,-0.33152875304222107,0.5191381573677063,-9.96742057800293,0.002037751343042385,-0.0986510249966416,0.0012536778988264225,1.2727432676721198,-2.0825949275629503,0.8869373451433843
1731474160.6699362,-0.3189314603805542,0.520063042640686,-9.994635581970215,0.0016667795533729652,-0.10006075191069805,0.0012910342196563655,1.2732359547083827,-2.1328447218477504,0.8869546508299171
1731474160.7198498,-0.3189314603805542,0.520063042640686,-9.994635581970215,0.00123434614943628,-0.1013904589349147,0.001328972600541585,1.2742197301626006,-2.183588686002241,0.8870296835491847
1731474160.7198498,-0.31146132946014404,0.49782794713974,-9.991044998168945,0.0007449844668554041,-0.10263942234054713,0.0013669674057717508,1.274225924940588,-2.183908519377105,0.8870301658569776
1731474160.7696915,-0.27925825119018555,0.5191643238067627,-9.976333618164062,0.0002030975109691899,-0.10380708969519464,0.0014045145347485332,1.2746515344187017,8.835872068589033,0.8870570654459728
1731474160.8196826,-0.26903486251831055,0.5131709575653076,-9.989280700683594,-0.0003872138088402664,-0.10489304351800612,0.0014411701414702891,1.2755957991172369,9.095277323431059,0.8871423950169022
1731474160.8696597,-0.2614664137363434,0.5186227560043335,-10.001703262329102,-0.001022361945411055,-0.1058970364291909,0.0014765814070854246,1.276007480160052,8.194290993795905,0.8871654373953495
1731474160.9207711,-0.2740640342235565,0.5009732246398926,-9.956851959228516,-0.0016993966539459978,-0.10681902989532031,0.0015104592054197576,1.276923231332771,8.390195747938918,0.8872588685214019
1731474160.9705622,-0.274027019739151,0.5083372592926025,-10.000702857971191,-0.002415971340829421,-0.10765916785043882,0.0015425938840147382,1.2776642529004327,8.08387580921322,0.8873329489942754
1731474161.02048,-0.274027019739151,0.5083372592926025,-10.000702857971191,-0.0031702153562727336,-0.10841772851247217,0.0015728742399597337,1.2794395918193782,7.979818677946882,0.8873023219246143
1731474161.02048,-0.2422710508108139,0.5382094979286194,-10.02502155303955,-0.003960642052959149,-0.10909514535630441,0.0016011663908675673,1.279445708874729,7.980567027928725,0.8873028704231142
1731474161.070523,-0.2966766655445099,0.5066756010055542,-9.966814994812012,-0.004786130260557469,-0.10969210556942227,0.0016271671852358747,1.2804371550764393,8.10244557472551,0.8873943085902027
1731474161.1204453,-0.24885393679141998,0.5543649792671204,-9.974495887756348,-0.005645868885104234,-0.11020963881252374,0.0016504662685661738,1.2814330361232282,8.22620918188941,0.8874914988417892
1731474161.1704516,-0.2737577557563782,0.5325854420661926,-10.017370223999023,-0.006539257782333526,-0.1106491809384495,0.001670728798306372,1.2823958517331038,8.347462037347725,0.8875910392909145
1731474161.2202854,-0.2737577557563782,0.5325854420661926,-10.017370223999023,-0.007465851927455705,-0.11101262655348407,0.0016876813966258688,1.282370508447277,8.16202787594907,0.8874813837557899
1731474161.2202854,-0.2906055152416229,0.5151991844177246,-9.989680290222168,-0.008425284230997204,-0.1113022857449118,0.0017009262858975415,1.2823761617835752,8.162670765432875,0.8874819722005374
1731474161.2703397,-0.3137006163597107,0.5183002948760986,-9.986680030822754,-0.009417097407119377,-0.1115207368818662,0.0017099081493807695,1.283223481724904,8.260209982813755,0.8875734873835517
1731474161.3202085,-0.3137006163597107,0.5183002948760986,-9.986680030822754,-0.010440533832348468,-0.11167069094718277,0.0017140686195310751,1.283721104439881,8.126603970869972,0.8874728255911053
1731474161.3202085,-0.3133438229560852,0.5345419645309448,-10.003192901611328,-0.01149437233019699,-0.11175494518653699,0.001712957120757131,1.283726943487309,8.127179519246043,0.8874734255089095
1731474161.370244,-0.3098906874656677,0.528404951095581,-10.000290870666504,-0.012576886551233762,-0.1117764215994239,0.0017062020257317368,1.2840709721971746,8.049334764420957,0.8874070762030973
1731474161.4202275,-0.33454248309135437,0.49304723739624023,-9.936529159545898,-0.013685881569143474,-0.11173818542311084,0.001693487991997871,1.2847994201900528,8.115928514551532,0.8874845294978715
1731474161.470167,-0.3619610667228699,0.5299280881881714,-10.047443389892578,-0.014818666750861615,-0.11164335298139008,0.0016746407220149067,1.2854839264624585,8.181459925052229,0.8875652479137196
1731474161.5199888,-0.36124423146247864,0.5293492674827576,-9.995766639709473,-0.015971915250030715,-0.11149501446831711,0.0016495987044380673,1.2861340082661323,8.247084559053283,0.8876505570975948
1731474161.570011,-0.3769206404685974,0.5511707663536072,-9.91990852355957,-0.017141527391717697,-0.11129631751555762,0.001618288567989473,1.2858548283010203,8.312368257304014,0.887525156824757
1731474161.6198852,-0.3783719837665558,0.543317973613739,-9.976374626159668,-0.018322596624116342,-0.11105062156359283,0.0015807910244370234,1.2863603192486042,8.377576681129367,0.8876038923297245
1731474161.6698837,-0.24439649283885956,0.7247949242591858,-9.980547904968262,-0.019509576173458325,-0.11076173949859151,0.001537609030181244,1.28681663975294,8.44224054765759,0.8876861855082365
1731474161.7198694,0.5133981704711914,1.6614665985107422,-9.919093132019043,-0.020697521636642936,-0.11043538143950662,0.001489656548494516,1.2862241569973776,8.506826177978958,0.8875492690929359
1731474161.769799,0.2999531030654907,1.1952157020568848,-10.016883850097656,-0.02188527674834028,-0.11008274182260164,0.001438164413149972,1.2865162014511187,8.570946307424926,0.8876245762612127
1731474161.8197489,0.4892212450504303,1.505788803100586,-9.938413619995117,-0.023078865104669905,-0.10972385146186275,0.0013846048268091893,1.2867531802956174,8.635038877840406,0.887703700930527
1731474161.8706505,-0.516516387462616,-0.022402653470635414,-9.965340614318848,-0.02429177893239981,-0.10938676411304699,0.0013305866790676432,1.2862095821578914,8.699931652867853,0.8875616359428272
1731474161.9206002,-0.9550522565841675,-0.21024510264396667,-10.16689682006836,-0.025540581105591216,-0.10910117237654184,0.0012776652885158417,1.2857776923559026,8.76338903313981,0.887471264104437
1731474161.9705899,-0.7593311667442322,-0.04050649330019951,-10.03207015991211,-0.026837866647346276,-0.10888970964028294,0.0012267775173706644,1.2857762963430517,8.826519470595494,0.8875354333101728
1731474162.0203743,-0.5015047788619995,0.2697582244873047,-10.028075218200684,-0.028187790337606343,-0.10876336731630723,0.0011776989180559356,1.2852684665588316,8.88893706401174,0.8874527212800218
1731474162.0706327,-0.6376875638961792,0.10086476802825928,-9.939265251159668,-0.029586624074636025,-0.10872290697524288,0.0011292943960976181,1.2851077428696147,8.952512365058112,0.8875138926498004
1731474162.1203902,-0.4812456965446472,0.29825708270072937,-9.977543830871582,-0.031025297724061013,-0.10876203506991117,0.001080279982455239,1.2848734674742486,9.014805782361265,0.887576868670602
1731474162.1703827,-0.5795964598655701,0.24074093997478485,-9.958183288574219,-0.0324911164557069,-0.10886951559300559,0.0010297561068869899,1.2845633820280866,9.076247553312434,0.8876418459679474
1731474162.2203078,-0.508014976978302,0.46040502190589905,-9.957934379577637,-0.033968723232394554,-0.10903074004731023,0.0009773481193560746,1.284191788585292,9.13834729232964,0.8875181156799992
1731474162.2702415,-0.508804440498352,0.4490143060684204,-9.982624053955078,-0.03544082642580762,-0.10922940859392122,0.0009231584977170013,1.2837429483783167,9.199624448869677,0.8875771413093598
1731474162.320172,-0.48865872621536255,0.4541880786418915,-9.978496551513672,-0.03688887288868186,-0.10944907780700693,0.0008676466694434708,1.2832014418041555,9.260959777500862,0.8876387197543807
1731474162.370213,-0.5410983562469482,0.4174778163433075,-9.919493675231934,-0.03829364724456103,-0.10967402850319612,0.0008115239859369577,1.2830411162216095,9.321968800561994,0.8875121378500996
1731474162.4201007,-0.47556886076927185,0.47924375534057617,-9.938119888305664,-0.039635650854201704,-0.10988944834231848,0.0007558371616278534,1.282376417661743,9.382775899811637,0.8875670691097921
1731474162.47022,-0.47460830211639404,0.529241681098938,-10.030539512634277,-0.040895423976799586,-0.11008155403253088,0.0007020660829618582,1.2816123498901761,9.443201292056406,0.8876237238540446
1731474162.5199964,-0.4850676357746124,0.5224998593330383,-9.974165916442871,-0.04205398278918243,-0.11023799287562422,0.0006518737565926255,1.2813996568053556,9.503447567207047,0.887498260881622
1731474162.5699408,-0.48955443501472473,0.4771479666233063,-9.996931076049805,-0.043093171970830374,-0.11034818809703249,0.0006067270286620758,1.2805039477983275,9.563061864570676,0.8875479588992725
1731474162.6199024,-0.4665283262729645,0.4885329604148865,-9.979948997497559,-0.0439958247037611,-0.11040326968656762,0.0005677946615215885,1.2803168796238382,9.62298821512221,0.8874477647524353
1731474162.669962,-0.46965348720550537,0.5105751752853394,-9.998185157775879,-0.044745906948404406,-0.11039579181933762,0.0005360167196751135,1.2792337025114546,9.682037592409438,0.8873802331671513
1731474162.7198188,-0.4509274959564209,0.5246589779853821,-10.004263877868652,-0.045328722842944966,-0.11031962830721642,0.0005121134644777469,1.278083924477296,9.74117198164453,0.8874194919308486
1731474162.7698064,-0.4414564073085785,0.5083518624305725,-9.974061965942383,-0.045731117220312506,-0.11017004319643782,0.0004965532117810994,1.276819630937436,9.800057327454077,0.8874600312700246
1731474162.8197534,-0.41812509298324585,0.5166147947311401,-9.975350379943848,-0.04594166675256027,-0.1099436968523989,0.000489604497689483,1.2768749907340347,9.858478525623434,0.8873829882746188
1731474162.8696876,-0.38708367943763733,0.5227304100990295,-9.974908828735352,-0.045950892439917804,-0.10963854074566734,0.0004914785033743372,1.275528851128848,9.916653339344949,0.8874193510675649
1731474162.9196005,-0.36882284283638,0.5231413841247559,-9.979649543762207,-0.04575150207005191,-0.10925371807359896,0.0005024234697109696,1.2742416159246568,9.974566566159588,0.8873524444394034
1731474162.970591,-0.3273898661136627,0.5379171371459961,-10.020581245422363,-0.04533863462826519,-0.10878950844425833,0.000522681695925411,1.2726322416920806,10.033518779137292,0.8873863572466119
1731474163.0204976,-0.3707225024700165,0.505232036113739,-9.976547241210938,-0.04471002248292581,-0.1082472607165232,0.0005523491061275294,1.2709456950511449,10.090869945090216,0.8874208597726816
1731474163.070438,-0.3476724922657013,0.5362069010734558,-9.949875831604004,-0.04386594288294818,-0.10762926500698035,0.0005913352573290062,1.2691438767722163,10.148105733551416,0.8874568850399693
1731474163.1203568,-0.3835640251636505,0.5246970653533936,-9.991329193115234,-0.042808949309244754,-0.1069386136752733,0.0006395312930464499,1.269725739757058,10.204860037174809,0.8873689740402305
1731474163.1703653,-0.3614824414253235,0.5287243723869324,-9.99287223815918,-0.04154353176138058,-0.10617911966234989,0.0006969228826912856,1.2679218687723834,10.261382458356698,0.8874016863342673
1731474163.2202575,-0.377625972032547,0.5039097666740417,-9.963214874267578,-0.04007582404694183,-0.105355224260352,0.0007635029402000075,1.2670865997494274,10.317560499939896,0.8873305124940827
1731474163.2702463,-0.3766827881336212,0.5053097605705261,-10.006082534790039,-0.03841337309915127,-0.10447181772835176,0.0008391990313566951,1.2651338484231849,10.37394649847513,0.8873617000535914
1731474163.3201778,-0.37935033440589905,0.516689121723175,-9.970401763916016,-0.036564931972340814,-0.10353404499405318,0.0009238728277692676,1.2641857382950632,10.42981559197981,0.8873018279368144
1731474163.3702471,-0.40080633759498596,0.4964871406555176,-10.002296447753906,-0.03454024408570008,-0.1025471945857578,0.0010172989927720805,1.262120869151389,10.4853508904488,0.8873323727304742
1731474163.4201424,-0.38300633430480957,0.5083088278770447,-10.015450477600098,-0.03234982032156976,-0.10151663763227783,0.0011191131322611518,1.259981728255846,10.540402599380489,0.8873654364233153
1731474163.470025,-0.443865567445755,0.4779611825942993,-10.014248847961426,-0.030004708319018476,-0.1004477389631699,0.0012287025007390365,1.2606425865170505,10.59539014476001,0.8873007969470598
1731474163.5200374,-0.3783123791217804,0.5307408571243286,-9.943964958190918,-0.027516257713675534,-0.09934577040675932,0.0013451589225523012,1.2585654912099846,10.650375848712029,0.8873346256235226
1731474163.569949,-0.4149475693702698,0.529784619808197,-9.995633125305176,-0.02489597536856928,-0.09821594560587918,0.0014674655913476462,1.258979955540301,10.704771092864478,0.8872796156431354
1731474163.6199312,-0.4006003737449646,0.5575022101402283,-9.984058380126953,-0.022155508405455278,-0.09706360561643701,0.001594716789199948,1.2588458050222544,10.759101170120484,0.8872429818023178
1731474163.6698508,-0.4396592080593109,0.5405032634735107,-9.956144332885742,-0.019306591037389097,-0.0958944061160732,0.0017261491549460017,1.2569519443184751,10.813144891654085,0.8872779540537975
1731474163.719805,-0.4295702874660492,0.5543187260627747,-9.9859037399292,-0.016360866493476033,-0.09471437250798272,0.001861138496647089,1.2550093508809421,10.867068677968486,0.8873174876932808
1731474163.7697442,-0.42668965458869934,0.5741111636161804,-9.961564064025879,-0.013329705279387758,-0.09352986865844935,0.001999242846420931,1.2530368349028393,10.920562715040928,0.8873616828065712
1731474163.8196783,-0.4360142648220062,0.5671287775039673,-9.956544876098633,-0.010224130813566124,-0.09234759121089468,0.0021402186995588012,1.2544867339405463,10.973907406267301,0.8872980754561602
1731474163.8696399,-0.4315682351589203,0.557338535785675,-9.982433319091797,-0.00705481347446047,-0.09117456082474426,0.0022840343294291713,1.252706187814187,11.027034224715491,0.8873456956023872
1731474163.9195507,-0.42473089694976807,0.5397765636444092,-10.009066581726074,-0.0038320686193182166,-0.09001799433410282,0.0024308051997837974,1.2509117069642952,11.079945726475696,0.8873992055373741
1731474163.9695463,-0.42673540115356445,0.5290296673774719,-9.97465991973877,-0.0005658785062975316,-0.08888506163895743,0.0025806019795502093,1.2524046706645067,11.132575202584672,0.8873245421107044
1731474164.0205133,-0.41879597306251526,0.5388911366462708,-9.974834442138672,0.002734061686697581,-0.08778264242569911,0.0027333439400236068,1.2507700975931912,11.18629939374437,0.887383419519056
1731474164.070491,-0.38974595069885254,0.5596628785133362,-10.005626678466797,0.006058278492594672,-0.08671720895392446,0.002888857159827568,1.249181104620614,11.238669017174919,0.8874481746560219
1731474164.1204576,-0.38453778624534607,0.5208667516708374,-9.979079246520996,0.009397388745384237,-0.0856948415289036,0.00304689886851505,1.2506866992763113,11.290559869522179,0.887360106811433
1731474164.1704335,-0.3518224358558655,0.524154782295227,-9.996140480041504,0.012741911607470484,-0.08472120495391441,0.003207111440991686,1.2514112117249883,11.342269761713071,0.8873075895552843
1731474164.2203336,-0.34355854988098145,0.5191760063171387,-10.006608963012695,0.01608208253646755,-0.08380141000740965,0.003369002130781233,1.2501966592316067,11.393888769618446,0.8873754493415098
1731474164.270315,-0.3270731568336487,0.5440074801445007,-9.949302673339844,0.01940770354608433,-0.08293991853029702,0.003531955839243409,1.2505947226963325,11.445446734346444,0.8873245339614697
1731474164.3202639,-0.3096349239349365,0.5479848384857178,-10.00139331817627,0.022708051535011597,-0.08214060888063696,0.003695323398837798,1.2495514060130857,11.496516184146987,0.8873997743851378
1731474164.3701947,-0.3083556592464447,0.5252760648727417,-10.021833419799805,0.025971843423182844,-0.08140690527922241,0.0038584824238986778,1.2485648664355247,11.5475775910173,0.8874847350277186
1731474164.4201214,-0.32990550994873047,0.5256478190422058,-9.975671768188477,0.029187286340092183,-0.08074180225101836,0.004020722330567263,1.247651163481268,11.598215036223003,0.8875791167399815
1731474164.4701505,-0.3092363774776459,0.5399481058120728,-9.969268798828125,0.03234225438515041,-0.08014779128316304,0.004181190261561033,1.2491590475442202,11.648850694958773,0.8874688497909979
1731474164.520042,-0.2887982428073883,0.5596032738685608,-9.972800254821777,0.03542447936484021,-0.07962686686737638,0.004339070136172848,1.2485172003984721,11.699415648343011,0.8875691983617315
