Timestamp,IMU_Linear_Acc_X,IMU_Linear_Acc_Y,IMU_Linear_Acc_Z,Filtered_X,Filtered_Y,Filtered_Z,Pose_X,Pose_Y,Pose_Z
1731474136.1591787,-0.33983662724494934,0.4336758553981781,-9.985615730285645,-1.424153068455308e-05,-5.866543662816977e-05,3.075096198592183e-05,2.446885702336949,8.124245067954702,0.8800201263043019
1731474136.2091148,-0.3425276577472687,0.41691985726356506,-9.980188369750977,-1.9020060446326978e-05,-8.30357391413934e-05,4.401060581029464e-05,2.447321703430866,8.124686521771517,0.8800350413832886
1731474136.25901,-0.34130141139030457,0.4240894317626953,-9.983531951904297,-2.463353664140287e-05,-0.00011349931623265929,6.067870814240719e-05,2.4475380327573286,8.128655592796319,0.8807908686830455
1731474136.3090398,-0.3349152207374573,0.42120271921157837,-9.987563133239746,-3.1126021994024426e-05,-0.0001504475256968152,8.111055648114059e-05,2.447763534866926,8.128370411311794,0.8807925319600162
1731474136.3588867,-0.27416113018989563,0.43637028336524963,-9.988398551940918,-3.8636651166923565e-05,-0.00019408152071290078,0.00010563041912356454,2.447961983708759,8.1430960997672,0.880945217446748
1731474136.408835,-0.46316227316856384,0.3740302622318268,-9.99268913269043,-4.7467791294524396e-05,-0.00024442773725727874,0.0001344938420322149,2.448175115809274,8.147114366313367,0.8809456333973085
1731474136.4588637,-0.7430660724639893,0.23497319221496582,-10.004386901855469,-5.747657994883913e-05,-0.0003010882409224962,0.00016784408131507176,2.448297004652654,8.149412387265606,0.8809458714450947
1731474136.5088224,-0.1835746020078659,0.5284029841423035,-9.957141876220703,-6.68451868701557e-05,-0.000362785052665815,0.00020569492743350556,2.453336735839226,8.244429185186245,0.8809558638282212
1731474136.5587819,-0.32869449257850647,0.37620213627815247,-10.047292709350586,-7.210355395599525e-05,-0.0004274628633028787,0.00024795653962814124,2.4600184164348318,8.370404568853074,0.8809696178873835
1731474136.6086814,-0.3212164640426636,0.5026140809059143,-9.98022747039795,-6.974960304868061e-05,-0.0004930216820176209,0.00029439410783434536,2.466665659563214,8.186980465306021,0.8809955648655697
1731474136.6586556,-0.3097893297672272,0.373074471950531,-9.942727088928223,-5.731515438733192e-05,-0.0005577946809166003,0.0003445975652803921,2.4733344733136198,8.209369499881483,0.8809988333376495
1731474136.7085814,-0.36415764689445496,0.45885133743286133,-10.01577377319336,-3.325902875898269e-05,-0.0006205119741912477,0.0003981593248297684,2.4799875017575603,8.183431580443509,0.8810004263968376
1731474136.7586725,-0.3174515664577484,0.43460458517074585,-9.97563648223877,3.342859398039992e-06,-0.0006801619301925484,0.00045481184769658985,2.486711073994549,8.194014626043744,0.8810029763717337
1731474136.808501,-0.37348827719688416,0.42250683903694153,-9.971975326538086,5.299969804922594e-05,-0.0007359776919829224,0.0005143558462467073,2.4934305080551984,8.187381021513357,0.8810016755671011
1731474136.858473,-0.3333224654197693,0.4560640752315521,-10.020543098449707,0.0001159527499913852,-0.000787458693501434,0.0005766068882383773,2.499988747002527,8.194711282950257,0.8810044628620471
1731474136.9084017,-0.3716474175453186,0.4254069924354553,-9.993083000183105,0.00019227750068519006,-0.000834355960851491,0.0006413413901885869,2.506947970083761,8.202489337894177,0.8810023754436864
1731474136.9583972,-0.30855798721313477,0.4505065679550171,-9.975634574890137,0.00028192290167935183,-0.0008766670424850238,0.0007082046432694005,2.5133199849280325,8.209606556118471,0.8810056888557581
1731474137.0092394,-0.33945232629776,0.44332513213157654,-10.006049156188965,0.00038463571341120807,-0.0009146289889717782,0.0007767449284546187,2.520085814225902,8.217163903402763,0.8810028741409233
1731474137.0592687,-0.30693483352661133,0.45724576711654663,-9.974886894226074,0.0004998284549606902,-0.0009487231752916894,0.0008464995313513589,2.5267631083268105,8.224615621503874,0.8810070626853014
1731474137.1091747,-0.3404017686843872,0.42924872040748596,-9.97957992553711,0.0006265156619364172,-0.00097968304693215,0.0009170315078306829,2.5334273538891523,8.232053392788034,0.8810034226271497
1731474137.159192,-0.33027854561805725,0.4503231644630432,-9.993732452392578,0.0007633678203028144,-0.0010084385319641751,0.0009879743948932327,2.5400985226952284,8.239490138445971,0.8810083498821096
1731474137.2090607,-0.3312438130378723,0.4298307001590729,-9.984983444213867,0.0009088274992264166,-0.0010360258507761781,0.0010590410894805017,2.5469120312131057,8.247080519157006,0.8810160195754845
1731474137.2591295,-0.32849225401878357,0.44427555799484253,-9.991825103759766,0.0010611931369885386,-0.0010635239592782686,0.0011299743529736748,2.553434915874229,8.254348485171741,0.8810043903068483
1731474137.308942,-0.3466336131095886,0.43178790807724,-9.988767623901367,0.0012186605965232682,-0.0010920154491530034,0.0012005147112456225,2.560091735244709,8.261753485827537,0.8810104950831009
1731474137.3589773,-0.3226473927497864,0.4400995373725891,-9.986501693725586,0.0013793785372691817,-0.001122557618668153,0.0012703980255715105,2.5667784776273916,8.269194304810084,0.8810048755426698
1731474137.4088914,-0.3401765823364258,0.42628738284111023,-10.006254196166992,0.0015414921407692801,-0.001156155483455199,0.0013393489336352166,2.5735665369965632,8.276732166574858,0.8810118686657293
1731474137.4588525,-0.32638588547706604,0.4399968981742859,-9.992179870605469,0.0017031470241403626,-0.001193730818949894,0.0014070441557440694,2.5801336114299236,8.284026690783655,0.8810054584674673
1731474137.50879,-0.3352645933628082,0.4304140508174896,-9.980989456176758,0.0018624926239959668,-0.0012361055752326843,0.0014730884765951425,2.586852133469227,8.291472185712689,0.8810130849574584
1731474137.5588923,-0.33292460441589355,0.43939563632011414,-9.997173309326172,0.0020177000370656456,-0.0012840089779790533,0.0015370630448795404,2.593549423170203,8.298885617960046,0.8810244480089573
1731474137.6086698,-0.3363683819770813,0.4308415949344635,-9.980420112609863,0.0021669898476796593,-0.0013380886044560654,0.0015985843724896994,2.6003965136754026,8.306467436997092,0.8810069087401229
1731474137.6586838,-0.3302421271800995,0.4421899914741516,-9.979595184326172,0.0023086613045703716,-0.0013989162619111686,0.0016573307470763162,2.6069141816434573,8.313664140537258,0.881015554144333
1731474137.7086177,-0.3302421271800995,0.4421899914741516,-9.979595184326172,0.0024410995649449463,-0.0014670060549219395,0.0017130827242611483,2.613592854034418,8.321043125342088,0.8810069652559485
1731474137.7086177,-0.3371421694755554,0.43059173226356506,-9.996553421020508,0.0025627692063140165,-0.0015428397561888763,0.0017657461268756058,2.613998276085347,8.321489875015395,0.8810074043416726
1731474137.758543,-0.3301190137863159,0.4375700056552887,-9.977168083190918,0.0026722249249198087,-0.0016268579367394792,0.0018153097488823587,2.620320090761965,8.328450755962189,0.8810163792875496
1731474137.8085432,-0.34019094705581665,0.43010377883911133,-9.982741355895996,0.002768136476129583,-0.0017194209208057025,0.0018618080045198148,2.627079542248625,8.335882107425153,0.8810304571908614
1731474137.8584952,-0.33192288875579834,0.43809831142425537,-9.991263389587402,0.002849309616910631,-0.0018207865376606148,0.0019053305922575937,2.633785806840946,8.343242896473429,0.881049096995556
1731474137.9083514,-0.34595686197280884,0.4304082989692688,-9.981121063232422,0.0029147055788462323,-0.0019311121552365435,0.0019460170171513203,2.640662940824158,8.350798032359018,0.8810073918349884
1731474137.9583144,-0.3420066237449646,0.443705290555954,-9.989968299865723,0.0029634705918010146,-0.0020504680168780707,0.001984028372485893,2.647216948257765,8.357967234823871,0.8810175930568743
1731474138.0092392,-0.3420066237449646,0.443705290555954,-9.989968299865723,0.002994968019112282,-0.0021788709564145034,0.002019530374530838,2.654076933846712,8.365481631274179,0.8791837644344653
1731474138.0092392,-0.34163692593574524,0.42966023087501526,-9.989768028259277,0.0030087841986721014,-0.0023163237685589143,0.0020526728844200725,2.6541171764276035,8.365525533976198,0.8791801692153255
1731474138.0592258,-0.33824580907821655,0.44014066457748413,-9.97556209564209,0.0030047038454207187,-0.0024628098649573794,0.0020835821907984144,2.6608734907208773,8.372889145736995,0.878579518704304
1731474138.1091983,-0.341629296541214,0.4363786280155182,-9.98953914642334,0.0029826784284111515,-0.0026182595532676274,0.0021123955334699874,2.6677037796487184,8.380318695631688,0.8779782741676491
1731474138.1591976,-0.3402191698551178,0.43175989389419556,-9.978646278381348,0.002942803572968084,-0.00278253981334862,0.002139295445293594,2.67440098209663,8.387588884010775,0.8773946274062971
1731474138.209059,-0.3476492762565613,0.432100772857666,-9.985774040222168,0.0028853143821501483,-0.002955446461991299,0.002164510037922016,2.6811983310544885,8.394952763403637,0.8768082446823173
1731474138.2590916,-0.33999305963516235,0.4344528317451477,-9.983550071716309,0.0028105938979089006,-0.003136684225123221,0.0021883015871715468,2.687936038347899,8.402269996813017,0.8778154151794401
1731474138.3088815,-0.34422069787979126,0.4327370822429657,-9.9750337600708,0.00271917148416568,-0.0033258654200877757,0.0022109624745892354,2.6946940805742683,8.409561469520211,0.8775209497855714
1731474138.3589008,-0.3437175154685974,0.44072937965393066,-9.988846778869629,0.0026117042053301846,-0.003522532070616422,0.002232821770357726,2.701501766637109,8.416890800447595,0.8772301492662159
1731474138.4087975,-0.34332624077796936,0.4315757751464844,-9.98684024810791,0.002488960209489816,-0.003726184924831482,0.0022542354967820108,2.708424037260032,8.424368538367887,0.8764696582918902
1731474138.458818,-0.33988749980926514,0.436118483543396,-9.992659568786621,0.0023518043675987334,-0.0039362989775574165,0.0022755383023782974,2.7150884720142865,8.431513135241353,0.8761035108139954
1731474138.5087607,-0.33988749980926514,0.436118483543396,-9.992659568786621,0.002201171032399949,-0.004152321113093526,0.0022969903083344457,2.721896339471243,8.438795526026947,0.8757354223948237
1731474138.5087607,-0.3460216820240021,0.428290456533432,-9.99396800994873,0.0020380373216735454,-0.004373666260927572,0.002318747097279511,2.7219380912693976,8.438840138083183,0.8757331834948491
1731474138.5588555,-0.32766076922416687,0.4385663866996765,-9.993430137634277,0.0018634072619601505,-0.0045997122478262965,0.0023408498361495444,2.728703128935098,8.446113013108016,0.8749327707344378
1731474138.6086557,-0.3306537866592407,0.4353063106536865,-9.987985610961914,0.0016782714283611767,-0.004829802857210302,0.0023632361273888754,2.7357165744414935,8.453582556477182,0.8744275500596844
1731474138.6586676,-0.3333236277103424,0.4373985528945923,-9.995209693908691,0.0014835419720976416,-0.005063272706074876,0.0023857672367576677,2.742294423531927,8.460632374920433,0.8733775668515922
1731474138.7086084,-0.3319365978240967,0.4339129328727722,-9.97912311553955,0.0012800258333150632,-0.0052994680892703636,0.0024082595279930315,2.7490589191032386,8.467872108615282,0.8736070105498589
1731474138.758562,-0.333381712436676,0.4398839473724365,-9.9823637008667,0.0010684439013692463,-0.005537749790012682,0.0024305291990852035,2.7558701930435356,8.47507997003307,0.8733633027437372
1731474138.8085184,-0.3302189111709595,0.438150554895401,-9.991358757019043,0.000849450205791204,-0.005777499700387296,0.0024524402689868486,2.762710298027801,8.482301701715915,0.873124737462159
1731474138.8586066,-0.3308621346950531,0.44120118021965027,-9.983616828918457,0.0006236359935254722,-0.006018138874095415,0.002473907361516538,2.769576176533688,8.489533877972834,0.8728915246354807
1731474138.8586066,-0.3308621346950531,0.44120118021965027,-9.983616828918457,0.0003915284969469038,-0.006259144588720145,0.0024948711673177817,2.7716409276398117,8.491779315984477,0.873854291907232
1731474139.2399957,-0.3376094102859497,0.43933042883872986,-9.987139701843262,0.00015360070069785298,-0.0065000583945630415,0.0025152985394644133,2.422235809332185,8.543935167450222,0.8740785316226037
1731474139.2900891,-0.3423849642276764,0.43753117322921753,-9.985186576843262,-8.969135595151545e-05,-0.006740479599848603,0.002535187788699493,2.4220727773373993,8.551026123952637,0.8741196022890869
1731474139.3398674,-0.34360605478286743,0.4366273581981659,-9.992426872253418,-0.0003378497072032418,-0.006980043593621159,0.002554552446439417,2.421397188518531,8.55801143583702,0.8740345218100543
1731474139.389985,-0.3389294445514679,0.4368346929550171,-9.979833602905273,-0.000590290265349101,-0.007218398376373579,0.002573401984917148,2.4211217736085535,8.565069213851157,0.8740571223557964
1731474139.4397805,-0.3331068754196167,0.42958614230155945,-9.990646362304688,-0.0008463490539320196,-0.007455185412420172,0.002591742713228723,2.4208343107045227,8.572367131495687,0.8740874202890784
1731474139.4898527,-0.335146963596344,0.4248596131801605,-9.98840618133545,-0.0011053321956385133,-0.007690008435518245,0.0026095849881705322,2.4205673282622246,8.579068039108765,0.8741215371094415
1731474139.539713,-0.3328384459018707,0.4296468496322632,-9.984148025512695,-0.0013665652719296493,-0.007922389911731125,0.0026269348503363795,2.4203430999018813,8.585970850962056,0.874020315088601
1731474139.5897124,-0.3308675289154053,0.4361976087093353,-9.986226081848145,-0.0016294176883120384,-0.008151758970148195,0.0026437926098206773,2.4200787994451938,8.592935535483617,0.8740369221350542
1731474139.639718,-0.3300713300704956,0.44613346457481384,-9.986385345458984,-0.0018933171083367283,-0.008377505702539655,0.0026601674348285683,2.4191126920559474,8.59985996592393,0.8740142211653639
1731474139.6895943,-0.3355879783630371,0.4400116503238678,-9.9830961227417,-0.0021577581639234556,-0.008599071824329138,0.002676084441884505,2.4185701880432746,8.606766047613519,0.8740294077586133
1731474139.7396622,-0.3371192514896393,0.4425605237483978,-9.980547904968262,-0.0024222865748608387,-0.008816010579797763,0.0026915916237700093,2.4180196078294656,8.613679860915855,0.8740513988488346
1731474139.789675,-0.3371192514896393,0.4425605237483978,-9.980547904968262,-0.002686462459012646,-0.009027992605595772,0.002706780269481368,2.417466397581856,8.620524591618775,0.8740799643310756
1731474139.789675,-0.33719924092292786,0.4419511556625366,-9.980554580688477,-0.002949832458714481,-0.009234792111364784,0.0027218026765636733,2.4174635059156087,8.620560095366944,0.8740801302920405
1731474139.8395355,-0.3354564905166626,0.445912629365921,-9.973817825317383,-0.003211924784393698,-0.009436279013216062,0.0027368790873124145,2.4169033632212558,8.627376639223112,0.8741154584321555
1731474139.8896139,-0.3405797779560089,0.44538143277168274,-9.989174842834473,-0.003472254560682993,-0.00963241898529254,0.002752297145570096,2.418019302609753,8.488667904495438,0.8740136501028388
1731474139.9394777,-0.33414551615715027,0.4462050497531891,-9.99086856842041,-0.0037303254525596127,-0.009823277670338526,0.002768377357553338,2.4177373159168347,8.491247522152978,0.8740289629999115
1731474139.9894018,-0.3440423011779785,0.44702938199043274,-9.984944343566895,-0.003985627834930127,-0.010009019607338639,0.002785404261810344,2.4173184051268097,8.497979849072012,0.8740120160667089
1731474140.0392613,-0.32870543003082275,0.43953606486320496,-9.982325553894043,-0.0042376409842795944,-0.010189893892649318,0.0028035930012401456,2.4169961027077433,8.501352228656314,0.8740272532564862
1731474140.089296,-0.34796392917633057,0.4402678906917572,-9.993621826171875,-0.00448584235782565,-0.010366199244812217,0.00282310759720645,2.416659895708962,8.50472907935606,0.8740497221519371
1731474140.1402464,-0.33399584889411926,0.432169646024704,-9.98773193359375,-0.0047297090928130284,-0.010538231656582608,0.002844064228671635,2.416309230645217,8.508105730068621,0.8740796304331234
1731474140.1902158,-0.339699923992157,0.42898687720298767,-9.98838996887207,-0.004968710903636262,-0.010706227026824966,0.0028665103397201184,2.4165062808152578,8.51300664532587,0.8740138929660626
1731474140.2401154,-0.34191736578941345,0.42445263266563416,-9.988052368164062,-0.0052023144159953575,-0.010870304066909193,0.0028904247269924375,2.416246470531735,8.516689518227682,0.8740304416815022
1731474140.2900033,-0.32970547676086426,0.4250764548778534,-9.985917091369629,-0.005429995046258979,-0.011030419194122,0.002915737595769144,2.4158782300482193,8.523079042213984,0.8740127707631286
1731474140.3400288,-0.32910072803497314,0.4251329004764557,-9.99003791809082,-0.005651266744748071,-0.011186350782240843,0.002942346304594538,2.4151961534147914,8.533619687845778,0.8740113895652935
1731474140.3900661,-0.3384392559528351,0.42610400915145874,-9.983735084533691,-0.005865729136317582,-0.011337714295602788,0.0029701234328217297,2.4147056006363377,8.540644768653591,0.8740270397687234
1731474140.439955,-0.3377346694469452,0.435489296913147,-9.978569030761719,-0.006073072519531969,-0.011484002509840033,0.0029989340544008002,2.414199380737023,8.54765162221779,0.8740501850270215
1731474140.4899478,-0.33423569798469543,0.4322376847267151,-9.991771697998047,-0.006273037542482841,-0.011624647911026692,0.0030286652851814018,2.4150853514891506,8.554658456369758,0.8742286715823826
1731474140.5398195,-0.3368098735809326,0.4413033127784729,-9.979137420654297,-0.006465393195314501,-0.011759090576642246,0.003059234051356621,2.4149092853790473,8.561518027705118,0.8742892849913688
1731474140.5896668,-0.32903242111206055,0.43979355692863464,-9.979314804077148,-0.006649947734959176,-0.011886833803111153,0.0030905809573474946,2.4147162883367126,8.568380047921814,0.8743577363802362
1731474140.6397073,-0.33598414063453674,0.4474576413631439,-9.982017517089844,-0.006826567998816585,-0.012007489708051135,0.003122688752438102,2.4145044193622764,8.575283541620617,0.874434674719986
1731474140.6897366,-0.341476172208786,0.44930747151374817,-9.990230560302734,-0.006995180139094639,-0.01212082058280087,0.0031555907475968353,2.4148080108779233,8.582139739826351,0.8744621075067525
1731474140.7397206,-0.3397352695465088,0.44789478182792664,-9.97748851776123,-0.0071557337720100315,-0.012226771091790371,0.003189339893248069,2.4146526125359107,8.588979872668501,0.8745335037231863
1731474140.7895658,-0.3330007493495941,0.44037196040153503,-9.997563362121582,-0.007308166132414,-0.012325468430285532,0.0032239777918563048,2.414480328764537,8.595741028528055,0.8746123694612602
1731474140.8395772,-0.03880907967686653,0.5903394818305969,-9.978856086730957,-0.0074526791878452,-0.012417309575617218,0.0032595163014621726,2.4142880989131283,8.60252713400575,0.8747000225288726
1731474140.8895676,-0.0758434385061264,0.5316457748413086,-10.008713722229004,-0.007590761298935634,-0.012503360562320823,0.0032959114595130217,2.41261347506624,8.609216139372215,0.8746728871711401
1731474140.9393978,0.48951706290245056,0.8079436421394348,-9.981762886047363,-0.007726962710757106,-0.012586061828284123,0.003333028505351835,2.412087479813325,8.615895487593402,0.874747087278984
1731474140.9892786,0.7771492004394531,0.6103816628456116,-10.015816688537598,-0.007871529798781227,-0.012670022520763047,0.003370610810252175,2.4107448554694324,8.622522311036834,0.8746472093637027
1731474141.0394018,0.1431780755519867,0.499295175075531,-10.044015884399414,-0.008043054307965609,-0.012762237659137244,0.0034082077027551335,2.410058592396409,8.62921887650839,0.8746806795028271
1731474141.0892773,0.413790225982666,0.48516714572906494,-9.909783363342285,-0.008268479621483447,-0.012871099090363936,0.0034451144858149334,2.409363213581113,8.635774761742159,0.8747221220536129
1731474141.1401522,0.038903508335351944,0.3011943995952606,-9.996171951293945,-0.008580234127332073,-0.013004794149236953,0.003480573942609075,2.408069963021129,8.642457525844305,0.8746289772210921
1731474141.1902132,0.22217567265033722,0.33590275049209595,-10.001534461975098,-0.009013208432314493,-0.013169937976574338,0.0035140702111687984,2.407238404276829,8.64900272573652,0.8746519245214903
1731474141.2402446,0.017560504376888275,0.20069876313209534,-9.97430419921875,-0.00960273901515177,-0.013370571534420434,0.003545295722481136,2.405296465423217,8.655534840639435,0.8746199996581251
1731474141.2901216,-0.7728275656700134,-0.02461777999997139,-9.977519989013672,-0.010382450473125072,-0.013607303705008279,0.00357400045921504,2.40405560472527,8.661979438987295,0.8746404695632308
1731474141.3400016,-1.2074174880981445,-0.021463442593812943,-10.009428024291992,-0.011379972366310664,-0.013876222839958083,0.003599997009264923,2.4031798155257587,8.668412953335189,0.8746172311560132
1731474141.3900766,-0.23980385065078735,0.27316224575042725,-9.937684059143066,-0.012611846387596114,-0.014168212846150205,0.003623180059477738,2.4019949470419366,8.674796153961644,0.8746373759764708
1731474141.4400213,-0.7082184553146362,0.12128511071205139,-10.163931846618652,-0.014082539841947324,-0.014469842475855081,0.003643412006263013,2.400769716111036,8.681180474958666,0.8746667519055681
1731474141.4898539,-0.29287877678871155,0.4290388226509094,-9.929959297180176,-0.015787693593061695,-0.01476529970012305,0.0036601972456246296,2.403223492413331,8.687467757973929,0.8746175619371196
1731474141.5398967,-0.5628702044487,0.09986446797847748,-10.001678466796875,-0.017717162405522627,-0.015037996697328245,0.003672530109995168,2.4028118536203844,8.693774566480617,0.8746384567120072
1731474141.5897396,-0.3513105511665344,0.46714502573013306,-10.08678913116455,-0.01985650046527615,-0.01527142287046503,0.0036791651756809636,2.4023576548630112,8.699983126858026,0.8746682554501873
1731474141.6397777,-0.5107159614562988,0.16161222755908966,-9.946783065795898,-0.022187868224527,-0.015449593530207782,0.003678742793397382,2.398840603897497,8.70621322654874,0.8748579986507101
1731474141.6896517,-0.4068586826324463,0.43703973293304443,-9.962201118469238,-0.024690681041956323,-0.0155574167143552,0.003669809969075717,2.3974105968455066,8.712359506058814,0.8749411277687429
1731474141.7396317,-0.49801453948020935,0.2526971399784088,-10.004266738891602,-0.027342088438827086,-0.015580981948433908,0.0036511484541862154,2.3959033505319804,8.718518195250095,0.8750341337762453
1731474141.789641,-0.37864023447036743,0.4197238087654114,-9.953781127929688,-0.030117426416553426,-0.015507803187865604,0.0036219976836973423,2.394339055535873,8.72457998323007,0.87513528885907
1731474141.8394883,-0.42949461936950684,0.29616859555244446,-9.941106796264648,-0.03299080111210176,-0.015327022920779644,0.0035820376677373976,2.3953188951161994,8.730616402451533,0.8750765935232556
1731474141.8893626,-0.41107162833213806,0.3372349739074707,-10.000696182250977,-0.035935733752971474,-0.015029440856194239,0.003531432170958421,2.3910352018856273,8.736602196321666,0.875047015919934
1731474141.9393225,-0.3805420398712158,0.7001015543937683,-9.957939147949219,-0.03892565303575325,-0.014607689182259792,0.003470796629977168,2.388656034186784,8.742573129948154,0.8750856644164706
1731474141.9893405,-0.4000968039035797,0.667378306388855,-9.877378463745117,-0.041934278256882646,-0.014057325059004765,0.0034011247247744078,2.385607380348008,8.748472570007374,0.8750315839632595
1731474142.0393183,-0.4872780740261078,1.1421082019805908,-9.997286796569824,-0.04493587649022096,-0.013378826178927201,0.003323934833484603,2.382678308413112,8.75443814602059,0.8750562640741677
1731474142.0892508,-0.4453103244304657,0.9864438772201538,-9.849359512329102,-0.04790519802903379,-0.012579655184007818,0.0032414140316413187,2.3796858024887357,8.760266360123046,0.8750886497347372
1731474142.139246,-0.5104879140853882,0.7967690229415894,-10.028023719787598,-0.05081726512853747,-0.01167523095700403,0.0031563472290395606,2.382112435875494,8.766099720272699,0.8750216529628088
1731474142.1901712,-0.3782177269458771,0.7711344957351685,-9.996058464050293,-0.0536474053504719,-0.010687743884049883,0.0030718210641524062,2.3803536069811106,8.772014307622364,0.8750415201881222
1731474142.2401364,-0.4499201774597168,0.7072227597236633,-10.010408401489258,-0.056371643854031046,-0.009643618781909348,0.0029907043901380805,2.3814577541310182,8.777780239226855,0.875016241839516
1731474142.2900872,-0.3696022629737854,0.713841438293457,-10.044113159179688,-0.05896724223052345,-0.008571417574538276,0.002915226894557221,2.380257118365939,8.783531965114678,0.8750334929206992
1731474142.3400176,-0.42195576429367065,0.5679761171340942,-9.984193801879883,-0.06141309674368626,-0.007500486533212758,0.002846856338956347,2.378896769162367,8.789304460417425,0.8750581016592837
1731474142.3899982,-0.30900314450263977,0.6061761379241943,-10.027217864990234,-0.06369000646679378,-0.0064597891381514005,0.0027863651155735003,2.3773944093580264,8.795003127935855,0.8750894645389572
1731474142.4399173,-0.36433690786361694,0.5541598200798035,-9.993165969848633,-0.06578098211800193,-0.005476880536201925,0.0027339874222235237,2.380821576264014,8.800683792730206,0.8750153730555708
1731474142.4898849,-0.36433690786361694,0.5541598200798035,-9.993165969848633,-0.06767148970462519,-0.004577267629888104,0.0026895694525240687,2.380080397549758,8.806356735438845,0.875031557877219
1731474142.4898849,-0.3449501693248749,0.5600143671035767,-10.049895286560059,-0.06934942280399994,-0.0037841052233827254,0.0026526578295473563,2.380072277757103,8.806412465027634,0.8750317500603814
1731474142.5398262,-0.3187732696533203,0.5636372566223145,-10.002037048339844,-0.07080497749550307,-0.0031180922853156655,0.0026224694688942066,2.379208233364348,8.811996649068703,0.8750113457928722
1731474142.5898345,-0.30297085642814636,0.5662887096405029,-10.012564659118652,-0.07203069447107485,-0.002597528370125542,0.0025978348372427663,2.3774419405226,8.817585321769702,0.8750098184782963
1731474142.6396751,-0.3056734502315521,0.5174658894538879,-10.006267547607422,-0.07302157606169137,-0.002238383847109341,0.0025772897220160997,2.3759104623768743,8.823284724986651,0.8750233631922667
1731474142.689624,-0.32618317008018494,0.5069574117660522,-9.982719421386719,-0.07377506535422226,-0.0020542175491360956,0.002559243598684151,2.3742114620204906,8.828923800119684,0.8750431563034385
1731474142.7396877,-0.273434042930603,0.514680802822113,-9.964303016662598,-0.07429087464273945,-0.002055996818004042,0.0025421571482509165,2.3723055775643296,8.834625930490978,0.8750696082873608
1731474142.7895157,-0.2996521592140198,0.5227103233337402,-9.985552787780762,-0.07457083642593673,-0.002252053654730404,0.002524740078010734,2.3741933658261103,8.840159438170765,0.8750125342760486
1731474142.8395174,-0.3358599841594696,0.5379204750061035,-9.958097457885742,-0.07461877509623673,-0.0026482691207385433,0.002506067373650887,2.3728553141227873,8.84584610908872,0.8750272449425153
1731474142.8894358,-0.336078017950058,0.4931144118309021,-9.98670482635498,-0.07444019301513963,-0.0032483267240159272,0.0024855819629391223,2.3713634677725333,8.850117216392343,0.8750112003998275
1731474142.939421,-0.33337661623954773,0.5128029584884644,-10.005820274353027,-0.07404184395187054,-0.004053847458933696,0.0024630153013141206,2.369655028539359,8.855739444968213,0.8750251633684257
1731474142.989331,-0.3498041331768036,0.4721747934818268,-9.94282341003418,-0.07343143562870949,-0.005064405655632408,0.002438261735021439,2.367785121994839,8.861279860885753,0.8750450297411922
1731474143.0392566,-0.32534632086753845,0.5132566094398499,-9.986802101135254,-0.07261746838727626,-0.0062775596437534215,0.002411362443774763,2.365709240408937,8.866873321250251,0.8750712228111955
1731474143.0892653,-0.3674081265926361,0.5218324065208435,-10.014200210571289,-0.07160911351805414,-0.007689017902657729,0.0023825468762665204,2.363504635185705,8.871235392268241,0.8750122607137961
1731474143.1392438,-0.40713658928871155,0.5078936219215393,-9.99518871307373,-0.07041601663338766,-0.00929294675593879,0.002352093747215322,2.361076075115468,8.87674976042285,0.8750262254383553
1731474143.1901145,-0.3748840391635895,0.5032426118850708,-9.95654582977295,-0.0690479663037552,-0.011082242472922445,0.0023201754779867073,2.3585130193586306,8.880050395702371,0.8752593473582498
1731474143.2401328,-0.41319382190704346,0.513997495174408,-10.000679969787598,-0.06751461349041762,-0.013048661488104935,0.00228693724994522,2.35585913058186,8.88214573612236,0.8754949269541452
1731474143.2901106,-0.4174082279205322,0.5009680390357971,-9.988465309143066,-0.06582534558451048,-0.015182920936506734,0.0022526050051675153,2.352942423836328,8.88739669346148,0.8756376025881812
1731474143.3401623,-0.4119400978088379,0.5024043917655945,-9.968817710876465,-0.06398919111878677,-0.01747482329536911,0.00221745119648587,2.34984959532359,8.892629844568791,0.8757865300114211
1731474143.3899338,-0.3861069083213806,0.4877097010612488,-9.973749160766602,-0.0620147880877614,-0.019913349918238246,0.0021817935568907345,2.346638197846094,8.897753559617183,0.8759391023917704
1731474143.4400024,-0.3813762664794922,0.4656544327735901,-10.00214672088623,-0.05991052431865458,-0.0224866964446772,0.002146052118928871,2.3433724567937593,1.1337253325670815,0.876866366821924
1731474143.489819,-0.3586125075817108,0.4547431170940399,-9.964475631713867,-0.05768477217359749,-0.02518224454515937,0.0021107159783190802,2.3398676781146506,0.7410590958536576,0.8771954935871816
1731474143.5397732,-0.3363964855670929,0.4302753210067749,-9.970362663269043,-0.05534611720441337,-0.027986496637749582,0.002076304111473677,2.3361886330908184,0.34462590230711254,0.8775329542292475
1731474143.5897393,-0.3230259418487549,0.4246014356613159,-10.018203735351562,-0.0529035759627917,-0.030885024763746875,0.002043386958593188,2.332537761300986,1.3475608273410278,0.8780734078061218
1731474143.6397502,-0.3195480704307556,0.4174511432647705,-9.99730110168457,-0.05036677404752802,-0.033862472127716065,0.0020124962891557973,2.3285913199663257,1.2679528287085053,0.878412694511065
1731474143.6896462,-0.29733991622924805,0.400546669960022,-9.969202995300293,-0.0477460333624744,-0.0369026220345602,0.001983979019255546,2.3245492796046245,1.1887943718575948,0.8787546690855914
1731474143.7396011,-0.2849956750869751,0.3818894624710083,-10.001726150512695,-0.04505240573769641,-0.039988486151315616,0.0019580272412408855,2.320546026398545,1.511994566507425,0.8794195085091324
1731474143.789569,-0.2620607912540436,0.3989132344722748,-10.011852264404297,-0.042297718741429347,-0.043102382772133595,0.0019347558451742,2.316278153867175,1.499339826013064,0.8798647602422568
1731474143.8395295,-0.3114404082298279,0.37750130891799927,-9.98075008392334,-0.03949457746117132,-0.046226069424029306,0.0019141475741085738,2.3120989724623136,1.5785921938495755,0.8805171815533193
1731474143.8895874,-0.29066282510757446,0.38888999819755554,-10.001361846923828,-0.036656191538316105,-0.049340941319225756,0.0018960190196144905,2.307632726799946,1.5802700423310163,0.8810528618248391
1731474143.939539,-0.31284046173095703,0.36997202038764954,-10.00731372833252,-0.03379606676841097,-0.052428225238418044,0.001880069453617236,2.3030619717568945,1.5818263136804334,0.8815952156085615
1731474143.9893997,-0.27976566553115845,0.3753986358642578,-10.026233673095703,-0.030927755345791355,-0.05546914114350908,0.0018658543776928374,2.2984550435845597,1.5832340048765516,0.8821369878109268
1731474144.0392823,-0.2954639196395874,0.3394887149333954,-9.958551406860352,-0.028064745933619368,-0.058445021340595385,0.0018527264774345325,2.2940111031765507,1.6122327234540956,0.8813828182923291
1731474144.089266,-0.5322554707527161,-0.19363191723823547,-10.011695861816406,-0.025220195789707814,-0.06133687854921274,0.001839927336800856,2.289232900876691,1.6149611444831022,0.8816647164963038
1731474144.139285,-0.4975226819515228,-0.47324222326278687,-10.109478950500488,-0.022406045952946572,-0.06412333379457769,0.001826626127294749,2.284696132847403,1.6334041118419493,0.8811930906884193
1731474144.1902807,-0.6517626047134399,-0.1517183631658554,-10.05496883392334,-0.01963176629764795,-0.06677754521493026,0.0018115784379770477,2.2797211265058923,1.6401415963972505,0.881275560521958
1731474144.2401178,-0.7958483099937439,-0.4603233337402344,-10.047149658203125,-0.016903269839138993,-0.06926582266656708,0.0017927508478686337,2.275146504875335,1.6508018612544548,0.8810817938635772
1731474144.2899477,-0.3774668574333191,0.1904527246952057,-9.920002937316895,-0.014222330829213072,-0.0715488596362754,0.0017675045875282678,2.270232774530952,1.6579952555390216,0.8811103566242647
1731474144.3399312,-0.7103548049926758,-0.2533815801143646,-10.023809432983398,-0.011587105488225509,-0.07358432832459981,0.001733237229709152,2.2656136968899117,1.6593752002739823,0.8810341082793494
1731474144.389945,-0.5084047317504883,0.20593859255313873,-9.930323600769043,-0.008993297632511797,-0.0753294715336972,0.0016878879514958252,2.260606581151184,1.6645131686678631,0.8810488326146073
1731474144.4399543,-0.6116470098495483,0.06604569405317307,-9.929553985595703,-0.006434807975015581,-0.07674302470249023,0.0016301286770399666,2.256025648613424,1.668036683514919,0.8810163642897365
1731474144.489831,-0.5259138345718384,0.24936124682426453,-9.96333122253418,-0.0039040715829986522,-0.07778679130000068,0.0015594948465039735,2.2514709302948592,1.6722672697768335,0.8810099856137931
1731474144.5398407,-0.5633005499839783,0.1612505167722702,-9.892698287963867,-0.0013925364780981355,-0.0784269198148098,0.0014764577356750372,2.246432639957517,1.676032094194529,0.8810188781476698
1731474144.5897121,-0.5227437615394592,0.1753193736076355,-9.91405963897705,0.001108883560535229,-0.07863447682234945,0.0013824247693793067,2.2414284571948513,1.6795759909126518,0.8810312628006991
1731474144.6397834,-0.530639111995697,0.1455938071012497,-9.948212623596191,0.0036094353127812087,-0.07838538454126283,0.001279741053836359,2.2363951084368323,1.6829482342590685,0.88104706533069
1731474144.6897333,-0.4877649247646332,0.19532594084739685,-9.93302059173584,0.006118182722841732,-0.07766010928927237,0.0011715246910645614,2.2319770560288843,1.682960992130813,0.8810081083565097
1731474144.7396362,-0.4850020408630371,0.15887004137039185,-9.961091995239258,0.008643657597928438,-0.07644345561831634,0.0010613486178302628,2.2270035660640866,1.6857608428875288,0.8810154200200871
1731474144.7895703,-0.042006008327007294,0.42955347895622253,-9.968608856201172,0.011193143468929103,-0.07472468388686417,0.0009529634222836346,2.2220683073755794,1.6883652493618215,0.8810252141674637
1731474144.8395107,0.20982344448566437,0.5299987196922302,-9.996824264526367,0.013770745351801846,-0.07249830191857841,0.0008500456645611503,2.2178296333626255,1.6936568756027806,0.8810058368645745
1731474144.8894217,-0.2961362600326538,0.27400559186935425,-10.028383255004883,0.016374880784497045,-0.06976516892127478,0.0007559052513959119,2.2129660945171215,1.6970969396312166,0.8810111769001487
1731474144.9395008,-0.07620701938867569,0.45252323150634766,-9.962984085083008,0.018997776057940858,-0.0665325799929981,0.0006732380338036478,2.2088926406876093,1.7011855721939124,0.8810041984301261
1731474144.989377,-0.3626199960708618,0.24273060262203217,-10.05359172821045,0.02162734093548484,-0.06281321799013442,0.0006040559309900439,2.204152499778635,1.7040497593114272,0.8810082760977997
1731474145.0394049,-0.1496284306049347,0.48473837971687317,-10.041500091552734,0.02424917184882694,-0.05862411716594894,0.0005496582405610198,2.2002908282706466,1.7106590993609074,0.8810032594447376
1731474145.0892012,-0.3409866988658905,0.2217046469449997,-10.007319450378418,0.026847658479610934,-0.0539860457591468,0.0005105083498026872,2.195696019320129,1.7144692927109377,0.8810065450123932
1731474145.1393504,-0.19522902369499207,0.4383619427680969,-10.02239990234375,0.02940657247149817,-0.04892297748146514,0.0004862539759701143,2.19204473345851,1.7201201837315525,0.8810026686713252
1731474145.1891997,-0.3174585700035095,0.26658883690834045,-9.997493743896484,0.03190945365115355,-0.043461523480758144,0.00047596112032699246,2.1876140870023066,1.724430756635421,0.8810055223388232
1731474145.2401588,-0.2567730247974396,0.41878947615623474,-9.975645065307617,0.03433993690112462,-0.03763048044339071,0.0004783670538172571,2.1831595338532086,1.728743387032049,0.8810096695504013
1731474145.290124,-0.31867489218711853,0.322895348072052,-10.004502296447754,0.036682088143044356,-0.03146052678119464,0.0004921013545350868,2.178888053072415,1.732878247944288,0.8810149488720973
1731474145.3400424,-0.2900391221046448,0.4151308536529541,-9.99188232421875,0.03892072815547229,-0.024983987882737126,0.0005158134126241442,2.1758299381322885,1.7455858745872426,0.8810026131170696
1731474145.390102,-0.331870973110199,0.35072141885757446,-9.961592674255371,0.04104169071670134,-0.01823461575558235,0.0005481975597171944,2.1717562950615186,1.7516761386169988,0.881005621098742
1731474145.4399805,-0.31109046936035156,0.4003080129623413,-9.982954025268555,0.04303202446301591,-0.01124732205496147,0.0005880701992984228,2.169039334570767,1.772054932949557,0.8810024104199379
1731474145.4899025,-0.3297779858112335,0.40445318818092346,-9.977746963500977,0.04488013394666858,-0.004057898154922144,0.000634471362301151,2.165222401397088,1.7820621450939795,0.8810056235851015
1731474145.5398126,-0.3312694728374481,0.4171616733074188,-9.975252151489258,0.04657585245610154,0.003297186050076545,0.0006866640083656656,2.161511407747814,1.79208972403358,0.8810104913774484
1731474145.589731,-0.3365127444267273,0.42672958970069885,-9.98169231414795,0.048110487221484186,0.010780928061679672,0.0007440867724386156,8.816333858815247,1.8021005922251065,0.8810029421010532
1731474145.6397784,-0.6444383859634399,0.252627432346344,-9.986760139465332,0.0494771256041718,0.018356133830147527,0.0008063155658503433,8.82180286348411,1.8122342329435939,0.8810070326278743
1731474145.6896195,-0.5891392230987549,0.3251998722553253,-9.954066276550293,0.050671635121583763,0.02598619531048232,0.0008730343218450005,8.827347153331571,1.8223315943461538,0.8810131757230055
1731474145.739691,-0.7718563675880432,0.09749940782785416,-9.974160194396973,0.05169402139162232,0.03363614071684932,0.0009440701144942624,8.833076349004973,1.8326062621477062,0.8810216668310954
1731474145.7895942,-0.46285444498062134,0.407083123922348,-9.982929229736328,0.052549079383540406,0.04127345552461086,0.001019442194341061,8.872375867166921,1.8428476643540035,0.8810039240422303
1731474145.839546,0.17480438947677612,0.5993920564651489,-9.956948280334473,0.053245074708646006,0.04886784010721408,0.0010993254879711157,8.874003547793974,1.853301174475261,0.8810095091390695
1731474145.8895202,-0.4296962022781372,0.3416212499141693,-10.036373138427734,0.05379039311502187,0.05638978244131151,0.0011839530170416534,8.875742019788238,1.8637969602775428,0.881004345125618
1731474145.9394314,-0.10667605698108673,0.5735830664634705,-9.944799423217773,0.05419099898202409,0.06380950425097046,0.001273487609791279,8.877642120329892,1.874560484015546,0.881010737053317
1731474145.9893925,-0.4261827766895294,0.25164923071861267,-9.998679161071777,0.05445062393385157,0.07109719149650878,0.001367964429498917,8.879617994603029,1.8853249968373385,0.8810051100627468
1731474146.0393891,-0.4261827766895294,0.25164923071861267,-9.998679161071777,0.05457214473313436,0.07822399392059123,0.0014673435614259364,8.881786714563574,1.8964457096005967,0.8810125067795193
1731474146.0393891,-0.1757666915655136,0.5858380794525146,-10.030649185180664,0.054558636308974284,0.08516305371454322,0.0015714561419263222,8.881801530330707,1.8965199840934577,0.8810125681062122
1731474146.0892906,-0.36952340602874756,0.26452311873435974,-9.984543800354004,0.054413515562247036,0.09188957562925448,0.0016798368415058837,8.884072359380616,1.9076809261500254,0.8810237610277615
1731474146.1392066,-0.2180897742509842,0.5275964140892029,-9.984308242797852,0.054140024365747996,0.09838024881272084,0.0017917155147687523,8.88649286872906,1.9191527237614805,0.8810393265900529
1731474146.1892066,-0.35027265548706055,0.3020928204059601,-9.998504638671875,0.053741014614146904,0.10461313736260709,0.0019061908013515616,8.889051813461872,1.9308967984801753,0.8810595226983305
1731474146.2392662,-0.24522694945335388,0.4789474606513977,-9.97572135925293,0.053219087299272695,0.11056788686994241,0.0020223654682074276,8.891683416377937,1.9429648075427841,0.8810067852780994
1731474146.2900531,-0.32880857586860657,0.3587845265865326,-9.992473602294922,0.05257671815112103,0.11622583975884718,0.0021393865793465075,8.894552691047686,1.955470318530432,0.8810176513540342
1731474146.3401139,-0.28920209407806396,0.4533703923225403,-9.996732711791992,0.051816363565463514,0.12157006401078066,0.002256454939758063,8.897366374105456,1.9681343409980292,0.8810081308225534
1731474146.3900425,-0.32036682963371277,0.38436904549598694,-9.975886344909668,0.05094059095634471,0.1265853402984674,0.0023728071824052318,8.900431178282503,1.9810197684520536,0.8810201740787873
1731474146.4399643,-0.3222068250179291,0.4288286566734314,-9.992498397827148,0.04995221685484507,0.13125817813374752,0.0024877156474274976,8.903642812169753,1.994313934148163,0.8810383933872449
1731474146.4898868,-0.3282969295978546,0.4256960153579712,-9.982223510742188,0.04885442774370531,0.13557683333073015,0.0026005225447175363,8.90695049626953,2.007828987519082,0.8810627831871642
1731474146.5398424,-0.3342430889606476,0.41899538040161133,-9.977553367614746,0.04765087854107889,0.13953127114451971,0.002710659620728561,8.910191335718716,2.021772303502448,0.8810114211006101
1731474146.5898244,-0.3272224962711334,0.4375999867916107,-9.990431785583496,0.046345738814215644,0.1431131112024006,0.002817661098798182,8.913581802777308,2.03599804059518,0.8810100140003314
1731474146.6398294,-0.3272224962711334,0.4375999867916107,-9.990431785583496,0.044943672635456816,0.1463155850533469,0.0029211549952911976,8.91726217405759,2.0506939876036645,0.8810248601614006
1731474146.6398294,-0.348007470369339,0.42216381430625916,-9.980985641479492,0.043449791467299825,0.14913348988987793,0.0030208190634142553,8.917296984971847,2.050832598238356,0.8810250330329176
1731474146.6897447,-0.3311549723148346,0.43346843123435974,-9.981561660766602,0.04186963909263296,0.15156318285271905,0.003116369314937516,8.921016048928504,2.06562257034904,0.8810470616973322
1731474146.7396312,-0.3635404109954834,0.40990909934043884,-9.988479614257812,0.040209206192306696,0.15360262753972387,0.003207589764160275,8.924888831594291,2.0809976146223574,0.8810772314142672
1731474146.789546,-0.32311975955963135,0.4552238881587982,-9.978585243225098,0.03847492460322877,0.1552514122304896,0.0032943408349309137,8.928838818380944,2.0966747734100353,0.8811152887712242
1731474146.8395026,-0.3543110489845276,0.4205108880996704,-9.987153053283691,0.036673605930430044,0.15651068158226844,0.0033765478269185555,8.932675696561475,2.1128422834599854,0.8810129767317274
1731474146.8894835,-0.33690303564071655,0.44204410910606384,-9.983466148376465,0.03481234619242834,0.15738303177604043,0.0034541939455172742,8.936834439595264,2.1294172235874314,0.8810312904468426
1731474146.939377,-0.3456494212150574,0.4204249382019043,-9.974058151245117,0.03289845564804933,0.15787245982315307,0.003527318139562264,8.940778032521617,2.146302009078405,0.8807648279731265
1731474146.9893372,-0.32335811853408813,0.44455331563949585,-9.994388580322266,0.030939389213535874,0.15798434322459076,0.003596021291934371,8.945096430499817,2.1636687147781877,0.8807046217330475
1731474147.0392928,-0.3419918715953827,0.4153200089931488,-9.980100631713867,0.028942637861614856,0.1577253941719246,0.003660453248475233,8.949480074999185,2.181391323967104,0.8806536100446055
1731474147.0892532,-0.33232659101486206,0.44813141226768494,-9.970808982849121,0.026915636868445933,0.1571035998687501,0.0037207923732558703,8.953935269155297,2.1995142902825653,0.8806117901723655
1731474147.1392598,-0.3414287269115448,0.42118310928344727,-9.989472389221191,0.024865732461917707,0.15612814971195244,0.0037772696220774666,8.958089066901078,2.2180051734553974,0.880554473362939
1731474147.1892078,-0.32821929454803467,0.43675288558006287,-9.983247756958008,0.022800164685560263,0.15480935140754,0.003830180907869972,8.962672904764233,2.2369568612729953,0.8805201086583384
1731474147.239118,-0.3308393657207489,0.41653814911842346,-9.989508628845215,0.020726020423018517,0.15315857160876278,0.0038798373564793995,8.96728228603358,2.2561732852736367,0.880495543846125
1731474147.2890556,-0.3233639597892761,0.44228991866111755,-9.99915599822998,0.018650160947092213,0.15118818796114739,0.003926504073043392,8.97151353236181,2.275795902377964,0.8850480001152069
1731474147.34003,-0.3317860960960388,0.42187803983688354,-9.981391906738281,0.016579159213169423,0.14891150359180116,0.003970358107153898,8.976318843945942,2.2962433144283994,0.8860643226718334
1731474147.389953,-0.3199501931667328,0.43816444277763367,-9.984302520751953,0.014519267596580182,0.1463426355044062,0.004011492961819176,8.98106886914995,2.316660886036973,0.8870707176767958
1731474147.4399762,-0.3348630368709564,0.410004585981369,-9.995926856994629,0.012476405468146868,0.14349642982535715,0.004049965668837941,8.985881701313268,2.337567457239712,0.8880933724497312
1731474147.4898822,-0.31965500116348267,0.4335654675960541,-9.987404823303223,0.010456156919159125,0.140388416405176,0.004085807983922078,8.99010746729036,2.35854014156969,0.8893831025316163
1731474147.5398347,-0.33629316091537476,0.42236918210983276,-9.98745346069336,0.008463775354761264,0.13703475124411998,0.0041190042667726325,8.994923218299007,2.3799822339348764,0.8904297393078028
1731474147.5897639,-0.32917505502700806,0.4344494938850403,-9.999245643615723,0.0065041966004703924,0.1334521060916447,0.0041494906941972245,8.999137808095782,2.4017522165240566,0.8939099102489076
1731474147.6397233,-0.3516184091567993,0.42074695229530334,-9.990751266479492,0.004582079168918484,0.1296575430115698,0.004177149646717453,9.00397885806114,2.4238865007607315,0.8958552659187913
1731474147.6896822,-0.3454195261001587,0.43337929248809814,-9.982441902160645,0.0027018783669579692,0.12566841826549102,0.004201802440025227,9.008827171057565,2.446330836712868,0.8978103381572631
1731474147.739603,-0.3505779504776001,0.42843934893608093,-9.977140426635742,0.0008679183075637591,0.12150229756562592,0.004223260134951411,9.012933184226345,2.468983775660314,0.8933246428134485
1731474147.7895708,-0.3442579209804535,0.44717955589294434,-10.014467239379883,-0.0009155875853547701,0.11717684557599933,0.004241379181989463,9.01779087496751,2.492130515557061,0.8937539796359298
1731474147.839557,-0.2940550446510315,0.5944892764091492,-9.976007461547852,-0.0026446168503414425,0.11270954556116064,0.004256024456300633,9.021806278405572,2.5154344137737095,0.8926433598151826
1731474147.889536,-0.20518560707569122,0.54371577501297,-9.946371078491211,-0.004315646167816527,0.10811708327229744,0.0042670615805213905,9.026619312484494,2.539075952234811,0.8927731307837315
1731474147.939503,-0.43645983934402466,0.24578015506267548,-9.995434761047363,-0.00592602863870966,0.1034149974301915,0.004274500762667063,9.03051113297786,2.56293172195289,0.8870088565150471
1731474147.9893682,-0.2412494719028473,0.5809628963470459,-10.00178050994873,-0.007473914794750055,0.09861829351028933,0.004278559185683867,9.035250921689213,2.586962710738265,0.8852600159091523
1731474148.0393229,-0.4226839542388916,0.305077463388443,-9.972904205322266,-0.008957824750993045,0.09374216610751576,0.0042795086485251654,9.039982921250012,2.6112965853720764,0.8835171473738452
1731474148.0892675,-0.17636924982070923,0.6643232107162476,-9.994385719299316,-0.01037649644392593,0.08880188054954286,0.004277566362344021,9.044700129634874,2.635906099316655,0.8817815170618837
1731474148.1391916,-0.017241640016436577,0.4965020716190338,-10.021503448486328,-0.011729429511006254,0.08381209543201966,0.004272889508979579,9.048269089758966,2.660576123465599,0.882593054418238
1731474148.1891968,0.08745230734348297,0.6030604839324951,-10.011589050292969,-0.013018312054883772,0.07878613835492904,0.004265477808851232,9.05173778847536,2.685505155046459,0.878880735542558
1731474148.2391913,-0.9778934717178345,0.07814757525920868,-9.990920066833496,-0.014247686698938555,0.07373608928608162,0.00425505582749332,9.056331147938335,2.710800264647582,0.8769973781822218
1731474148.289004,-0.13256236910820007,0.6477596163749695,-9.916261672973633,-0.015422768537727024,0.06867399022968691,0.004241197943583409,9.060849917120414,2.73606414160566,0.8751400528456676
1731474148.3390393,-0.5607509613037109,0.18505153059959412,-10.030675888061523,-0.01654672419746981,0.06361275083766349,0.004223646671413874,9.065369454909924,2.7617219706384244,0.8732765515922242
1731474148.3899746,-0.24053697288036346,0.6703055500984192,-9.993346214294434,-0.017620528512546713,0.05856587962615099,0.004202400738634041,9.068487780196584,2.787665457077831,0.8789949864190099
1731474148.4399455,-0.4149532914161682,0.18424800038337708,-9.922703742980957,-0.01864406511479569,0.05354690519057559,0.004177546483713691,9.072890247066901,2.813614389780615,0.8786844682782686
1731474148.4898977,-0.32263457775115967,0.564312756061554,-10.011099815368652,-0.01961671069241733,0.04856920548025111,0.004149277587167197,9.0756888678435,2.8394503907026967,0.8796437636022036
1731474148.539939,-0.4096713662147522,0.33358514308929443,-9.978320121765137,-0.020537514461406777,0.04364604921420042,0.004118002813922811,9.079956628968885,2.865600723327697,0.8795801073813969
1731474148.5898108,-0.33266475796699524,0.4822407364845276,-9.983787536621094,-0.021405191228932453,0.038790448025410415,0.004084234469014138,9.082463954208619,2.3915317010937747,0.8798887672186099
1731474148.6398258,-0.36633315682411194,0.4079146981239319,-10.017582893371582,-0.02221815852269281,0.034014915064214335,0.004048440920380469,9.086593566747029,2.404823377455083,0.8798885676657664
1731474148.6896837,-0.37975364923477173,0.41329842805862427,-9.984230041503906,-0.022974673254567642,0.029331359254911964,0.00401096668595513,9.088810329870116,2.4140924611765744,0.879975600841458
1731474148.7397082,-0.3236582279205322,0.45023560523986816,-9.957239151000977,-0.023672918468014878,0.024751067187636346,0.00397202026291707,9.092789222396155,2.425187239236597,0.8799919443741341
1731474148.7895982,-0.4094269871711731,0.40006208419799805,-10.010847091674805,-0.024311060900830635,0.020284682905968153,0.0039317958853763305,1.5854418019223908,2.441814984931098,0.8800043691899089
1731474148.8395123,-0.3341081142425537,0.49790847301483154,-9.974881172180176,-0.024887284928989877,0.015942114553827144,0.0038905493117252082,1.5406998839115165,2.454515465864077,0.8800102103974449
1731474148.8895173,-0.40162166953086853,0.3858509361743927,-9.979796409606934,-0.025399776962948064,0.01173239773670958,0.003848549411434945,1.5352991929434563,2.466211639515062,0.8800304238079156
1731474148.9394271,-0.33520281314849854,0.49349677562713623,-9.995915412902832,-0.025846742178118817,0.007663626722301998,0.003806067288991296,1.5298337523222056,2.47793345256032,0.8800602164541715
1731474148.989394,-0.39363962411880493,0.3769837021827698,-9.9759521484375,-0.026226471116731157,0.0037429904026996105,0.0037633881499654167,1.524317453370372,2.4896393685523797,0.8800993670155373
1731474149.0393794,-0.32641667127609253,0.49767252802848816,-9.984671592712402,-0.026537414732086376,-2.316304909069514e-05,0.003720798099768498,1.519730782939456,2.4857420498445943,0.8800180404157879
1731474149.0893095,-0.39658495783805847,0.40310895442962646,-9.991823196411133,-0.026778256110274692,-0.0036293187110640647,0.0036785886068276706,1.5173771192521714,2.4953974469918645,0.8800396844116338
1731474149.139286,-0.31508591771125793,0.49019932746887207,-9.974615097045898,-0.02694796181748795,-0.007070844112260192,0.0036370525560184123,1.5149544652319948,2.5050471480014838,0.8800704849652885
1731474149.1892076,-0.3865351676940918,0.38851404190063477,-9.984769821166992,-0.02704583008756254,-0.010343999264915428,0.0035964814518284326,1.5133706748179638,2.514643497864933,0.8800176129907168
1731474149.2392628,-0.3284973204135895,0.4553205966949463,-9.989445686340332,-0.027071532537511725,-0.013445830688089981,0.003557180644983461,1.5115877732403549,2.5242700433296186,0.8800383943384094
1731474149.2891707,-0.36882221698760986,0.4021817743778229,-9.976908683776855,-0.027025120364515712,-0.016374015684071336,0.003519458490362248,1.5097401479204904,2.533842541534058,0.8800680104450505
1731474149.3390863,-0.339903861284256,0.46282950043678284,-9.997218132019043,-0.026907019347236175,-0.01912679064457483,0.003483602340341831,1.5078356210763473,2.5433186597132273,0.8801061640227359
1731474149.3890233,-0.36403632164001465,0.4146801829338074,-9.983406066894531,-0.02671802071480655,-0.021702987493986796,0.0034498587423059746,1.5045093486502013,2.5527825643090933,0.8800179185874526
1731474149.4399798,-0.3282560706138611,0.4430561661720276,-9.990992546081543,-0.026459268808188104,-0.02410207207856968,0.003418410072836546,1.502163012957841,2.5624040371995878,0.8800386630251226
1731474149.489963,-0.34830936789512634,0.4099680185317993,-9.985173225402832,-0.026132286304774616,-0.02632410636881113,0.0033893718528985707,1.4997955515464092,2.571774733560599,0.8800676377355257
1731474149.5398574,-0.3367198407649994,0.4484230577945709,-9.979958534240723,-0.02573901343011089,-0.028369678810954712,0.003362816576156896,1.4985078596643369,2.5811023114434013,0.8800167236353812
1731474149.5898209,-0.3511849343776703,0.42940324544906616,-9.9827299118042,-0.02528179296281102,-0.03023989244121733,0.003338811046398084,1.4961512444871634,2.5903118810292516,0.880036109396728
1731474149.639785,-0.3449540138244629,0.44740235805511475,-9.993281364440918,-0.0247633008871654,-0.03193641067532002,0.0033174380559568735,1.4937336391432077,2.599438262941706,0.8800637867600772
1731474149.689714,-0.348348468542099,0.4309273660182953,-9.968509674072266,-0.024186471655851933,-0.03346148501612823,0.0032987850968353065,1.490046672429415,2.6086092114377557,0.8800162182181398
1731474149.7397473,-0.3465837836265564,0.4344233572483063,-9.99363899230957,-0.0235544471668026,-0.034817923912040846,0.0032829455618739634,1.4872572996807598,2.617614668292806,0.8800352544801923
1731474149.7896135,-0.35121646523475647,0.43669408559799194,-9.989757537841797,-0.022870541785852776,-0.03600902659067776,0.0032700216094125366,1.4809017203609987,2.6266844789456156,0.8800148442900139
1731474149.839714,-0.3436480164527893,0.4485608637332916,-9.986307144165039,-0.022138209171804805,-0.03703854265419653,0.003260081209008374,1.4721402409097233,2.6356502259187238,0.8800129462005343
1731474149.8895714,-0.3596985638141632,0.44395580887794495,-9.989258766174316,-0.021361009151840478,-0.03791068634790394,0.0032531235138185135,1.4669545647651823,2.644345751967738,0.880030313233891
1731474149.9394937,-0.3440133035182953,0.440993994474411,-9.989282608032227,-0.020542567941611516,-0.038630150383927066,0.003249086995688071,1.461696884454262,2.6529784628844557,0.8800558758318675
1731474149.9894161,-0.3629949986934662,0.4327376186847687,-9.978323936462402,-0.019686535745119613,-0.039202057060981274,0.0032478674721068126,1.4564167423490255,2.661469222067557,0.8800893793504193
1731474150.0394707,-0.35161831974983215,0.4358040392398834,-9.977865219116211,-0.018796548743760334,-0.03963186013472009,0.0032493563649897096,1.466181618748417,2.6700879451859745,0.8800162948066502
1731474150.0892787,-0.3588835597038269,0.44195646047592163,-9.983288764953613,-0.017876193684683492,-0.039925262419080516,0.003253494197712343,1.4638717795351275,2.678402553320948,0.8800351045490368
1731474150.1392915,-0.3525645434856415,0.4376795291900635,-9.988021850585938,-0.016928989565987942,-0.04008818668764097,0.0032602803677916556,1.4615092769861562,2.6866496721923143,0.8800621445227239
1731474150.1892414,-0.3610277473926544,0.4366692900657654,-9.989734649658203,-0.01595838425184035,-0.040126764759363234,0.003269726303277444,1.4586329249661434,2.69499458393549,0.8800156724404902
1731474150.239233,-0.35390523076057434,0.44004589319229126,-9.980785369873047,-0.014967745175746875,-0.04004730463413396,0.003281809104556239,1.4561291757622,2.7030465061545126,0.8800344013646823
1731474150.2891834,-0.34808841347694397,0.4356316924095154,-9.990507125854492,-0.013960357974268943,-0.0398562501520916,0.003296467620477385,1.4536024790920175,2.7109568836307067,0.8800612234322308
1731474150.3391497,-0.3495331108570099,0.4318283796310425,-9.987534523010254,-0.01293945652744801,-0.03956014152766211,0.0033136128379955172,1.4523223464654196,2.719078838423513,0.880015766124412
1731474150.3889644,-0.34229859709739685,0.43807172775268555,-9.979005813598633,-0.011908264780028547,-0.03916556631034131,0.003333128046090954,1.4498727820377186,2.726787378466428,0.8800345656280518
1731474150.4399717,-0.35194361209869385,0.43843650817871094,-9.987793922424316,-0.010870016808342087,-0.038679124831230226,0.003354884665639649,1.4418285848875076,2.734912608064394,0.8800151443446882
1731474150.4899325,-0.3497510850429535,0.43838438391685486,-9.9824857711792,-0.00982794143029352,-0.03810742605250744,0.003378765097989243,1.4358989088318914,2.7428088621656004,0.8800132364860727
1731474150.5399475,-0.3440338671207428,0.4448617100715637,-9.980924606323242,-0.008785226763962973,-0.03745709064479331,0.003404667333175215,1.431362287190287,2.750284964953038,0.8800312988307512
1731474150.5898569,-0.3435697555541992,0.4436219334602356,-9.993441581726074,-0.0077450076939090656,-0.036734752909819146,0.003432501334244679,1.4268216228244242,2.757641369130371,0.8800578123053905
1731474150.6397717,-0.3434273302555084,0.4445556402206421,-9.981748580932617,-0.006710381227386528,-0.03594706204939345,0.003462171907471429,1.430181456368291,2.7653156776915537,0.8800161586747002
1731474150.6896904,-0.34205594658851624,0.4357181191444397,-9.985618591308594,-0.005684413030048342,-0.03510066064411036,0.0034935605893768617,1.427729271716666,2.7725014043980867,0.8800357341226436
1731474150.7397027,-0.3368449807167053,0.4365089237689972,-9.985532760620117,-0.004670131859378307,-0.03420212682354008,0.0035265347765474375,1.423585470498492,2.7801145320395384,0.8800155598277227
1731474150.7896504,-0.3370206654071808,0.44003918766975403,-9.988101959228516,-0.0036705330629087634,-0.03325790815558544,0.003560957991873876,1.4203413324135061,2.7871423406292135,0.880035145008699
1731474150.839731,-0.34878137707710266,0.4350849390029907,-9.995030403137207,-0.0026885750520757572,-0.032274284991179174,0.003596672388394685,1.416639917168879,2.7946321931609517,0.880015756278971
1731474150.8894904,-0.34958556294441223,0.43955448269844055,-9.992443084716797,-0.001727128851774397,-0.03125735685895882,0.0036334630393903846,1.4131316177096038,2.8014857610542516,0.8800356009922704
1731474150.9395454,-0.33814793825149536,0.4347154200077057,-9.992836952209473,-0.000788906393832007,-0.03021302829717946,0.00367103047143993,1.4095873842468583,2.8083263546966273,0.8800647848029383
1731474150.9894862,-0.3534073531627655,0.43426117300987244,-9.98823356628418,0.00012356771608337358,-0.029146989403292217,0.0037089955685213677,1.406061963743867,2.8150549140104797,0.8801030206795476
1731474151.0393903,-0.35689619183540344,0.43784937262535095,-9.982269287109375,0.0010079701350395407,-0.028064694378292697,0.0037469383087963557,1.4104975200129253,2.822339552020849,0.8800181156795429
1731474151.089344,-0.34376397728919983,0.4424741268157959,-9.984296798706055,0.0018622227699595885,-0.026971357345080504,0.003784453862367381,1.408393645353757,2.8289446947317853,0.8800396070582336
1731474151.1394033,-0.34501925110816956,0.4349685609340668,-9.980411529541016,0.002684503459381938,-0.02587197084425301,0.0038211994595844147,1.4031973381576215,2.836215777056217,0.8800167757864708
1731474151.1892505,-0.35001081228256226,0.4367660880088806,-9.98748779296875,0.0034732006011104167,-0.024771310211032342,0.003856911318751645,1.3997312897287857,2.8426902524779147,0.8800379264493114
1731474151.2393665,-0.35077399015426636,0.4410512447357178,-9.983784675598145,0.004226890399185951,-0.023673914791235935,0.0038913928866008405,1.3962540751418346,2.8491429720899255,0.8800689000708402
1731474151.2891529,-0.3346041738986969,0.4414082169532776,-9.978825569152832,0.004944343117249362,-0.022584085069238244,0.0039244990223117554,1.3925056456772924,2.8563237813601026,0.8800182727866068
1731474151.339152,-0.3532467186450958,0.44168803095817566,-9.982125282287598,0.005624501250922048,-0.0215059022711614,0.003956143179103054,1.3894698855241296,2.862664404896221,0.8800405227897501
1731474151.38902,-0.3444956839084625,0.44681721925735474,-9.989038467407227,0.006266457446189956,-0.020443245313841188,0.003986305593056451,1.383453598316772,2.8698265447101794,0.8800174283236892
1731474151.4390323,-0.3412024676799774,0.45108357071876526,-9.988518714904785,0.0068694644865467894,-0.01939980951036719,0.004015002822603456,1.3793807278146235,2.8760991580183233,0.8800395999707018
1731474151.4888942,-0.35135704278945923,0.44728460907936096,-9.988907814025879,0.0074329367413877735,-0.01837913422688499,0.0040422393355847444,1.3703466997743283,2.8832759214706885,0.880017652900242
1731474151.5399947,-0.3428148031234741,0.43845781683921814,-9.985496520996094,0.007956444126362374,-0.01738460505513365,0.004067986404777381,1.3640502729791761,2.889609399811711,0.8800407295855298
1731474151.589838,-0.35130253434181213,0.43799132108688354,-9.989453315734863,0.00843972152073099,-0.016419402389515916,0.00409219024612667,1.357946849443507,2.895726953817909,0.8800734311605545
1731474151.6397727,-0.34227749705314636,0.4340595602989197,-9.994230270385742,0.008882673401244698,-0.015486428071544225,0.004114775964284018,1.3644259926651539,2.902947373148491,0.8800194177295316
1731474151.6898038,-0.345090389251709,0.4354267120361328,-9.992863655090332,0.009285360742784295,-0.014588256427576723,0.004135626917066689,1.3615283231936341,2.9090515134777974,0.8800429251350255
1731474151.7628806,-0.3515869379043579,0.4293767511844635,-9.992466926574707,0.009647984397969166,-0.013727113921206971,0.004154561525434674,1.3509013128209637,2.9191597353189764,0.880027933449589
1731474151.7896523,-0.3438718020915985,0.40278133749961853,-9.977875709533691,0.0099708864039303,-0.012904842783830717,0.0041713473363595675,1.3482327411033987,2.9223500785095022,0.8800414366322372
1731474151.839626,-0.3230764865875244,0.15276339650154114,-9.979936599731445,0.010254533589539597,-0.012122574545764517,0.004185765906366804,1.347528302555078,9.330417212729076,0.8800194308802927
1731474151.8895721,-0.22208143770694733,0.187400683760643,-10.070066452026367,0.010499330636443418,-0.011379780532873163,0.004197607430337757,1.3438216499397138,9.333742173375493,0.8800426543328201
1731474151.939552,-0.3626958727836609,-0.3957504630088806,-10.0033597946167,0.010705273096271013,-0.010672669048686025,0.0042064510114787,1.3401350056336039,9.337045402745412,0.8800764096558766
1731474151.989412,-0.49128592014312744,-0.6028002500534058,-10.101073265075684,0.010872023880160588,-0.009991697331093684,0.004211375124686215,1.3424565972478644,9.37739289146391,0.880020163293243
1731474152.039409,-0.33004650473594666,0.15001556277275085,-9.991525650024414,0.010999681848442211,-0.009319241235601421,0.004210827916702227,1.3378984146384614,9.380017640944773,0.8800167912860517
1731474152.0893848,-0.42409035563468933,-0.23452405631542206,-9.928579330444336,0.011089348404795609,-0.008630216836745228,0.004202826951999444,1.3349203376039134,9.377865542391172,0.8800392119729274
1731474152.139399,-0.3635537326335907,0.16380023956298828,-9.96257495880127,0.01114298602993486,-0.007895300238065481,0.00418554793844339,1.3319516187308402,9.375679369175028,0.8800722832016026
1731474152.1892323,-0.3265819549560547,0.03705446049571037,-9.926668167114258,0.01116307656060588,-0.007083727006684303,0.004157883907068882,1.329030863769013,9.37348944030622,0.880115509912474
1731474152.2392316,-0.34383344650268555,0.2610261142253876,-9.951214790344238,0.011152281098821335,-0.006165127404892742,0.004119604840929077,1.3261184651481894,9.37126823291258,0.880169393212206
1731474152.2891235,-0.35642221570014954,0.23940710723400116,-9.95168685913086,0.01111313967957009,-0.005111099013079593,0.004071273703977036,1.3322010452346846,9.378199256991223,0.880021428825017
1731474152.3392637,-0.3735845685005188,0.305618554353714,-9.976515769958496,0.011048042284017946,-0.0038964391168495073,0.004014068245356282,1.3307512876313683,9.376974812183452,0.8800455920254163
1731474152.389072,-0.3662432134151459,0.2762035131454468,-9.98367977142334,0.010959390374932862,-0.0024998631159534844,0.003949525430489419,1.3264788195440709,9.373518947062534,0.8839672227674916
1731474152.4390504,-0.3853393793106079,0.2848801612854004,-9.992253303527832,0.010849725072943364,-0.0009041781382371372,0.0038792825478245327,1.3239661284035436,9.37132328276166,0.885237288697247
1731474152.4890246,-0.3745778203010559,0.2969180941581726,-9.987142562866211,0.010721781385265847,0.0009038869891884757,0.003804891986045458,1.32035686217072,9.368313169249094,0.8878323429311855
1731474152.539969,-0.36941108107566833,0.32635197043418884,-10.017279624938965,0.010578486823528072,0.0029338945082103647,0.003727715760956426,1.3173852426638126,9.365722066571172,0.8895270066538189
1731474152.5898287,-0.3613957464694977,0.32036691904067993,-9.987659454345703,0.010422885994630652,0.0051918147094513175,0.0036488491600396105,1.3145117474904646,9.36320367819736,0.8911900491442234
1731474152.6398501,-0.3558109700679779,0.3377763330936432,-10.017905235290527,0.010258012146233356,0.007680128206406064,0.00356907744371058,1.3126196097423388,9.363242182649065,0.8875785432029243
1731474152.6896672,0.11172740161418915,0.9410831928253174,-9.988750457763672,0.010086348268290884,0.010397465202436222,0.0034888883987847057,1.3102604891142655,9.361520470348102,0.887983843661584
1731474152.7397246,0.6022413969039917,1.6053311824798584,-9.950591087341309,0.00990770214616488,0.0133361687197218,0.0034085682564180516,1.3067980137733368,9.357075005355856,0.8872493045896548
1731474152.7897217,0.45707929134368896,1.1785728931427002,-9.883322715759277,0.009715440289839504,0.0164778548831363,0.0033285026398551113,1.3039895216821948,9.354370934452339,0.8874529042391325
1731474152.8396256,0.18722468614578247,0.8254978060722351,-10.014012336730957,0.009493989135298964,0.019791183106575946,0.0032495654911711145,1.3011992139871613,9.351706628781928,0.8876651645229319
1731474152.889567,-0.2138817459344864,0.33085402846336365,-10.020838737487793,0.009220327956530132,0.023235135454254333,0.0031730851428557207,1.2984488867608979,9.349111730074306,0.8878841290861258
1731474152.939633,-0.84199458360672,-0.42900434136390686,-10.077438354492188,0.008868972040582793,0.02676615494665986,0.0031002551730530976,1.2991262511579718,9.35035039015051,0.8871895976503141
1731474152.9894435,-1.1347620487213135,-0.6553553342819214,-10.159132957458496,0.008418488465003699,0.03034621021716493,0.0030314163801144745,1.2970425139335366,9.348573415080555,0.8872803289028286
1731474153.0395005,-0.5375619530677795,0.026560742408037186,-10.053828239440918,0.00785679255007896,0.03394873213786344,0.002965534386294373,1.2904223082272799,9.342627605557158,0.8832888694057741
1731474153.0893981,-0.6419805884361267,-0.14039817452430725,-10.018117904663086,0.007182095280789166,0.03755923019619209,0.0029001802586216467,1.2867133172388001,9.339436654466107,0.882095859751527
1731474153.13939,-0.48468977212905884,0.17504572868347168,-9.904268264770508,0.006400072445201381,0.0411717191964147,0.0028322256696596848,1.2829883670930684,9.336315992179413,0.8808994261879188
1731474153.1893013,-0.5061772465705872,0.20886747539043427,-9.975037574768066,0.005520872784785278,0.04478493929380517,0.0027588324190174814,1.2793018218867447,9.333322179008285,0.8797175236289013
1731474153.2392278,-0.504601240158081,0.35937514901161194,-9.961531639099121,0.004557453348715884,0.0483996333192415,0.002678041661743815,1.275618767978753,9.330437209876719,0.8785394915066418
1731474153.2890863,-0.5235366225242615,0.4285810589790344,-9.942535400390625,0.003524715673699953,0.0520164125449594,0.002588795328393814,1.2832741551764066,9.32981924742394,0.8803567229622568
1731474153.3391986,-0.5182399153709412,0.41647854447364807,-9.95583724975586,0.002439076484762343,0.05563426178348343,0.002490795841089832,1.281411655061723,9.327381924543165,0.8797145855546643
1731474153.3890479,-0.5484158992767334,0.4480695128440857,-9.937871932983398,0.001318209311001512,0.05924981611249661,0.002384456763617802,1.2748231900990221,9.318768472782532,0.8810360954552499
1731474153.4390175,-0.5478430390357971,0.4370619058609009,-9.939542770385742,0.00018082240181575856,0.06285728456254282,0.0022708682411281627,1.2711129817830193,9.314320571460584,0.8809631598509038
1731474153.4889638,-0.5263280868530273,0.4694240391254425,-9.992203712463379,-0.0009535597078501985,0.06644866213895467,0.002151699962268361,1.2665083659714018,9.308329989654752,0.8817692683405792
1731474153.5389593,-0.5467596054077148,0.46723413467407227,-9.985711097717285,-0.0020649005135515495,0.07001396234127769,0.0020289582811653644,1.2624965999582334,9.30362681454783,0.881913389832703
1731474153.5898702,-0.551529049873352,0.4757702946662903,-9.996859550476074,-0.003132982854645175,0.0735414392874001,0.0019046543009944529,1.2593324906752597,9.29871631496096,0.8822870025131079
1731474153.6398945,-0.5152885317802429,0.4587487578392029,-9.976001739501953,-0.00413767455637702,0.07701785802697374,0.001780604365705135,1.2559386128124825,9.294695595295787,0.8824516234221427
1731474153.6898081,-0.5710768699645996,0.47691261768341064,-10.003650665283203,-0.005059182662140152,0.08042883806506201,0.0016584051911964033,1.2541221019956126,9.287407801540303,0.8827772972816433
1731474153.7397523,-0.525538980960846,0.48766395449638367,-9.994609832763672,-0.005878277764478154,0.08375917856951945,0.0015394353949023157,1.2495124099573913,9.284290858786745,0.8829466629676587
1731474153.789613,-0.5084438323974609,0.5185731053352356,-9.965476989746094,-0.006576494159165785,0.08699305536946114,0.0014248461853416398,1.2461673614477682,9.280882785463886,0.8831145109334395
1731474153.8396065,-0.5292466878890991,0.4623800218105316,-9.98769760131836,-0.0071364189992440845,0.09011414858262827,0.0013156337736045965,1.242795061689133,9.277685694237931,0.8832862903824504
1731474153.88953,-0.48913973569869995,0.46731847524642944,-9.979022026062012,-0.0075419836944040685,0.09310591254179383,0.0012127418317252172,1.2394127531862753,9.27472488019772,0.8834607998427066
1731474153.9395475,-0.4685397744178772,0.5056860446929932,-9.99309253692627,-0.007778692355343447,0.09595197312813765,0.0011170673652296686,1.2446660998304155,9.2688855418678,0.883134225786792
1731474153.9894257,-0.45702219009399414,0.4998912811279297,-9.956080436706543,-0.007833895776859074,0.09863635940610972,0.0010294298340759566,1.2408204308777155,9.255103564656407,0.8830671245598426
1731474154.0394197,-0.4022035002708435,0.5028836131095886,-9.970311164855957,-0.007697097469011674,0.10114353609206544,0.0009506251210117591,1.2383974256866768,9.248766946608445,0.8831009945738957
1731474154.089314,-0.42270535230636597,0.48164358735084534,-9.983999252319336,-0.007360219710658729,0.10345849062871981,0.0008815087389873184,1.2359695411457967,9.242719992927286,0.8831369431756859
1731474154.1392968,-0.38456615805625916,0.5007065534591675,-9.960416793823242,-0.006817772807113235,0.10556694443975938,0.0008229874180146239,1.2335025597714058,9.236881671128048,0.8831753421578779
1731474154.1892097,-0.3837924003601074,0.4896668791770935,-10.00211238861084,-0.006066892067121357,0.10745555551697097,0.0007759506188430513,1.2310347947957454,9.231344963282062,0.8832154961439264
1731474154.2391903,-0.3806689977645874,0.47306615114212036,-10.001392364501953,-0.005107294157110801,0.10911206501479535,0.0007411722798809498,1.2285437409328528,9.226057902167744,0.8832576973356463
1731474154.2891269,-0.5227342247962952,0.9770021438598633,-9.972333908081055,-0.003941031550793431,0.11052501048716054,0.0007191886462422751,1.236671882548196,9.221057592320177,0.883244332978323
1731474154.3391964,-0.6536251306533813,1.1910713911056519,-9.957026481628418,-0.002571676905502222,0.11168197469370308,0.0007103140200875075,1.235656508346752,9.216318889670385,0.8832850065614734
1731474154.389024,-0.5680765509605408,0.5152410864830017,-9.884139060974121,-0.0010030401515497974,0.11256720431122091,0.0007149053191463306,1.2346434005135902,9.211889916780065,0.8833271807619917
1731474154.438984,-0.8518714904785156,1.0223649740219116,-10.114818572998047,0.0007619357930348662,0.11316147509397882,0.0007335856651857493,1.231350876022529,9.207723639050492,0.8834432038930415
1731474154.4890203,-0.5428992509841919,0.5303182005882263,-9.948053359985352,0.002721818735060467,0.11344405267664448,0.0007669828615978356,1.2298358501174236,9.203823202938148,0.8835001162156472
1731474154.4890203,-0.5428992509841919,0.5303182005882263,-9.948053359985352,0.004876563560103216,0.11339462167259884,0.000815343480601425,1.2293544465081758,9.202639467969524,0.8835186770506724
1731474154.8706543,-0.253031849861145,0.3442539572715759,-9.981415748596191,0.0072261750687317335,0.1129952674853364,0.0008786836640688225,1.2032533054732182,9.183457112132478,0.8846233102472935
1731474154.9205117,-0.23775433003902435,1.9156547784805298,-9.855184555053711,0.009768641977525763,0.11223110949759162,0.0009571997737530416,1.2087888229568498,9.181996062672937,0.8842689350581168
1731474154.9705315,-0.4001409411430359,0.5899046659469604,-9.77047061920166,0.01249836833921163,0.11108723470839674,0.0010517284993201874,1.2072719719516554,9.180843529911737,0.8843247823946495
1731474155.020408,-0.1947299689054489,1.112312912940979,-10.022409439086914,0.015405910764014463,0.10954561421738171,0.0011642677269508928,1.2095944361304731,9.179936937169458,0.8840969521503953
1731474155.0704117,-0.21322882175445557,0.8714746236801147,-10.088143348693848,0.018478368596832363,0.10758605355945683,0.001297680182630829,1.208374916758117,9.179323665315168,0.8841173217291716
1731474155.1203022,-0.2239534556865692,0.9041865468025208,-9.905142784118652,0.021699462303396415,0.10518841033754824,0.0014545015035517953,1.2071584354406768,9.17896077273887,0.88414207151891
1731474155.1704328,-1.3943976163864136,-0.5810168385505676,-10.084527969360352,0.02505070725537719,0.10233494959481339,0.0016362559133799497,1.2060581341972074,9.178869552856595,0.8841693964045773
1731474155.2202253,-0.5982986688613892,0.3721615672111511,-10.063822746276855,0.028515278822114926,0.09901520245440032,0.0018434715814597345,1.2049736936425819,9.179031717510114,0.8842024962687329
1731474155.2702136,-0.46314603090286255,0.03619835898280144,-10.011496543884277,0.032081231557217156,0.09523029406363498,0.0020755602406011564,1.208998348057997,9.179411634045982,0.8840266288958946
1731474155.320184,-0.5183843374252319,0.10595713555812836,-10.015792846679688,0.03574028315128564,0.09099281443686716,0.0023307910975243437,1.2086108751096039,9.180061584617768,0.8840400741328592
1731474155.3702235,-0.11161405593156815,0.15249505639076233,-10.028287887573242,0.03948454819419463,0.08632468171336664,0.0026066363500552537,1.2076782831217436,9.180880895632113,0.8840142257698211
1731474155.4200754,-0.11161405593156815,0.15249505639076233,-10.028287887573242,0.043304105067198714,0.0812555895478591,0.0029000451619767133,1.2072153069626637,9.181937285335223,0.8840282897504101
1731474155.4200754,0.01588253118097782,0.03391246125102043,-10.020575523376465,0.04718509553609333,0.07582168285428768,0.0032075165690519545,1.207202980386351,9.181972390195225,0.8840288279747675
1731474155.469965,-0.25383296608924866,0.3448643088340759,-9.974748611450195,0.05110876928111226,0.07006435003901984,0.0035252176277218417,1.2068693420030892,9.183182217766934,0.8840503160135496
1731474155.5198517,-0.10165785253047943,0.2227284014225006,-9.922452926635742,0.05505215077855284,0.06402878782001872,0.003849311697857828,1.206655338103811,9.184593483834025,0.8840814990665046
1731474155.5699394,-0.1839110553264618,0.4192267656326294,-9.99095344543457,0.058989412547296616,0.057762137439845054,0.004176398331421217,1.2054152166865013,9.186148353867146,0.8840138721352327
1731474155.6198208,-0.19280876219272614,0.3612631559371948,-9.950533866882324,0.06289290542138141,0.05131183640847102,0.0045037257028566514,1.2050106904897244,9.18791818276855,0.8840363223198356
1731474155.6698928,-0.00384950777515769,0.6912849545478821,-9.922014236450195,0.06673373452372869,0.044724209994309636,0.00482915165264268,1.2032976110063884,9.189246691057162,0.8842444463268266
1731474155.7207956,0.744889497756958,1.6483407020568848,-9.939879417419434,0.07048113484621639,0.0380419224458885,0.005151178923053281,1.2008359763153276,9.190253080145514,0.8845155640604871
1731474155.770732,0.3141680657863617,1.1341841220855713,-10.00156307220459,0.07409991164880124,0.031299440078929514,0.005468990848154,1.199708506492131,9.192177998577128,0.8846823745138275
1731474155.8206358,-0.22723086178302765,1.8611536026000977,-9.893811225891113,0.07754888825379694,0.024518887941973665,0.005782273711322203,1.1987436856849276,9.194224872836417,0.8848679135492816
1731474155.8706558,-0.4820658564567566,1.1263463497161865,-9.909140586853027,0.08078399702856984,0.01770885324708802,0.006091144888495503,1.1980016607601607,9.196264655373081,0.8850626992068484
1731474155.9206085,-0.49431735277175903,1.4234706163406372,-9.892594337463379,0.0837640508736029,0.010865889315494568,0.006396387186480509,1.199048073484012,9.197747767069677,0.8847310894408389
1731474155.970523,-0.07631285488605499,0.5004467964172363,-10.070384979248047,0.08645428764028723,0.003978069471961982,0.006699485215283723,1.1980129396877834,9.198677177022924,0.8848966606879141
1731474156.0204434,-0.24069371819496155,-0.35270124673843384,-10.206377029418945,0.08882606300746551,-0.002968989073997054,0.007001867748709829,1.197672327995087,9.200736472830572,0.8850333383829301
1731474156.0704284,-0.6625279188156128,-0.9579870700836182,-10.202309608459473,0.09085541252952534,-0.009983266019025668,0.007303497060933332,1.1975558173068839,9.202781487843266,0.8851880091178201
1731474156.1203353,-0.7205891013145447,-0.26662561297416687,-10.021163940429688,0.09252376731996698,-0.017057867046071068,0.007601907729971487,1.1976675976044044,9.204785315301734,0.8853606251182286
1731474156.170457,-0.539745032787323,-0.3440362215042114,-10.02015209197998,0.09382008426484081,-0.024168479787480615,0.007892627171116705,1.1972719959352325,9.20565423466799,0.8851108297529529
1731474156.220292,-0.539745032787323,-0.3440362215042114,-10.02015209197998,0.09474136545120103,-0.03127669039175503,0.008170406790457128,1.1974610811067197,9.207506870168073,0.8852135225893316
1731474156.220292,-0.7099660634994507,-0.18074804544448853,-9.97559928894043,0.09529144736535958,-0.03833415466238754,0.008430106908281158,1.197462612706333,9.207515914403743,0.8852140854735754
1731474156.270222,-0.4648881256580353,-0.01231425255537033,-9.95477294921875,0.09547992172066075,-0.045285697795823324,0.008667094661616654,1.1967561647473637,9.208397238104132,0.8850640988834508
1731474156.320121,-0.6345815658569336,0.11943099647760391,-9.89240837097168,0.09532138253880942,-0.052072514543636816,0.00887760527272706,1.1968972406577545,9.210032208866393,0.8851205984065306
1731474156.370157,-0.4727819561958313,0.4156271815299988,-9.890789985656738,0.09483445127220601,-0.05863566548706768,0.009059166660313218,1.1972251574917732,9.210544251199869,0.8850477188698601
1731474156.419992,-0.4727819561958313,0.4156271815299988,-9.890789985656738,0.09404074494548309,-0.06491937536432829,0.009210904835165633,1.1977380475677935,9.211855203263692,0.8850992032162887
1731474156.419992,-0.4746846556663513,0.4383656084537506,-9.960733413696289,0.09296386970390574,-0.07087354527264197,0.009333516425677802,1.1977415909567684,9.211862116112677,0.885099557305665
1731474156.4700122,-0.4082532823085785,0.4868992269039154,-9.922954559326172,0.09162853193838236,-0.07645491569431515,0.009428882013295203,1.1984853107074216,9.212995060455762,0.8851742148385857
1731474156.5199811,-0.4082532823085785,0.4868992269039154,-9.922954559326172,0.09005986799348459,-0.08162725592638642,0.009499638705011422,1.197574703549903,9.212815656833321,0.8850404041840437
1731474156.5199811,-0.42095184326171875,0.46034306287765503,-9.94420051574707,0.08828289285249,-0.08636122292163008,0.009548980104636853,1.1975774919771198,9.212821067511003,0.8850406618006762
1731474156.5699735,-0.3570947051048279,0.568742036819458,-9.979055404663086,0.08632211329187932,-0.09063405866861832,0.009580510328205675,1.1981032596936687,9.213520206680268,0.8850912313649081
1731474156.6198468,-0.35170891880989075,0.5658196806907654,-10.006991386413574,0.08420121734374607,-0.09442936399897754,0.00959791708444942,1.1988400238134598,9.212758739738764,0.8850334458060837
1731474156.6698449,-0.35522300004959106,0.5524300336837769,-9.985919952392578,0.08194271996475597,-0.09773702492668378,0.0096045765365005,1.19972398118397,9.212968127100076,0.8850824659592208
1731474156.7197773,-0.3219449818134308,0.549161434173584,-9.999293327331543,0.07956771585931022,-0.10055291930756943,0.009603334452063107,1.2008090636888853,9.212929185342716,0.8851554660646059
1731474156.7707493,-0.28970977663993835,0.5290778875350952,-9.999696731567383,0.07709573438319865,-0.10287829071061304,0.00959649008013042,1.2021118563547035,9.21262914306288,0.8852542023788453
1731474156.8206139,-0.3143123984336853,0.5126650929450989,-10.002466201782227,0.07454456640980833,-0.10471901812624906,0.00958582898449685,1.1999547884108592,9.210592417028286,0.8852710121346153
1731474156.870688,-0.2599155902862549,0.5240530371665955,-9.9974946975708,0.0719301439513656,-0.10608491806316883,0.009572644762033185,1.2005784037980893,9.208179220208772,0.88547526722452
1731474156.9205627,-0.2969132363796234,0.4891177713871002,-9.995007514953613,0.06926652747578599,-0.10698913240924275,0.009557791220907805,1.2013309362156823,9.207076691194823,0.8856083748092668
1731474156.9705002,-0.2292598932981491,0.49995648860931396,-10.004132270812988,0.06656592412574486,-0.10744759022270683,0.00954175703765445,1.2015239271147027,1.5267748827156802,0.8857316791219982
1731474157.0204966,-0.2579132318496704,0.4924958348274231,-10.007848739624023,0.06383868934449297,-0.10747851588761757,0.009524708698453557,1.2023381782618592,1.5225260211542948,0.8858911896735429
1731474157.0704823,-0.24598565697669983,0.4703907370567322,-10.037233352661133,0.06109334804559685,-0.10710200575778607,0.009506462566006403,1.203310007405765,1.5180026512979303,0.8860747527070851
1731474157.1203732,-0.2604096531867981,0.4892358183860779,-9.96359920501709,0.058336733092812815,-0.10633964873802397,0.009486451050895149,1.2044249731350427,1.5132387768509172,0.8862809180558576
1731474157.1703653,-0.2412901222705841,0.49372807145118713,-10.008519172668457,0.05557421740648098,-0.10521420986147788,0.009463833274522727,1.2029732327258722,1.4747675508860734,0.8859357416485981
1731474157.2202988,-0.25269076228141785,0.49582356214523315,-9.967084884643555,0.05280991519491501,-0.10374943740744481,0.00943771230266715,1.204037856972721,1.4796479093219121,0.8862215246312759
1731474157.2702527,-0.29472479224205017,0.49913355708122253,-9.967273712158203,0.05004688023383608,-0.10196992744356005,0.009407301754455628,1.20516670600877,1.4855278893311583,0.8864691029188712
1731474157.3201697,-0.2970694601535797,0.489962100982666,-10.00029182434082,0.04728742727308341,-0.09990095421343209,0.00937201928325011,1.206411536244328,1.4911268017382935,0.8867389098148362
1731474157.370167,-0.34497785568237305,0.48454904556274414,-9.985206604003906,0.0445335553214235,-0.09756825095844432,0.009331468514605777,1.2077674680177755,1.496467658327675,0.887031309271086
1731474157.4200604,-0.34497785568237305,0.48454904556274414,-9.985206604003906,0.041787353675056246,-0.09499776044084739,0.009285332114037696,1.2050249362754177,1.4824754111168583,0.886163798630743
1731474157.4200604,-0.33604687452316284,0.4833928644657135,-9.957088470458984,0.03905129433923494,-0.09221540390261544,0.009233355340410936,1.2050484716858696,1.4825561717548337,0.88616700520162
1731474157.4700716,-0.3997398614883423,0.48361581563949585,-10.031452178955078,0.03632837691049687,-0.0892469017592451,0.009175402600574947,1.205637186346305,1.4843183925797792,0.886252282140862
1731474157.5199513,-0.34380197525024414,0.5006750226020813,-9.992836952209473,0.03362221730951484,-0.08611764824002321,0.009111377941742478,1.2058902602736665,1.4889068276646782,0.8860692620256064
1731474157.570007,-0.40116724371910095,0.47793707251548767,-9.987176895141602,0.030937101469957203,-0.08285262936364501,0.009041068707460754,1.206545496836961,1.4918486866407705,0.8861224676869982
1731474157.6199002,-0.3695700168609619,0.49243950843811035,-9.979872703552246,0.028277955300598585,-0.07947633077769822,0.0089641635491962,1.2089281992118661,1.4963140739078424,0.8860486135588358
1731474157.6698487,-0.41193339228630066,0.5345649719238281,-9.984530448913574,0.02565030102426105,-0.0760126588066673,0.00888040064824493,1.210289772446515,1.4997622433728588,0.8860990657710625
1731474157.7197323,-0.39578092098236084,0.5249258279800415,-9.9964017868042,0.023060242583944658,-0.07248499342097492,0.008789635603190672,1.2108025340463255,1.4984242259717058,0.8860420270192307
1731474157.7697887,-0.4148857295513153,0.5152393579483032,-10.009360313415527,0.02051444426626582,-0.06891628776711266,0.008691782707789137,1.2118497512538586,1.5000626422132934,0.8860913323967986
1731474157.8206913,-0.38384121656417847,0.5252273082733154,-9.947656631469727,0.018020053319050804,-0.06532901618841479,0.008586747336195069,1.2141957286461642,1.501359650904189,0.8862899798332486
1731474157.8705866,-0.37471675872802734,0.512197732925415,-9.963825225830078,0.015584509200240735,-0.06174501163699517,0.008474524665558198,1.215679485064251,1.5028168952389112,0.8864134681165343
1731474157.9205194,-0.39332878589630127,0.548274040222168,-9.980907440185547,0.013215280470666224,-0.05818534348884123,0.008355393883881283,1.2172685042319504,1.5041903466978483,0.8865639625621654
1731474157.970504,-0.3940364420413971,0.5331264734268188,-9.951216697692871,0.010919689080004347,-0.054670287528229125,0.008229965770281905,1.2188380664280138,1.5053819758019586,0.8867302465873252
1731474158.0204077,-0.3720216453075409,0.5273372530937195,-10.012054443359375,0.008704856195805176,-0.05121932162979375,0.008099087830533744,1.2204691318819603,1.5064685568990936,0.886920958448765
1731474158.070431,-0.36154696345329285,0.5203379988670349,-9.981355667114258,0.006577604920333739,-0.047851031697933345,0.007963696299488933,1.2165509289038712,1.5223024787394783,0.8862845924231065
1731474158.1203873,-0.33269548416137695,0.5211107134819031,-9.980409622192383,0.004544239159633517,-0.04458294375290077,0.007824670490847535,1.2173077196633268,1.5260621058137702,0.8863444294207068
1731474158.170318,-0.3207956552505493,0.5135068893432617,-9.99845027923584,0.002610270901427839,-0.04143138413436667,0.0076827955820387836,1.2204854910315108,1.5465412661514448,0.886250029607862
1731474158.2202368,-0.30687013268470764,0.5224953889846802,-9.994780540466309,0.0007801748534038822,-0.03841139499410497,0.007538770273632358,1.222112490825017,1.5656800605529861,0.8862373588474408
1731474158.2701979,-0.3119085729122162,0.5182780623435974,-9.960308074951172,-0.0009427658112087373,-0.035536696956231004,0.007393192622020621,1.2234173983552534,1.5757858137513772,0.886278112171878
1731474158.3202002,-0.3232634663581848,0.5220323204994202,-9.994431495666504,-0.002556472023735795,-0.03281968940152945,0.007246620052423908,1.2247931760463933,1.5863874409251424,0.8863402117203368
1731474158.3702445,-0.28144803643226624,0.5371149778366089,-9.997028350830078,-0.00405998254849383,-0.030271476981556935,0.0070996292833880904,1.224103399521699,1.5716290629153855,0.8862363468763721
1731474158.4200966,-0.28144803643226624,0.5371149778366089,-9.997028350830078,-0.005453422492721724,-0.027901936505247416,0.006952742664634213,1.224971404966815,1.5754501212530752,0.8862768863494538
1731474158.4200966,-0.31811031699180603,0.5085797905921936,-9.998974800109863,-0.006738028588574847,-0.025719778273284623,0.006806324711257131,1.2249934689594282,1.5755471288592222,0.8862781516922622
1731474158.4701083,-0.2963423728942871,0.5248386859893799,-9.973089218139648,-0.007916038731379797,-0.023732508761841013,0.006660579685780946,1.2260672740918073,1.5751495176159571,0.8859690323375587
1731474158.5199509,-0.2880183458328247,0.5108221173286438,-10.006240844726562,-0.008990484089762546,-0.02194634230985638,0.0065156255105390986,1.2271025510224887,1.5784230104877561,0.8859149996004866
1731474158.5699735,-0.2980497181415558,0.49068212509155273,-9.973512649536133,-0.009965083646501657,-0.02036614640768243,0.006371549847486326,1.2281263497883173,1.5816824637999847,0.8858765641604703
1731474158.6198955,-0.2980497181415558,0.49068212509155273,-9.973512649536133,-0.010844193255661657,-0.01899537403696243,0.0062284453642741325,1.2291150937086885,1.58486394221931,0.8858542371900803
1731474158.6198955,-0.31672346591949463,0.5230117440223694,-9.992152214050293,-0.011632678023367591,-0.017836018251770627,0.006086473142914004,1.2291234628310497,1.5848910433313543,0.8858541127286735
1731474158.6698563,-0.3087119460105896,0.5085582733154297,-10.039146423339844,-0.012335729196829116,-0.016888720669902837,0.005945830368803133,1.227693442912543,1.5637595129309043,0.8859867103715217
1731474158.719787,-0.37044280767440796,0.5171928405761719,-9.983965873718262,-0.012958655161834117,-0.01615297028267218,0.0058065533229157106,1.2281605283836836,1.5625994433770973,0.8860065685811083
1731474158.769825,-0.35450124740600586,0.50801682472229,-9.950888633728027,-0.013506605622693318,-0.015627232454815943,0.005668450219045389,1.2303367738667457,1.551918608830847,0.8860105272886342
1731474158.8206687,-0.35450124740600586,0.50801682472229,-9.950888633728027,-0.013984305531707097,-0.015308998295491365,0.005531370080234383,1.2314058953274623,1.5480371146463212,0.8860392116203637
1731474158.8206687,-0.3457523584365845,0.5308553576469421,-10.02107048034668,-0.014395975339991134,-0.015194835279173868,0.005395471115587096,1.231414308900958,1.5480058805856465,0.8860394988494765
1731474158.8708599,-0.3598632216453552,0.5240755081176758,-9.973990440368652,-0.014745409386304822,-0.01528050214499253,0.005261131768872066,1.2324291647453012,1.5441503303278559,0.8860813967068862
1731474158.9206185,-0.37419551610946655,0.5006221532821655,-9.971975326538086,-0.015036023569129886,-0.015561074477117832,0.005128736183776506,1.2334048657491457,1.5402644537867063,0.8861361299071083
1731474158.970634,-0.3892771303653717,0.5268489718437195,-10.022506713867188,-0.015270791659365155,-0.016030974993837346,0.004998632864812745,1.23259881555646,1.5631680852065677,0.8862470666074868
1731474159.0204418,-0.42074161767959595,0.5047159194946289,-9.953629493713379,-0.015452102788091861,-0.01668396698703829,0.004871133666748002,1.233209492117905,1.5645950952912384,0.8863185748826949
1731474159.0705018,-0.4061630666255951,0.5313308238983154,-9.978107452392578,-0.015581604100552917,-0.017513209044725385,0.004746518555496379,1.2373873173245995,1.5932390651569155,0.8865153535094168
1731474159.1203768,-0.4061630666255951,0.5313308238983154,-9.978107452392578,-0.015660137192440655,-0.018511364426939063,0.004625140692355932,1.2396730548889219,1.61323794416443,0.8864792826520597
1731474159.1203768,-0.40526318550109863,0.5140536427497864,-10.022367477416992,-0.015687831263710247,-0.01967072419297905,0.004507441334280053,1.239689087933904,1.6133477709071828,0.8864798503383342
1731474159.170345,-0.3965300917625427,0.502784788608551,-9.966509819030762,-0.015664273900377036,-0.020983249950009816,0.004393795717033462,1.2413365904743294,1.624740313235119,0.8865443247029899
1731474159.2203305,-0.38581791520118713,0.508468508720398,-9.955740928649902,-0.015588687297081679,-0.022440508444038526,0.004284467600036746,1.2429628353683682,1.636201506251846,0.8866203314259319
1731474159.2702694,-0.3934820294380188,0.535594642162323,-9.982986450195312,-0.015460106392241879,-0.02403365026232983,0.004179778280902461,1.2445466672017802,1.6475794660592435,0.8867067641876565
1731474159.3201983,-0.35386738181114197,0.5342658758163452,-9.970437049865723,-0.015277549688076928,-0.025753548975564866,0.0040802251756174,1.2442293572063965,1.6504674248284161,0.8864404936104004
1731474159.3701587,-0.3599652647972107,0.5136325359344482,-9.988588333129883,-0.015040209679702808,-0.027590988379048158,0.003986418351568554,1.2454591894487181,1.660155692232615,0.8864694528611397
1731474159.4200087,-0.32312655448913574,0.5253065824508667,-10.006949424743652,-0.014747678492755253,-0.029536724697367008,0.003898951739751955,1.247242426200429,1.687593001552522,0.8864248834032711
1731474159.4701254,-0.32851725816726685,0.5242536067962646,-9.958294868469238,-0.014400158875399293,-0.031581461145051566,0.0038182964283908017,1.248657236518794,1.7030104061740647,0.886448019863236
1731474159.5200732,-0.2989529073238373,0.5134327411651611,-9.978981018066406,-0.013998625795629155,-0.03371585568669003,0.003744814070745791,1.2500469700332615,1.7184597552681284,0.8864807812360808
1731474159.5699933,-0.2976040542125702,0.528435468673706,-10.035711288452148,-0.0135449402639329,-0.03593055058380624,0.0036788206218836086,1.2513950323913057,1.7337403181302815,0.8865226091005938
1731474159.6201284,-0.2584826648235321,0.5214108228683472,-9.999695777893066,-0.013041942612955607,-0.038216205608509385,0.003620461327643261,1.2513252269063522,1.7089724546567868,0.8861967816112509
1731474159.6698892,-0.29298895597457886,0.5123870372772217,-9.98195743560791,-0.012493523996273657,-0.04056354215395082,0.0035695401190136795,1.252431607883002,1.7166142142394578,0.8861743654600229
1731474159.7198591,-0.2805013358592987,0.5189118385314941,-9.997715950012207,-0.011904583932840164,-0.04296335651231822,0.003525591351214301,1.2535055207548516,1.7241375220813289,0.8861608239539583
1731474159.7697053,-0.25231388211250305,0.526025652885437,-9.983038902282715,-0.011280876251470354,-0.04540652451714359,0.003488053487847114,1.2548513429897803,1.7283273717450653,0.8859763464520116
1731474159.8196115,-0.2625800669193268,0.5331252813339233,-9.989421844482422,-0.010628909683372254,-0.047884068165615384,0.003456345406956361,1.2559405480048764,1.7353156860648848,0.885939854275445
1731474159.870672,-0.25197145342826843,0.5226522088050842,-10.016423225402832,-0.009955918891981204,-0.050387256540771884,0.003429864697921965,1.2569857173435925,1.742064048029412,0.8859126302725366
1731474159.9206076,-0.2829984724521637,0.5082409381866455,-9.991646766662598,-0.009269756125975633,-0.05290764249278151,0.0034079249255624727,1.2580075272464593,1.748687593984081,0.8858939244585731
1731474159.9705005,-0.28480449318885803,0.5353925824165344,-9.947487831115723,-0.008578652455519644,-0.05543702393751565,0.0033897477565640963,1.2587234853098528,1.7607447769898494,0.885987596493099
1731474160.0204332,-0.2747306227684021,0.5366898775100708,-10.02096939086914,-0.00789093755263508,-0.057967454444368266,0.003374607860796134,1.261820081922584,1.7747715028304514,0.8860021453778869
1731474160.0705328,-0.2890772521495819,0.5572153329849243,-9.990310668945312,-0.007214843207112947,-0.060491372215796625,0.003361898430346315,1.2631718252906712,1.7823375339476974,0.8860159017597096
1731474160.120394,-0.2890772521495819,0.5572153329849243,-9.990310668945312,-0.006558389595090083,-0.06300176649232767,0.003351014376153528,1.2646402066722,1.7905010730099291,0.8860389671493453
1731474160.120394,-0.30816128849983215,0.5108066201210022,-9.969518661499023,-0.00592925809417026,-0.06549224897180421,0.0033413180483162826,1.2646475596555327,1.7905417854283625,0.8860391043405729
1731474160.1703773,-0.3075338900089264,0.5318730473518372,-9.989680290222168,-0.00533463197010398,-0.06795693993233165,0.003332252124250375,1.2661081029948127,1.798580264851971,0.8860706762910853
1731474160.220353,-0.3376113772392273,0.514896035194397,-9.994827270507812,-0.004781032540869281,-0.07039027087495463,0.003323396518236244,1.2651230814718561,1.8064280484857123,0.8860123098285705
1731474160.2703774,-0.34983736276626587,0.5286862254142761,-9.962014198303223,-0.004274140043934977,-0.07278688641645673,0.003314429718939695,1.2660499579050226,1.8141062774749834,0.886030118006375
1731474160.3201654,-0.3544542193412781,0.5517596006393433,-9.99022388458252,-0.0038186070135693894,-0.07514167673759542,0.0033051290124648564,1.26802150547112,1.82157249003041,0.8860132037865146
1731474160.370143,-0.3516252934932709,0.5374683141708374,-9.990341186523438,-0.0034179465692300327,-0.07744989527424179,0.0032953973408829675,1.2691537729894238,1.8289239297939082,0.8860122624470557
1731474160.4202018,-0.35329899191856384,0.519231379032135,-9.9598970413208,-0.0030745489119783182,-0.07970724622316885,0.0032852340011214113,1.2702344998873654,1.8360607334036587,0.8860297306022445
1731474160.4702244,-0.3345542550086975,0.5284436941146851,-9.966591835021973,-0.0027897924185270933,-0.08190982662335426,0.0032747513240968893,1.2713054034173894,1.8429787738444419,0.8860553739023144
1731474160.5200076,-0.3611922562122345,0.5078816413879395,-10.020652770996094,-0.0025641904700927968,-0.0840540001892916,0.003264222251024872,1.2723746010683206,1.8497202849964793,0.8860893751001343
1731474160.570008,-0.3498118817806244,0.5143244862556458,-10.008946418762207,-0.002397497027623043,-0.08613630745733139,0.0032539423209322297,1.2706228515842521,1.8562302145014713,0.8862401778138619
1731474160.6198819,-0.33152875304222107,0.5191381573677063,-9.96742057800293,-0.002288772249402299,-0.08815342048692333,0.0032440139023873285,1.2711605841790719,1.8625174341150321,0.8863040110354093
1731474160.6699362,-0.3189314603805542,0.520063042640686,-9.994635581970215,-0.0022365261998977736,-0.09010215959208444,0.00323436173373325,1.2719536638100357,1.8687172446516425,0.8864880188938746
1731474160.7198498,-0.31146132946014404,0.49782794713974,-9.991044998168945,-0.0022389555571744315,-0.0919795353124061,0.003224883493081073,1.2726708672193756,1.8746180816481604,0.8866017509757643
1731474160.7696915,-0.27925825119018555,0.5191643238067627,-9.976333618164062,-0.0022941806512300805,-0.09378273784643054,0.0032154943407445374,1.273332552770097,1.8803240903811398,0.8867077761195201
1731474160.8196826,-0.26903486251831055,0.5131709575653076,-9.989280700683594,-0.00240047513579319,-0.09550912035544314,0.0032061254808427326,1.2740551174687476,1.8857503158636237,0.8868284610433336
1731474160.8696597,-0.2614664137363434,0.5186227560043335,-10.001703262329102,-0.0025564877089553233,-0.09715624568909197,0.0031967327563804733,1.2748034900706893,1.8910141453496512,0.8868949055751413
1731474160.9207711,-0.2740640342235565,0.5009732246398926,-9.956851959228516,-0.0027613639095361783,-0.09872193488080017,0.003187275556136894,1.2754741719921958,1.8960577308079873,0.8870019454861314
1731474160.9705622,-0.274027019739151,0.5083372592926025,-10.000702857971191,-0.0030147110281926667,-0.10020424968421836,0.003177738455519433,1.2766213503492019,1.9008264524835274,0.8871204080753524
1731474161.02048,-0.274027019739151,0.5083372592926025,-10.000702857971191,-0.003316469633623592,-0.10160145248441192,0.003168155686227085,1.2792435323224665,1.905409072676647,0.8870779980413356
1731474161.02048,-0.2422710508108139,0.5382094979286194,-10.02502155303955,-0.0036668215008599054,-0.10291203456148958,0.0031584951502134488,1.2792564038874108,1.9054460444048626,0.8870784560040205
1731474161.070523,-0.2966766655445099,0.5066756010055542,-9.966814994812012,-0.0040661715560693125,-0.10413482105088086,0.003148516636924728,1.2807219910490226,1.909542020748795,0.8871346510860618
1731474161.1204453,-0.24885393679141998,0.5543649792671204,-9.974495887756348,-0.0045150935112849505,-0.10526906544278224,0.0031378383745184818,1.2821991161039181,1.913438994018691,0.8871995390729895
1731474161.1704516,-0.2737577557563782,0.5325854420661926,-10.017370223999023,-0.005014232302509228,-0.10631451829591748,0.003126123922073764,1.2836558966946874,1.917050029861029,0.8872718581987369
1731474161.2202854,-0.2737577557563782,0.5325854420661926,-10.017370223999023,-0.005564250318134078,-0.10727148407295165,0.003113072005366973,1.2807371253885083,1.9206363936615083,0.8870360011062959
1731474161.2202854,-0.2906055152416229,0.5151991844177246,-9.989680290222168,-0.006165752731901338,-0.1081407814460934,0.0030982342542818612,1.2807424589629617,1.9206646278733972,0.8870361696083243
1731474161.2703397,-0.3137006163597107,0.5183002948760986,-9.986680030822754,-0.006819122311704234,-0.10892359900577873,0.0030809853971792726,1.2813363829534452,1.9237188730140162,0.8870589965004391
1731474161.3202085,-0.3137006163597107,0.5183002948760986,-9.986680030822754,-0.007524312607412124,-0.10962136185706023,0.003060680827128686,1.2822051595032975,1.9268067166797789,0.8870170256221517
1731474161.3202085,-0.3133438229560852,0.5345419645309448,-10.003192901611328,-0.0082806884189075,-0.11023568691781142,0.0030367702789511905,1.28221191713881,1.9268303559387403,0.8870171420468975
1731474161.370244,-0.3098906874656677,0.528404951095581,-10.000290870666504,-0.009086988180146732,-0.11076842247190444,0.0030087715879686073,1.282926989410369,1.929640976460893,0.8870107684660213
1731474161.4202275,-0.33454248309135437,0.49304723739624023,-9.936529159545898,-0.009941364846667525,-0.11122166715773128,0.0029762504086536298,1.2835044143047458,1.931930354791599,0.8870255364714087
1731474161.470167,-0.3619610667228699,0.5299280881881714,-10.047443389892578,-0.0108413633122162,-0.11159767779363683,0.002938907147451473,1.284047871409732,1.9339110839550566,0.8870474216912755
1731474161.5199888,-0.36124423146247864,0.5293492674827576,-9.995766639709473,-0.011783784672105488,-0.11189879164056599,0.0028965506783687174,1.2845701786580763,1.9356378190568766,0.8870769190915333
1731474161.570011,-0.3769206404685974,0.5511707663536072,-9.91990852355957,-0.012764554570452207,-0.11212750898091461,0.0028489754831727224,1.2838390634682897,1.9374236826250963,0.8870135634306651
1731474161.6198852,-0.3783719837665558,0.543317973613739,-9.976374626159668,-0.013778694277134872,-0.11228664606433132,0.0027961292028901422,1.2841075384152074,1.938593671403248,0.8870299360621167
1731474161.6698837,-0.24439649283885956,0.7247949242591858,-9.980547904968262,-0.01482049260177425,-0.11237957491279231,0.002738382239968778,1.2843377510824718,1.9394728186932282,0.8870530027357298
1731474161.7198694,0.5133981704711914,1.6614665985107422,-9.919093132019043,-0.015884753851341065,-0.11241166489992827,0.002676517802707332,1.2838058572321258,1.9404969382349015,0.887013302934026
1731474161.769799,0.2999531030654907,1.1952157020568848,-10.016883850097656,-0.016969989041300405,-0.11239386728203184,0.0026116389019505415,1.2838510769997185,1.9408278980128943,0.8870286973485014
1731474161.8197489,0.4892212450504303,1.505788803100586,-9.938413619995117,-0.018081813116650997,-0.11234606438913067,0.002545093842382849,1.283852665272672,1.9408794723181728,0.887050686119142
1731474161.8706505,-0.516516387462616,-0.022402653470635414,-9.965340614318848,-0.01923323924719726,-0.11229625303341613,0.0024783724019909687,1.2838523271425668,1.941130898157357,0.8870129240136777
1731474161.9206002,-0.9550522565841675,-0.21024510264396667,-10.16689682006836,-0.020440286375539327,-0.1122741569992677,0.0024129163124355134,1.283792363620231,1.9411157808520103,0.8870102277886388
1731474161.9705899,-0.7593311667442322,-0.04050649330019951,-10.03207015991211,-0.02171494623319037,-0.11230252534462719,0.0023495549969825224,1.2837130203833391,1.9403413713184299,0.8870232798103181
1731474162.0203743,-0.5015047788619995,0.2697582244873047,-10.028075218200684,-0.023060716424732754,-0.11239254579517477,0.002287963233187568,1.2834806410726438,1.9398245519915172,0.8870107310827897
1731474162.0706327,-0.6376875638961792,0.10086476802825928,-9.939265251159668,-0.0244731632078396,-0.11254525286277986,0.0022269122322318598,1.2832732561318565,1.938494073052523,0.8870236536331412
1731474162.1203902,-0.4812456965446472,0.29825708270072937,-9.977543830871582,-0.025942467684458435,-0.11275469840580703,0.0021650317352895215,1.2830033886030512,1.936885433354774,0.8870420333534811
1731474162.1703827,-0.5795964598655701,0.24074093997478485,-9.958183288574219,-0.027455148386076187,-0.11301006000182118,0.002101343525507576,1.2826698340912188,1.9350112681591338,0.8870655281503003
1731474162.2203078,-0.508014976978302,0.46040502190589905,-9.957934379577637,-0.028995028901137254,-0.11329720653585562,0.0020354021093199645,1.2829870545028295,1.9335247722495552,0.8870113490213952
1731474162.2702415,-0.508804440498352,0.4490143060684204,-9.982624053955078,-0.03054397050488787,-0.11360037489348199,0.001967247011780749,1.2827224716715075,1.9310951174879674,0.887023424944168
1731474162.320172,-0.48865872621536255,0.4541880786418915,-9.978496551513672,-0.0320825501072878,-0.11390371321002683,0.001897282619860532,1.2823790534130342,1.928373887681031,0.8870403501929041
1731474162.370213,-0.5410983562469482,0.4174778163433075,-9.919493675231934,-0.033590664267848465,-0.11419214416583005,0.001826173118166615,1.2825711452226425,1.9261640662143706,0.8870098928981626
1731474162.4201007,-0.47556886076927185,0.47924375534057617,-9.938119888305664,-0.03504791272530178,-0.11445154304504068,0.001754925834962682,1.2822702618304889,1.922821840833552,0.887020885969074
1731474162.47022,-0.47460830211639404,0.529241681098938,-10.030539512634277,-0.03643392495028356,-0.11466885541069634,0.001684988908990384,1.2818911954347119,1.9193070053834929,0.8870357587200326
1731474162.5199964,-0.4850676357746124,0.5224998593330383,-9.974165916442871,-0.03772880137535534,-0.11483249415051362,0.0016180010515729208,1.281621475750659,1.9163981404554904,0.8870088248868849
1731474162.5699408,-0.48955443501472473,0.4771479666233063,-9.996931076049805,-0.038913470002546684,-0.11493268035544735,0.0015554120407941358,1.2811412453287363,1.912286711376883,0.8870183384677047
1731474162.6199024,-0.4665283262729645,0.4885329604148865,-9.979948997497559,-0.039969850230891134,-0.11496136977347281,0.0014983805387752602,1.280933340529242,1.9088693985825997,0.8870075121018238
1731474162.669962,-0.46965348720550537,0.5105751752853394,-9.998185157775879,-0.04088100075960062,-0.11491196592336603,0.001447843188260039,1.2795286051501686,7.161575952562077,0.8870062009958328
1731474162.7198188,-0.4509274959564209,0.5246589779853821,-10.004263877868652,-0.04163132840992802,-0.11477921133305274,0.001404523192236335,1.2785544620887337,7.1435475772212245,0.8870140335674125
1731474162.7698064,-0.4414564073085785,0.5083518624305725,-9.974061965942383,-0.04220679385648439,-0.11455925403118852,0.001368897834749199,1.2774720665531452,7.12517051236372,0.8870253636217051
1731474162.8197534,-0.41812509298324585,0.5166147947311401,-9.975350379943848,-0.042595105775317395,-0.11424964964503978,0.0013412502918066155,1.27850218157453,7.106611319691055,0.8870068895781068
1731474162.8696876,-0.38708367943763733,0.5227304100990295,-9.974908828735352,-0.04278593612454264,-0.11384925232954649,0.0013218116868406065,1.277869222833288,7.087651928508439,0.8870147046266501
1731474162.9196005,-0.36882284283638,0.5231413841247559,-9.979649543762207,-0.042771165182466375,-0.11335811167177848,0.0013108551247858593,1.2755261779211011,7.068538973595313,0.8870061557468852
1731474162.970591,-0.3273898661136627,0.5379171371459961,-10.020581245422363,-0.04254512832419086,-0.11277741380621643,0.001308652302049445,1.2741211507358499,7.04869950954924,0.8870137107390782
1731474163.0204976,-0.3707225024700165,0.505232036113739,-9.976547241210938,-0.042104780362071936,-0.11210941084243158,0.001315332679126297,1.272626463000069,7.028827075868079,0.8870245035421156
1731474163.070438,-0.3476724922657013,0.5362069010734558,-9.949875831604004,-0.041449648988694694,-0.11135728962244172,0.0013308430921354741,1.2710479776228043,7.008938975135203,0.8870384297615336
1731474163.1203568,-0.3835640251636505,0.5246970653533936,-9.991329193115234,-0.040581567866858584,-0.11052502962507735,0.001355115309857162,1.2733714089218975,6.9886380952423135,0.8870067560355052
1731474163.1703653,-0.3614824414253235,0.5287243723869324,-9.99287223815918,-0.03950433845105521,-0.10961731839650969,0.0013881785787604368,1.272511507367642,6.968051095395016,0.8870145933779147
1731474163.2202575,-0.377625972032547,0.5039097666740417,-9.963214874267578,-0.038223438611835504,-0.10863945658944864,0.0014300719515780522,1.2703681643494904,6.94722276821131,0.8870061887263784
1731474163.2702463,-0.3766827881336212,0.5053097605705261,-10.006082534790039,-0.03674579309307348,-0.10759717602807425,0.001480771310802836,1.2689006921774955,6.925927353254792,0.8870141756283998
1731474163.3201778,-0.37935033440589905,0.516689121723175,-9.970401763916016,-0.03507956745675361,-0.10649644304080844,0.0015401884468156787,1.2676193029271836,6.904628830899597,0.8870064287909156
1731474163.3702471,-0.40080633759498596,0.4964871406555176,-10.002296447753906,-0.033233953091214415,-0.10534334520637662,0.0016081495774979472,1.2659011126793915,6.882959268553667,0.8870148799588544
1731474163.4201424,-0.38300633430480957,0.5083088278770447,-10.015450477600098,-0.03121894489508254,-0.10414402835119636,0.0016843429437525912,1.2640949699615902,6.860938538279656,0.887027502566106
1731474163.470025,-0.443865567445755,0.4779611825942993,-10.014248847961426,-0.029045110984008235,-0.1029046058300582,0.0017682091724727414,1.2658898191679868,6.838912382645271,0.8870075346320117
1731474163.5200374,-0.3783123791217804,0.5307408571243286,-9.943964958190918,-0.02672335817790918,-0.10163107018644117,0.001858893868052478,1.2648743261390047,6.816458067803603,0.8870173422927566
1731474163.569949,-0.4149475693702698,0.529784619808197,-9.995633125305176,-0.024264787320526244,-0.10032932651057869,0.0019554340964336955,1.2647203431007044,6.7938136403290565,0.8870078361669095
1731474163.6199312,-0.4006003737449646,0.5575022101402283,-9.984058380126953,-0.02168067624810545,-0.09900537675793977,0.002056977803972564,1.2636689239271734,6.770764374496125,0.8870074302306812
1731474163.6698508,-0.4396592080593109,0.5405032634735107,-9.956144332885742,-0.018982426415525944,-0.09766550585234421,0.0021628148013582245,1.2627582138707705,6.747596215137161,0.8870182276728916
1731474163.719805,-0.4295702874660492,0.5543187260627747,-9.9859037399292,-0.016181384478565576,-0.09631633585518057,0.0022723733080805674,1.261801556908632,6.7241351140790515,0.8870345946910335
1731474163.7697442,-0.42668965458869934,0.5741111636161804,-9.961564064025879,-0.013288660083808372,-0.0949647939351591,0.00238526275614254,1.2608160341949464,6.700623805441766,0.8870565922471316
1731474163.8196783,-0.4360142648220062,0.5671287775039673,-9.956544876098633,-0.010315050914145498,-0.09361810607681165,0.00250128979527501,1.2622772634903028,6.676730295228486,0.8870107770380252
1731474163.8696399,-0.4315682351589203,0.557338535785675,-9.982433319091797,-0.007271036033327778,-0.09228378787101907,0.002620471391391448,1.2617465167707855,6.652493190297619,0.8870248090235671
1731474163.9195507,-0.42473089694976807,0.5397765636444092,-10.009066581726074,-0.0041667730982465285,-0.09096951637714501,0.0027429700400339917,1.2612039221646538,6.628139386487316,0.8870454815452822
1731474163.9695463,-0.42673540115356445,0.5290296673774719,-9.97465991973877,-0.0010121193788800447,-0.08968288686373241,0.002868901599936459,1.260954072744404,6.603583224661867,0.887012041359717
1731474164.0205133,-0.41879597306251526,0.5388911366462708,-9.974834442138672,0.0021833232125459045,-0.0884311695184804,0.002998228526570881,1.2603813372996389,6.578181791512373,0.8870283954980377
1731474164.070491,-0.41879597306251526,0.5388911366462708,-9.974834442138672,0.005410169922264105,-0.08722117369499656,0.0031308455973162704,1.2598327737791761,6.553209865926954,0.88705204162581
1731474164.070491,-0.38974595069885254,0.5596628785133362,-10.005626678466797,0.008659201583144467,-0.08605924556780277,0.0032666587306985724,1.259827368673981,6.552959620094548,0.8870523167564401
1731474164.1204576,-0.38453778624534607,0.5208667516708374,-9.979079246520996,0.011921255927282002,-0.08495131552716108,0.0034055240974973358,1.2592314032361713,6.52803138714091,0.8870131940933362
1731474164.1704335,-0.3518224358558655,0.524154782295227,-9.996140480041504,0.015187063790090521,-0.08390285798727183,0.0035471675486371144,1.2583893941981192,6.502698125715041,0.887012073336602
1731474164.2203336,-0.34355854988098145,0.5191760063171387,-10.006608963012695,0.018447071138813,-0.08291874725250711,0.003691165747326846,1.2578692013301755,6.47699107905615,0.8870301852415985
1731474164.270315,-0.3270731568336487,0.5440074801445007,-9.949302673339844,0.021691288952904453,-0.08200316724994841,0.0038369600889442486,1.2568250254408704,6.450997894009302,0.8870152498915105
1731474164.3202639,-0.3096349239349365,0.5479848384857178,-10.00139331817627,0.02490920114470321,-0.08115968144370819,0.003983946073915207,1.256227658374609,6.424846537450107,0.8870361405971726
1731474164.3701947,-0.3083556592464447,0.5252760648727417,-10.021833419799805,0.028089729267074575,-0.08039136645460299,0.004131535189334831,1.2557017477662054,6.398754823763919,0.8870668604101579
1731474164.4201214,-0.32990550994873047,0.5256478190422058,-9.975671768188477,0.031221282259447175,-0.07970084059047107,0.004279040903179834,1.2552459027276628,6.372279764781854,0.887108258074013
1731474164.4701505,-0.3092363774776459,0.5399481058120728,-9.969268798828125,0.03429193275840395,-0.0790901944083778,0.004425625508920599,1.2562076774477722,6.345493105856,0.887019718550129
1731474164.520042,-0.2887982428073883,0.5596032738685608,-9.972800254821777,0.03728960738323406,-0.07856100047733208,0.004570480042983851,1.2560869850652205,6.318663109778295,0.8870446192501482
1731474164.5699935,-0.3595009446144104,0.7189980745315552,-9.982955932617188,0.04020220975214531,-0.07811460471875617,0.004712988912094374,1.2547820089212312,6.2917716649288495,0.8870193101746108
1731474164.6199439,-0.6427477598190308,1.415651559829712,-9.925313949584961,0.04301812197363512,-0.07775345899929385,0.004852768138237011,1.2543663431411898,6.264485482277338,0.8870450941788596
1731474164.6699345,-0.6165494918823242,0.5551245808601379,-9.866538047790527,0.0457275726206907,-0.07748355269387383,0.0049898328075466646,1.2540610152145972,6.236932884600599,0.8870833036505229
1731474164.719879,-1.4786083698272705,0.4926488995552063,-10.089213371276855,0.04832494188951579,-0.07731495224049449,0.005124818302274498,1.2539696169766328,6.2091489256615136,0.8870227411128475
1731474164.7698503,-0.5003513693809509,0.51936936378479,-9.853687286376953,0.05081138859084831,-0.07725881228368024,0.005258804151490031,1.2538971048016343,6.1815593944155385,0.8870511957367908
1731474164.8198128,0.04512631148099899,0.05102386325597763,-10.057523727416992,0.05319464018727081,-0.0773238824195911,0.005392958254146636,1.2524659781748029,6.153428996343094,0.8870227513098298
1731474164.869673,0.020476045086979866,0.24266284704208374,-10.213884353637695,0.055483792870023974,-0.07751432895072333,0.005528156462797604,1.2521239360548073,6.125300702849645,0.8870523355593277
1731474164.9197352,-0.06659018248319626,0.2546806335449219,-9.995284080505371,0.05768350083232265,-0.07782851720335332,0.005664195622720155,1.25131537669839,6.096897827163998,0.8870238906760185
1731474164.9696233,-0.22866807878017426,0.2495405673980713,-9.991610527038574,0.059792365122566395,-0.07825924567091812,0.005799382050542576,1.2509682387704661,6.06838697908113,0.8870549157224817
1731474165.0195842,-0.17199070751667023,0.28089892864227295,-9.977840423583984,0.06180448943242716,-0.07879494470801807,0.005931235303995731,1.2507705767677433,6.039384768398625,0.887101025085049
1731474165.0705101,-0.17834487557411194,0.4154818058013916,-9.964560508728027,0.06371127105754726,-0.0794208307875092,0.006057363849287989,1.2505877870442617,6.0101122278468155,0.8870275824229563
1731474165.1204085,-0.16542883217334747,0.4964807629585266,-9.969206809997559,0.06550231559050076,-0.08012022881962684,0.006175809536439625,1.2505845281768102,5.980915935042674,0.8870617965928886
1731474165.1703877,-0.23587629199028015,0.5165247917175293,-9.943984985351562,0.06716586919955075,-0.0808761507208045,0.00628513884585449,1.2500915053649837,5.951608297091535,0.8870269152166145
1731474165.220306,-0.22092512249946594,0.4952094256877899,-9.973434448242188,0.06868935959731962,-0.08167250649243502,0.006384483812308642,1.2501298804690824,5.92187031317841,0.8870617893401744
1731474165.2703137,-0.2323492467403412,0.5198451280593872,-9.967941284179688,0.07006002792263409,-0.08249459400508526,0.006473501599538783,1.2503417395111927,5.892046585537767,0.8871126143503746
1731474165.3203123,-0.25136658549308777,0.5174309611320496,-9.953958511352539,0.07126540035717455,-0.08332915663858162,0.0065522638934092875,1.2507290070484283,5.862085254099936,0.8871795343745142
1731474165.37022,-0.22930991649627686,0.5732638835906982,-9.989588737487793,0.07229359506773461,-0.08416442163444389,0.006621162780039592,1.2512963184570562,5.831843159283812,0.8872630509464354
1731474165.4201612,-0.27895158529281616,0.5520592331886292,-10.02342414855957,0.07313356075778979,-0.08499024377448697,0.006680772437360951,1.2496763391617618,5.801561654590725,0.8870327709056282
1731474165.4701998,-0.257144570350647,0.5125899314880371,-9.987648010253906,0.0737753012124215,-0.08579817840365472,0.006731592804571737,1.2495349450119626,5.770933847493551,0.8870262574322247
1731474165.520094,-0.27159884572029114,0.5109673142433167,-10.002777099609375,0.07421008323879381,-0.0865812660366846,0.006773876246308954,1.2497982337268876,5.739888493697817,0.8870623951492089
1731474165.5700138,-0.2805241048336029,0.5076335072517395,-10.030702590942383,0.07443056681545923,-0.08733364746588303,0.006807626142770759,1.2502415094481505,5.709067941784416,0.8871148072880939
1731474165.6199641,-0.29612553119659424,0.549163281917572,-9.971040725708008,0.07443089523688874,-0.08805033099660228,0.006832608908217475,1.2508775199787476,5.677596307019793,0.8871850450684431
1731474165.6699429,-0.11691132932901382,0.7504041194915771,-9.982314109802246,0.07420664546413512,-0.08872740295189988,0.006848428986556949,1.251693868016519,5.646151762205303,0.8872717894689481
1731474165.7198658,0.6160908341407776,1.6543776988983154,-9.985828399658203,0.07375362538126443,-0.08936367116947631,0.006854727299940098,1.249259167780706,5.614452168799675,0.8870348450707486
1731474165.7698388,0.2742922902107239,1.1484307050704956,-9.935419082641602,0.07306480033385082,-0.0899643073405472,0.006851346763310832,1.2495957467326426,5.5827071384408296,0.8870745241389861
1731474165.8198068,0.5598775744438171,1.5156831741333008,-9.900559425354004,0.07212734660139977,-0.0905439780797138,0.0068385159274104495,1.2487634635970775,5.5505100609048785,0.8870308114689
1731474165.8697546,-0.5117053389549255,-0.020943261682987213,-10.053956031799316,0.07092282584851295,-0.09112587429733295,0.006817029952695816,1.2489789682933767,5.518089027173913,0.8870690380601823
1731474165.9196506,-0.9748305082321167,-0.22038394212722778,-10.095508575439453,0.06943172979755381,-0.09173540115741234,0.00678793781262875,1.2480594489633747,5.910209458051278,0.8870302971985689
1731474165.9696872,-0.8960928916931152,-0.2285120189189911,-10.036360740661621,0.06764071879043945,-0.09239136701900562,0.006751743416554976,1.2481515895086013,5.877836925410017,0.8870683074756895
1731474166.0196366,-0.5056830048561096,0.34094709157943726,-10.030682563781738,0.06554750765222776,-0.09310093245912711,0.006707960397185587,1.2474843490966008,5.84542714008042,0.8870301901196074
