Timestamp,IMU_Linear_Acc_X,IMU_Linear_Acc_Y,IMU_Linear_Acc_Z,Filtered_X,Filtered_Y,Filtered_Z,Pose_X,Pose_Y,Pose_Z
1730865947.2339377,-1.6475468873977661,1.4503509998321533,-9.745635986328125,-2.584513510770911e-10,-6.537973565417933e-07,8.596736726353053e-08,0.7548686854611972,-19.958012614690134,0.8664770525407571
1730865947.2838902,-1.7597566843032837,1.3032793998718262,-9.741059303283691,-1.0310257905849653e-07,-5.644697586246894e-06,7.637047456411877e-07,0.7877831130499989,-14.48416139728761,0.8702055826938685
1730865947.3337905,-1.7597566843032837,1.3032793998718262,-9.741059303283691,-9.00994347804303e-07,-2.4573640159583024e-05,3.421029353988729e-06,0.8251120408993295,-7.056900566773699,0.8769216162035434
1730865947.3838024,-1.757475733757019,1.2633165121078491,-9.788309097290039,-3.998595482642643e-06,-7.372455258302113e-05,1.0502254889868134e-05,0.8075920470503977,-9.484363770296603,0.8724357920579148
1730865947.4338114,-1.9410609006881714,1.2342725992202759,-9.715015411376953,-1.2398906284168699e-05,-0.0001747918576960598,2.531430881289069e-05,0.7901489041519772,-0.15907116906377075,0.881685352163224
1730865947.4836771,-1.7980672121047974,1.2204742431640625,-9.816902160644531,-3.087168664951057e-05,-0.0003533017787552362,5.1772512073067426e-05,0.7727160900537932,-2.0843919351752136e-05,0.8800129948540972
1730865947.5337312,-1.6201061010360718,1.2407430410385132,-9.861479759216309,-6.592956739309743e-05,-0.0006373430163774038,9.407284357826662e-05,0.7552839408244661,0.1590210778338888,0.8783408948362518
1730865947.5837328,-1.6417081356048584,1.2559638023376465,-9.932706832885742,-0.00012474161363020138,-0.0010566440890064715,0.00015603616966932538,0.7378383129442879,0.3181831313793554,0.8840386297036965
1730865947.6336718,-1.4783844947814941,1.2720919847488403,-9.962823867797852,-0.00021355478594708093,-0.0016419821522116343,0.00024028265266680613,0.7203812970147052,0.4774403983081775,0.8835068995567203
1730865947.6836586,-1.4127205610275269,1.249739170074463,-9.95790958404541,-0.00033644143836497007,-0.0024247258929278514,0.0003476280354442506,0.7028997700561578,0.6369098872429034,0.8829751807969627
1730865947.7336457,-1.4345476627349854,1.2176520824432373,-9.960887908935547,-0.0004943784942436073,-0.0034362896509991174,0.00047688858457253596,0.6854991813018543,0.7956264456665258,0.8847589960801906
1730865947.7836764,-1.6071974039077759,1.2252144813537598,-9.856568336486816,-0.0006850296703642904,-0.004706988445787447,0.0006251346061198786,0.667980414244653,0.9553950251132082,0.884530181537105
1730865947.8337014,-1.532752275466919,1.1856809854507446,-9.923158645629883,-0.0009036862819544474,-0.006263614008974771,0.000788321650324437,0.650551607072116,1.114311387663241,0.8843043332431697
1730865947.8835726,-1.49844229221344,1.2116985321044922,-9.878271102905273,-0.0011445319579987611,-0.008126531715811793,0.0009619366654375696,0.6331301892113066,1.2731219194332648,0.8847256007264476
1730865947.9345996,-1.521494746208191,1.106750726699829,-9.946966171264648,-0.0014011447186761728,-0.010308179664649048,0.0011412828189880564,0.6153303056038197,1.4353260833534058,0.8845732491604755
1730865947.9846032,-1.521235466003418,1.066617727279663,-9.89339542388916,-0.0016664749423679448,-0.01281304124819606,0.0013214697375970971,0.5978253105008455,0.8785149585641502,0.8843687212708854
1730865948.034629,-1.6524330377578735,0.9745575785636902,-9.893824577331543,-0.0019330680756052456,-0.015637836178537236,0.001497422378831059,0.5804009186818169,0.6831636861023914,0.8846777968402807
1730865948.0845356,-1.714928388595581,0.9513433575630188,-9.833707809448242,-0.0021937901253179107,-0.018771586951219516,0.0016641052247456747,0.562876921142074,0.5250318097003858,0.8846777033485264
1730865948.1347377,-1.6118273735046387,0.9223973155021667,-9.884674072265625,-0.0024427243692587038,-0.022195848207930167,0.0018168791609310462,0.5453720852583153,0.36707393676749084,0.8846819758821253
1730865948.1846237,-1.3661701679229736,0.9260615110397339,-9.857068061828613,-0.0026752790233298077,-0.02588525000691614,0.001951715954219728,0.5278877363973188,0.20929856021371948,0.8846909542408001
1730865948.2345996,-1.2212275266647339,0.8862243294715881,-9.932165145874023,-0.002886822077568665,-0.029808301806449465,0.002065135793119556,0.5104635885462582,0.7380431499046756,0.8850079632843436
1730865948.2835228,-1.0323896408081055,0.8774198889732361,-9.941996574401855,-0.003070423512579755,-0.03392825255667156,0.00215391825223553,0.49331867562121273,0.7119949881965698,0.8850627040455665
1730865948.3344536,-1.2495695352554321,0.9381879568099976,-9.924843788146973,-0.0032153819556906154,-0.03820421243310365,0.00221480517961836,0.4754938054783503,0.8033480401915046,0.8850233219584458
1730865948.3844686,-1.4342632293701172,1.0002256631851196,-9.9284086227417,-0.0033084182511141425,-0.04259324161544346,0.0022445670667964705,0.45795814471405594,0.7979574580480265,0.8850470953010156
1730865948.4344435,-1.6491162776947021,1.1198151111602783,-9.88106918334961,-0.0033374025721523044,-0.04705319058236214,0.0022404430725725907,0.4404634495236644,0.7924702141390668,0.8850763957665297
1730865948.4846096,-1.8150001764297485,1.2128596305847168,-9.911548614501953,-0.003295177517543489,-0.05154507621420118,0.002200545091122914,0.42283112821812885,0.7868182350676937,0.8851115052106068
1730865948.5345068,-1.8747748136520386,1.2866096496582031,-9.855307579040527,-0.0031819224252532955,-0.05603457283652524,0.0021240300677801984,0.4053365483668544,0.8326703433180368,0.8850180237845501
1730865948.5845046,-1.8972151279449463,1.2438414096832275,-9.890105247497559,-0.003006150521766945,-0.06049287395724492,0.0020111479019789373,0.38782798164422455,0.8422045428143334,0.8850114130948921
1730865948.6345894,-1.8699368238449097,1.2726092338562012,-9.829380989074707,-0.002784550108971366,-0.06489687159461112,0.001863261412030164,0.3702378231091467,0.8436535807055036,0.8850229671817009
1730865948.6844258,-1.8699368238449097,1.2726092338562012,-9.829380989074707,-0.0025409607484912604,-0.06922876348323657,0.0016828891897249698,0.35272960884069327,0.8498554682042984,0.8850096260252787
1730865948.7343395,-1.755480170249939,1.117276906967163,-9.814167976379395,-0.0023049017973680785,-0.07347537340910448,0.001473788048933807,0.33521429355555155,0.8517871593044252,0.8850194233240527
1730865948.7843802,-1.648979902267456,1.0715574026107788,-9.870731353759766,-0.0021097681720249504,-0.07762706481213374,0.0012409305151206377,0.3176437286789056,0.8572889858298386,0.8850076700379532
1730865948.8343627,-1.619248390197754,1.0923936367034912,-9.766934394836426,-0.001990766173303968,-0.08167636019921087,0.0009903041337632013,0.3000782538238614,0.8596597346006748,0.8850151281828733
1730865948.8843756,-1.5719029903411865,1.1600306034088135,-9.814069747924805,-0.0019827448260450724,-0.08561683801228215,0.0007286799810723944,0.282436914961122,0.8646443765760068,0.8850056391182761
1730865948.9342463,-1.4718180894851685,1.2043366432189941,-9.855443000793457,-0.002117698146593436,-0.08944235150180141,0.0004631872800083852,0.2649429662741701,0.867444513663807,0.8850103445947874
1730865948.9843962,-1.5622344017028809,1.2559999227523804,-9.844598770141602,-0.0024222500903883864,-0.0931464818983734,0.0002005107299348541,0.24724621543968567,0.8699643060297798,0.8850034341340209
1730865949.0343103,-1.6065484285354614,1.3037285804748535,-9.91126537322998,-0.0029165113858120877,-0.0967226069626604,-5.383936612039669e-05,0.2297253469695448,0.8726669220422155,0.8850052818890315
1730865949.084335,-1.6464300155639648,1.3352413177490234,-9.848318099975586,-0.0036146948317495138,-0.10016453444449122,-0.00029583245290721975,0.2120416632137762,0.8751463107748195,0.8850067058405734
1730865949.1342292,-1.7890230417251587,1.2793657779693604,-9.847938537597656,-0.004526452446876144,-0.10346708672663439,-0.000522877278726094,0.19434072083757725,0.8745600383766753,0.8884069710115166
1730865949.1843033,-1.9112098217010498,1.1769911050796509,-9.826825141906738,-0.005658389133500764,-0.10662613884465104,-0.0007335109910131775,0.17683745715837387,0.8758897267304655,0.8890725562963183
1730865949.2342906,-1.7468112707138062,1.169215440750122,-9.872337341308594,-0.007015542582928231,-0.10963802740963367,-0.0009270491757042676,0.1591843749644098,0.876960172760756,0.8897411684597931
1730865949.2843397,-1.7610691785812378,1.1731765270233154,-9.90518856048584,-0.008602037593395343,-0.11249881891585427,-0.0011035048036220553,0.1415252259367705,0.8803957666458465,0.8923268271490287
1730865949.3341703,-1.772855281829834,1.1963719129562378,-9.869773864746094,-0.01042076051715329,-0.11520402040857726,-0.0012637452629180581,0.1238598847420503,0.8819905707700265,0.8934518584569479
1730865949.3842542,-1.7723252773284912,1.1582468748092651,-9.856871604919434,-0.01247298788050816,-0.11774872112272601,-0.0014095424191307533,0.10606270540826615,0.88330183185652,0.8945800916588528
1730865949.4341888,-1.5951693058013916,1.1924304962158203,-9.84045124053955,-0.014758234076692842,-0.12012776925512661,-0.0015433036817343946,0.0884594503055605,0.887951305578269,0.8959360240321413
1730865949.4842129,-1.4303251504898071,1.1096744537353516,-9.871488571166992,-0.017273539244122546,-0.12233574684766128,-0.0016676583859363552,0.07059748357595931,0.8898272071275334,0.8971107568183194
1730865949.5342839,-1.4494115114212036,1.127644419670105,-9.831385612487793,-0.02001206246790942,-0.1243667560370686,-0.0017851625650271298,0.05274129377655437,0.896388165849234,0.8997557082784953
1730865949.5842733,-1.374488115310669,1.0864741802215576,-9.847817420959473,-0.022961974802661215,-0.12621419093732358,-0.0018981538820653648,0.03477147183799745,0.8994550090009891,0.9014563236653989
1730865949.634126,-1.4525998830795288,1.0719263553619385,-9.802490234375,-0.02610632377362762,-0.1278706455566229,-0.0020086325734402105,0.01698588321632263,0.9027591627568716,0.9033001850133998
1730865949.684152,-1.5784028768539429,1.0320987701416016,-9.840079307556152,-0.029423766707817853,-0.12932789262465064,-0.0021181313702787765,-0.001061903637165279,0.9054494652106959,0.9050375795424697
1730865949.734146,-1.5448294878005981,0.9901504516601562,-9.828018188476562,-0.03288993682790174,-0.13057681196750479,-0.00222766962473154,-0.01912602759107347,0.9090053531707791,0.902868849430376
1730865949.7841535,-1.495914340019226,0.9905200004577637,-9.897010803222656,-0.0364787872839783,-0.13160728553988454,-0.0023378902346907655,-0.03733936220111027,0.9112076850645214,0.9033818177326542
1730865949.8341901,-1.5989469289779663,0.96947181224823,-9.889765739440918,-0.04016329655363542,-0.13240818398085108,-0.002449377665614933,-0.05558713017769523,0.9166584702229038,0.902507059732019
1730865949.8841543,-1.5671354532241821,0.9694827198982239,-9.91878890991211,-0.0439159055155872,-0.13296751701177242,-0.00256301976519752,-0.07395985854069789,0.921157273548783,0.8985693280848486
1730865949.9341342,-1.4966825246810913,0.9941743016242981,-9.964380264282227,-0.04770901141188201,-0.1332727145512475,-0.002680291487582603,-0.09247161867583154,0.9240822837057148,0.897161678517196
1730865949.984129,-1.4800490140914917,0.969645619392395,-9.981051445007324,-0.05151522133956199,-0.13331120249912856,-0.002803389197616399,-0.11117038679284207,0.9266819448722567,0.8957424009322762
1730865950.0342054,-1.459653377532959,1.016774296760559,-9.992463111877441,-0.055307524530160086,-0.13307158002771952,-0.0029349980380257313,-0.12993095791473508,0.9289380434079898,0.8943213992686628
1730865950.0840492,-1.5144121646881104,1.049118995666504,-9.973414421081543,-0.0590597408351261,-0.1325451018599983,-0.003077724208704153,-0.14882309457369206,0.928715104585337,0.8948560250344113
1730865950.1340241,-1.6105612516403198,1.0086636543273926,-9.94045639038086,-0.06274714590573496,-0.13172662576975463,-0.003233625781327032,-0.16775580680187863,0.9304400571555052,0.8938632958607029
1730865950.1840804,-1.5536221265792847,1.06661057472229,-9.94149398803711,-0.06634714027511275,-0.13061473994671813,-0.0034039702708864436,-0.18710086837507703,0.9364886744912274,0.8919391785802889
1730865950.2339597,-1.603241205215454,1.065562129020691,-9.964529037475586,-0.06983973773886472,-0.12921155012221125,-0.003589116653849263,-0.20632138350235293,0.9392872294661432,0.8906066758521834
1730865950.2839465,-1.879683494567871,1.0326447486877441,-9.866992950439453,-0.07320793902482811,-0.12752247411126288,-0.0037885024910000644,-0.2259179657941027,0.9417942791471152,0.8892512697685765
1730865950.3339956,-2.0737950801849365,0.9914940595626831,-9.809025764465332,-0.07643882699857223,-0.1255558765055434,-0.004000474796770189,-0.2456146541324059,0.9442058367952192,0.8894305353021437
1730865950.3840535,-1.8243703842163086,0.9407444000244141,-9.798154830932617,-0.0795252297860575,-0.12332238841737728,-0.00422180467402037,-0.2657424288551949,0.9460254215978372,0.8885353610290763
1730865950.4339852,-1.6435387134552002,1.0102969408035278,-9.805895805358887,-0.08246600325905258,-0.12083416204573978,-0.004447282058509404,-0.285689210909821,0.9537334126102008,0.8863646564328449
1730865950.4839067,-1.5730770826339722,1.1460793018341064,-9.76155948638916,-0.08526406289121824,-0.1181045981472962,-0.0046697067217367294,-0.30603951558422304,0.9571402025255639,0.8849862372998344
1730865950.5338778,-1.402429223060608,1.2469379901885986,-9.80485725402832,-0.08792374292420245,-0.11514865943253169,-0.004880264058208749,-0.32653519719317353,0.9602454711815116,0.8836006809712998
1730865950.5837739,-1.2801685333251953,1.27745521068573,-9.844583511352539,-0.09044887335612795,-0.11198295670529143,-0.005069483989411278,-0.3473021851010987,0.9630754532154654,0.8821994087129316
1730865950.6338754,-1.3144124746322632,1.2810062170028687,-9.876189231872559,-0.09284152617343432,-0.1086251778141498,-0.00522866690270902,-0.36835817478853916,0.9656374126140931,0.8807812263338974
1730865950.6837897,-1.3720238208770752,1.2254197597503662,-9.91110610961914,-0.09510141742087684,-0.10509348548722806,-0.005350995880589794,-0.3896341160945907,0.967929887301279,0.8793508326154235
1730865950.7338083,-1.4993278980255127,1.1518988609313965,-9.931300163269043,-0.09722629544925493,-0.10140608173050193,-0.00543200802608915,-0.4111132875534492,0.9604540728150233,0.8868216077108348
1730865950.78379,-1.6006672382354736,1.0863429307937622,-9.86929702758789,-0.09921318681172317,-0.09758054226329771,-0.005469669427559125,-0.43287911101627613,0.9615540877753622,0.8866190790072691
1730865950.8337855,-1.81550133228302,1.01986563205719,-9.81452465057373,-0.10106007491584129,-0.09363294543114727,-0.00546404742872036,-0.454755938603337,0.9671469913341574,0.8873296432216259
1730865950.8837059,-1.9375649690628052,0.9927679896354675,-9.77560806274414,-0.10276777206773158,-0.08957710100259919,-0.005416554797286271,-0.4770622595358464,0.9692034671388263,0.8872553937709379
1730865950.9336746,-2.0457820892333984,0.9714118242263794,-9.726194381713867,-0.1043417105012628,-0.08542407101683834,-0.005329069707189518,-0.49947956367745633,0.9710287257486094,0.8871682656897246
1730865950.9836621,-2.0869340896606445,1.0083929300308228,-9.737180709838867,-0.10579317929467005,-0.08118208066553158,-0.005203236980677533,-0.5222083190263072,0.9786874772468375,0.8875057060890502
1730865951.0336392,-2.0562994480133057,1.051559329032898,-9.758321762084961,-0.10713968646793895,-0.0768568604416196,-0.005040110666921894,-0.5452507959726705,0.981608230860673,0.8874667185505867
1730865951.083622,-1.9736506938934326,1.1039338111877441,-9.822582244873047,-0.10840386946124841,-0.07245249409144139,-0.004840219282697039,-0.5685000002450918,0.9902031942408045,0.8875558173710485
1730865951.133597,-1.9302725791931152,1.1401413679122925,-9.887577056884766,-0.10961016453925783,-0.06797280907828959,-0.00460399800687707,-0.5920790644152363,0.9947174269031931,0.8875260500238783
1730865951.1835477,-1.8705997467041016,1.1601102352142334,-9.892549514770508,-0.11078044671651167,-0.06342286699433333,-0.0043323968984661735,-0.6158008565321342,1.0014193963387457,0.8875721797207318
1730865951.233644,-1.852792739868164,1.1702474355697632,-9.919771194458008,-0.11193131461530274,-0.05880983866981074,-0.004027394887520698,-0.639975787907127,1.0066399186444979,0.887546797033595
1730865951.2836158,-1.850260853767395,1.1229956150054932,-9.914119720458984,-0.11307355158061405,-0.05414310815475119,-0.003692238777211172,-0.6642505605825276,1.0138000145268937,0.887806942610361
1730865951.3335752,-1.8229795694351196,1.0839333534240723,-9.910886764526367,-0.11421248110806613,-0.04943387612859952,-0.0033314340480925107,-0.6889100010851044,1.019087358079142,0.8878502392384239
1730865951.3836124,-1.7985893487930298,1.0479875802993774,-9.888747215270996,-0.11534846344930441,-0.04469446833669431,-0.0029505600458956185,-0.7138854843001822,1.0240894095724362,0.8880599767664631
1730865951.4335694,-1.7535266876220703,0.9978740811347961,-9.872357368469238,-0.11647732796792512,-0.039937555887490615,-0.0025559492642390283,-0.7389403471233356,1.0333437267660899,0.8880386914693762
1730865951.4836032,-1.7225205898284912,0.9698752164840698,-9.863229751586914,-0.11759067622104988,-0.0351754459233864,-0.0021543069851769105,-0.7645697819855206,1.039532821340283,0.8880599859080287
1730865951.533507,-1.668954610824585,0.9353963732719421,-9.8529052734375,-0.11867610251665278,-0.03041949286528177,-0.0017523704344196837,-0.7903593382871147,1.0456076279592794,0.8880762957861474
1730865951.583536,-1.6359572410583496,0.9215210676193237,-9.852986335754395,-0.11971737880695225,-0.02567966999174629,-0.0013566631169211842,-0.8165765056748716,1.0516425171714745,0.8880887927158776
1730865951.6334298,-1.6144894361495972,0.9229671359062195,-9.850465774536133,-0.12069498536636152,-0.020964498834007448,-0.0009733198755023074,-0.842766342248424,1.0449883685586867,0.8880134120033458
1730865951.6834772,-1.6067534685134888,0.9610587358474731,-9.857247352600098,-0.12158767765294345,-0.01628168498312886,-0.0006079215704441676,-0.8696645614411319,1.0485350427759863,0.8880120828545254
1730865951.7344527,-1.5976148843765259,1.0084751844406128,-9.867647171020508,-0.1223746597193447,-0.011639278642172915,-0.0002653668767170954,-0.8969961258651016,1.0573716006994953,0.8880026757224824
1730865951.7843916,-1.6114647388458252,1.0301212072372437,-9.874835968017578,-0.1230369408364802,-0.007046606257685182,5.0121041430422546e-05,-0.9243524733792056,1.0630217436626133,0.8880015129808754
1730865951.8344188,-1.5975745916366577,1.018343448638916,-9.889068603515625,-0.12355761937258912,-0.0025146247227750664,0.00033486297644709316,-0.9520333619069975,1.068663305162764,0.8880008308675992
1730865951.8845086,-1.5975745916366577,1.018343448638916,-9.889068603515625,-0.12392183153676398,0.0019441497321126392,0.0005855664033581526,-0.9799035138348162,1.0695154676265974,0.8880009244491259
1730865951.934418,-1.626556634902954,0.905511736869812,-9.897462844848633,-0.12411670185501908,0.006316052624817125,0.0007992036679475555,-1.0082212473100636,1.073592523014457,0.8880033355306065
1730865951.9844997,-1.6508206129074097,0.8503293991088867,-9.890620231628418,-0.12413138272753065,0.01058707669994076,0.0009729455264027579,-1.0368789292668463,1.084364456503186,0.8880023593009166
1730865952.034278,-1.668717384338379,0.7852784395217896,-9.882685661315918,-0.12395723086812613,0.014743966848679905,0.0011041598779242482,-1.0654670476694388,1.090797729612582,0.8880070209148208
1730865952.0843859,-1.666137456893921,0.7490000128746033,-9.847501754760742,-0.12358798795875464,0.018775243217857864,0.0011905036116519612,-1.0946355491333926,1.0947152560024058,0.8880038641744951
1730865952.134316,-1.6244356632232666,0.7482098340988159,-9.854060173034668,-0.12301977747956488,0.02267186843590189,0.001230112582127163,-1.1240964172202645,1.1005305793484417,0.8880099993133307
1730865952.1843207,-1.5937052965164185,0.7874472141265869,-9.882034301757812,-0.12225082866215609,0.026427334654622534,0.0012217823781479377,-1.1540354267389887,1.1064411574744815,0.8880192473344791
1730865952.2342668,-1.5707736015319824,0.8576775789260864,-9.910017013549805,-0.1212810328632914,0.030036889698042975,0.0011649971039319508,-1.183835581348781,1.1056873141748473,0.8880051814313054
1730865952.2842512,-1.587791085243225,0.9232023358345032,-9.935588836669922,-0.1201115513241603,0.03349614411026435,0.0010597643217491143,-1.2140351633876345,1.1152278076625668,0.8880043558239941
1730865952.3342435,-1.5839658975601196,0.9715844392776489,-9.951668739318848,-0.1187446029401988,0.03679982249439408,0.0009063152797041134,-1.244765980223618,1.1210760630428227,0.8880099871862166
1730865952.3842833,-1.6285433769226074,0.9795622229576111,-9.949352264404297,-0.11718343869136635,0.03994106123336655,0.0007048076575580729,0.9106935751196267,1.1261492283288903,0.8877383378009126
1730865952.4342704,-1.6731714010238647,0.9589577913284302,-9.931402206420898,-0.11543250186712382,0.04291121230896015,0.0004551864466825786,0.9086515512774934,1.13208755172339,0.8876465473526586
1730865952.4843504,-1.7608195543289185,0.9085907340049744,-9.892904281616211,-0.11349781045238772,0.04570011910314163,0.00015727930430166245,0.906312992714739,1.138166436726111,0.8875550624447887
1730865952.5342863,-1.8198007345199585,0.8613375425338745,-9.845653533935547,-0.11138754598650882,0.048296796129519086,-0.00018887967937651168,0.9100112944089316,1.1387000513567418,0.8875303617261155
1730865952.5842535,-1.8743910789489746,0.8098325729370117,-9.812735557556152,-0.10911269336093905,0.05069031715391979,-0.0005825750111229261,0.9084655449209001,1.1434536560965065,0.8874617267266709
1730865952.634168,-1.8743910789489746,0.8098325729370117,-9.812735557556152,-0.10668748095649257,0.0528706622529011,-0.001021960764642277,0.9084988961526145,1.1532490524434424,0.8875577267750511
1730865952.6841817,-1.8178749084472656,0.9012826681137085,-9.799697875976562,-0.10412937361515999,0.05482920570207851,-0.0015038276274809928,0.906919908176297,1.1600080603991305,0.8875349940311702
1730865952.7341259,-1.7743693590164185,0.9895063042640686,-9.821540832519531,-0.10145832955259267,0.05655871188470782,-0.0020236829708321848,0.9066250535508877,1.1631840791489518,0.887578284876872
1730865952.7841399,-1.7426655292510986,1.0704177618026733,-9.879551887512207,-0.09869519511392527,0.058053210988958284,-0.0025762182492683324,0.9050120099005905,1.1691584634050944,0.8875634324760451
1730865952.834016,-1.7173658609390259,1.144403100013733,-9.899643898010254,-0.09585986251780994,0.05930792308065527,-0.0031560935213779204,0.9068630213381256,1.1756063606911376,0.8875849500987424
1730865952.884022,-1.7238008975982666,1.201750636100769,-9.902915954589844,-0.092970143390207,0.060318831068266424,-0.003758654789745196,0.9059743334882793,1.181900523908971,0.887567553741614
1730865952.9340377,-1.7645459175109863,1.1820310354232788,-9.86949348449707,-0.09004154901152096,0.06108196584628041,-0.004380237200612249,0.907756112095368,1.185027495398964,0.8883150436658732
1730865952.9839852,-1.83077871799469,1.1543887853622437,-9.82955265045166,-0.08708763649642787,0.061593028695363296,-0.005018025644310533,0.9086556927797035,1.1934995215759252,0.8889708671143262
1730865953.0339887,-1.8594506978988647,1.0799541473388672,-9.79504680633545,-0.08412068133522914,0.06184763299483461,-0.005669616686018526,0.9084613165641817,1.1997479635870987,0.8892822910701177
1730865953.0839276,-1.8404059410095215,1.018115758895874,-9.759230613708496,-0.08115236801920928,0.061842008127144917,-0.006332479273403033,0.9080612467817059,1.2061421599089357,0.8895783417894245
1730865953.1339393,-1.7897979021072388,0.9865586757659912,-9.764646530151367,-0.0781940965402691,0.061573872740464074,-0.0070035052201198825,0.9074614403473845,1.212702450650889,0.8898582922057953
1730865953.1840162,-1.698754072189331,1.0258070230484009,-9.786855697631836,-0.07525672003503395,0.061043097731748465,-0.007678806350626752,0.9093724644044111,1.2083514274156855,0.8894003562924567
1730865953.2339149,-1.6195176839828491,1.096706748008728,-9.849236488342285,-0.07234981205561287,0.06025179718216983,-0.008353872936640881,0.9091055036154163,1.2129433420893385,0.8895078305466761
1730865953.2839737,-1.5690386295318604,1.1863417625427246,-9.894932746887207,-0.06948093277508727,0.05920392523112439,-0.009024019296178066,0.9086581972126759,1.2177205223061536,0.8895942739700282
1730865953.3338645,-1.5596836805343628,1.2637195587158203,-9.941064834594727,-0.06665560952500582,0.057904934991255326,-0.00968482341383083,0.9087455395369246,1.2212942599050554,0.8897457081164445
1730865953.384044,-1.59630286693573,1.3051685094833374,-9.960204124450684,-0.06387806030530632,0.05636162303104804,-0.010332414446487682,0.9082309285624287,1.2265452920844035,0.8898488863944823
1730865953.4338489,-1.6284863948822021,1.3273265361785889,-9.94701862335205,-0.061151948388869934,0.054581743714368455,-0.01096369675773512,0.9075664452625963,1.2318759703447015,0.8899244219078556
1730865953.4840422,-1.6553434133529663,1.316172480583191,-9.920696258544922,-0.058480873790679545,0.052573458809874,-0.011576443565984489,0.9081617775239913,1.235583829406939,0.8901075288489481
1730865953.5338588,-1.6599690914154053,1.2806527614593506,-9.860176086425781,-0.05586874284442834,0.050345072928582035,-0.012169084556790487,0.9107858134748346,1.249214478659646,0.8900436239283234
1730865953.583919,-1.6765570640563965,1.1801283359527588,-9.819402694702148,-0.05332000246712187,0.047905232784183766,-0.01274020249152934,0.9112847320179353,1.2566810613997401,0.8900297395989037
1730865953.6338382,-1.6720153093338013,1.0732054710388184,-9.787087440490723,-0.05083970991292938,0.04526359790197004,-0.013287923284810212,0.913787815019194,1.2605091964368178,0.8899888784935663
1730865953.6838663,-1.6663193702697754,0.9791675806045532,-9.763050079345703,-0.04843348345188472,0.042431874084130586,-0.013809415003925693,0.9146278172296821,1.266519415136079,0.8899304459284848
1730865953.7339408,-1.6707918643951416,0.9239218235015869,-9.750232696533203,-0.04610736346619146,0.039424870287439,-0.014300602063100227,0.915353479559043,1.272662541476435,0.8898364615421402
1730865953.7837968,-1.6994575262069702,0.9047927856445312,-9.781537055969238,-0.04386767165507709,0.036261191747409945,-0.01475611333570674,0.9165226262709041,1.2731819570965703,0.8899503189468161
1730865953.8338177,-1.7137017250061035,0.9450106620788574,-9.824131965637207,-0.04172085891709067,0.03296312383269652,-0.015169587653755947,0.9172477371495366,1.278438224635628,0.8898708471344356
1730865953.8838098,-1.7199853658676147,1.0237822532653809,-9.900525093078613,-0.03967308661949131,0.029555233648167326,-0.015534496771688309,0.9192273082640458,1.2865503498470174,0.889939775890984
1730865953.933771,-1.7199853658676147,1.0237822532653809,-9.900525093078613,-0.03772959390600737,0.02606215694169039,-0.015845259806776445,0.9219537864603286,1.2952709180150508,0.8899426897435441
1730865953.9838536,-1.7125602960586548,1.1412822008132935,-9.991416931152344,-0.035894325149832935,0.022506863806451918,-0.016098123752934384,0.9234295067337587,1.302122378951107,0.8898591456198358
1730865954.033785,-1.7383090257644653,1.1559922695159912,-9.991555213928223,-0.034169943291619646,0.018909748070863257,-0.016291665553438965,0.9248118843583111,1.3089978168795229,0.889735546786651
1730865954.0837812,-1.7700742483139038,1.0934906005859375,-9.966474533081055,-0.03255803840233347,0.01528814521333344,-0.016427024921116376,0.9239799856826925,1.308585840013622,0.8899251312790766
1730865954.1337168,-1.7931220531463623,1.0574482679367065,-9.924484252929688,-0.031059475429573463,0.01165640697233404,-0.016507733926002584,0.924652246978839,1.3133872583784638,0.889832615418248
1730865954.1838078,-1.8051255941390991,0.9757516384124756,-9.861323356628418,-0.029674799678505104,0.008026618650020818,-0.016539081845163423,0.9260675983200427,1.3232335338498666,0.8899271321710864
1730865954.233678,-1.8243852853775024,0.909440279006958,-9.807530403137207,-0.028404554069338294,0.004409605670718857,-0.016527221503071857,0.9269721617101246,1.330013433024226,0.8898355755642512
1730865954.2837088,-1.831785798072815,0.8526820540428162,-9.77783489227295,-0.027249476375294852,0.0008159530114485268,-0.016478255265328142,0.9284115350580416,1.3314868750099649,0.8899266930822936
1730865954.3335953,-1.7967559099197388,0.8678164482116699,-9.767488479614258,-0.02621057298797949,-0.002743174909984071,-0.01639752025175195,0.9294063011892205,1.3366005198351434,0.8898353097477103
1730865954.3836603,-1.7605763673782349,0.9291214346885681,-9.799591064453125,-0.02528893257677514,-0.006255732465017228,-0.01628926271051064,0.9312245257697597,1.3434190261626804,0.8899265364082652
1730865954.433618,-1.710945725440979,1.0032237768173218,-9.818702697753906,-0.024485157242859427,-0.009709211118475551,-0.016156779227792593,0.9323300634939582,1.348963529104779,0.8898356683877413
1730865954.4836576,-1.7012803554534912,1.053971767425537,-9.838756561279297,-0.023798617667141836,-0.013091577570193278,-0.016002864786476726,0.9345462237005944,1.354492277384826,0.8899274210940818
1730865954.5335536,-1.7012803554534912,1.053971767425537,-9.838756561279297,-0.023226956464782834,-0.016392213531607344,-0.01583023891259351,0.9359542267900136,1.3599735567375328,0.8898380733188137
1730865954.5836434,-1.7113316059112549,0.9963055849075317,-9.854170799255371,-0.02276602363390591,-0.01960238792820881,-0.015641779041228827,0.9360308762419871,1.365452774328867,0.889928250399505
1730865954.6335702,-1.745736837387085,0.9328804016113281,-9.85682487487793,-0.022410128132669318,-0.022715068372051558,-0.015440620662741461,0.9370334520361688,1.3708194872596888,0.8898409203546908
1730865954.683587,-1.745736837387085,0.9328804016113281,-9.85682487487793,-0.022152453307950286,-0.025724268125900753,-0.015230201152130272,0.9379877423292778,1.3761655708906473,0.889714564256461
1730865954.733575,-1.7491909265518188,0.843873918056488,-9.839099884033203,-0.021985481181906654,-0.028624348342577585,-0.015014234552671412,0.9369397680712491,1.3814162896562774,0.8899255249484805
1730865954.7836032,-1.719849944114685,0.8954249024391174,-9.856204986572266,-0.02190125810316193,-0.03140950242760286,-0.01479660600897639,0.9373746598673495,1.3866189969034168,0.8898387685358712
1730865954.8335345,-1.69038987159729,1.013269066810608,-9.893735885620117,-0.021891427783717186,-0.03407363323134277,-0.01458130484160358,0.9386377236304154,1.391714334622353,0.8899323997305362
1730865954.8834958,-1.6407148838043213,1.1782209873199463,-9.94733715057373,-0.02194705413738004,-0.03661103307679421,-0.014372573659763294,0.9408851164347257,1.3967500706139568,0.889941796817828
1730865954.9335127,-1.5968351364135742,1.3148117065429688,-9.980710983276367,-0.02205844652694445,-0.03901754107586035,-0.01417512546325839,0.9423118626994635,1.4016674437809789,0.8898648864974779
1730865954.9834745,-1.5788203477859497,1.3853707313537598,-9.986942291259766,-0.022215372036263316,-0.04129092834661337,-0.01399392530005513,0.943684391331162,1.4064880386144099,0.8897528176690127
1730865955.0333755,-1.5788203477859497,1.3853707313537598,-9.986942291259766,-0.022407609353766362,-0.04343028685294333,-0.01383353725169194,0.9420327699779664,1.411204449741796,0.8899319851183172
1730865955.0834413,-1.6471034288406372,1.241713523864746,-9.92891788482666,-0.022625398045242197,-0.04543539207287634,-0.013697618575238248,0.9425712865889774,1.415825481410089,0.8898522184836306
1730865955.1334794,-1.7504501342773438,1.1041513681411743,-9.85863208770752,-0.022859850353721473,-0.047306041573126845,-0.013588618304420316,0.9430527877196784,1.4203310614315905,0.8897381573547745
1730865955.1834555,-1.8304283618927002,0.9711137413978577,-9.74976921081543,-0.02310370898457009,-0.04904078068557328,-0.013507258758496385,0.9443510492607193,1.424712708935039,0.8899331811553887
1730865955.2333221,-1.9156988859176636,0.9128645658493042,-9.670672416687012,-0.023352345831300105,-0.050635375790668055,-0.01345172356979979,0.9450524619706318,1.4289512950163046,0.8898555860815799
1730865955.2834413,-1.9563443660736084,0.903839647769928,-9.61693286895752,-0.02360462049773623,-0.052081787248975976,-0.013416825763287493,0.9456997781015473,1.4330904657923904,0.8897436865359997
1730865955.3332965,-1.9563443660736084,0.903839647769928,-9.61693286895752,-0.02386334624959711,-0.05336796080704556,-0.013393495671868564,0.9462817136259716,1.437057628370251,0.8895995907933572
1730865955.3834836,-1.923431158065796,1.0500279664993286,-9.705564498901367,-0.0241352175022712,-0.05447841063476752,-0.013368880422544846,0.9480385689090892,1.4409486509809724,0.8899313699178187
1730865955.4342368,-1.8367159366607666,1.1513241529464722,-9.823517799377441,-0.02443015573725165,-0.05539554507488362,-0.013327234237052588,0.9488625634342485,1.4447166557591675,0.8898519813306505
1730865955.4842105,-1.7143102884292603,1.2665013074874878,-9.948857307434082,-0.024760014619913676,-0.056101589495261776,-0.013251552792999425,0.9519163417582284,1.4483145208045256,0.8899392223544844
1730865955.5342638,-1.5934988260269165,1.3747628927230835,-10.055098533630371,-0.025136562024088628,-0.05658069894361633,-0.013125605886863003,0.9534059973037867,1.4517523645206662,0.8898648149838564
1730865955.5842412,-1.4835880994796753,1.4298890829086304,-10.111140251159668,-0.025569150258703984,-0.05682079900211427,-0.012935831391541149,0.9551718130250948,6.888639415031086,0.8899407753153894
1730865955.6342456,-1.443881630897522,1.4316983222961426,-10.103753089904785,-0.02606290750939122,-0.05681475917610107,-0.012672574131726067,0.9566856438001913,7.170524772453341,0.8898684531758855
1730865955.6842623,-1.4952565431594849,1.3775787353515625,-10.049909591674805,-0.02661793377710174,-0.056560665375393,-0.012330408241484474,0.9575000919952062,6.802529142906583,0.8852383423518324
1730865955.7341847,-1.6399167776107788,1.2702287435531616,-9.953142166137695,-0.027229614434840513,-0.056061215678332964,-0.01190759002699948,0.9585410353383087,6.871790974133837,0.8839974654913371
1730865955.7842758,-1.8158236742019653,1.1555479764938354,-9.814238548278809,-0.02789006183042894,-0.05532241483775528,-0.011404835560843238,0.9609030951293883,6.717036783805154,0.8789504350142484
1730865955.8341494,-1.987913966178894,1.0372942686080933,-9.684324264526367,-0.02859038435992261,-0.05435186088833101,-0.010823655580778685,0.964267175289158,6.678611086861385,0.8747382267514493
1730865955.8841746,-2.1046435832977295,0.9711049795150757,-9.589987754821777,-0.02932315078580439,-0.053157023665886385,-0.010164574276863434,0.966282984638503,6.681963594480192,0.8718722204199504
1730865955.9341092,-2.1483964920043945,0.9394667744636536,-9.553539276123047,-0.03008437850652164,-0.0517439091828068,-0.009425668951456202,0.9682299214787824,6.685193869573795,0.8689728650954324
1730865955.9841945,-2.121264934539795,0.9565346837043762,-9.586009979248047,-0.03087457073718474,-0.05011637285444292,-0.00860181901006285,0.9700830611093882,6.688267606520182,0.8660776055140357
1730865956.0340698,-2.039263963699341,0.9619608521461487,-9.645097732543945,-0.031698349655777155,-0.04827637204050764,-0.007685104236842787,0.9666928246531091,6.652955156563786,0.8704372188891236
1730865956.0840585,-1.9312196969985962,0.9948458671569824,-9.719782829284668,-0.03256230131012701,-0.04622544251410395,-0.006666722671369565,0.9674704944323108,6.651818200365976,0.8689264741341884
1730865956.1340225,-1.8107657432556152,1.0069457292556763,-9.799466133117676,-0.03347181385370907,-0.043966729172084544,-0.0055396849162028415,0.968163373063855,6.650572115141091,0.8674050856422125
1730865956.184022,-1.7375962734222412,1.0039891004562378,-9.883305549621582,-0.034428585881437386,-0.041506205306850605,-0.004300801572346514,0.9687720990330866,6.649218319427763,0.8658701383330368
1730865956.2339506,-1.6901278495788574,0.9899908900260925,-9.963652610778809,-0.035429414339274004,-0.03885276359294615,-0.0029516269969032142,0.9708701038856205,6.641244620869196,0.8670982346640849
1730865956.2840056,-1.6511867046356201,1.0167818069458008,-10.022025108337402,-0.03646580560689319,-0.03601784760293689,-0.0014989524218032917,0.9718474500108749,6.63941290509857,0.865923489175234
1730865956.3338845,-1.626352071762085,1.0566904544830322,-10.058816909790039,-0.03752405477309405,-0.03301513018061286,4.493938330321439e-05,0.9752681605316267,6.639382473168387,0.8682703858792205
1730865956.3839247,-1.6089198589324951,1.1275053024291992,-10.08283519744873,-0.038585621984211754,-0.029860449505335222,0.0016623468130266942,0.9766356625915824,6.638349397223935,0.8680781857698927
1730865956.433835,-1.548673152923584,1.161179542541504,-10.08017635345459,-0.03962763914607966,-0.026572006608226832,0.0033305544613236684,0.9801882601623784,6.6378042908607,0.8692410668489328
1730865956.4838657,-1.5168516635894775,1.1840696334838867,-10.051786422729492,-0.04062337595495441,-0.02317060284888195,0.005022535327262428,0.9834745554252808,6.6383002087542335,0.8749589085943651
1730865956.533793,-1.4813148975372314,1.1318827867507935,-9.987784385681152,-0.0415426057569567,-0.019679615794935747,0.006707947995316649,0.9856729386076585,6.637920951580335,0.8773495403802108
1730865956.5838237,-1.4938756227493286,1.0512200593948364,-9.905617713928223,-0.04235250305426294,-0.01612439569491197,0.008354665253762057,0.9877760348225921,6.637495203950819,0.8797696214699522
1730865956.6337664,-1.5253958702087402,0.9455553293228149,-9.82075309753418,-0.04302016096743587,-0.012530873293362901,0.009931190530457806,0.9897647626452978,6.63703529009529,0.8822034649159128
1730865956.683823,-1.6069215536117554,0.8572342395782471,-9.72569751739502,-0.043516114263249576,-0.008923689174148097,0.011409456134561144,0.986330284742535,6.638035727818811,0.8798458844728714
1730865956.7337284,-1.7038275003433228,0.803158164024353,-9.66273307800293,-0.04381679195873006,-0.005324556797150597,0.012766825373230154,0.9872368694352032,6.637805430761624,0.8813103280165878
1730865956.7837372,-1.8090814352035522,0.8006678223609924,-9.635173797607422,-0.04390551717000538,-0.0017512842514600484,0.013986972098698307,0.9913700516970615,6.6376146289763485,0.8838797054481551
1730865956.8336544,-1.8927173614501953,0.8072279691696167,-9.634767532348633,-0.04377308489036461,0.0017825210118052608,0.0150600423193436,0.9958372639493014,6.6388971278042535,0.8873916949976444
1730865956.883653,-1.9440635442733765,0.8602471947669983,-9.668485641479492,-0.04341820866380325,0.0052671692475846025,0.015982295382391504,0.9981339578312619,6.6392021403822765,0.8895782523454967
1730865956.9336395,-1.9826576709747314,0.9154075980186462,-9.733817100524902,-0.042847607261898235,0.008696173308841225,0.016755276173073458,1.0003230538266816,6.639524763590693,0.8918065184353844
1730865956.9837236,-1.9989776611328125,0.9727869033813477,-9.810914993286133,-0.042075670182583715,0.012065268542868886,0.017384612248014252,1.0022300190256745,6.639826075339837,0.8919224514986624
1730865957.033659,-1.9968469142913818,1.0430967807769775,-9.891023635864258,-0.04112377439475772,0.015371351263663933,0.017878579928142152,1.00419519317589,6.640125197924901,0.8936582116817937
1730865957.083661,-1.9078164100646973,1.1033395528793335,-9.982389450073242,-0.04001927058890362,0.01861146779015051,0.018246623886113658,1.0060718778343372,6.640468957368483,0.895450963791155
1730865957.1336153,-1.811535358428955,1.1505705118179321,-10.037453651428223,-0.038793741499963105,0.021782014970224695,0.018498106747959313,1.0066823231201094,6.640476573709209,0.8910928688800525
1730865957.1835968,-1.684177279472351,1.158101201057434,-10.068291664123535,-0.03747999095552726,0.024878428796781184,0.01864167078215471,1.0081844855384832,6.640796701129366,0.8915387718855811
1730865957.2335598,-1.607757568359375,1.1402833461761475,-10.083259582519531,-0.036108451507818606,0.027895374260923214,0.018685192275709646,1.0095954313027566,6.6411830991506,0.8920316812380876
1730865957.2836456,-1.5794684886932373,1.0847864151000977,-10.054425239562988,-0.03470467342788745,0.03082713631691563,0.018635859396503005,1.0109146602182246,6.641641860478882,0.892569997847533
1730865957.3335211,-1.6266781091690063,1.0333889722824097,-10.00820255279541,-0.03328849222492586,0.03366811576849436,0.018500266680824974,1.012110390070387,6.6316933283080495,0.8904030257125276
1730865957.3835816,-1.7076492309570312,0.985153317451477,-9.948284149169922,-0.03187438188477252,0.03641347627871186,0.018284771090054823,1.0158745137129477,6.623594320688764,0.8901957477902329
1730865957.4335127,-1.7534598112106323,0.9991579055786133,-9.872818946838379,-0.030472526689390655,0.039059757140614264,0.017996123079063175,1.017765256157663,6.620408369618692,0.8903142147490509
1730865957.4836228,-1.761965274810791,1.019677996635437,-9.80775260925293,-0.029090113350156627,0.04160515253403958,0.017642216645011036,1.0195865757187044,6.617314623349352,0.8904778615227317
1730865957.5335631,-1.7332777976989746,1.0601274967193604,-9.740081787109375,-0.027732291486720576,0.0440493390146699,0.017232821868432023,1.0213284707157342,6.614342180375362,0.8906844001325073
1730865957.5835302,-1.7360866069793701,1.0578792095184326,-9.706241607666016,-0.026402607495399615,0.04639301787195465,0.01678016993635361,1.0230026468549118,6.611482879209201,0.8909333784748735
1730865957.633568,-1.7078824043273926,1.0534155368804932,-9.675688743591309,-0.02510310885253939,0.04863748406495774,0.016299279291602537,1.0203298454222072,6.608282204036028,0.890118863119005
1730865957.683474,-1.7233083248138428,1.0290294885635376,-9.678693771362305,-0.02383445879872681,0.0507843232682934,0.015807643549668085,1.0212918161726636,6.605443645183717,0.890219509544779
1730865957.733404,-1.7296462059020996,1.0342074632644653,-9.693284034729004,-0.02259634866011489,0.05283501666839744,0.015323691594597807,1.0248101689389573,6.592764942335981,0.8900828901695104
1730865957.7834828,-1.7782323360443115,1.0552161931991577,-9.738544464111328,-0.02138817514458396,0.05479042224114059,0.014864521683037082,1.0266640412241987,6.586795963787709,0.8901710003918156
1730865957.833414,-1.8271551132202148,1.1032934188842773,-9.756502151489258,-0.020209692106963606,0.05665039442102873,0.014444357491043648,1.0284630344075905,6.580975618209012,0.8902955280118056
1730865957.8834038,-1.8970963954925537,1.1459044218063354,-9.80887222290039,-0.01906157557026507,0.0584135365454654,0.014074061102053252,1.030215981831966,6.575289268005381,0.8904558984924924
1730865957.933347,-1.9201931953430176,1.1988476514816284,-9.833016395568848,-0.017945990825187587,0.06007689835894832,0.013761004058485383,1.0285972781382875,6.57786120409271,0.8902904335652144
1730865957.983341,-1.93211030960083,1.2210768461227417,-9.855461120605469,-0.016867027923262792,0.06163564975740502,0.013508983191822853,1.0295783037197992,6.574321207751232,0.8904083068265735
1730865958.0332818,-1.8952357769012451,1.1917591094970703,-9.863088607788086,-0.015830784241580527,0.06308292739425642,0.01331826191795648,1.0340869550574048,6.560974654929683,0.8905301696031799
1730865958.0833924,-1.8420480489730835,1.143674373626709,-9.883455276489258,-0.014845006266347265,0.06441007026528367,0.013185768605064898,1.0362959678313217,6.554094271820824,0.8906979842265434
1730865958.1332362,-1.8420480489730835,1.143674373626709,-9.883455276489258,-0.013918404233571024,0.06560725143568101,0.013105390179942547,1.0376977650575199,6.544752027075541,0.8900218647993188
1730865958.1833367,-1.694387674331665,1.115341305732727,-9.905627250671387,-0.013059838079518335,0.06666420250948493,0.013068300365996226,1.0395931114797232,6.537308780320184,0.8899646344776352
1730865958.2332082,-1.6100733280181885,1.094612956047058,-9.931663513183594,-0.012277430947383868,0.06757085020564702,0.013063497113501906,1.0414384402877723,6.530105270753746,0.8899405647572222
1730865958.2832747,-1.5418109893798828,1.0807050466537476,-9.972339630126953,-0.011577747830903129,0.06831800230544255,0.013078888041958822,1.0417273780159144,6.5263868608853235,0.8895272681830884
1730865958.3331993,-1.499990701675415,1.0729589462280273,-10.015694618225098,-0.01096525601993236,0.06889803211295376,0.0131025488308142,1.0444694585311203,6.511428636121883,0.8891426129144441
1730865958.383289,-1.4388550519943237,1.0682786703109741,-10.016959190368652,-0.01044194457293388,0.06930526572120888,0.01312325671088832,1.0462227201584167,6.503076287258108,0.88901642231187
1730865958.4332135,-1.4234479665756226,1.0768064260482788,-10.036955833435059,-0.010006952644005722,0.06953602850416149,0.013130323280982717,1.0490009907363755,6.487813593093115,0.8883042367675722
1730865958.4831707,-1.4432932138442993,1.1116139888763428,-10.005428314208984,-0.009656387513128237,0.06958849018354815,0.013113408397164428,1.051334813375594,6.476171662506502,0.8879891498076188
1730865958.5341525,-1.5085569620132446,1.1484904289245605,-9.962830543518066,-0.009383576377823787,0.06946233054807252,0.013062607400386278,1.0536698630435841,6.464579943280766,0.8877040641206683
1730865958.5831633,-1.5824558734893799,1.1850098371505737,-9.87814998626709,-0.009179824540991966,0.06915824122027486,0.012968851969715227,1.051387164539414,6.480484301387247,0.8877805350980397
1730865958.6341417,-1.7026240825653076,1.1562330722808838,-9.797066688537598,-0.009035572621215909,0.0686774352382262,0.012824622063133412,1.0525880003458403,6.475648473418526,0.8876289739545723
1730865958.6841717,-1.8434793949127197,1.0966352224349976,-9.701960563659668,-0.008941820055328759,0.0680214596551845,0.012624848981720635,1.053742733881486,6.4710794529307885,0.8875124866944731
1730865958.7341104,-1.9647480249404907,1.0394996404647827,-9.635427474975586,-0.008891708790209679,0.06719249407066702,0.012367822205582907,1.0548720756064083,6.466691350979133,0.8874274222600785
1730865958.7841659,-2.0362460613250732,0.9632866978645325,-9.589738845825195,-0.008881632060698261,0.06619388893392457,0.012055591817099955,1.0532856627864422,6.4726592158015555,0.8881508995230207
1730865958.8331368,-2.0580220222473145,0.9396564364433289,-9.595098495483398,-0.008910775383111606,0.06503043210008441,0.011693114657383711,1.053992795818,6.469727518091773,0.8882271893654993
1730865958.8841126,-2.0260348320007324,0.9472898840904236,-9.640368461608887,-0.008979380155747937,0.06370822578396154,0.011286456142101418,1.0556004068431608,6.461842823831415,0.8884508676362041
1730865958.9341154,-1.9630955457687378,1.0134309530258179,-9.721592903137207,-0.00908733697788114,0.062234418867462414,0.010841310954324414,1.0565107669647182,6.45781950792511,0.8885757169160567
1730865958.984118,-1.895137906074524,1.0919886827468872,-9.815616607666016,-0.009233515489018752,0.060616757234417555,0.010362113078163697,1.0576198437424769,6.448509559862759,0.8887130715023858
1730865959.0339692,-1.8222602605819702,1.1473636627197266,-9.905097961425781,-0.009415163894437114,0.05886281169586951,0.00985117597817289,1.0585503516392223,6.443099357295897,0.8888645154000351
1730865959.0840662,-1.7455374002456665,1.1361726522445679,-9.956357955932617,-0.009627212460509675,0.056979160334456116,0.009307804417334996,1.0605788971786558,6.436651620309735,0.8889723470963936
1730865959.1339521,-1.700907826423645,1.1482601165771484,-10.000899314880371,-0.009861655781528995,0.05497095085227489,0.008727667745644879,1.0620219193982092,6.430398936958673,0.8891529927669845
1730865959.1839936,-1.7207727432250977,1.1174755096435547,-10.020934104919434,-0.010107198932535174,0.05284193121242531,0.008102572301034543,1.0634499678343932,6.424237804723136,0.8893559913757964
1730865959.233999,-1.7523990869522095,1.134559988975525,-9.988039016723633,-0.010349400679293788,0.050594737815007715,0.007420633871904428,1.061836325529715,6.424794319241884,0.8920095741541044
1730865959.2839696,-1.8286563158035278,1.1376848220825195,-9.950651168823242,-0.010571383586334804,0.048231201448509016,0.006666861431507993,1.0625024667203187,6.420456979226773,0.8927549579746579
1730865959.3339097,-1.8731988668441772,1.1633003950119019,-9.883402824401855,-0.010755078707872772,0.04575270206391608,0.005824386221982366,1.0638658680588162,6.410624587028192,0.8951654706811497
1730865959.3839538,-1.87714421749115,1.2097761631011963,-9.829784393310547,-0.010882937173033569,0.04316085743003087,0.004876661693552269,1.065089894441532,6.401246522125548,0.8976572208650978
1730865959.43391,-1.8527741432189941,1.2444229125976562,-9.779115676879883,-0.010939508934244578,0.0404582862881241,0.0038100382811264637,1.0659244257407392,6.395342031683236,0.8990312499695938
1730865959.483997,-1.7791498899459839,1.2536530494689941,-9.761033058166504,-0.010912035249726913,0.037648769037811614,0.002615393059690269,1.0667542344270666,6.389375625944759,0.9004503006568888
1730865959.5338774,-1.7433054447174072,1.2289862632751465,-9.7857084274292,-0.010790017831020814,0.03473692059064272,0.001288479692585395,1.0666257888912154,6.377747355994767,0.9005901714095697
1730865959.583923,-1.7001326084136963,1.2023404836654663,-9.813427925109863,-0.010564412230951305,0.03172800610360563,-0.0001704481802850407,1.0672067215922425,6.370330078693879,0.9016718356363781
1730865959.6338441,-1.658395528793335,1.1724835634231567,-9.855494499206543,-0.010226908676014827,0.028628069760773832,-0.0017573834647552403,1.0686403309932853,6.354052789572255,0.9033132034249463
1730865959.6838272,-1.658395528793335,1.1724835634231567,-9.855494499206543,-0.009769414032311845,0.02544417242625071,-0.0034654582403539197,1.0699633846042103,6.3371401302626,0.9027954752418604
1730865959.733828,-1.5081108808517456,1.1046420335769653,-9.922158241271973,-0.009183646360842377,0.022184586589077324,-0.005285773592795998,1.070899947318789,6.325441844430419,0.9032691940172316
1730865959.7838185,-1.4295170307159424,1.1049782037734985,-9.95274543762207,-0.00846054771580801,0.018858978271791945,-0.007208166683969502,1.0718117530165714,6.313827504307144,0.9037259109699429
1730865959.833836,-1.4276865720748901,1.1359474658966064,-9.951932907104492,-0.007589470286299041,0.015478528552298743,-0.00922194466434448,1.0727006701299402,6.302292324319377,0.904160692127407
1730865959.8838398,-1.4848183393478394,1.1582427024841309,-9.916403770446777,-0.006558075098912647,0.012055755174508367,-0.011316352404460668,1.071351085688569,6.315414663232142,0.9020942438125141
1730865959.9337692,-1.5948827266693115,1.1681678295135498,-9.850994110107422,-0.005354118860734924,0.008604017707169198,-0.013480495657867155,1.0727769077758473,6.3016617748909525,0.9016731594400531
1730865959.9839382,-1.7093874216079712,1.1369863748550415,-9.79179573059082,-0.003968528949598016,0.005137027766681384,-0.015702789373135122,1.0735264798905286,6.293003232528597,0.9015480899996108
1730865960.0338023,-1.8193243741989136,1.1080282926559448,-9.737626075744629,-0.002397862327982503,0.0016686465260613125,-0.017970275936571224,1.074747666666587,6.281965450286677,0.9013095783244157
1730865960.083812,-1.884267807006836,1.1029753684997559,-9.714607238769531,-0.0006454918807574578,-0.0017870389730479592,-0.020268100141905047,1.075599509637102,6.2728587784511225,0.901122497208317
1730865960.1337838,-1.9105286598205566,1.1115912199020386,-9.716594696044922,0.0012779754835501094,-0.005215608992941902,-0.022579281582933458,1.0764471646321134,6.263796515358364,0.9008830950300198
1730865960.1837988,-1.9257912635803223,1.116139531135559,-9.744019508361816,0.0033548394344330053,-0.008602378686122111,-0.024884861324764317,1.0764079236044957,6.258391935375418,0.9010283103513517
1730865960.2337227,-1.9447674751281738,1.1083884239196777,-9.78177261352539,0.005560930243520644,-0.0119326037585419,-0.027164413486670026,1.0771016300713852,6.2494867850600055,0.9008128509876803
1730865960.28374,-1.942165493965149,1.0875669717788696,-9.824285507202148,0.007866473817288238,-0.015191657849477156,-0.029396805821987594,1.0780546653724032,6.239302913249536,0.9007943345777603
1730865960.3336928,-1.9253342151641846,1.0885087251663208,-9.844911575317383,0.010237054258688476,-0.018365095109573668,-0.03156103369605922,1.0789210680865673,6.229342707894029,0.900534990834121
1730865960.383695,-1.8715403079986572,1.0781447887420654,-9.8873929977417,0.01263470332379795,-0.021438660507406865,-0.03363696605768632,1.079818241553139,6.219307630180369,0.9001935162169677
1730865960.4336674,-1.8378441333770752,1.0401469469070435,-9.917705535888672,0.015019472640596422,-0.02439840595615908,-0.035605955690464236,1.0807492203787399,6.2092236742311675,0.8997658002084508
1730865960.48365,-1.7672381401062012,1.032460331916809,-9.951805114746094,0.017351997624972082,-0.02723104666764004,-0.03745135105298251,1.0802840295605411,6.219668780422902,0.8971815589944477
1730865960.5337403,-1.7021394968032837,1.0370874404907227,-9.975760459899902,0.019596489099047397,-0.029924427232489108,-0.03915891331770166,1.0809414623174765,6.213829159742791,0.8963549164973188
1730865960.5838394,-1.65043306350708,1.073177456855774,-10.0149564743042,0.021722744363425108,-0.032467826746702316,-0.040717127158913645,1.083487226051402,6.207917467959351,0.8929587004904603
1730865960.6337297,-1.6014059782028198,1.14634108543396,-10.020565032958984,0.023706888042279856,-0.03485218728800953,-0.042117416389258804,1.0848500799536234,6.201924579584644,0.891238374814079
1730865960.6836996,-1.6014059782028198,1.14634108543396,-10.020565032958984,0.02553151023865856,-0.03707049768370113,-0.04335422307721199,1.0866400770412987,6.195896403275355,0.8890335932100257
1730865960.733647,-1.6096011400222778,1.2526041269302368,-9.945744514465332,0.02718546668413635,-0.039118257333372486,-0.04442482086546324,1.0882296984370023,6.189711401525762,0.8870361600746322
1730865960.7837098,-1.665219783782959,1.2559261322021484,-9.857342720031738,0.028663284063697118,-0.04099390090814145,-0.04532870782934249,1.0898861748609836,6.183438397167239,0.8849301565181414
1730865960.8336103,-1.7471556663513184,1.2027697563171387,-9.769553184509277,0.029964175450456425,-0.04269904901598579,-0.04606656503786248,1.0916086728980958,6.17708764624746,0.8827192163140661
1730865960.8836133,-1.8258168697357178,1.1118991374969482,-9.667461395263672,0.03109073019083973,-0.044238208111259794,-0.04663900266548854,1.0888967067742261,6.17060762611539,0.8854823459192664
1730865960.9335773,-1.8815194368362427,1.0185134410858154,-9.608986854553223,0.032047474953442345,-0.045617763833936946,-0.047045373933094575,1.089875406091316,6.164031945614173,0.8840797626533172
1730865960.9835758,-1.8734042644500732,0.954424262046814,-9.58102798461914,0.03283968125722117,-0.04684469808998726,-0.047283186256960125,1.0912515899321271,6.157305364460033,0.8822978163822882
1730865961.033538,-1.824157476425171,0.9195178747177124,-9.613903045654297,0.03347281790165361,-0.04792565403515854,-0.04734888396353935,1.0923899192563062,6.150508508478876,0.8807410598986559
1730865961.0836797,-1.7324042320251465,0.9404146075248718,-9.695297241210938,0.033952762433506964,-0.0488665690661772,-0.047239705556149474,1.0936234494664012,6.143527665958985,0.8790511225609096
1730865961.133535,-1.6441199779510498,0.9858413338661194,-9.814929962158203,0.034286531873846074,-0.049672699410127696,-0.04695533474238685,1.0941011536135339,6.136499051176698,0.8860858353311879
1730865961.1836119,-1.5686087608337402,1.074684739112854,-9.920032501220703,0.03448320148241517,-0.05034897626667329,-0.04649899894517903,1.0952451264507086,6.129286845884369,0.8863743860327086
1730865961.2334654,-1.542607307434082,1.151999592781067,-10.003628730773926,0.03455470476707733,-0.050900738619574726,-0.045878420175707514,1.0964685149770845,6.121984970445521,0.8902567112815664
1730865961.283573,-1.5542049407958984,1.2301385402679443,-10.041191101074219,0.03451621764474435,-0.05133468045742268,-0.04510654926396379,1.0978129347411134,6.11451414779834,0.8913760277228585
1730865961.3333614,-1.6225168704986572,1.2406723499298096,-10.066964149475098,0.034385935801533596,-0.05165969403962941,-0.04420181023676613,1.099231278246088,6.106980002784889,0.8923748010810968
1730865961.3834236,-1.7253564596176147,1.2138913869857788,-10.027120590209961,0.034184212882240675,-0.05188728068575089,-0.043187792606229465,1.1007455992969548,6.099261769257359,0.8932716348484252
1730865961.4334004,-1.7253564596176147,1.2138913869857788,-10.027120590209961,0.033932275122983274,-0.05203138049482285,-0.04209246705362807,1.0984053549927746,6.091424970864785,0.8933178044787619
1730865961.4834306,-1.8791604042053223,1.118408203125,-9.90227222442627,0.03365091606161336,-0.05210775840183611,-0.04094704514730276,1.099210937222966,6.083440789842516,0.8938639871118611
1730865961.5334456,-1.8703622817993164,1.049418330192566,-9.87574577331543,0.033359352422072525,-0.052132997665930034,-0.03978429816405326,1.100602813727212,6.075344281187771,0.8969293648939136
1730865961.5833516,-1.8703622817993164,1.049418330192566,-9.87574577331543,0.03307433904799809,-0.052123076052240244,-0.03863608671515552,1.1029089256359392,6.06710169517809,0.9005784225851768
1730865961.6333067,-1.6464136838912964,0.9628157019615173,-9.86606502532959,0.03281001821614131,-0.05209197933145049,-0.037530930934127744,1.1045858138546873,6.0587528917287194,0.9026443783521365
1730865961.683353,-1.5627888441085815,0.9482263922691345,-9.848698616027832,0.03257889792974919,-0.05205084657486664,-0.03649284401242443,1.1063481474771089,6.050255686848391,0.9046222042670187
1730865961.7333167,-1.562458872795105,0.9341247081756592,-9.841981887817383,0.032393444918760714,-0.05200759325924873,-0.035541289933377566,1.1081924756978412,6.041625297077891,0.9065104152037022
1730865961.783527,-1.5797141790390015,0.9555282592773438,-9.840194702148438,0.03226715701809087,-0.05196688393819272,-0.03469144531636178,1.1035343131428448,1.5974050102864983,0.8998800773877177
1730865961.8334281,-1.5797141790390015,0.9555282592773438,-9.840194702148438,0.032214652072926724,-0.05193043773998795,-0.03395450372307602,1.1041711940504697,1.4716952014125875,0.9000269807703519
1730865961.883437,-1.7408385276794434,1.130565881729126,-9.812065124511719,0.03225111721342663,-0.05189766047873055,-0.03333801314436456,1.1048966498159671,1.3444182378233926,0.9000907037597625
1730865961.933372,-1.8037424087524414,1.1793253421783447,-9.80042552947998,0.03239128864859042,-0.051866737670320934,-0.032846151112773336,1.1056916989490961,1.218872454916272,0.9000713825413358
1730865961.9834905,-1.8700915575027466,1.1633671522140503,-9.820185661315918,0.032648108858506074,-0.05183596446152038,-0.03247994149983789,1.103367803086061,1.579390444530814,0.8987534326405594
1730865962.0333447,-1.9134926795959473,1.100498914718628,-9.80792236328125,0.03303157384979874,-0.051804528161370954,-0.03223754782182671,1.1037243587621057,1.5582836038674746,0.8985753003590388
1730865962.083408,-1.9134926795959473,1.100498914718628,-9.80792236328125,0.03354813296398161,-0.0517723584657179,-0.03211471625115527,1.1034753520959741,1.6130086761522902,0.898294375030972
1730865962.1332574,-2.009242534637451,0.8998187184333801,-9.762540817260742,0.03420060272290814,-0.051739300420664415,-0.032105322771311555,1.1038196105446063,1.607416415827008,0.8980410263966787
1730865962.1833553,-2.009242534637451,0.8998187184333801,-9.762540817260742,0.03498826696592568,-0.05170389322783736,-0.0322018408853689,1.103724321625782,1.6266917178782958,0.898001975901895
1730865962.2332752,-1.9653370380401611,0.8578269481658936,-9.763777732849121,0.03590696964155134,-0.05166222796320458,-0.032395571362699986,1.10386221503378,1.6313673143493954,0.8978046702867506
1730865962.2832632,-1.8760980367660522,0.9307280778884888,-9.811843872070312,0.036949529146698745,-0.05160751746231717,-0.03267681137066038,1.1041916695478644,1.6307440764757566,0.8975142289998551
1730865962.3331802,-1.7786275148391724,1.0387083292007446,-9.875558853149414,0.03810675538416823,-0.05153057529442727,-0.03303526498615078,1.1046149468771997,1.6299918617248523,0.8971416449856285
1730865962.3832405,-1.7020138502120972,1.1243410110473633,-9.926508903503418,0.0393688399307244,-0.0514210117504913,-0.03346074607365922,1.1051360901092513,1.6291092335253206,0.896685047036467
1730865962.4332123,-1.6601722240447998,1.1989141702651978,-9.964488983154297,0.04072668793789235,-0.051268743879962345,-0.033943974607457954,1.1040927227563346,1.6340255934924666,0.8977727464762753
1730865962.4832904,-1.6342209577560425,1.2611186504364014,-9.975395202636719,0.04217286222663943,-0.051065337582885444,-0.03447720454782256,1.104394443461811,1.6337578005639641,0.8975558939228063
1730865962.5331616,-1.622498869895935,1.2675787210464478,-9.962905883789062,0.0437020424513828,-0.05080492914314538,-0.03505452175840271,1.1045806163064311,1.634957488790104,0.8980438862375231
1730865962.5832772,-1.639206886291504,1.2061913013458252,-9.937066078186035,0.045311084898478744,-0.05048459244775489,-0.035671777282775555,1.1049794568017846,1.6347947522877044,0.8979008205539317
1730865962.6331246,-1.6860491037368774,1.1449236869812012,-9.880510330200195,0.04699854883978805,-0.05010397896985444,-0.03632613527855313,1.105491887203154,1.6345075643227536,0.8976687437028187
1730865962.6834114,-1.6860491037368774,1.1449236869812012,-9.880510330200195,0.04876337570947294,-0.049664340588631506,-0.03701523898941051,1.10517509330673,1.6356587100871167,0.8982804584535199
1730865962.7330935,-1.709753394126892,1.0741137266159058,-9.788422584533691,0.05060322410880867,-0.04916746455894913,-0.037736253579737956,1.105625273449035,1.6355374190997263,0.8981363259877838
1730865962.7832174,-1.6724727153778076,1.0828081369400024,-9.795247077941895,0.05251356980595527,-0.04861492959390922,-0.03848513177380242,1.1056022231500462,1.635298118532869,0.9021783406445392
1730865962.8330767,-1.6206578016281128,1.0981696844100952,-9.837224006652832,0.054487828930172996,-0.04800772705791377,-0.0392562693298762,1.1060934376966993,1.6349323142727792,0.9032260063870113
1730865962.8830912,-1.5427521467208862,1.13316011428833,-9.84755802154541,0.056518056112134785,-0.04734625753668326,-0.040042650738476786,1.106045430182985,1.6344564760773976,0.9060338263949386
1730865962.933006,-1.5629488229751587,1.1618047952651978,-9.863628387451172,0.05859583910039089,-0.04663065853904322,-0.04083634753166943,1.1065706371716224,1.6338572743013362,0.9074543404559801
1730865962.9830446,-1.629149079322815,1.215698003768921,-9.845447540283203,0.060712921555847496,-0.045861287551791446,-0.041628991187434655,1.107244340540209,1.6331431834175263,0.9087700613902847
1730865963.0340078,-1.6967530250549316,1.2590280771255493,-9.838217735290527,0.06286114525756788,-0.045039253411369634,-0.04241202017880811,1.1080923904320281,1.6322960719864277,0.9100062335052114
1730865963.084012,-1.7413307428359985,1.2730633020401,-9.82457160949707,0.06503184269207586,-0.04416692485519323,-0.043176738215220695,1.1065783743523663,1.6313575838829601,0.9053025654154578
1730865963.1339903,-1.7646113634109497,1.2583575248718262,-9.81188678741455,0.06721517338827931,-0.0432482430989639,-0.04391428953145864,1.107092701458409,1.6303073938855877,0.9052951529201092
1730865963.1839724,-1.7786732912063599,1.2127102613449097,-9.802888870239258,0.0693998263492246,-0.042288601161600575,-0.04461569591264129,1.107311717408552,1.6291496146301008,0.9042476249427576
1730865963.233917,-1.8130278587341309,1.14822256565094,-9.807696342468262,0.07157325283722361,-0.04129414073334691,-0.04527212219595653,1.1079753484178039,1.6278879151533303,0.9039231230112578
1730865963.2838762,-1.809478998184204,1.100132703781128,-9.810400009155273,0.07372216089814966,-0.04027067215718579,-0.045875310403218364,1.1088187264382146,1.6265269436606284,0.9034856915706486
1730865963.333905,-1.797210454940796,1.1131501197814941,-9.829365730285645,0.07583287260092353,-0.03922275607552888,-0.04641790281066878,1.1083795382186796,1.6250722905815553,0.9035711990608909
1730865963.383851,-1.7991148233413696,1.125964879989624,-9.836786270141602,0.07789154901141551,-0.03815333204692839,-0.04689359076542828,1.109093653874789,1.6235119127332773,0.9032000958831993
1730865963.4338167,-1.7826963663101196,1.1695894002914429,-9.845488548278809,0.07988443917102014,-0.03706388095774802,-0.047297215305563065,1.1095502652055762,1.6218687326831496,0.8992861991766038
1730865963.4838102,-1.7767739295959473,1.2048052549362183,-9.856528282165527,0.08179814467771962,-0.03595491638980121,-0.047624843660352335,1.1104786402557862,1.6201196297970388,0.897596205904926
1730865963.5337822,-1.8129676580429077,1.1983704566955566,-9.851751327514648,0.08361982898590856,-0.03482656591609861,-0.04787379689229443,1.1104393886737907,1.6182685955014815,0.8951967621880477
1730865963.5838563,-1.865580439567566,1.1427628993988037,-9.82577133178711,0.08533722742105371,-0.03367894059536297,-0.04804259177346867,1.1113431428524545,1.616377230981499,0.8931990108757951
1730865963.633715,-1.881205439567566,1.0834192037582397,-9.824111938476562,0.08693838331232528,-0.03251204176710736,-0.04813074890963333,1.1125089468870881,1.6143185356773893,0.8909904941880665
1730865963.68373,-1.863053321838379,1.0553536415100098,-9.826824188232422,0.08841134296774106,-0.03132527591355942,-0.048138541469145264,1.1113369425682145,1.6123179897002873,0.8959787059023829
1730865963.7337158,-1.8265241384506226,1.0528087615966797,-9.850543975830078,0.08974418906896597,-0.030117095565136802,-0.04806680629635314,1.112170010049184,1.6101016875317637,0.8953634895222551
1730865963.7837036,-1.7715882062911987,1.0776413679122925,-9.877630233764648,0.09092558936673684,-0.02888536570857326,-0.047916819442636746,1.1131812457944728,1.6079256824087462,0.8946623430009631
1730865963.8336518,-1.7354477643966675,1.0973707437515259,-9.941924095153809,0.09194565291577322,-0.027628311198612848,-0.04769029630690168,1.1122832182706448,5.634373009666074,0.8968781357358188
1730865963.8837056,-1.689695954322815,1.1317925453186035,-9.966397285461426,0.09279669796256473,-0.026345292657488813,-0.04738966767875698,1.1131454547262938,5.796414953690444,0.8965991686182012
1730865963.9335935,-1.6389662027359009,1.1293141841888428,-9.971222877502441,0.09347377502291414,-0.025037134288959758,-0.047018504187329765,1.1142333683860064,5.957273874574996,0.8962047260809858
1730865963.9836588,-1.6623183488845825,1.1505361795425415,-9.938908576965332,0.0939749921183974,-0.02370621464143937,-0.04658172248392056,1.1131720332376251,6.115041452715346,0.9009893681306554
1730865964.0335605,-1.685981035232544,1.114296793937683,-9.907242774963379,0.09430153525905105,-0.022356406549253853,-0.046085393446564676,1.1140565424529336,6.2683279145947095,0.9016507837035141
1730865964.0836053,-1.7127622365951538,1.098321795463562,-9.828071594238281,0.09445727353756449,-0.02099282609679521,-0.04553621578072254,1.1137332197423215,6.045164708931491,0.9051915454697311
1730865964.1335196,-1.7381293773651123,1.0863145589828491,-9.812661170959473,0.0944481182899575,-0.019621420378241314,-0.044940797495701144,1.1145926147675729,6.0796804039341446,0.9065707124062484
1730865964.1835907,-1.7394286394119263,1.1070185899734497,-9.751754760742188,0.09428139566923975,-0.01824857192525022,-0.04430494524637636,1.114332031586977,5.982871549530101,0.9133336472974548
1730865964.2335656,-1.7783422470092773,1.099996566772461,-9.74980354309082,0.09396534390409095,-0.016880889298133306,-0.04363313125700508,1.1151689423266433,5.987342513074643,0.9162046556324044
1730865964.2834716,-1.775434136390686,1.1180026531219482,-9.734968185424805,0.09350866148676094,-0.015525095795928437,-0.04292830042822909,1.1162380913006418,5.991763954708892,0.9189618157489781
1730865964.3334875,-1.775434136390686,1.1180026531219482,-9.734968185424805,0.09292001012312094,-0.01418779923852213,-0.042192214098975535,1.114883048122518,5.948153679644307,0.9200234355964869
1730865964.3834748,-1.8024729490280151,1.096219539642334,-9.761283874511719,0.09220757559429604,-0.012875157127549648,-0.041426141724578786,1.1156146634966397,5.946536786017828,0.9219410943749908
1730865964.4334664,-1.8024729490280151,1.096219539642334,-9.761283874511719,0.09137881765904428,-0.011592620439142257,-0.04063140335098037,1.115549775974114,5.929275365605934,0.9267181458570448
1730865964.4834557,-1.8906596899032593,1.113863468170166,-9.796687126159668,0.09044030097457795,-0.010344831388607619,-0.039809638272156195,1.1163464224951145,5.925103078912583,0.9292357049192849
1730865964.533443,-1.8843986988067627,1.1354656219482422,-9.818350791931152,0.08939742003263215,-0.009135691792154912,-0.03896300564999451,1.1173666488288623,5.9209153893425555,0.9316491450698391
1730865964.5834439,-1.8520234823226929,1.1645499467849731,-9.829914093017578,0.08825413868115065,-0.007968602007880405,-0.038094409010888855,1.1186086020740542,5.916708139323379,0.9339651612713551
1730865964.6334517,-1.8085271120071411,1.176212191581726,-9.861815452575684,0.08701310594363004,-0.006846782745312386,-0.03720768783195902,1.11609793859426,5.913376570315606,0.9299259472760528
1730865964.6834452,-1.7181299924850464,1.1627516746520996,-9.876137733459473,0.08567625320430992,-0.005773533016800244,-0.03630775205706642,1.1167862109087874,5.909434879402176,0.9310599788060093
1730865964.7333987,-1.6924563646316528,1.1392431259155273,-9.905946731567383,0.08424565898291536,-0.004752282659231315,-0.035400692311598425,1.1165426554888083,5.899800389115873,0.9305521000751169
1730865964.7834475,-1.6710063219070435,1.1597439050674438,-9.915834426879883,0.08272436095713293,-0.0037864446698314316,-0.03449386266151534,1.117241542988393,5.8941827315378905,0.9312225043139962
1730865964.8333828,-1.6623401641845703,1.1732234954833984,-9.910504341125488,0.08111673425704093,-0.002879229453789641,-0.03359572681403077,1.1181962572319206,5.888216218841084,0.9318447884795954
1730865964.8834436,-1.664509892463684,1.188157320022583,-9.918722152709961,0.07942822116857819,-0.0020334927390442915,-0.03271512588542748,1.1192788903320552,5.88265502530923,0.9323441526802246
1730865964.933397,-1.6572636365890503,1.1673773527145386,-9.908549308776855,0.07766471085300027,-0.0012515934733119325,-0.03186022408666771,1.116996397994137,5.8853509120567145,0.9274519019612705
1730865964.9834638,-1.6591688394546509,1.130024790763855,-9.90406608581543,0.07583212591526596,-0.0005352551097367685,-0.031037872055037906,1.1175932284271757,5.881473129190253,0.9269993151232067
1730865965.0333724,-1.6374982595443726,1.1253414154052734,-9.897210121154785,0.07393636218056672,0.00011462131225274994,-0.03025350542040938,1.1173466819367488,5.872236881433699,0.9240733837225058
1730865965.0834715,-1.6542800664901733,1.1127800941467285,-9.890379905700684,0.0719833619498009,0.0006981637212405658,-0.02951119814661687,1.1177968411180264,5.860226036459232,0.9216587466694844
1730865965.1333466,-1.6624219417572021,1.1077226400375366,-9.87459659576416,0.0699791451862072,0.0012166297846964668,-0.028813704515889774,1.1184741894912256,5.8527660893042475,0.9201554909580829
1730865965.183495,-1.6803877353668213,1.1172305345535278,-9.872438430786133,0.06792972370027325,0.0016723788068591212,-0.028162485304015203,1.1193292210410504,5.845258297450504,0.9185703845570898
1730865965.2333581,-1.6642932891845703,1.1443051099777222,-9.851571083068848,0.0658409504328331,0.0020687244189050206,-0.027557726021300594,1.118353320936618,5.84621068447942,0.9193112229087208
1730865965.2835011,-1.676072597503662,1.1518168449401855,-9.866317749023438,0.06371843155153506,0.0024096529532068515,-0.02699837314462446,1.118915524152903,5.841346792651834,0.9183419744159185
1730865965.3333554,-1.688549518585205,1.173169493675232,-9.839729309082031,0.061567507337471045,0.0026994788600065546,-0.026482210776957803,1.118960276971125,5.831562396191941,0.9195072596298306
1730865965.3832452,-1.7406500577926636,1.1670211553573608,-9.839791297912598,0.05939323205645984,0.0029425451804536385,-0.026006016389807624,1.119597014803464,5.824758783660145,0.9190636338335777
1730865965.4331973,-1.7592371702194214,1.1434805393218994,-9.807424545288086,0.05720038318885495,0.0031430448279312585,-0.025565852095970978,1.119715331541076,5.816805972602817,0.9195795522185025
1730865965.4832108,-1.7919294834136963,1.1425443887710571,-9.786770820617676,0.05499347743379883,0.003305016063553175,-0.025157370428230418,1.120399679880627,5.809424625547933,0.9192762905100802
1730865965.5332005,-1.8289555311203003,1.1339582204818726,-9.734051704406738,0.05277662734959257,0.003432455672720991,-0.024775850896257213,1.1212179070381973,5.802056340631699,0.9189109901267951
1730865965.5832748,-1.906752586364746,1.1017496585845947,-9.722082138061523,0.05055316786816768,0.0035294444636894406,-0.024415939208377178,1.1204073196867137,5.800979764121442,0.9195158861683085
1730865965.6332035,-1.9440362453460693,1.0649313926696777,-9.711519241333008,0.04832512252306939,0.003600321038276067,-0.024071360767105275,1.1209819044770748,5.79480971078134,0.9192840755692749
1730865965.6832056,-1.954621434211731,1.0486096143722534,-9.747272491455078,0.046092686859969575,0.0036499566444564892,-0.023734853789600857,1.119461062080665,5.784177918073721,0.9193650655871158
1730865965.733109,-1.9300211668014526,1.0519165992736816,-9.785317420959473,0.043854007757458215,0.0036840047277670864,-0.02339842239498728,1.119559539622162,5.7758030659591215,0.9191176460370009
1730865965.7832572,-1.8917458057403564,1.0662336349487305,-9.863221168518066,0.04160541383650006,0.0037089469853056156,-0.023053900336371832,1.1197566116169153,5.767894673034357,0.9188272556531646
1730865965.8331983,-1.8261340856552124,1.0515388250350952,-9.917787551879883,0.039342031064629635,0.003731929904949998,-0.02269373866364083,1.1200570554646263,5.7598158618502096,0.9184743683695582
1730865965.8832433,-1.7325536012649536,1.0188775062561035,-9.973783493041992,0.03705867031674327,0.0037605859484197797,-0.022311853375497303,1.1187227540482654,5.770021813961989,0.9192037513320238
1730865965.9331484,-1.6438817977905273,1.0134690999984741,-9.997303009033203,0.034750824949201356,0.0038028726999147005,-0.021904184722580787,1.1188141813687271,5.7657478279267105,0.9190190083133501
1730865965.9832146,-1.6068297624588013,1.0392526388168335,-10.010113716125488,0.03241544845118068,0.0038665789588130037,-0.021468558725980625,1.1180752664805786,5.752265795934305,0.9190086655812361
1730865966.0331244,-1.5930547714233398,1.1113393306732178,-9.983500480651855,0.03005131707741985,0.003958416913872337,-0.021004000597136877,1.1180247875477722,5.744487696869747,0.9187923433475456
1730865966.0831685,-1.6152253150939941,1.2080261707305908,-9.939994812011719,0.027659103721440818,0.0040830980037638975,-0.020510091585953395,1.1175047432953005,5.7383859265571635,0.9185596592336392
1730865966.1329873,-1.6628810167312622,1.2549554109573364,-9.904179573059082,0.025241210937737624,0.00424255377048526,-0.019986507718180516,1.11741038676943,5.731176463854694,0.918266587943499
1730865966.183079,-1.7237470149993896,1.2498868703842163,-9.840123176574707,0.022801266901884037,0.0044353432670153296,-0.019432529265829578,1.1173753204596126,5.72391525123216,0.9179216434204435
1730865966.232996,-1.7540323734283447,1.1959750652313232,-9.810408592224121,0.020343373545420193,0.004656560475412222,-0.018846504848328633,1.116979695932613,5.719699962132805,0.9183629037097263
1730865966.282932,-1.7761001586914062,1.1373709440231323,-9.77637004852295,0.0178713828576633,0.004898417034699641,-0.018225389173001174,1.1163069119190963,5.703761370044966,0.918236317493392
1730865966.3329697,-1.7739691734313965,1.080772876739502,-9.734260559082031,0.015388429533853148,0.005151285890367757,-0.01756443772954058,1.1160840068221003,5.6947348554703,0.9180306498595907
1730865966.3838212,-1.7863746881484985,1.0190056562423706,-9.72805404663086,0.012896757677123599,0.005404859644997017,-0.01685704966754127,1.1152970054696325,5.685188764719827,0.9176759018044643
1730865966.4338863,-1.7863746881484985,1.0190056562423706,-9.72805404663086,0.010397729733269693,0.00564916075540559,-0.016094767925266172,1.1148875591228522,5.67508814092753,0.9173220801910863
1730865966.4838243,-1.7485802173614502,0.980993390083313,-9.72205638885498,0.007892046035636355,0.005875221919392425,-0.015267749672074817,1.114501921768441,5.6650251908087945,0.9169298694506436
1730865966.5338418,-1.7739217281341553,0.9647471904754639,-9.749009132385254,0.005380376578189649,0.0060754100736700265,-0.014366145824643557,1.1150304436854355,5.670399532944682,0.9173335853628755
1730865966.5839176,-1.776928424835205,1.0090956687927246,-9.792386054992676,0.00286414045545397,0.006243513245185607,-0.013381962975991403,1.114877044495925,5.664218609238478,0.9171027565344156
1730865966.6337254,-1.7719019651412964,1.0469619035720825,-9.85647201538086,0.00034583666378693826,0.006374584543783132,-0.012310336941176838,1.1145693775128247,5.65228731817588,0.9171934828001617
1730865966.6840096,-1.742720127105713,1.0767850875854492,-9.918389320373535,-0.00217103397175701,0.0064645050750820904,-0.011150060069917736,1.1143343279645874,5.643748189894523,0.9170051542526787
1730865966.733826,-1.7308605909347534,1.0838773250579834,-9.983128547668457,-0.004682018591232476,0.006509468752007202,-0.00990391681649248,1.1142803270719195,5.638393236552593,0.9170194428200494
1730865966.7839155,-1.7244657278060913,1.1198302507400513,-10.016728401184082,-0.007181656792902663,0.006505612175294254,-0.008578979321011341,1.1140749799761331,5.6306417863700675,0.9168492452665645
1730865966.8337839,-1.7244657278060913,1.1198302507400513,-10.016728401184082,-0.009663473842744325,0.006448790067715959,-0.007186687135971322,1.1151227014605358,5.621079049159616,0.9168652243444294
1730865966.8839517,-1.6949405670166016,1.091368556022644,-10.003122329711914,-0.01212005771848981,0.00633447943681128,-0.005742563528061255,1.1152276952101396,5.613534570122074,0.9167335288884155
1730865966.9338105,-1.6541407108306885,1.079060673713684,-9.937772750854492,-0.01454309397974067,0.006157904593791075,-0.004265530985848568,1.1160425505680562,5.60570552738389,0.9173967840634589
1730865966.9837117,-1.6971153020858765,1.0559735298156738,-9.882655143737793,-0.016923315112753613,0.005914358331401399,-0.002776879729712315,1.1162750880233296,5.598179414358124,0.9174978099674829
1730865967.0336804,-1.7184339761734009,1.0200108289718628,-9.829143524169922,-0.019250636048767842,0.005599596845929324,-0.0012989182130726815,1.1177309016191093,5.587389302677604,0.9180115357511692
1730865967.0837424,-1.7796587944030762,0.9819168448448181,-9.78043270111084,-0.021514749642502377,0.005210311610959208,0.0001466707429953954,1.1183987933995967,5.577038122455755,0.9182635512183016
1730865967.1336548,-1.7767276763916016,0.9837790727615356,-9.749464988708496,-0.023705982449364178,0.004744630217733492,0.0015404250993057444,1.119006065521337,5.566762793792052,0.9185161269586586
1730865967.1838517,-1.7815088033676147,1.03798508644104,-9.75819206237793,-0.0258159279467227,0.004202359572044694,0.0028660751956028547,1.1187669168990193,5.570973523030152,0.9181661776495532
1730865967.2337184,-1.7815088033676147,1.03798508644104,-9.75819206237793,-0.027837654759892656,0.003584772441735657,0.004110750497115169,1.1190695922306937,5.564320739858056,0.9182786502028788
1730865967.283684,-1.7306779623031616,1.2181533575057983,-9.794438362121582,-0.029765614330346316,0.0028939962645798773,0.005264725761039641,1.1193010660502978,5.557663947101344,0.9184030060659923
1730865967.3336196,-1.73723566532135,1.2622041702270508,-9.825244903564453,-0.03159536355318443,0.0021320269434402577,0.006320937524603613,1.119456113314667,5.551009271983392,0.9185418972952041
1730865967.3837023,-1.7728885412216187,1.2536513805389404,-9.841352462768555,-0.03332326812506549,0.0012996064246362216,0.007274380104534498,1.1199216316122442,5.558476626644197,0.9183138703462164
1730865967.4336104,-1.7957485914230347,1.2329119443893433,-9.852080345153809,-0.034946460059434,0.0003956210447591396,0.008121537059567939,1.1201132524892896,5.553985069835615,0.9184133006549478
1730865967.4835632,-1.8130037784576416,1.187165379524231,-9.869086265563965,-0.036463061933996725,-0.0005827076453942359,0.008859964182913065,1.1211363248640531,5.5389771874030185,0.9182733224171711
1730865967.5335834,-1.8403993844985962,1.1168467998504639,-9.861696243286133,-0.037872443918040594,-0.0016391490649958276,0.00948801170037819,1.1214136456832937,5.531880713461149,0.9183359866971595
1730865967.5836523,-1.8365612030029297,1.1099493503570557,-9.855596542358398,-0.039175280841359086,-0.0027775384787947287,0.010004690433074372,1.1234246512251695,5.5156926825734836,0.9177706487179014
1730865967.6335382,-1.8015090227127075,1.1125519275665283,-9.858222961425781,-0.04037315025284635,-0.004000748515847623,0.010409725004636971,1.1252725035667834,5.499273991918603,0.9172924011492551
1730865967.683565,-1.7416749000549316,1.0947171449661255,-9.853496551513672,-0.041467697297505726,-0.005309910511909614,0.010703689957209713,1.126206363621892,5.488042741649755,0.9170991339566056
1730865967.7336876,-1.707353949546814,1.0896289348602295,-9.870576858520508,-0.042459800489524635,-0.006704129693212658,0.01088804574075751,1.1270421772140402,5.476695845906762,0.9169315104748206
1730865967.7836096,-1.6856294870376587,1.0882185697555542,-9.87708854675293,-0.04334902166147182,-0.00818053986543503,0.010965026165897175,1.1277583710445125,5.465505345208584,0.9167936549665027
1730865967.833548,-1.6856732368469238,1.1131680011749268,-9.89499282836914,-0.04413334831930016,-0.009734495740482792,0.010937438765357094,1.126990696857962,5.478738712675681,0.916859275947639
1730865967.8835711,-1.6620116233825684,1.1451038122177124,-9.884458541870117,-0.044809191067054735,-0.011359907604282593,0.010808458110388596,1.1273566607959238,5.47187895576057,0.9167804662402091
1730865967.9334772,-1.6606212854385376,1.1801331043243408,-9.870457649230957,-0.04537152456665154,-0.013049740013140439,0.010581507875643803,1.128790788095149,5.458647623336068,0.9164513163135191
1730865967.9834714,-1.653437852859497,1.1797866821289062,-9.851520538330078,-0.04581406572978752,-0.014796564653910039,0.010260295908927141,1.1294297388793277,5.448778431565211,0.9163116101954646
1730865968.0334425,-1.6758476495742798,1.1824043989181519,-9.821070671081543,-0.046129505765137094,-0.016592978751217638,0.009848978477598079,1.1299512455899545,5.438912349190179,0.9161975917595502
1730865968.0835173,-1.7237505912780762,1.1566532850265503,-9.81063461303711,-0.04630988239281056,-0.018431775256143264,0.009352381086503374,1.1303586197955218,5.428975678797924,0.9161072643729014
1730865968.1334534,-1.7996176481246948,1.1426687240600586,-9.782665252685547,-0.04634721886847636,-0.020305859319460762,0.008776137362534835,1.1303352408118843,5.441812654154601,0.9161030567217896
1730865968.1835039,-1.8628112077713013,1.1092867851257324,-9.77823543548584,-0.04623450039296393,-0.022207942285087656,0.008126578159099916,1.130558858934858,5.436414310480808,0.9160466936847921
1730865968.2334023,-1.8774480819702148,1.0935637950897217,-9.79169750213623,-0.04596674340180902,-0.024130139723959335,0.007410427562087921,1.1325290618931683,5.421379887575122,0.9156655322508068
1730865968.2834685,-1.8534674644470215,1.108945369720459,-9.822172164916992,-0.0455416628996122,-0.02606370431930254,0.006634506797371761,1.1341893674084886,5.4012666014755775,0.9152369788392547
1730865968.3333826,-1.7973651885986328,1.1064001321792603,-9.855999946594238,-0.04495966016662914,-0.027999034544704836,0.005805445809713783,1.1350642990356772,5.388479432041617,0.9150101351081463
1730865968.3833833,-1.749116063117981,1.0848197937011719,-9.900351524353027,-0.04422324609547587,-0.029925859553401088,0.0049293045942035395,1.1358241924563057,5.375677220261365,0.9147976834385643
1730865968.4334073,-1.6887575387954712,1.0780417919158936,-9.944061279296875,-0.04333618878157511,-0.0318333862022473,0.004011123392249268,1.1364786295814173,5.362724552898209,0.9145952275652228
1730865968.4834383,-1.660573959350586,1.0784896612167358,-9.943114280700684,-0.042302652503392886,-0.03371035731334672,0.0030545094052300418,1.1357505083023598,5.380835737346507,0.9150512852940985
1730865968.5333052,-1.6808581352233887,1.0688133239746094,-9.9386625289917,-0.04112655523359386,-0.03554512590095251,0.0020614282012596133,1.1368292866616123,5.365183403047379,0.9149241805520039
1730865968.5834394,-1.6925055980682373,1.0484857559204102,-9.91047477722168,-0.039811329622056996,-0.03732575938129002,0.0010323135218296233,1.1372820968797677,5.3559199837691835,0.9148369331756819
1730865968.6333168,-1.7340891361236572,1.0040960311889648,-9.874168395996094,-0.03836008796045442,-0.039040063994959455,-3.354812604158949e-05,1.1388970093966537,5.349262768810228,0.9149476566777448
1730865968.6832635,-1.7513102293014526,0.9668171405792236,-9.831408500671387,-0.03677605183288212,-0.04067560736344967,-0.0011374168086456806,1.139576588324906,5.341086167267552,0.9149227533695968
1730865968.7332773,-1.7555934190750122,0.9132131338119507,-9.825553894042969,-0.035063120321786524,-0.04222005670404124,-0.002280327916336628,1.140167447234108,5.3327910186969,0.9148935245582184
1730865968.783267,-1.7511773109436035,0.8991687297821045,-9.808719635009766,-0.03322634450669381,-0.04366170827752313,-0.003462389161586075,1.1399467886500187,5.329406287978804,0.9149741796371549
1730865968.833155,-1.7669599056243896,0.9138646125793457,-9.811017036437988,-0.031272084629146,-0.0449897052532568,-0.004682428456964187,1.1402797461493104,5.321513999229814,0.9149529085112452
1730865968.8833268,-1.7647291421890259,0.9623916149139404,-9.817171096801758,-0.02920793646415224,-0.04619404093834993,-0.005937982040593497,1.1405365332285602,5.313521423520475,0.91491840165865
1730865968.9331322,-1.774051547050476,0.9942019581794739,-9.836055755615234,-0.027042619238878806,-0.04726578982883198,-0.007225466927946641,1.1412878594803408,5.311429799663576,0.9149755118714105
1730865968.9830694,-1.7563841342926025,1.0308074951171875,-9.850176811218262,-0.024785848202977682,-0.04819756310919027,-0.008540463614091482,1.1416196529858413,5.304649115944333,0.9149384020369582
1730865969.0331802,-1.7418923377990723,1.052126407623291,-9.863423347473145,-0.02244813160537731,-0.04898394363776022,-0.009878050067986423,1.1418968461189052,5.2976468842791276,0.9148775455650451
1730865969.0830772,-1.7634446620941162,1.1164103746414185,-9.859697341918945,-0.020040507465545022,-0.04962181621704466,-0.011233098934141974,1.1421177356364243,5.290607220083922,0.9147911536622264
1730865969.1331055,-1.7613576650619507,1.1499154567718506,-9.857751846313477,-0.017574347148929137,-0.05011067043429792,-0.01260046516087152,1.1427750725865495,5.290157825134692,0.9147310337497047
1730865969.1830616,-1.7668864727020264,1.152148723602295,-9.854114532470703,-0.015061282211998286,-0.05045287075069729,-0.013975054210544506,1.1443107941442927,5.27018068577847,0.9145222145568749
1730865969.2330203,-1.7668864727020264,1.152148723602295,-9.854114532470703,-0.012513146423259465,-0.050653545375189124,-0.01535180679594619,1.1449479913200418,5.260073102155186,0.9143628206361781
1730865969.2830868,-1.7597706317901611,1.146106243133545,-9.849930763244629,-0.009941837947004335,-0.050719703872260755,-0.016725618559630718,1.1462574234189913,5.25011628237496,0.9142538102480279
1730865969.3329446,-1.7832831144332886,1.1196283102035522,-9.831854820251465,-0.007359145291016606,-0.050658938225756005,-0.01809122229150141,1.1470253813484887,5.240553415495847,0.9140619004817211
1730865969.3830001,-1.793712854385376,1.0126854181289673,-9.833224296569824,-0.0047766691547320465,-0.05047842954575811,-0.01944309049379543,1.1488188272924418,5.230231813578311,0.9107894950580826
1730865969.432937,-1.7517714500427246,1.0202561616897583,-9.849518775939941,-0.002205834106778218,-0.05018428708858745,-0.020775417120823095,1.1498229789772765,5.2206997658436505,0.909638411169814
1730865969.4829564,-1.7155946493148804,1.0792349576950073,-9.881749153137207,0.00034224208987544604,-0.0497811100629051,-0.022082248632042438,1.1512912527202022,5.208792304081345,0.9070930148334002
1730865969.532836,-1.6973638534545898,1.1483683586120605,-9.885079383850098,0.0028571274387687445,-0.04927213667082386,-0.023357769996330477,1.1524462741099868,5.198056490182697,0.90549005544716
1730865969.5827827,-1.6990910768508911,1.1914793252944946,-9.90003490447998,0.0053294819895799315,-0.04866001623231317,-0.024596613143972216,1.1536136802978345,5.187178356090339,0.9038242797503001
1730865969.6338701,-1.7048535346984863,1.1952179670333862,-9.894710540771484,0.007751249637080791,-0.04794768494879324,-0.025794055384867176,1.154830923100547,5.175869149721613,0.9020461506829293
1730865969.6838133,-1.7279154062271118,1.140415906906128,-9.889106750488281,0.01011560340899234,-0.04713885358459367,-0.026946083284966484,1.1560342656830285,5.164778048872922,0.9002546977685896
1730865969.7338028,-1.7279154062271118,1.140415906906128,-9.889106750488281,0.012416737876214182,-0.046237953311646596,-0.028049351775460963,1.1532654069001482,5.193155200406393,0.9016041152051364
1730865969.7837937,-1.7448590993881226,1.0502889156341553,-9.854978561401367,0.014649591380701953,-0.04524976500767323,-0.029101072580684374,1.1538647694650936,5.188255932839871,0.9003168106455294
1730865969.8337355,-1.7448590993881226,1.0502889156341553,-9.854978561401367,0.01680951163457006,-0.04417905489081618,-0.030098843306969294,1.15591576072414,5.174814906113586,0.8955385974271314
1730865969.8838043,-1.7044275999069214,1.004769206047058,-9.838481903076172,0.018891973003417814,-0.04303030491585897,-0.031040449755279698,1.1571117007286993,5.16626543185541,0.8929857522612897
1730865969.9337204,-1.6762114763259888,1.0011883974075317,-9.852025985717773,0.020892595297199085,-0.04180747174397502,-0.03192372594748805,1.1583512266071272,5.1576537938294384,0.8903673083101796
1730865969.9836867,-1.6762114763259888,1.0011883974075317,-9.852025985717773,0.022807462523503963,-0.0405137895889875,-0.03274652656332592,1.1596419366778206,5.148961399043151,0.8876750731131354
1730865970.0337353,-1.6579885482788086,0.9812003374099731,-9.872231483459473,0.024633436385483737,-0.03915169945375528,-0.033506805169154844,1.1583256035303455,5.153975256329398,0.8902684905763116
1730865970.0836577,-1.7302862405776978,0.9892690777778625,-9.866273880004883,0.026368240450933424,-0.037722880770472256,-0.03420275073015715,1.1591307561577155,5.148095984137565,0.88862741251858
1730865970.1336935,-1.7561147212982178,1.0005706548690796,-9.84821891784668,0.028010226037758323,-0.0362283340048797,-0.034832884916375775,1.161079760086842,5.13634142337479,0.8878539361994406
1730865970.1836424,-1.7561147212982178,1.0005706548690796,-9.84821891784668,0.02955791059991151,-0.034668543447163094,-0.03539603459417154,1.161341633228035,5.117475938262948,0.8850928105454614
1730865970.2335315,-1.7292639017105103,1.0034098625183105,-9.847564697265625,0.03100964473657629,-0.033043684504521206,-0.03589122963854738,1.1622209194229571,5.104730197020459,0.8828737052778788
1730865970.283596,-1.7082710266113281,1.0320013761520386,-9.856908798217773,0.032363650149203525,-0.031353813424685836,-0.03631765228140365,1.163177275213165,5.091931464886052,0.8805693850102482
1730865970.3336132,-1.7297741174697876,1.0265306234359741,-9.872505187988281,0.033618278091673975,-0.029599133295039742,-0.036674666214479686,1.1642250295241545,5.078945928006226,0.878153251004983
1730865970.3835676,-1.73284912109375,1.026072382926941,-9.879054069519043,0.034772187880515906,-0.02778042911134617,-0.036961863834265064,1.1615782664815089,5.104238787169998,0.8856296085291384
1730865970.4335475,-1.7507237195968628,1.0402652025222778,-9.899032592773438,0.0358243280590162,-0.025899499253887053,-0.03717911424632257,1.162015985765767,5.098551327647116,0.8850604399222284
1730865970.4835615,-1.7441734075546265,1.067531943321228,-9.886956214904785,0.03677382480661666,-0.02395937507491182,-0.0373266430216683,1.162545199737169,5.092794049871081,0.8843972176598225
1730865970.5335526,-1.7646288871765137,1.0706843137741089,-9.89332103729248,0.03761989243381647,-0.02196439370968059,-0.037405102015652864,1.164189697389633,5.09392921144369,0.8864394326094852
1730865970.583584,-1.7646288871765137,1.0706843137741089,-9.89332103729248,0.03836177252880287,-0.019920217298476244,-0.03741557151959979,1.1650218216787913,5.089633773598595,0.8861577500957477
1730865970.6335008,-1.8092890977859497,1.0768513679504395,-9.85693645477295,0.03899864621701281,-0.017833754989755802,-0.03735949794765972,1.1659673094751113,5.085201953300842,0.8857773975795451
1730865970.6835158,-1.8451093435287476,1.0780317783355713,-9.835271835327148,0.03952944502742016,-0.01571300397401794,-0.03723852225648648,1.1673027448855011,5.075357210355873,0.8867145876253619
1730865970.7335863,-1.8792659044265747,1.0619271993637085,-9.761591911315918,0.03995253733562952,-0.013566864017453413,-0.03705413568100902,1.1684687861479452,5.0690343696037505,0.8864863467386048
1730865970.7835293,-1.8781741857528687,1.0342954397201538,-9.767451286315918,0.04026541480343673,-0.011404884277124314,-0.036807216861287816,1.1699369791018184,5.057302110571383,0.8870805445035921
1730865970.8334446,-1.8781741857528687,1.0342954397201538,-9.767451286315918,0.04046456630177978,-0.009236913074247953,-0.036497667284415475,1.171767893759155,5.044453531441413,0.8873242393440418
1730865970.8834481,-1.8452465534210205,1.0448501110076904,-9.792409896850586,0.04054572013104967,-0.00707275500572126,-0.03612444315648012,1.173357240659682,5.034872243274092,0.8872507283390496
1730865970.9334626,-1.7380390167236328,1.0403714179992676,-9.891928672790527,0.04050468159493187,-0.004921941789027081,-0.03568617556288312,1.1750553931136305,5.025233119648838,0.887086777284564
1730865970.9834626,-1.6841381788253784,1.027842402458191,-9.939653396606445,0.04033867881778709,-0.002793587037917057,-0.035182252701626365,1.1768497415058292,5.015612867384901,0.8868345772660086
1730865971.0333781,-1.598343849182129,1.0370818376541138,-9.97574520111084,0.040047638266354504,-0.000696267727225705,-0.03461387619065491,1.1738537165856697,5.0304859910401,0.887509607169352
1730865971.083417,-1.5712602138519287,1.0332560539245605,-9.993497848510742,0.03963499599580675,0.0013620473984654446,-0.033984672621194055,1.1748002691620534,5.025553155970634,0.8873736036554799
1730865971.133399,-1.550557255744934,1.039259433746338,-9.944525718688965,0.03910806980724154,0.003374003155756553,-0.03330080214087801,1.1761762644435942,5.016202270560204,0.8877392123511892
1730865971.1834455,-1.5575945377349854,1.0153611898422241,-9.915091514587402,0.03847802768982185,0.005332850931315185,-0.03257060758640093,1.1775210024240859,5.009055683680747,0.8876497396127326
1730865971.233443,-1.6128383874893188,0.9890211224555969,-9.859123229980469,0.03775944954207864,0.0072325241576502615,-0.03180389637843047,1.1789589325647045,5.001935804064753,0.8874799645818627
1730865971.283348,-1.6128383874893188,0.9890211224555969,-9.859123229980469,0.0369695577964328,0.00906782119296795,-0.031011112173415102,1.1804859730919983,4.994855131466983,0.8872325222921889
1730865971.3333108,-1.700724482536316,0.9786924719810486,-9.800239562988281,0.03612727775046597,0.01083458038310332,-0.03020263399210208,1.1778348707850548,5.003622192545622,0.8876931922304904
1730865971.3833656,-1.7688379287719727,1.0146944522857666,-9.755945205688477,0.0352522108055518,0.012529708544256467,-0.029388201843098184,1.1799721435729356,4.990307082157074,0.8874723264511444
1730865971.433279,-1.8208271265029907,1.02140212059021,-9.763900756835938,0.03436348908954025,0.014150996955912338,-0.028576416353003193,1.181285058340392,4.9832503714911365,0.8872392147170497
1730865971.48329,-1.782911777496338,1.0537012815475464,-9.80487060546875,0.0334787115468776,0.015696739614673567,-0.027774534546809768,1.1848761136589545,4.972909743911028,0.887184844210148
1730865971.5332751,-1.782911777496338,1.0537012815475464,-9.80487060546875,0.032613373617383624,0.017165300887237063,-0.026988722755102352,1.1871161654583555,4.964691290132844,0.8869184051402039
1730865971.5832372,-1.7406247854232788,1.1116029024124146,-9.87990665435791,0.03178090548278438,0.01855478173563748,-0.026224528439515987,1.1894329370128316,4.95653096531304,0.8865859588819937
1730865971.633259,-1.770524501800537,1.115897536277771,-9.90289306640625,0.03099300741271833,0.01986275367228665,-0.025487375321680394,1.1918367746071878,4.948389503900527,0.8861874540690476
1730865971.683197,-1.7900440692901611,1.1545110940933228,-9.899785995483398,0.030259892157584754,0.021086005856048196,-0.02478303228616133,1.1891456439788393,4.9607742876548695,0.8872031323849405
1730865971.7331789,-1.7900440692901611,1.1545110940933228,-9.899785995483398,0.029590285537388065,0.02222036434140585,-0.024117864528815095,1.1901419311266153,4.949319369001565,0.8872705277095714
1730865971.783353,-1.8505797386169434,1.163799524307251,-9.896068572998047,0.028991289258755878,0.023260640154721384,-0.023498782673426498,1.191380111414244,4.942971925411137,0.887131781071605
1730865971.8332534,-1.84821355342865,1.119704008102417,-9.858514785766602,0.02846819568486032,0.024200749498343943,-0.022933020727088114,1.1926808901033061,4.936730353672348,0.8869361149397651
1730865971.8832345,-1.8270213603973389,1.114829421043396,-9.805334091186523,0.028024344548055902,0.025034046082144913,-0.02242777078833561,1.1940570670527277,4.930527387046934,0.8866830279162305
1730865971.9334147,-1.793975830078125,1.0453251600265503,-9.822367668151855,0.02766123935069044,0.0257538215734415,-0.021989682466652262,1.1922272654278192,4.9347646017744715,0.8874941890130001
1730865971.9832606,-1.7209333181381226,1.0137131214141846,-9.828447341918945,0.027378928327028686,0.026353899952506008,-0.021624415170165303,1.1930440922182544,4.930835030482438,0.8874052079363391
1730865972.0332992,-1.6012029647827148,0.9719731211662292,-9.870986938476562,0.02717644868974416,0.026829248333301664,-0.021336377226495656,1.1944563385403628,4.91938273904458,0.8877715098381161
1730865972.0832047,-1.5673483610153198,0.9927900433540344,-9.874567985534668,0.027052401542891208,0.02717644527656091,-0.021128675306502663,1.1956734410173315,4.912549703693687,0.8877470956416259
1730865972.133241,-1.5673483610153198,0.9927900433540344,-9.874567985534668,0.027005691250515308,0.02739384664618914,-0.021003277360462373,1.1966843612010585,4.904430962006547,0.8880048678947285
1730865972.1831715,-1.576568603515625,1.0584110021591187,-9.886327743530273,0.027036028765248132,0.02748140930427712,-0.020961245212527818,1.1979735013685324,4.897068769866539,0.8879936861422726
1730865972.2332606,-1.631142258644104,1.0728533267974854,-9.91388988494873,0.027143914680714476,0.02744023752326623,-0.021002929001260127,1.1993345761883858,4.889752393694103,0.8879298754299072
1730865972.283102,-1.7173388004302979,1.079965353012085,-9.86382007598877,0.02733017391751468,0.027272040747074264,-0.021128141964046686,1.1984802399000816,4.89220502719551,0.8879619512288196
1730865972.3331964,-1.82231605052948,1.1077828407287598,-9.826631546020508,0.02759511675885956,0.026978733464096502,-0.021336170978169148,1.1993484872137967,4.887591759838879,0.8878628358972614
1730865972.383157,-1.8533849716186523,1.1184059381484985,-9.800682067871094,0.02793748902469838,0.026562199396434796,-0.02162549636133656,1.2014379644327622,4.877113578953405,0.8879288577625618
1730865972.4330823,-1.8954871892929077,1.0949914455413818,-9.761144638061523,0.02835359989904569,0.026024145531778443,-0.02199339642943652,1.2028669380574335,4.870295614903569,0.8878142731069816
1730865972.4830406,-1.8989217281341553,1.0262970924377441,-9.779446601867676,0.028836910112035444,0.025366169034767426,-0.022435667248976214,1.2043568394035091,4.863589557219601,0.8876453337475966
1730865972.5331557,-1.8536771535873413,1.0082930326461792,-9.78778076171875,0.029378211141483795,0.024590155154680382,-0.022946618366836966,1.2059439485878056,4.856841149495933,0.887416246065482
1730865972.5831227,-1.783974289894104,1.004658818244934,-9.84261703491211,0.029966604136363383,0.023698784153590006,-0.023519478198275833,1.20410408003013,4.863393190036212,0.8878964550798372
1730865972.6330674,-1.783974289894104,1.004658818244934,-9.84261703491211,0.03059101206989837,0.022695807311502073,-0.02414708705887787,1.2076344562002086,4.8427757473732,0.8879106289970712
1730865972.6830595,-1.7528783082962036,1.0574264526367188,-9.855023384094238,0.03124135143054699,0.02158599786020696,-0.024822501163794787,1.210143555665759,4.828225692560186,0.8917775209460401
1730865972.7331333,-1.704637885093689,1.1132997274398804,-9.919187545776367,0.03190904515497417,0.020374801094937913,-0.025539349927190487,1.2126131066897565,4.8151128296855905,0.8933613000380756
1730865972.7830756,-1.6880874633789062,1.1303209066390991,-9.951221466064453,0.03258729733426274,0.019067745780020882,-0.026292167509017455,1.215142712990623,4.802157664942363,0.8948672998541164
1730865972.8330402,-1.6892642974853516,1.1353075504302979,-9.929433822631836,0.03327132025409739,0.017669882627631132,-0.027076776353040368,1.217764086305608,4.789199959962898,0.8963122332483819
1730865972.8830557,-1.6928538084030151,1.1137971878051758,-9.93874454498291,0.033958358234617465,0.016185529909580908,-0.02789045744954382,1.2204632963177617,4.776314389889677,0.8976852503693145
1730865972.9329422,-1.7044410705566406,1.0738990306854248,-9.894899368286133,0.03464747485857595,0.014618378674734842,-0.02873178317238569,1.211641032359789,4.817497168258082,0.8949476383894485
1730865972.9829872,-1.7288248538970947,1.0470776557922363,-9.854463577270508,0.03533920543482735,0.012971864017212687,-0.029600217571473984,1.2125106297478656,4.813389139653705,0.8955087971425576
1730865973.0330038,-1.782965898513794,1.0143132209777832,-9.822835922241211,0.03603510344777537,0.011249645872131465,-0.030495563318927936,1.2134699765936883,4.809310021306904,0.895994842812667
1730865973.082945,-1.8363450765609741,1.0109021663665771,-9.767317771911621,0.03673712064470188,0.009456029948965506,-0.031417371889924064,1.2142122236267292,4.805516224870533,0.8979687740064645
1730865973.132889,-1.8869452476501465,0.9894759058952332,-9.760782241821289,0.037446819869018086,0.007596234884188716,-0.03236447128049559,1.2154645854678536,4.800237577427667,0.8988819764003563
1730865973.1829495,-1.8473352193832397,1.0347927808761597,-9.739604949951172,0.038164656360296575,0.005676466600731028,-0.03333467993190232,1.2168141664517813,4.794963825259024,0.899715133023056
1730865973.232936,-1.816389560699463,1.0465000867843628,-9.774761199951172,0.0388897195068093,0.003703749271705872,-0.03432472450434908,1.2164665817356513,4.792348647358234,0.9007061497957698
1730865973.2828844,-1.816389560699463,1.0465000867843628,-9.774761199951172,0.03962001546913396,0.0016855714622909682,-0.03533037633202442,1.2184717482879541,4.779645604505715,0.9032774971406091
1730865973.3328242,-1.7646828889846802,1.053520679473877,-9.82564926147461,0.04035295204429946,-0.00037043256274289175,-0.036346777110692535,1.2198201717534174,4.772867684946689,0.9044504599518186
1730865973.3828576,-1.7351040840148926,1.0145779848098755,-9.854711532592773,0.04108580787126795,-0.002456618942485736,-0.03736888863895199,1.2212709594566387,4.7660845194898265,0.9055313676911414
1730865973.432912,-1.7351040840148926,1.0145779848098755,-9.854711532592773,0.04181618737574822,-0.004565289226776908,-0.03839197353411353,1.2228256983803918,4.759292218004461,0.9065173981669135
1730865973.4828544,-1.6453770399093628,0.9578630328178406,-9.910890579223633,0.042542417347693345,-0.006688512955461986,-0.0394119819144701,1.224485053153791,4.752490153325312,0.9074054009194876
1730865973.532847,-1.649688720703125,0.9565423130989075,-9.945751190185547,0.04326392118692907,-0.008817881334321879,-0.04042586694541195,1.2262463908813637,4.745688951348254,0.9081913007204603
1730865973.5828483,-1.6442580223083496,0.9954084157943726,-9.940225601196289,0.04398155187917332,-0.010944336941401395,-0.041431908187978504,1.2209244281154155,4.762695215046164,0.9029111457759581
1730865973.632834,-1.6689367294311523,1.0497392416000366,-9.937795639038086,0.044697503247650414,-0.013058295632314643,-0.042429736331677154,1.2216863544280219,4.759259866520968,0.9028164350723618
1730865973.682793,-1.6689367294311523,1.0497392416000366,-9.937795639038086,0.04541447501010218,-0.015150028994620365,-0.043419648055177534,1.2234706633560068,4.751607862505602,0.9022224560978378
1730865973.7328548,-1.71327543258667,1.1262437105178833,-9.893120765686035,0.046134492787383935,-0.017210077882562156,-0.04440153114526915,1.2246494206543261,4.747030142237852,0.9019607590271855
1730865973.782775,-1.7269731760025024,1.1472166776657104,-9.872698783874512,0.046858116358518775,-0.01922969967193168,-0.045374113056636994,1.2259403860867681,4.742422857759682,0.9015876699592098
1730865973.8327966,-1.735066294670105,1.1401067972183228,-9.833118438720703,0.047584174241740294,-0.02120135570487959,-0.046334638368824566,1.2251636890693705,4.734235858007676,0.9022569795955909
1730865973.8827624,-1.717958927154541,1.1496965885162354,-9.815305709838867,0.048309781329563435,-0.02311899113597238,-0.047278691107770235,1.2260724856865401,4.728697545730496,0.9020470232027697
1730865973.9327734,-1.6673269271850586,1.18075430393219,-9.812365531921387,0.049030597522383035,-0.02497805577797807,-0.04820010227251014,1.2272039235322747,4.720415935349772,0.9027305065351802
1730865973.9827108,-1.6673269271850586,1.18075430393219,-9.812365531921387,0.04974132596757056,-0.026775495484805338,-0.0490910229364243,1.228420936849651,4.7137409426431525,0.9026415539638131
1730865974.032757,-1.777178168296814,1.1863377094268799,-9.796299934387207,0.05043614635093331,-0.02850977327005713,-0.049942149003430344,1.22895652031903,4.7075024554967735,0.902927716422823
1730865974.0837018,-1.8267006874084473,1.1075407266616821,-9.833602905273438,0.05110862212383445,-0.03018073960570773,-0.05074301465198069,1.2301690117437554,4.700641304937891,0.9027725922134917
1730865974.1328225,-1.8129234313964844,1.0744457244873047,-9.833734512329102,0.05175116297849474,-0.03178918209967,-0.051482357988016356,1.2314683431155702,4.693929702287433,0.9024966000080329
1730865974.1827915,-1.7848941087722778,1.034195899963379,-9.854951858520508,0.05235481700725672,-0.03333614150256228,-0.05214864082986066,1.2329136544909716,4.6870482954518,0.9020888283913009
1730865974.2327878,-1.7069191932678223,1.0519814491271973,-9.866008758544922,0.05290998465573671,-0.034822344966742434,-0.052730767842673505,1.2308527178141604,4.692090737394195,0.9030498741832639
1730865974.2827125,-1.7330290079116821,1.0380792617797852,-9.891645431518555,0.05340769159361632,-0.03624798728954434,-0.05321885255529501,1.231771550534082,4.68709019968746,0.9028127447776632
1730865974.333654,-1.723747968673706,1.0607243776321411,-9.90710735321045,0.053840493990783736,-0.03761277173660593,-0.0536047418182597,1.23278316910285,4.679861114062692,0.903243983280785
1730865974.383695,-1.6333900690078735,1.1029419898986816,-9.92292594909668,0.05420275207644329,-0.038916090053982666,-0.05388224750920607,1.2339117168177383,4.674098806633958,0.9030281634112505
1730865974.4336932,-1.7185343503952026,1.0912126302719116,-9.885492324829102,0.054490735788109215,-0.04015732342639247,-0.05404719189444515,1.2351743647114426,4.668246185665678,0.9026778598138219
1730865974.4835937,-1.7632367610931396,1.0811116695404053,-9.884361267089844,0.05470257083818175,-0.04133611521111337,-0.05409724547109632,1.2341925198609156,4.663624998646401,0.9029729769372167
1730865974.533778,-1.7660847902297974,1.066494345664978,-9.817702293395996,0.0548377326383777,-0.04245241444332208,-0.05403154660852781,1.2350461252435754,4.658201487643208,0.9026315451819545
1730865974.583637,-1.76335608959198,1.0730304718017578,-9.786660194396973,0.05489641745192793,-0.043506345228470376,-0.05385016428670203,1.2357220172654788,4.649707870820469,0.9027117700260674
1730865974.6336203,-1.755035638809204,1.0663394927978516,-9.755593299865723,0.054879239379628915,-0.04449809178890399,-0.05355348988176436,1.236743239182231,4.643130501440151,0.9023270525887117
1730865974.683558,-1.7797462940216064,1.05051851272583,-9.727736473083496,0.054787176139312874,-0.04542784450394869,-0.05314171049596916,1.2369477924790098,4.635845016524829,0.9027199223175099
1730865974.7336075,-1.7905184030532837,1.0506978034973145,-9.733460426330566,0.05462150580890893,-0.046295722224146144,-0.05261458593514345,1.2379255708301384,4.628704203138347,0.9023989908800257
1730865974.7834837,-1.7905184030532837,1.0506978034973145,-9.733460426330566,0.054383671789948865,-0.04710164315087407,-0.05197175868119069,1.2379766713148428,4.619688854449696,0.9027453767549042
1730865974.8335426,-1.7713710069656372,1.1019127368927002,-9.835098266601562,0.05407519388959516,-0.047845275920420954,-0.05121350182752101,1.2388066141765661,4.612642981027999,0.9024480959962933
1730865974.8835092,-1.8028919696807861,1.1387075185775757,-9.852670669555664,0.05369768374187718,-0.04852625130788383,-0.05034151173987694,1.2372806304275246,4.600842562962104,0.9025186990166644
1730865974.9336016,-1.8285831212997437,1.182466745376587,-9.922863006591797,0.053252819270331084,-0.04914463218479738,-0.04935953924878648,1.2375690359689429,4.592218265017715,0.9021574563880329
1730865974.9834633,-1.8077365159988403,1.2220063209533691,-9.935257911682129,0.052742185259932274,-0.049701450155107164,-0.04827383469120102,1.2379877770319194,4.583516732320552,0.9016766648717198
1730865975.0335941,-1.8268399238586426,1.19771409034729,-9.958266258239746,0.052167137116567334,-0.05019910866894447,-0.047093367751290686,1.238539599711349,4.57464903300696,0.9010744226194489
1730865975.0834959,-1.7553056478500366,1.1827597618103027,-9.942646980285645,0.05152885234465985,-0.05064147619918831,-0.04582978258273887,1.2392180066267438,4.565695104331885,0.9003592216919581
1730865975.1334362,-1.7702215909957886,1.131227731704712,-9.93575382232666,0.05082858180690246,-0.051033593746201034,-0.04449708747000311,1.2366629456205158,4.585551559646478,0.9022847750303109
1730865975.1834197,-1.7350672483444214,1.0756663084030151,-9.8892240524292,0.05006798334940723,-0.05138109225714031,-0.043111129351315954,1.2368887756097948,4.581002892218956,0.9019681541875157
1730865975.2334309,-1.6980245113372803,1.014807939529419,-9.849322319030762,0.049249405316583596,-0.05168944825271636,-0.041688898391840826,1.2378690232027016,4.568239875299178,0.9021100026965498
1730865975.2833824,-1.74787175655365,0.9247363805770874,-9.83838939666748,0.04837604927950114,-0.05196327452629517,-0.04024765316431376,1.2385374337449584,4.560125118181537,0.9017776242204586
1730865975.3333728,-1.7218077182769775,0.9190731048583984,-9.835184097290039,0.047451850118871215,-0.052205961019008214,-0.038803894609130925,1.239061228639668,4.550539840852167,0.9019081138142437
1730865975.3833628,-1.710154414176941,0.9689270853996277,-9.809120178222656,0.04648113040316437,-0.05241978283526077,-0.03737245804161359,1.2398394127587595,4.541492426870099,0.9015806630469871
1730865975.4333987,-1.6837084293365479,0.9878154993057251,-9.841340065002441,0.04546843733756944,-0.05260629515672321,-0.03596606454284669,1.2396641554812542,4.536191241891605,0.9017440960156615
1730865975.483403,-1.650559425354004,1.0081390142440796,-9.836055755615234,0.0444186908349203,-0.052766803446148355,-0.03459534733619327,1.2402517295188835,4.52902105797927,0.9014552441244627
1730865975.5333564,-1.6746716499328613,1.0141290426254272,-9.857386589050293,0.04333740942230305,-0.052902752621232625,-0.033269115181740444,1.2424847281742137,4.518519807688028,0.9017870933530346
1730865975.5833364,-1.6851810216903687,1.004333734512329,-9.852632522583008,0.04223077468690732,-0.05301593574148704,-0.0319946512043869,1.2447657861984538,4.506188873056168,0.9018405161077371
1730865975.6333683,-1.5812643766403198,1.044628381729126,-9.859695434570312,0.041105555064769546,-0.053108554486598764,-0.030777957912834213,1.2464001608083126,4.496657195456839,0.9016590318409011
1730865975.683324,-1.7228114604949951,1.0327458381652832,-9.875347137451172,0.03996909462599989,-0.05318326234765468,-0.0296239478388613,1.2481271831180836,4.487040581142552,0.9014034010086182
1730865975.7333395,-1.7228114604949951,1.0327458381652832,-9.875347137451172,0.03882915174782338,-0.05324321808036554,-0.028536625438052195,1.249967831270004,4.477208378380912,0.9010725949765478
1730865975.7832942,-1.8492463827133179,1.0879586935043335,-9.823813438415527,0.03769324801802002,-0.053292100170321224,-0.027519211946167695,1.2473480657602507,4.489052038385691,0.9016070704890906
1730865975.8332365,-1.8476037979125977,1.0733569860458374,-9.768607139587402,0.0365678481498385,-0.05333403452729056,-0.026574089242798093,1.248410083864422,4.482961205670208,0.901391132806089
1730865975.8832293,-1.7965223789215088,1.0459142923355103,-9.815152168273926,0.035458053108405975,-0.053373155819355,-0.025702699941534478,1.2498757898925958,4.471849914374193,0.9013951415393936
1730865975.933179,-1.7969716787338257,1.0425485372543335,-9.871280670166016,0.03436802688730072,-0.0534127739223938,-0.0249057527305883,1.2519477826483023,4.463990978526758,0.9012384045108802
1730865975.9832678,-1.7303887605667114,1.079399585723877,-9.879664421081543,0.03330167634471197,-0.053454793881167806,-0.02418375921602183,1.2534133397398433,4.4570640334148885,0.9010022389853135
1730865976.0331671,-1.6776671409606934,1.154143214225769,-9.950304985046387,0.03226320317380814,-0.05349983971572327,-0.0235376007807873,1.2549511099208108,4.450049271869015,0.9007080253082117
1730865976.0831647,-1.6643404960632324,1.210000991821289,-9.945380210876465,0.031257611617951056,-0.053547919160846925,-0.022968965137022616,1.2571979763914833,4.4477059271093315,0.9009911040115228
1730865976.1330926,-1.6949403285980225,1.204162359237671,-9.977410316467285,0.03029106500127078,-0.053599242301285814,-0.022480639148949693,1.2590392233552876,4.4413942844969805,0.9007747999637
1730865976.1830785,-1.715383529663086,1.1504161357879639,-9.959513664245605,0.029370819337570814,-0.05365471933356829,-0.022076602632000543,1.2623514825403463,4.435527376035936,0.9007875228127824
1730865976.2331274,-1.7309974431991577,1.0735752582550049,-9.935346603393555,0.028504798838216213,-0.05371581450342923,-0.02176188845169985,1.2651227789232362,4.424154367761802,0.897459653905951
1730865976.2831085,-1.751832365989685,1.0295008420944214,-9.867960929870605,0.0277010963515339,-0.053783863977823296,-0.021542181215091206,1.26757628411846,4.415792157898823,0.8959609457384492
1730865976.333172,-1.7894331216812134,1.0231446027755737,-9.804779052734375,0.026967531036609503,-0.05385929723386379,-0.021423132566796902,1.2701110862809508,4.407251554157184,0.8944005708009738
1730865976.3830342,-1.7894331216812134,1.0231446027755737,-9.804779052734375,0.02631119037461225,-0.05394122398695607,-0.021409514829972033,1.2677729297258016,4.409361549131035,0.8943432129102444
1730865976.4331918,-1.7807178497314453,0.9962002635002136,-9.770801544189453,0.025737926533480626,-0.05402753444094573,-0.02150446993960057,1.2691325302274652,4.4036962443757295,0.8932598220779382
1730865976.4830334,-1.7849152088165283,0.9251965284347534,-9.751386642456055,0.02525199233040723,-0.05411515338993047,-0.02170903136417845,1.270531531973531,4.397995777672391,0.8921418478971439
1730865976.5330846,-1.784656286239624,0.8895010352134705,-9.759675979614258,0.02485597717626123,-0.0541999639511659,-0.02202193174083947,1.2720115882625513,4.392084842945815,0.8909544856116408
1730865976.583109,-1.7826882600784302,0.8732828497886658,-9.80506706237793,0.024550939942429923,-0.054276438332922304,-0.02243971030361956,1.2708578855160022,4.398876270209257,0.891799079458464
1730865976.6331296,-1.7952266931533813,0.8966658711433411,-9.827330589294434,0.024336569170780094,-0.05433741323682956,-0.022957147387325644,1.271999716949688,4.3949815977888855,0.8909181624263013
1730865976.6830444,-1.7952266931533813,0.8966658711433411,-9.827330589294434,0.0242113072826025,-0.05437423714350727,-0.023567865622321924,1.2731982163007334,4.390964564188561,0.88998221740146
1730865976.7331476,-1.7603381872177124,1.0126773118972778,-9.927574157714844,0.02417247907578262,-0.05437725415111965,-0.024264900115440073,1.2724099971023288,4.382801613406619,0.8890989373986279
1730865976.7829556,-1.7603381872177124,1.0126773118972778,-9.927574157714844,0.024216525673992365,-0.05433657931649155,-0.025041292628293965,1.2749058843119743,4.368695196412425,0.8867659273558532
1730865976.8330567,-1.752147912979126,1.1004984378814697,-9.94594955444336,0.024339316732729738,-0.05424300466767025,-0.02589069445933458,1.2763052692209085,4.3609486679210425,0.8853630590338984
1730865976.882986,-1.7777737379074097,1.0999888181686401,-9.936602592468262,0.024536371198384206,-0.05408877270594943,-0.026807714274936514,1.2782901789483623,4.35364800338391,0.8870991793780345
1730865976.9328961,-1.7552416324615479,1.0999363660812378,-9.89273738861084,0.024802891564003608,-0.05386799525535313,-0.02778782300248294,1.280063379200112,4.345530969611231,0.8867108567071175
1730865976.9829338,-1.7443795204162598,1.0299259424209595,-9.859451293945312,0.025133684795110266,-0.053576457594682866,-0.02882673928434131,1.2819068906294577,4.337244004217999,0.8862498510289598
1730865977.0329692,-1.7443795204162598,1.0299259424209595,-9.859451293945312,0.025523134433959115,-0.05321087282509847,-0.029919547309187722,1.2804601440455627,4.3405196674156175,0.8876706069228854
1730865977.0829315,-1.72636079788208,1.0042277574539185,-9.780694961547852,0.02596530287318751,-0.05276815254220513,-0.03106007302474309,1.281552605920227,4.334998559761769,0.8875013742565316
1730865977.1329029,-1.7019740343093872,1.0301756858825684,-9.777835845947266,0.02645413015553643,-0.052245075903082895,-0.032240581684562154,1.2830994412361847,4.325002860194056,0.8878140134920016
1730865977.1829247,-1.7100615501403809,1.0236696004867554,-9.772236824035645,0.02698367905858899,-0.05163828912255281,-0.03345159797472055,1.2845430019096606,4.317374128168439,0.8876367812144679
1730865977.2328663,-1.6848812103271484,1.0475960969924927,-9.79813289642334,0.027548346959944417,-0.050944469489139305,-0.034681954055199776,1.2860587934708474,4.3095962493389495,0.887373694781453
1730865977.282879,-1.6928070783615112,1.0816024541854858,-9.839337348937988,0.028142998147405337,-0.0501605733506499,-0.035919171281265164,1.2876343426894021,4.301741256363044,0.8870244991017155
1730865977.3328586,-1.6928070783615112,1.0816024541854858,-9.839337348937988,0.02876302948580068,-0.04928414572548768,-0.03715005332815151,1.2845459118716536,4.31228523942753,0.8878250308512736
1730865977.382834,-1.7058701515197754,1.1514695882797241,-9.901827812194824,0.02940435065795832,-0.0483136537561029,-0.03836130730293201,1.2852790169774069,4.307986817396242,0.8876158098947436
1730865977.4328403,-1.718064785003662,1.188222885131836,-9.899704933166504,0.03006327072484597,-0.04724886231191747,-0.03954010771900059,1.2864295063374331,4.297144215902703,0.8878344313191052
1730865977.4828014,-1.7559535503387451,1.210862636566162,-9.879318237304688,0.030736307912546054,-0.046091170588913016,-0.0406745433158792,1.2875158996438734,4.2900251505078995,0.8876167228756895
1730865977.5329611,-1.7530285120010376,1.21330988407135,-9.857230186462402,0.03141993859739173,-0.0448435525909517,-0.04175380094786369,1.2884392969274066,4.279680303074667,0.8878253705744499
1730865977.5827668,-1.771667242050171,1.2144695520401,-9.824956893920898,0.032110368172910755,-0.04351008169741795,-0.04276804972053152,1.289729420312515,4.270262458880655,0.8875969414602237
1730865977.6327608,-1.7904527187347412,1.173574447631836,-9.815088272094727,0.032803391571724905,-0.04209548033852105,-0.04370816397164823,1.2911029606171793,4.260719242388659,0.8872603547491906
1730865977.6826727,-1.791128396987915,1.1400463581085205,-9.794534683227539,0.03349430347945167,-0.040604790687472324,-0.04456544335524144,1.2926655979747155,4.2677777869436655,0.8877999368405667
1730865977.732706,-1.7754602432250977,1.096877932548523,-9.804055213928223,0.03417786850176319,-0.03904295749438701,-0.04533143563371952,1.2941089501843344,4.262195262407176,0.8875496172424926
