Timestamp,IMU_Linear_Acc_X,IMU_Linear_Acc_Y,IMU_Linear_Acc_Z,Filtered_X,Filtered_Y,Filtered_Z,Pose_X,Pose_Y,Pose_Z
1730865955.58424,-1.48358809947968,1.42988908290863,-10.1111402511597,0.0524252197631274,-0.15954728639098,-0.0802232268645705,0.953960215823986,6.67643988832843,0.88991085771892
1730865955.63425,-1.44388163089752,1.43169832229614,-10.1037530899048,0.0507500147838894,-0.160024201300546,-0.0803018643315102,0.954862882435902,6.81739192404076,0.889799265905265
1730865955.68426,-1.49525654315949,1.37757873535156,-10.0499095916748,0.0491058438256692,-0.160362752229264,-0.0803092045793454,0.956545566604208,6.70818025443022,0.885949008274824
1730865955.73418,-1.63991677761078,1.27022874355316,-9.9531421661377,0.0475100767587192,-0.160578661498626,-0.0802596510768329,0.957209982292892,6.7427821814174,0.885251085417237
1730865955.78428,-1.81582367420197,1.15554797649384,-9.81423854827881,0.0459832718493201,-0.160690006510022,-0.0801707797768707,0.959653048087599,6.68212565686287,0.880760212602391
1730865955.83415,-1.98791396617889,1.03729426860809,-9.68432426452637,0.0445467095559574,-0.160715413147299,-0.0800613318784617,0.962787959461309,6.66524715908005,0.876790976528901
1730865955.88417,-2.10464358329773,0.971104979515076,-9.58998775482178,0.0432197552564475,-0.160672259354134,-0.0799491269131454,0.963930031900828,6.66686920851005,0.875282900354018
1730865955.93411,-2.14839649200439,0.939466774463654,-9.55353927612305,0.0420178843667146,-0.160575298476398,-0.0798493958135528,0.965095947602423,6.66838722131165,0.873728610771463
1730865955.98419,-2.12126493453979,0.956534683704376,-9.58600997924805,0.0409521438735306,-0.160435995262166,-0.0797740392922612,0.96629395631126,6.66981237527435,0.872116154144201
1730865956.03407,-2.03926396369934,0.961960852146149,-9.64509773254395,0.0400299678741739,-0.160262564981018,-0.079731880802222,0.96575466733073,6.65086997530873,0.872004544304811
1730865956.08406,-1.9312196969986,0.994845867156982,-9.71978282928467,0.0392564945132886,-0.160060424115001,-0.0797295045866991,0.966294013304274,6.65022387234635,0.871156498625473
1730865956.13402,-1.81076574325562,1.00694572925568,-9.79946613311768,0.0386359361576385,-0.159832776371233,-0.079772299001596,0.966856708947417,6.64947904945694,0.870260177817874
1730865956.18402,-1.73759627342224,1.00398910045624,-9.88330554962158,0.0381729884054233,-0.159581180021163,-0.0798655511459278,0.967443142813122,6.64863491545899,0.86931441829448
1730865956.23395,-1.69012784957886,0.989990890026093,-9.96365261077881,0.0378740316092212,-0.159305960860451,-0.0800154918512092,0.970019584495153,6.64205621755359,0.86820200092275
1730865956.28401,-1.65118670463562,1.0167818069458,-10.0220251083374,0.0377478369783207,-0.159006443499503,-0.0802301886013184,0.970667044002484,6.64102811178224,0.867507099590639
1730865956.33388,-1.65118670463562,1.0167818069458,-10.0220251083374,0.0378057661637473,-0.158681150727847,-0.0805201444830076,0.974199341998342,6.64011219268059,0.868614247547832
1730865956.38392,-1.6089198589325,1.1275053024292,-10.0828351974487,0.0380616171152717,-0.158328153524868,-0.0808984872392486,0.975040721284191,6.63947028755697,0.86840664001767
1730865956.43384,-1.54867315292358,1.1611795425415,-10.0801763534546,0.0385313572219709,-0.157945696020662,-0.0813808536467642,0.978718975658835,6.63849740287394,0.869193777815157
1730865956.48387,-1.51685166358948,1.18406963348389,-10.0517864227295,0.0392324100448227,-0.157532756049371,-0.0819846497456762,0.98181084572597,6.63859214391408,0.873478204946167
1730865956.53379,-1.48131489753723,1.13188278675079,-9.98778438568115,0.0401814316346052,-0.157088705909278,-0.0827267462060937,0.983069700956837,6.63825743970792,0.874553438966762
1730865956.58382,-1.49387562274933,1.05122005939484,-9.90561771392822,0.0413912042706749,-0.156612050010419,-0.083620165558336,0.984358786199932,6.63782343285791,0.875580726339583
1730865956.63377,-1.52539587020874,0.945555329322815,-9.82075309753418,0.0428689154182427,-0.156099167589907,-0.0846717941850046,0.98567232129099,6.63729235302869,0.876553936944199
1730865956.68382,-1.60692155361176,0.857234239578247,-9.72569751739502,0.0446160749210114,-0.155543426273714,-0.0858815840961861,0.985248470820991,6.6381309632341,0.878287866295799
1730865956.73373,-1.70382750034332,0.803158164024353,-9.66273307800293,0.046628611033344,-0.154934479201214,-0.0872422855302921,0.985889671080317,6.63782448944296,0.878868194064068
1730865956.78374,-1.80908143520355,0.800667822360992,-9.63517379760742,0.0488965744832788,-0.154257867944174,-0.0887393756769977,0.989880946636138,6.63768803253745,0.882163389126228
1730865956.83365,-1.8927173614502,0.807227969169617,-9.63476753234863,0.0514036705515563,-0.153495162860565,-0.0903513785391121,0.99413073507296,6.63863627287063,0.885615482681449
1730865956.88365,-1.94406354427338,0.860247194766998,-9.66848564147949,0.0541269065669392,-0.152624633384152,-0.0920506568801702,0.995461010022583,6.63858246442119,0.886548806811204
1730865956.93364,-1.98265767097473,0.915407598018646,-9.7338171005249,0.0570365845803876,-0.151622304928262,-0.0938046273580741,0.996826939180655,6.63843333354676,0.887424509811327
1730865956.98372,-1.99897766113281,0.972786903381348,-9.81091499328613,0.0600967012529166,-0.150463237855203,-0.0955773074115542,1.00047675338507,6.6394212026076,0.89017681146864
1730865957.03366,-1.99684691429138,1.04309678077698,-9.89102363586426,0.0632661146381042,-0.149122974163542,-0.0973311967405778,1.00166568322792,6.63932778049516,0.89086447177595
1730865957.08366,-1.9078164100647,1.10333955287933,-9.98238945007324,0.0665012521515229,-0.147579254924081,-0.099029576379515,1.00289966967074,6.63914115036293,0.891493243938331
1730865957.13362,-1.81153535842896,1.15057051181793,-10.0374536514282,0.0697598347376311,-0.14581375190701,-0.100638855976239,1.00528531502507,6.64004515970321,0.890259191212109
1730865957.1836,-1.68417727947235,1.15810120105743,-10.0682916641235,0.0730037918998306,-0.143813161589746,-0.10213018946517,1.00624801323206,6.63993962555863,0.89028916672169
1730865957.23356,-1.60775756835938,1.14028334617615,-10.0832595825195,0.0762008467143297,-0.141569443509136,-0.103480119824301,1.00726799703818,6.63974214649794,0.890253969250395
1730865957.28365,-1.57946848869324,1.0847864151001,-10.054425239563,0.0793254240990703,-0.139079445399005,-0.104670584730889,1.00831239501915,6.63946251047286,0.890155270707036
1730865957.33352,-1.62667810916901,1.03338897228241,-10.0082025527954,0.082358958964558,-0.136344108413596,-0.105688490451694,1.01089085970558,6.6325115253323,0.890008293173942
1730865957.38358,-1.62667810916901,1.03338897228241,-10.0082025527954,0.0852894412477402,-0.133367477045584,-0.106524964200708,1.01448034605076,6.62559445044797,0.889950593380672
1730865957.43351,-1.75345981121063,0.999157905578613,-9.87281894683838,0.0881103888077741,-0.130155840315182,-0.107174455355168,1.0156255275623,6.62372812179517,0.889819055478402
1730865957.48362,-1.76196527481079,1.01967799663544,-9.80775260925293,0.0908195047006643,-0.126717159625761,-0.107633662357779,1.01682793316824,6.62177942861507,0.889620018271464
1730865957.53356,-1.73327779769897,1.06012749671936,-9.74008178710938,0.0934173668312144,-0.123060780141645,-0.107900270540127,1.01808593753242,6.61975590255953,0.889353864129276
1730865957.58353,-1.73608660697937,1.05787920951843,-9.70624160766602,0.0959063779007074,-0.119197405059948,-0.107971994344276,1.01940280124961,6.61765716590996,0.889020297603175
1730865957.63357,-1.70788240432739,1.05341553688049,-9.67568874359131,0.0982895758731499,-0.11513913219945,-0.107846508022616,1.01935177032576,6.6107744149063,0.889874938273601
1730865957.68347,-1.72330832481384,1.02902948856354,-9.67869377136231,0.100569290454858,-0.11089930208533,-0.107522001722889,1.02005205947341,6.6090439816171,0.889718917668828
1730865957.7334,-1.7296462059021,1.03420746326447,-9.693284034729,0.102746419114293,-0.106492182827932,-0.106997586948196,1.02345903926216,6.59712415827114,0.889883068330326
1730865957.78348,-1.77823233604431,1.05521619319916,-9.73854446411133,0.104820376597348,-0.101932692148212,-0.10627342706576,1.02459476724207,6.59383909057527,0.889733844699333
1730865957.83341,-1.77823233604431,1.05521619319916,-9.73854446411133,0.10678911806133,-0.0972362841954587,-0.105350927615848,1.02580210940557,6.59047689098391,0.889517336605027
1730865957.8834,-1.89709639549255,1.14590442180634,-9.80887222290039,0.108649012641844,-0.0924190196229156,-0.104233022413322,1.02706506251689,6.58708744714491,0.889237674325803
1730865957.93335,-1.89709639549255,1.14590442180634,-9.80887222290039,0.110394556950973,-0.0874978247092059,-0.102924465082799,1.02765528580922,6.58143848355165,0.890056837987309
1730865957.98334,-1.93211030960083,1.22107684612274,-9.85546112060547,0.11201805113885,-0.082490861580956,-0.101432087460936,1.02836114021346,6.57935947339806,0.889923700264717
1730865958.03328,-1.89523577690125,1.19175910949707,-9.86308860778809,0.113509552910949,-0.0774178124543666,-0.099764957696988,1.0325403453373,6.56618398070183,0.890286641991153
1730865958.08339,-1.84204804897308,1.14367437362671,-9.88345527648926,0.114857278069459,-0.072299860264708,-0.0979344175121716,1.0338489842119,6.56245758284363,0.890191068785432
1730865958.13324,-1.76186978816986,1.12936615943909,-9.8805570602417,0.116048446232599,-0.067159166366671,-0.095953844437429,1.03619198609188,6.5507516002735,0.889914634774302
1730865958.18334,-1.69438767433167,1.11534130573273,-9.90562725067139,0.117070490206104,-0.0620179226566727,-0.0938378618791596,1.03733570304722,6.54677241142987,0.889714374308994
1730865958.23321,-1.61007332801819,1.09461295604706,-9.93166351318359,0.117912373927038,-0.0568974212294866,-0.091601320619974,1.03855033393392,6.54276460692967,0.889456648270591
1730865958.28327,-1.54181098937988,1.08070504665375,-9.97233963012695,0.118565744219108,-0.0518174796817043,-0.0892588333513211,1.04036214913851,6.53244642302152,0.889469701798812
1730865958.3332,-1.49999070167542,1.07295894622803,-10.0156946182251,0.119025801570346,-0.0467961771633429,-0.0868249852900242,1.04316138938862,6.51789791665269,0.889144595868868
1730865958.38329,-1.43885505199432,1.06827867031097,-10.0169591903687,0.119291863208768,-0.0418497421672722,-0.0843147419908621,1.04422704704971,6.51347564545097,0.888928598328479
1730865958.43321,-1.42344796657562,1.07680642604828,-10.0369558334351,0.119367637361668,-0.036992543816165,-0.0817437166368737,1.04726533752352,6.49692056322375,0.888434668347578
1730865958.48317,-1.4432932138443,1.11161398887634,-10.005428314209,0.11926120193156,-0.032237213245744,-0.0791281976629344,1.04862612449287,6.49085524650687,0.888125351428632
1730865958.53415,-1.50855696201324,1.14849042892456,-9.96283054351807,0.118984562931546,-0.0275949429247808,-0.0764849121396325,1.05008444041952,6.48467679354901,0.887761314405004
1730865958.58316,-1.58245587348938,1.18500983715057,-9.87814998626709,0.118552719553879,-0.023075948956389,-0.0738304844567789,1.05023552670651,6.4861351083016,0.887849670859743
1730865958.63414,-1.70262408256531,1.15623307228088,-9.7970666885376,0.117982342759384,-0.0186899249989858,-0.0711805926605533,1.05103729441453,6.48347116466221,0.887625922759997
1730865958.68417,-1.84347939491272,1.096635222435,-9.70196056365967,0.117290272962649,-0.0144462223843411,-0.0685491026809163,1.05189792168453,6.4808481102594,0.887362343231963
1730865958.73411,-1.96474802494049,1.03949964046478,-9.63542747497559,0.11649207705341,-0.0103536278479355,-0.0659476621859943,1.05282880783768,6.47822508980726,0.88705765733418
1730865958.78417,-2.03624606132507,0.963286697864533,-9.5897388458252,0.115600808036719,-0.00641982385277735,-0.0633857175053162,1.05262039655924,6.4760557580859,0.888048191773197
1730865958.83314,-2.05802202224731,0.939656436443329,-9.5950984954834,0.114626043309384,-0.00265070098003122,-0.0608704553373469,1.05316449952465,6.47438349599814,0.887958317048044
1730865958.88411,-2.02603483200073,0.947289884090424,-9.64036846160889,0.113573433510285,0.000950202452114351,-0.0584067162229949,1.05493799514199,6.46530429322675,0.888295648679707
1730865958.93412,-1.96309554576874,1.01343095302582,-9.72159290313721,0.112444977385522,0.00438179920770342,-0.0559973370811785,1.05557918873405,6.46310918893267,0.888241242600116
1730865958.98412,-1.89513790607452,1.09198868274689,-9.81561660766602,0.111239928257263,0.00764494850845183,-0.0536440218073776,1.05694371048769,6.45286813522317,0.888530170932946
1730865959.03397,-1.82226026058197,1.14736366271973,-9.90509796142578,0.109956025272361,0.0107415073260017,-0.0513485170199549,1.05758957401536,6.45000479580826,0.888499727485556
1730865959.08407,-1.74553740024567,1.13617265224457,-9.95635795593262,0.108590766745457,0.0136733523822753,-0.0491137907892267,1.05956457419122,6.44183018485142,0.888765676141527
1730865959.13395,-1.70090782642365,1.14826011657715,-10.0008993148804,0.107142553565833,0.0164417973978635,-0.0469449258454089,1.06046730743722,6.43854940400674,0.888759405344399
1730865959.18399,-1.7207727432251,1.11747550964355,-10.0209341049194,0.105611520248211,0.0190474928795785,-0.0448495909089086,1.06144108028484,6.43526453929303,0.888724264724518
1730865959.234,-1.75239908695221,1.13455998897553,-9.98803901672363,0.103999741240647,0.0214906308079669,-0.0428378333991425,1.06120424021058,6.42909747091297,0.891420628453312
1730865959.28397,-1.82865631580353,1.13768482208252,-9.95065116882324,0.102310594957908,0.0237712761094145,-0.0409207116369836,1.06171671843355,6.42680564324552,0.891707814676444
1730865959.33391,-1.87319886684418,1.1633003950119,-9.88340282440186,0.100547587844614,0.0258896249869224,-0.0391081776126169,1.0631757509644,6.41573143350353,0.894192315229517
1730865959.38395,-1.87714421749115,1.2097761631012,-9.82978439331055,0.0987133272969813,0.0278459987677668,-0.0374074690482111,1.06446412686206,6.40622077574279,0.896539978339924
1730865959.43391,-1.85277414321899,1.24442291259766,-9.77911567687988,0.0968090773918526,0.029640558653841,-0.035822370144356,1.0650445097907,6.40316347503375,0.897168618394458
1730865959.484,-1.77914988994598,1.25365304946899,-9.7610330581665,0.0948349190542612,0.0312729183772165,-0.0343528813543813,1.06569535197447,6.40006926649287,0.897786849518809
1730865959.53388,-1.74330544471741,1.22898626327515,-9.7857084274292,0.0927903713988275,0.0327419151091567,-0.0329951770021579,1.06615731142302,6.38398235070457,0.899525967484471
1730865959.58392,-1.7001326084137,1.20234048366547,-9.81342792510986,0.0906752016526499,0.0340457119030268,-0.0317419712858448,1.06661141353443,6.38023263029967,0.900010280222564
1730865959.63384,-1.65839552879334,1.17248356342316,-9.85549449920654,0.0884901343987896,0.0351821909553001,-0.0305832476798391,1.06803415855257,6.36226095044357,0.902164477109254
1730865959.68383,-1.58967256546021,1.13968980312347,-9.88569164276123,0.0862374094446972,0.0361494638658633,-0.0295071557455922,1.06931986064858,6.34609039752704,0.90220292458893
1730865959.73383,-1.50811088085175,1.10464203357697,-9.92215824127197,0.0839213296614087,0.0369463728324778,-0.0285008897775148,1.06993203271542,6.34020609936468,0.902408280678894
1730865959.78382,-1.42951703071594,1.1049782037735,-9.95274543762207,0.081548599499104,0.0375728890836324,-0.0275514917099921,1.07059308375625,6.33437393370915,0.902595060909487
1730865959.83384,-1.42768657207489,1.13594746589661,-9.95193290710449,0.0791277949583483,0.0380302309025424,-0.0266465908390727,1.07130345185589,6.32857271363307,0.902764689568057
1730865959.88384,-1.48481833934784,1.15824270248413,-9.91640377044678,0.0766680321311078,0.0383206148980936,-0.0257749305201228,1.07091487731766,6.32301531730738,0.901913734507507
1730865959.93377,-1.59488272666931,1.16816782951355,-9.85099411010742,0.0741777338610595,0.0384468391018487,-0.0249264078629157,1.07226581080046,6.30880922073644,0.901658643510891
1730865959.98394,-1.70938742160797,1.13698637485504,-9.79179573059082,0.0716636668010255,0.0384119888790497,-0.024091596750981,1.07275908544988,6.30448873913922,0.901595807367555
1730865960.0338,-1.81932437419891,1.10802829265594,-9.73762607574463,0.0691298528088725,0.0382194270600644,-0.0232610212520965,1.07413267056952,6.28971382267773,0.901392543282558
1730865960.08381,-1.88426780700684,1.10297536849976,-9.71460723876953,0.0665764661371599,0.0378730268896302,-0.0224244861019688,1.07466572796166,6.285196170285,0.901313125645418
1730865960.13378,-1.91052865982056,1.11159121990204,-9.71659469604492,0.0639991020655268,0.0373774121249672,-0.0215706803495791,1.07523621932744,6.28073053794617,0.901220463053676
1730865960.1838,-1.92579126358032,1.11613953113556,-9.74401950836182,0.061388618651772,0.0367380057167908,-0.0206871657219758,1.07584986946101,6.26638727681804,0.90116015680146
1730865960.23372,-1.94476747512817,1.10838842391968,-9.78177261352539,0.0587314762664153,0.0359609243959815,-0.0197607400907628,1.07628037471797,6.26201045765233,0.901088921065457
1730865960.28374,-1.94216549396515,1.08756697177887,-9.82428550720215,0.0560103324123928,0.0350528864897045,-0.018778059865596,1.07741975965616,6.24770033235254,0.900960502167402
1730865960.33369,-1.92533421516418,1.08850872516632,-9.84491157531738,0.0532051937218913,0.0340212056279727,-0.0177264423341837,1.07791292378655,6.24282074639356,0.900882493939237
1730865960.3837,-1.87154030799866,1.07814478874207,-9.8873929977417,0.0502959721881608,0.0328737815606816,-0.0165948641357677,1.07844240287991,6.23792299389496,0.900793128832256
1730865960.43367,-1.83784413337708,1.04014694690704,-9.91770553588867,0.047265825310296,0.0316190588768527,-0.0153749657527229,1.07899961333772,6.23307005655627,0.900694251685136
1730865960.48365,-1.7672381401062,1.03246033191681,-9.95180511474609,0.0441033023313803,0.0302660781334301,-0.0140616870347363,1.07973285558641,6.22591746310255,0.897744885280343
1730865960.53374,-1.70213949680328,1.03708744049072,-9.9757604598999,0.0408029371374027,0.0288246025917047,-0.0126534778549393,1.08008440281836,6.22311915765247,0.897414693618203
1730865960.58384,-1.65043306350708,1.07317745685577,-10.0149564743042,0.0373653665721826,0.0273051009102811,-0.0111523132125354,1.08252583760888,6.22033663492995,0.894169794621235
1730865960.63373,-1.60140597820282,1.14634108543396,-10.020565032959,0.033797392755759,0.02571842203941,-0.00956363604931021,1.0832006377558,6.21758201392505,0.893409668871928
1730865960.6837,-1.58504915237427,1.22859787940979,-9.98762226104736,0.0301118612604015,0.024075126860542,-0.00789615849030753,1.08542879729814,6.21483642700146,0.890585003114722
1730865960.73365,-1.60960114002228,1.25260412693024,-9.94574451446533,0.0263272569149834,0.0223846148503884,-0.00616136758532009,1.0861980719011,6.21209810805673,0.889695462950734
1730865960.78371,-1.66521978378296,1.25592613220215,-9.85734272003174,0.0224669103227092,0.0206544096973054,-0.00437267774459407,1.08698068262813,6.20938006281399,0.888804845417281
1730865960.83361,-1.74715566635132,1.20276975631714,-9.76955318450928,0.0185577775782852,0.0188899451637926,-0.00254429754731859,1.0877764023556,6.20667334247175,0.887911731233258
1730865960.88361,-1.82581686973572,1.11189913749695,-9.66746139526367,0.0146288208691022,0.0170949766264475,-0.000690082042007917,1.08792667078428,6.20396916019324,0.886855123322819
1730865960.93358,-1.88151943683624,1.01851344108582,-9.60898685455322,0.0107090672466598,0.0152725808982706,0.00117715039648705,1.08835558743282,6.2012984155544,0.886283733810514
1730865960.98358,-1.87340426445007,0.954424262046814,-9.58102798461914,0.00682579971389429,0.0134264610937954,0.0030458061183259,1.09029837743617,6.19862054847636,0.883630112808103
1730865961.03354,-1.82415747642517,0.919517874717712,-9.6139030456543,0.00300358401777736,0.0115620707666517,0.0049056379110505,1.09079294685883,6.19595320575724,0.882982425550637
1730865961.08368,-1.73240423202515,0.940414607524872,-9.69529724121094,-0.000735655659248824,0.00968721056925469,0.00674774571441435,1.09129152526097,6.19327477137791,0.882334094147226
1730865961.13353,-1.64411997795105,0.985841333866119,-9.8149299621582,-0.00437184361613102,0.00781199771404588,0.00856404022137128,1.09310680567624,6.19063151125074,0.886261898062523
1730865961.18361,-1.56860876083374,1.07468473911285,-9.9200325012207,-0.00788566005310892,0.00594824685443603,0.0103461509801234,1.09358023170626,6.18797075216991,0.886549969931219
1730865961.23347,-1.54260730743408,1.15199959278107,-10.0036287307739,-0.011257537182076,0.00410841238491803,0.0120841450121231,1.09536874242974,6.18532351559875,0.889593407270309
1730865961.28357,-1.5542049407959,1.23013854026794,-10.0411911010742,-0.0144670786851416,0.00230434389218826,0.0137654808370061,1.09593365465459,6.18266235880982,0.890298765575867
1730865961.33336,-1.62251687049866,1.24067234992981,-10.0669641494751,-0.0174930933875352,0.000546171850645151,0.0153744705208476,1.09648107342264,6.18003796273732,0.891003623406441
1730865961.38342,-1.72535645961761,1.21389138698578,-10.02712059021,-0.02031427542998,-0.00115834916172558,0.0168923113982231,1.09702227424404,6.17738663270599,0.891725728769291
1730865961.4334,-1.72535645961761,1.21389138698578,-10.02712059021,-0.0229104055046787,-0.00280380071608387,0.0182979345524006,1.09754386417984,6.17473229209392,0.892749352752737
1730865961.48343,-1.87916040420532,1.118408203125,-9.90227222442627,-0.0252638351415661,-0.00438633462432669,0.0195701420870606,1.09781910842058,6.17207374187648,0.893172420023117
1730865961.53345,-1.87916040420532,1.118408203125,-9.90227222442627,-0.0273609445448899,-0.00590251599692603,0.020690451011566,1.09961120689986,6.16941404825414,0.895972873992918
1730865961.58335,-1.79044115543365,0.994061350822449,-9.86081409454346,-0.0291930199661432,-0.0073483021508894,0.0216450175234635,1.10165611049457,6.16674514605262,0.899117997073905
1730865961.63331,-1.6464136838913,0.962815701961517,-9.86606502532959,-0.0307559394590152,-0.00871829421358316,0.0224251014779556,1.10236911620076,6.16408301134712,0.900283602506389
1730865961.68335,-1.56278884410858,0.948226392269135,-9.84869861602783,-0.0320487291709446,-0.0100051509918891,0.0230268224777368,1.10306439617765,6.16140771676613,0.901466642627899
1730865961.73332,-1.56245887279511,0.934124708175659,-9.84198188781738,-0.033071841250098,-0.0111993217459453,0.023450755502789,1.10373830197402,6.15872957706572,0.902662556742919
1730865961.78353,-1.579714179039,0.955528259277344,-9.84019470214844,-0.0338260411598747,-0.0122891994671086,0.0237014845484549,1.10268855334415,1.70052756194852,0.899347168663924
1730865961.83343,-1.65613031387329,1.04496228694916,-9.8289909362793,-0.0343121959023419,-0.013261619029995,0.0237871476885723,1.10286686495842,1.63816966641491,0.899558518283027
1730865961.88344,-1.74083852767944,1.13056588172913,-9.81206512451172,-0.0345317649295432,-0.0141027573544297,0.023718999997291,1.1030245844163,1.57547193719907,0.899785853893901
1730865961.93337,-1.80374240875244,1.17932534217834,-9.80042552947998,-0.0344876796835318,-0.0147993630947343,0.0235110397859312,1.10315985508544,1.51316419299726,0.900026418018039
1730865961.98349,-1.87009155750275,1.16336715221405,-9.82018566131592,-0.034185141968583,-0.0153399135513734,0.0231794791274333,1.10289957038293,1.62095323138446,0.898793641727922
1730865962.03334,-1.91349267959595,1.10049891471863,-9.80792236328125,-0.0336318415974309,-0.0157152945473609,0.0227416186949585,1.10293526779849,1.61048495391208,0.898834729765941
1730865962.08341,-1.98176074028015,0.9967160820961,-9.79986763000488,-0.0328377374528485,-0.0159187565026727,0.0222144275505231,1.10312072573327,1.62723765721648,0.898475013116519
1730865962.13326,-2.00924253463745,0.89981871843338,-9.76254081726074,-0.0318150237184649,-0.0159451046476266,0.0216137714942768,1.10315376436755,1.62455832357425,0.898470194179532
1730865962.18336,-2.0146119594574,0.852063417434692,-9.73201942443848,-0.0305783486302222,-0.0157894839919754,0.0209544845251544,1.1033956117715,1.631480093219,0.898232790628102
1730865962.23328,-1.96533703804016,0.857826948165894,-9.76377773284912,-0.0291448152074484,-0.0154463768591836,0.0202507111510054,1.10357647273996,1.6333034323481,0.898035735638429
1730865962.28326,-1.87609803676605,0.930728077888489,-9.81184387207031,-0.0275334692007415,-0.0149092717635896,0.0195160238636083,1.10360725362852,1.63310524993336,0.898003856066069
1730865962.33318,-1.77862751483917,1.03870832920074,-9.87555885314941,-0.0257642707388205,-0.014171145201688,0.0187631157183142,1.10362133130614,1.63289866000793,0.897984004788336
1730865962.38324,-1.7020138502121,1.12434101104736,-9.92650890350342,-0.0238567587022878,-0.0132255881017244,0.0180031803682009,1.10361992849647,1.63268230884716,0.897975570875643
1730865962.43321,-1.6601722240448,1.1989141702652,-9.9644889831543,-0.021828782171395,-0.0120681491755224,0.0172452563532622,1.10379219897867,1.63458447311276,0.898001330596422
1730865962.48329,-1.63422095775604,1.2611186504364,-9.97539520263672,-0.0196956220035602,-0.0106974717771381,0.0164957603995328,1.10379340928977,1.63458001702127,0.89801683087367
1730865962.53316,-1.62249886989594,1.26757872104645,-9.96290588378906,-0.017469816569125,-0.00911592831192278,0.0157584676339672,1.10425113239699,1.63517993467826,0.89819390236811
1730865962.58328,-1.6392068862915,1.20619130134583,-9.93706607818604,-0.0151620146012534,-0.00732944626680155,0.0150352092774362,1.1043051552685,1.63522673263382,0.898242311054922
1730865962.63312,-1.68604910373688,1.1449236869812,-9.8805103302002,-0.0127824560088544,-0.00534653104239418,0.0143270541131096,1.10434996657733,1.63526914098482,0.898299406270848
1730865962.68341,-1.71095716953278,1.08552873134613,-9.83228588104248,-0.0103420908044124,-0.00317701551958266,0.0136353462591559,1.10479260201095,1.63577784927575,0.898418128745828
1730865962.73309,-1.70975339412689,1.07411372661591,-9.78842258453369,-0.00785302219319104,-0.000831017295323282,0.0129623974474202,1.10486382370296,1.63585595631896,0.898473069217967
1730865962.78322,-1.67247271537781,1.08280813694,-9.79524707794189,-0.00532852908990544,0.00168171927626389,0.0123119491278091,1.1052095846835,1.63593081305641,0.901549852333353
1730865962.83308,-1.62065780162811,1.0981696844101,-9.83722400665283,-0.00278272848543225,0.00435203640107929,0.0116893051293476,1.10530251295715,1.6360113487498,0.902208958243796
1730865962.88309,-1.54275214672089,1.13316011428833,-9.84755802154541,-0.00022988713263762,0.00717121569082896,0.0111010274629141,1.10562717435747,1.63609192906574,0.904959928504434
1730865962.93301,-1.56294882297516,1.1618047952652,-9.86362838745117,0.00231640966188106,0.0101306347417103,0.0105543915833377,1.10573340504624,1.63617961958378,0.905796030066881
1730865962.98304,-1.62914907932282,1.21569800376892,-9.8454475402832,0.00484379451009513,0.01322132984486,0.010056919514537,1.10584187231003,1.63627461380805,0.906638550571818
1730865963.03401,-1.69675302505493,1.25902807712555,-9.83821773529053,0.00734097724888507,0.0164335088270173,0.00961614006640211,1.10595653176684,1.63638116064279,0.907504909003242
1730865963.08401,-1.741330742836,1.2730633020401,-9.82457160949707,0.00979716478275009,0.0197560899549497,0.00923941465261153,1.1061396415936,1.63649816333408,0.904989932636105
1730865963.13399,-1.76461136341095,1.25835752487183,-9.81188678741455,0.0122017307934798,0.0231764489885474,0.00893349453217267,1.10622449685503,1.6366271473309,0.905124519313214
1730865963.18397,-1.77867329120636,1.21271026134491,-9.80288887023926,0.0145443165024792,0.0266805433679143,0.00870391820731566,1.10681477751365,1.63677449989612,0.904364030351256
1730865963.23392,-1.81302785873413,1.14822256565094,-9.80769634246826,0.0168149175264874,0.0302534297780174,0.00855474143444372,1.10697417138804,1.63693689355624,0.904338323497771
1730865963.28388,-1.8094789981842,1.10013270378113,-9.81040000915527,0.0190037478954048,0.0338800565998482,0.00848863017461255,1.10714486186257,1.63711941805031,0.904317912653096
1730865963.33391,-1.7972104549408,1.11315011978149,-9.82936573028564,0.0211011090567887,0.0375460654985705,0.00850698228329979,1.10781304230043,1.63732810002869,0.903852414057408
1730865963.38385,-1.79911482334137,1.12596487998962,-9.8367862701416,0.0230974429207318,0.0412382586921418,0.00860995446829704,1.10798571824928,1.63755793009613,0.903810670426767
1730865963.43382,-1.78269636631012,1.16958940029144,-9.84548854827881,0.024983512718228,0.0449445903129779,0.00879644674641612,1.10886539237123,1.63782057077996,0.900415066939233
1730865963.48381,-1.77677392959595,1.20480525493622,-9.85652828216553,0.0267506049535526,0.0486538154946801,0.00906410292000793,1.10914193201284,1.6381063496562,0.899715418343435
1730865963.53378,-1.81296765804291,1.19837045669556,-9.85175132751465,0.0283906813282016,0.0523550367759343,0.00940935221242934,1.10972010834555,1.63844172879202,0.896781790873896
1730865963.58386,-1.86558043956757,1.1427628993988,-9.82577133178711,0.029896336397997,0.0560374501105418,0.00982752936227485,1.10997822831716,1.63878387086503,0.895940188041786
1730865963.63372,-1.88120543956757,1.08341920375824,-9.82411193847656,0.0312606118117912,0.059690371543539,0.0103131211340366,1.11027810472432,1.63919291383485,0.895035514833437
1730865963.68373,-1.88120543956757,1.08341920375824,-9.82411193847656,0.0324771140392772,0.0633031363079704,0.0108600669423424,1.11066546612608,1.6396057669157,0.896813025123005
1730865963.73372,-1.82652413845062,1.05280876159668,-9.85054397583008,0.0335405724553393,0.0668647274959692,0.0114619520071663,1.11087338861026,1.64008659405938,0.896659984359792
1730865963.7837,-1.7715882062912,1.07764136791229,-9.87763023376465,0.0344474523686364,0.0703636110738919,0.012112006447203,1.11109083876783,1.64058335545096,0.896522329349499
1730865963.83365,-1.73544776439667,1.09737074375153,-9.94192409515381,0.0351964496336767,0.0737878813879059,0.0128029072242069,1.11159697323568,5.51128787945174,0.8972654236912
1730865963.88371,-1.68969595432282,1.1317925453186,-9.96639728546143,0.0357889136679029,0.0771253304959197,0.0135264229335635,1.11181777485617,5.59243769830468,0.897279648159068
1730865963.93359,-1.6389662027359,1.12931418418884,-9.97122287750244,0.0362291634093843,0.0803633551417012,0.0142730618259858,1.11205902853835,5.67291839865682,0.89730239482158
1730865963.98366,-1.66231834888458,1.15053617954254,-9.93890857696533,0.0365246548868249,0.083488892037275,0.0150319779719758,1.11248896528352,5.98622377941424,0.900668876578779
1730865964.03356,-1.68598103523254,1.11429679393768,-9.90724277496338,0.0366858610480071,0.0864884949224651,0.0157912627144551,1.11270308037726,6.06235700746868,0.90115709068009
1730865964.08361,-1.71276223659515,1.09832179546356,-9.82807159423828,0.0367257522441906,0.0893485942097064,0.0165385587785867,1.11309384037569,5.99063268935227,0.904276116786083
1730865964.13352,-1.73812937736511,1.08631455898285,-9.81266117095947,0.0366590458849469,0.0920559100761681,0.0172618552810796,1.11330775208889,6.00791484596551,0.9051084005817
1730865964.18359,-1.73942863941193,1.10701858997345,-9.75175476074219,0.0365013563122294,0.0945978629505972,0.017950199337949,1.11369466761405,5.96546919530099,0.911325065421732
1730865964.23357,-1.77834224700928,1.09999656677246,-9.74980354309082,0.0362681214241502,0.0969628514227907,0.0185940358823689,1.11390279344749,5.96790035288691,0.912900521219585
1730865964.28347,-1.77543413639069,1.11800265312195,-9.73496818542481,0.0359734657283544,0.0991403962637139,0.0191852137391507,1.11413409168048,5.97040046794045,0.914492852836166
1730865964.33349,-1.77543413639069,1.11800265312195,-9.73496818542481,0.0356295316126459,0.101121169989219,0.0197169306565194,1.11427614178715,5.94539823130208,0.918194345047754
1730865964.38347,-1.80247294902802,1.09621953964233,-9.76128387451172,0.0352463888710661,0.102896972246512,0.0201836916460682,1.11442721338803,5.94478985050109,0.919303597860524
1730865964.43347,-1.80247294902802,1.09621953964233,-9.76128387451172,0.0348321331020067,0.104460772525792,0.0205811693475392,1.11494245800041,5.93127170942791,0.924655821559926
1730865964.48346,-1.89065968990326,1.11386346817017,-9.79668712615967,0.0343928881841544,0.10580680487494,0.0209059540549915,1.11513349908822,5.92936760522713,0.926060073252886
1730865964.53344,-1.88439869880676,1.13546562194824,-9.81835079193115,0.0339326429838799,0.106930549488376,0.0211552525669268,1.11534517619812,5.92753742690124,0.927472046485346
1730865964.58344,-1.85202348232269,1.16454994678497,-9.82991409301758,0.0334530970489048,0.107828533016244,0.0213265664095145,1.11557814805987,5.92577249687486,0.928898781258178
1730865964.63345,-1.80852711200714,1.17621219158173,-9.86181545257568,0.0329538770935357,0.108498036132069,0.0214174062961828,1.11550238264859,5.91686394926886,0.92860153707842
1730865964.68345,-1.71812999248505,1.1627516746521,-9.87613773345947,0.0324332294417575,0.108936855882124,0.0214250670489236,1.11564025454614,5.91507046255256,0.929311638939769
1730865964.7334,-1.69245636463165,1.13924312591553,-9.90594673156738,0.0318889325507791,0.109143294106978,0.0213465688066635,1.11597598084801,5.9045107543786,0.929777690899948
1730865964.78345,-1.67100632190704,1.15974390506744,-9.91583442687988,0.0313190319015305,0.109116420579453,0.0211790220539075,1.11613661144448,5.90186191625409,0.930242346396502
1730865964.83338,-1.66234016418457,1.1732234954834,-9.91050434112549,0.0307221804213981,0.108856357030776,0.0209202630023391,1.11632547857145,5.89914779191935,0.930744372093582
1730865964.88344,-1.66450989246368,1.18815732002258,-9.91872215270996,0.0300977366406024,0.108364296135239,0.0205692194868043,1.11652229200158,5.89665083220083,0.931231025848632
1730865964.9334,-1.65726363658905,1.16737735271454,-9.90854930877686,0.0294457940723102,0.107642335979256,0.02012590209074,1.11647138085428,5.88938239669926,0.927580206287747
1730865964.98346,-1.65916883945465,1.13002479076386,-9.90406608581543,0.028767157233926,0.106693422837765,0.0195913067980792,1.11658301098217,5.88760615969357,0.927479899680484
1730865965.03337,-1.65916883945465,1.13002479076386,-9.90406608581543,0.0280632817408647,0.105521513482278,0.018967360812297,1.11686187039946,5.8771140145721,0.924885106482405
1730865965.08347,-1.65428006649017,1.11278009414673,-9.89037990570068,0.0273362010964592,0.104131799185306,0.0182568848774085,1.11731144078053,5.86596998849977,0.922741218386348
1730865965.13335,-1.6624219417572,1.10772264003754,-9.87459659576416,0.0265884484083606,0.102530822236943,0.0174635730411795,1.11749352538365,5.86238524739186,0.922094989734609
1730865965.1835,-1.68038773536682,1.11723053455353,-9.87243843078613,0.0258229520401562,0.100726474369935,0.0165920117750744,1.11769328318014,5.85884035616712,0.921455132351622
1730865965.23336,-1.66429328918457,1.14430510997772,-9.85157108306885,0.0250428851479937,0.0987278719559384,0.0156477081272497,1.11785935585376,5.85125497916949,0.920299907346275
1730865965.2835,-1.67607259750366,1.15181684494019,-9.86631774902344,0.0242515206394986,0.0965450916330688,0.014637046292997,1.11798667905493,5.84894787267729,0.919915860170827
1730865965.33336,-1.67607259750366,1.15181684494019,-9.86631774902344,0.0234521079878399,0.0941888840415692,0.0135670695626061,1.11845857563568,5.83728486250418,0.920053088007461
1730865965.38325,-1.74065005779266,1.16702115535736,-9.8397912979126,0.0226476853960765,0.0916704841289593,0.0124451526653155,1.11863630835832,5.83400084007798,0.919924584929677
1730865965.4332,-1.75923717021942,1.1434805393219,-9.80742454528809,0.0218407538734523,0.0890014926787746,0.0112788562659088,1.11917551754024,5.82308070648754,0.919922772610426
1730865965.48321,-1.7919294834137,1.14254438877106,-9.78677082061768,0.0210328716992299,0.086193814394449,0.010076078754731,1.1193858066625,5.81951769493772,0.919859478010555
1730865965.5332,-1.8289555311203,1.13395822048187,-9.73405170440674,0.0202243074045423,0.0832596720356395,0.00884533925902436,1.11960959351305,5.81599656263964,0.91980188405446
1730865965.58327,-1.90675258636475,1.10174965858459,-9.72208213806152,0.0194137398269182,0.080211661688807,0.00759606600310573,1.11989333537293,5.80691019276586,0.919766117215644
1730865965.6332,-1.94403624534607,1.06493139266968,-9.71151924133301,0.0185978808141489,0.0770628732800162,0.00633881303298256,1.12006148411803,5.80392133467565,0.91973221079737
1730865965.68321,-1.95462143421173,1.04860961437225,-9.74727249145508,0.0177711024759699,0.0738271133400117,0.00508526278837508,1.11928973453424,5.79097603028503,0.919582604413534
1730865965.73311,-1.93002116680145,1.05191659927368,-9.78531742095947,0.0169253482617857,0.0705191038574517,0.0038479139857607,1.11922887525104,5.7869203758767,0.919536915831126
1730865965.78326,-1.89174580574036,1.06623363494873,-9.86322116851807,0.0160504835851639,0.0671544792206948,0.00263946393882679,1.11918040129699,5.78305755978391,0.919494921524296
1730865965.8332,-1.82613408565521,1.0515388250351,-9.91778755187988,0.0151351554631913,0.0637494853073694,0.00147201807843565,1.1191407800085,5.77917479276693,0.919453536178054
1730865965.88324,-1.82613408565521,1.0515388250351,-9.91778755187988,0.0141682118978018,0.0603203802838866,0.000356425625499626,1.11863178110303,5.77488025281786,0.919390206625194
1730865965.93315,-1.64388179779053,1.01346909999847,-9.9973030090332,0.0131403368406551,0.0568828172550575,-0.000698078305105613,1.11858588825895,5.77281997963059,0.919365490264733
1730865965.98321,-1.6068297624588,1.03925263881683,-10.0101137161255,0.0120454333000366,0.0534515935419863,-0.00168413918812873,1.11809813044976,5.75853206407175,0.919189180263409
1730865966.03312,-1.59305477142334,1.11133933067322,-9.98350048065186,0.0108815864715239,0.0500406172834123,-0.0025965668352989,1.11799633752268,5.75470996423402,0.919140109701039
1730865966.08317,-1.61522531509399,1.20802617073059,-9.93999481201172,0.00965139488453776,0.046662562453893,-0.00343232052448861,1.11758033632402,5.74470778717096,0.918789161924734
1730865966.13299,-1.66288101673126,1.25495541095734,-9.90417957305908,0.0083615604180407,0.0433280946337205,-0.00419003855633379,1.1174672496535,5.74115816864683,0.9186960884062
1730865966.18308,-1.72374701499939,1.24988687038422,-9.84012317657471,0.00702197621131857,0.0400451006966124,-0.00486933017980666,1.11735788668132,5.73760018564515,0.918599267419224
1730865966.233,-1.75403237342834,1.19597506523132,-9.81040859222412,0.00564460144130399,0.0368184325164981,-0.00547003901109876,1.11705735319471,5.72619265313732,0.918560255446022
1730865966.28293,-1.75403237342834,1.19597506523132,-9.81040859222412,0.00424241702045225,0.0336502868113634,-0.00599162671701813,1.11646615248467,5.71081910618592,0.918400589506795
1730865966.33297,-1.7739691734314,1.0807728767395,-9.73426055908203,0.00282870524976503,0.030540962198946,-0.00643278504244637,1.1163101681946,5.70632692537407,0.918339313670706
1730865966.38382,-1.7863746881485,1.01900565624237,-9.72805404663086,0.00141658801888984,0.027489792024647,-0.00679133573428518,1.11560025227254,5.69364570676311,0.917940427372472
1730865966.43389,-1.7863746881485,1.01900565624237,-9.72805404663086,1.85890982504241E-05,0.0244960831258026,-0.00706465413663508,1.11535840905685,5.68860821526846,0.917802116936425
1730865966.48382,-1.74858021736145,0.980993390083313,-9.72205638885498,-0.00135373427611872,0.0215597435577538,-0.00725052474554276,1.11511743500788,5.68361188261276,0.917660069562996
1730865966.53384,-1.77392172813416,0.964747190475464,-9.74900913238525,-0.00268987282507086,0.0186815611910044,-0.00734774829157507,1.1152081650752,5.676836922641,0.917555186399066
1730865966.58392,-1.77692842483521,1.00909566879272,-9.79238605499268,-0.00398027282511901,0.015863318090994,-0.0073563211020515,1.11510833049007,5.67375127359605,0.91747198189744
1730865966.63373,-1.7719019651413,1.04696190357208,-9.85647201538086,-0.00521632250991191,0.0131076546710573,-0.00727764288613503,1.11475207270112,5.65931869919129,0.917362674606798
1730865966.68401,-1.74272012710571,1.07678508758545,-9.91838932037354,-0.00639035687747072,0.0104176013546405,-0.00711495051615717,1.11462359214091,5.65506265222851,0.917294631821844
1730865966.73383,-1.73086059093475,1.08387732505798,-9.98312854766846,-0.00749551754646423,0.00779602066623505,-0.00687385816035727,1.11444478170169,5.64516641413806,0.917167122247646
1730865966.78392,-1.72446572780609,1.11983025074005,-10.0167284011841,-0.00852551704794793,0.0052452011728993,-0.00656284428137301,1.11434183212595,5.64128226577833,0.917101495489677
1730865966.83378,-1.72446572780609,1.11983025074005,-10.0167284011841,-0.0094744613727075,0.00276660338303998,-0.00619351011285091,1.11508531963491,5.62761642120499,0.91698402201411
1730865966.88395,-1.6949405670166,1.09136855602264,-10.0031223297119,-0.0103367656887704,0.000360740403808398,-0.00578046251745576,1.115148475806,5.62384360182181,0.916931392842396
1730865966.93381,-1.65414071083069,1.07906067371368,-9.93777275085449,-0.0111071558211939,-0.00197266092475131,-0.00534059589548184,1.11586628635133,5.61222241905722,0.91736394538529
1730865966.98371,-1.69711530208588,1.05597352981567,-9.88265514373779,-0.0117809300421731,-0.00423414441966802,-0.00489148147930214,1.11600491686723,5.60843275272015,0.917420646799576
1730865967.03368,-1.7184339761734,1.02001082897186,-9.82914352416992,-0.0123545364976323,-0.00642387872901728,-0.00444928555520098,1.11724320243095,5.59563604653685,0.917844594091489
1730865967.08374,-1.77965879440308,0.981916844844818,-9.78043270111084,-0.0128261577233254,-0.00854114889889197,-0.0040272543901185,1.1176112656523,5.59043064278441,0.917969894572898
1730865967.13365,-1.7767276763916,0.983779072761536,-9.7494649887085,-0.0131960916741397,-0.0105840335978594,-0.0036350534424537,1.11796803899318,5.58526433878245,0.918091723570804
1730865967.18385,-1.78150880336761,1.03798508644104,-9.75819206237793,-0.0134669207877102,-0.0125493251911727,-0.00327857273197764,1.11839993019143,5.57765926629939,0.918045650632918
1730865967.23372,-1.78150880336761,1.03798508644104,-9.75819206237793,-0.0136434291708167,-0.0144328161018924,-0.00296005271077996,1.11860205084433,5.57429856650333,0.918091564456197
1730865967.28368,-1.73067796230316,1.2181533575058,-9.79443836212158,-0.0137322881847823,-0.0162299484984267,-0.00267851677330805,1.11879580441733,5.5709258356746,0.918135758123786
1730865967.33362,-1.73723566532135,1.26220417022705,-9.82524490356445,-0.0137415772971165,-0.0179368307562132,-0.00243041427070324,1.11898157321299,5.56753187184302,0.918178492629768
1730865967.3837,-1.77288854122162,1.25365138053894,-9.84135246276856,-0.0136803049584098,-0.0195513824935737,-0.00221036590961159,1.11966996053906,5.56321376531703,0.918221924867289
1730865967.43361,-1.79574859142303,1.23291194438934,-9.85208034515381,-0.0135582019982399,-0.0210739517737293,-0.00201185662568125,1.11983784683128,5.5609323476492,0.918250121055416
1730865967.48356,-1.81300377845764,1.18716537952423,-9.86908626556397,-0.0133856564252499,-0.0225070361919563,-0.00182782259215063,1.1208677085422,5.54466801505851,0.918214214973771
1730865967.53358,-1.8403993844986,1.11684679985046,-9.86169624328613,-0.013173292716588,-0.0238542395573068,-0.00165125896859413,1.12108641230658,5.5410920584201,0.918219776056724
1730865967.58365,-1.83656120300293,1.10994935035706,-9.8555965423584,-0.0129312791855291,-0.0251189208279598,-0.0014757770853299,1.12290376709805,5.5232836788344,0.917816869579338
1730865967.63354,-1.80150902271271,1.11255192756653,-9.85822296142578,-0.0126689084767607,-0.0263032472943265,-0.00129584874350441,1.12456776454596,5.50778037518387,0.917418838586599
1730865967.68357,-1.74167490005493,1.09471714496613,-9.85349655151367,-0.0123944038802857,-0.027407943791758,-0.00110677089832716,1.1251235658068,5.50214253378473,0.917293418237305
1730865967.73369,-1.70735394954681,1.08962893486023,-9.87057685852051,-0.0121145685109386,-0.0284323903171407,-0.000904589767476845,1.12567680737026,5.49643422209491,0.917166186897714
1730865967.78361,-1.68562948703766,1.08821856975555,-9.87708854675293,-0.0118343301253743,-0.0293747527584142,-0.000686091595239963,1.12621457007046,5.49079068279854,0.917040304612926
1730865967.83355,-1.68567323684692,1.11316800117493,-9.89499282836914,-0.0115564600171441,-0.0302321515087716,-0.000448859171848256,1.12650646454261,5.48588970249098,0.916954038965513
1730865967.88357,-1.66201162338257,1.14510381221771,-9.88445854187012,-0.0112815532648835,-0.0310009684186728,-0.000191341992136663,1.12679835771493,5.48243760469952,0.916882414316038
1730865967.93348,-1.66062128543854,1.18013310432434,-9.87045764923096,-0.0110081583452196,-0.0316773142684819,8.71558252242861E-05,1.12823645641039,5.46668559197541,0.916566669502651
1730865967.98347,-1.6534378528595,1.17978668212891,-9.85152053833008,-0.0107329493670869,-0.032257547368297,0.000386634205653342,1.12866461079907,5.46175788940064,0.916467441502928
1730865968.03344,-1.67584764957428,1.18240439891815,-9.82107067108154,-0.0104510803567598,-0.0327386593934618,0.000706635501525103,1.1290866006951,5.45680479501816,0.916368451640993
1730865968.08352,-1.72375059127808,1.15665328502655,-9.81063461303711,-0.0101570337267971,-0.0331184229672402,0.00104641088815977,1.12950306124131,5.45182022770086,0.916269794071064
1730865968.13345,-1.79961764812469,1.14266872406006,-9.78266525268555,-0.00984587372858554,-0.0333953189660637,0.00140500570717013,1.13001024110553,5.44767794928033,0.916172724327617
1730865968.1835,-1.8628112077713,1.10928678512573,-9.77823543548584,-0.00951438737434887,-0.0335683108448646,0.00178140073372453,1.13024173707616,5.44497781477533,0.916119558956458
1730865968.2334,-1.87744808197021,1.09356379508972,-9.79169750213623,-0.00916184392612106,-0.033636546842725,0.00217469485644946,1.13199143031527,5.4287325812692,0.915778244483524
1730865968.28347,-1.85346746444702,1.10894536972046,-9.82217216491699,-0.00879033262178741,-0.0335991064128463,0.00258414062638865,1.13351745045567,5.4106335033777,0.915401249158483
1730865968.33338,-1.79736518859863,1.10640013217926,-9.85599994659424,-0.0084045642568947,-0.0334549196828808,0.00300894330662962,1.13406410533966,5.40426943432735,0.915272899551075
1730865968.38338,-1.74911606311798,1.08481979370117,-9.90035152435303,-0.0080111659978563,-0.0332028352712568,0.00344789249890656,1.13460366736292,5.39790764164333,0.915147025688026
1730865968.43341,-1.68875753879547,1.07804179191589,-9.94406127929688,-0.00761771774642913,-0.0328416569458246,0.00389892256434107,1.13514207469466,5.39148082104543,0.915022584539298
1730865968.48344,-1.66057395935059,1.07848966121674,-9.94311428070068,-0.00723179604418403,-0.0323700981345377,0.00435870938422854,1.13531299719812,5.3885010771572,0.915149326401936
1730865968.53331,-1.68085813522339,1.06881332397461,-9.9386625289917,-0.00686025154978089,-0.031786758911558,0.00482247153914163,1.13642081465125,5.37264910220243,0.91500477486529
1730865968.58344,-1.69250559806824,1.04848575592041,-9.91047477722168,-0.00650888899366454,-0.0310902596857864,0.00528416985399092,1.13674948253656,5.36806677194359,0.914960654541426
1730865968.63332,-1.73408913612366,1.00409603118896,-9.87416839599609,-0.00618252161261549,-0.0302796425908417,0.00573720908539777,1.13834504918938,5.35648543419189,0.914987218114506
1730865968.68326,-1.75131022930145,0.966817140579224,-9.83140850067139,-0.00588523850795096,-0.0293547824151322,0.00617542037205901,1.13878321438113,5.35246603113514,0.914981126737223
1730865968.73328,-1.75559341907501,0.913213133811951,-9.82555389404297,-0.00562074213910489,-0.0283163200584685,0.00659385513686381,1.13921972187674,5.34841069890368,0.914979009330881
1730865968.78327,-1.7511773109436,0.899168729782105,-9.80871963500977,-0.00539259584508857,-0.0271651562164245,0.00698916866187082,1.13957022381408,5.33648814189553,0.91499778148774
1730865968.83316,-1.76695990562439,0.913864612579346,-9.81101703643799,-0.00520430441026211,-0.0259019832887213,0.00735970187434731,1.13982580592993,5.33264035166134,0.915004422205778
1730865968.88333,-1.76472914218903,0.96239161491394,-9.81717109680176,-0.00505932164567946,-0.0245271865785659,0.00770539174916637,1.14007987852197,5.32875109939536,0.915015826109067
1730865968.93313,-1.77405154705048,0.994201958179474,-9.83605575561523,-0.00496106644506986,-0.0230411545717313,0.00802755417493244,1.14097193558009,5.31774453572782,0.915005353472327
1730865968.98307,-1.7563841342926,1.03080749511719,-9.85017681121826,-0.00491291910665314,-0.0214448090047811,0.00832856138731286,1.14121067630503,5.31445944208684,0.915015722030282
1730865969.03318,-1.74189233779907,1.05212640762329,-9.86342334747314,-0.00491813753293428,-0.019740110026657,0.00861147258323946,1.14145027967111,5.31110717154602,0.915031572399982
1730865969.08308,-1.76344466209412,1.11641037464142,-9.85969734191895,-0.00497970857397534,-0.0179304525048101,0.00887970547186215,1.14168441363406,5.30777658494551,0.915052709454913
1730865969.13311,-1.76135766506195,1.14991545677185,-9.85775184631348,-0.0051001995583783,-0.0160209398661375,0.00913677385894679,1.14248420143993,5.29610334205847,0.914812714101794
1730865969.18306,-1.76688647270203,1.1521487236023,-9.8541145324707,-0.00528155282468613,-0.0140183630711517,0.00938601384662219,1.1438512026694,5.27769810519534,0.914632285788035
1730865969.23302,-1.75977063179016,1.14610624313355,-9.84993076324463,-0.00552481418540422,-0.0119308323362032,0.00963031583632226,1.14420659340886,5.27275527030428,0.914600741164792
1730865969.28309,-1.78328311443329,1.11962831020355,-9.83185482025147,-0.00583000617398147,-0.00976733867843358,0.00987202806935913,1.14564449365415,5.25825684836442,0.914405973624643
1730865969.33294,-1.79116427898407,1.05796885490417,-9.82453918457031,-0.00619625158433648,-0.00753735071119109,0.010113069819714,1.14605273644582,5.2535861588193,0.914367842999074
1730865969.383,-1.79371285438538,1.01268541812897,-9.83322429656982,-0.00662201625794692,-0.0052502735412838,0.0103551042371265,1.14801991892517,5.23844110220424,0.911556250438738
1730865969.43294,-1.75177145004272,1.02025616168976,-9.84951877593994,-0.00710527842185398,-0.00291482152123042,0.0105996152052917,1.14853024711785,5.23380209077527,0.911047292443111
1730865969.48296,-1.71559464931488,1.07923495769501,-9.88174915313721,-0.00764346652868125,-0.000538669612253355,0.0108478197196301,1.1503464259856,5.21778938063986,0.908313995439028
1730865969.53284,-1.69736385345459,1.14836835861206,-9.8850793838501,-0.00823317768166017,0.00187132767643859,0.0111004565084311,1.15091602051363,5.21255959261719,0.907587423834184
1730865969.58278,-1.69909107685089,1.19147932529449,-9.90003490447998,-0.00886989885298567,0.00430844914330912,0.0113575777613121,1.15148172037971,5.20731852857726,0.90686602001297
1730865969.63387,-1.70485353469849,1.19521796703339,-9.89471054077148,-0.00954793859069058,0.00676536763682858,0.0116184487630547,1.15205623788422,5.20194397190033,0.906133203156884
1730865969.68381,-1.72791540622711,1.14041590690613,-9.88910675048828,-0.0102606234530114,0.00923377726018567,0.0118816008334509,1.15260793431677,5.19672965582618,0.905428942579573
1730865969.7338,-1.72739017009735,1.09678137302399,-9.85071659088135,-0.0110007207313397,0.0117045649930566,0.0121450944697463,1.15259436460394,5.19908458268864,0.902851386839026
1730865969.78379,-1.74485909938812,1.05028891563416,-9.85497856140137,-0.0117609249502525,0.0141683972291313,0.0124069492764579,1.15285122046549,5.19677611797158,0.902302208585803
1730865969.83374,-1.72059500217438,1.03710603713989,-9.83776378631592,-0.0125341812664334,0.016616408684468,0.01266551609708,1.15499306349204,5.1817303987786,0.89746637491973
1730865969.8838,-1.70442759990692,1.00476920604706,-9.83848190307617,-0.0133137557013329,0.0190407376631462,0.0129196544863579,1.15553272808399,5.17758984650312,0.896287007417854
1730865969.93372,-1.67621147632599,1.00118839740753,-9.85202598571777,-0.0140931014057873,0.0214348452148016,0.0131687656645973,1.15605823178834,5.17350503803405,0.89512805513362
1730865969.98369,-1.65798854827881,0.981200337409973,-9.87223148345947,-0.0148656222360002,0.0237936716642734,0.0134127044390301,1.15657560302068,5.16942755055284,0.893975452240875
1730865970.03374,-1.65798854827881,0.981200337409973,-9.87223148345947,-0.0156244556151872,0.0261136798430601,0.0136515790365657,1.15751933811354,5.15992068929796,0.891939286313547
1730865970.08366,-1.7302862405777,0.989269077777863,-9.86627388000488,-0.016362444007321,0.0283927991491912,0.0138855580365224,1.15783401417464,5.15713264000847,0.891233223822508
1730865970.13369,-1.75611472129822,1.00057065486908,-9.84821891784668,-0.0170724601739968,0.0306302555535999,0.0141148115240955,1.16002201612437,5.14321309952696,0.889313622298703
1730865970.18364,-1.75611472129822,1.00057065486908,-9.84821891784668,-0.0177479613724624,0.0328263106138833,0.0143395871105293,1.16056772095116,5.12675394453035,0.886780956288942
1730865970.23353,-1.72926390171051,1.00340986251831,-9.84756469726563,-0.0183833576858339,0.0349818994354666,0.0145602742081387,1.16090738786596,5.12051496042347,0.885783313426736
1730865970.2836,-1.70827102661133,1.03200137615204,-9.85690879821777,-0.0189739606142142,0.0370980176327002,0.0147772824701753,1.16123493259861,5.1143071425587,0.884796208460219
1730865970.33361,-1.72977411746979,1.02653062343597,-9.87250518798828,-0.0195156959940932,0.0391749565699956,0.0149907667802733,1.16155201556735,5.1080925330362,0.883813561204512
1730865970.38357,-1.72977411746979,1.02653062343597,-9.87250518798828,-0.0200049171063945,0.0412118462555294,0.0152004000986564,1.16105619204869,5.11095573404864,0.886533916563252
1730865970.43355,-1.75072371959686,1.04026520252228,-9.89903259277344,-0.0204384350553161,0.0432066455647086,0.0154052690469149,1.1611501787415,5.10824227026084,0.886375334780161
1730865970.48356,-1.74417340755463,1.06753194332123,-9.88695621490479,-0.0208136422091105,0.0451562603528269,0.01560382468555,1.16123127027096,5.10555543676434,0.886226411551206
1730865970.53355,-1.76462888717651,1.07068431377411,-9.89332103729248,-0.0211286115233029,0.0470565688442241,0.0157938790499706,1.16348850349364,5.09857004316338,0.886850150714206
1730865970.58358,-1.80928909778595,1.07685136795044,-9.85693645477295,-0.021382201081271,0.0489024154870846,0.0159727102807029,1.16377210794444,5.09654528951144,0.886835607675272
1730865970.6335,-1.84510934352875,1.07803177833557,-9.83527183532715,-0.0215742794490806,0.0506876847418754,0.0161373159625833,1.16404786774641,5.09451222007825,0.886830756575058
1730865970.68352,-1.87788796424866,1.06817734241486,-9.79424285888672,-0.0217060739341751,0.0524054658720758,0.0162847968196727,1.1663429510848,5.08073555251658,0.886969836490713
1730865970.73359,-1.87926590442657,1.06192719936371,-9.76159191131592,-0.0217804742225692,0.0540482815621678,0.0164128027704696,1.16678398034266,5.07769253965452,0.886985241576536
1730865970.78353,-1.87817418575287,1.03429543972015,-9.76745128631592,-0.0218020004086482,0.0556083819730778,0.0165198619924798,1.16869079569998,5.06465755002252,0.887216076979112
1730865970.83344,-1.84524655342102,1.04485011100769,-9.79240989685059,-0.021776147268946,0.0570780908889191,0.0166052974551462,1.17051672429061,5.05199531846154,0.887404648719636
1730865970.88345,-1.79098320007324,1.05231606960297,-9.83321571350098,-0.0217082968019091,0.0584500956652296,0.0166687047319479,1.17117604259599,5.04730127715613,0.887487173994036
1730865970.93346,-1.73803901672363,1.04037141799927,-9.89192867279053,-0.0216027642868529,0.0597175772353345,0.0167093234292114,1.17182280998955,5.04263708125486,0.887580269023507
1730865970.98346,-1.68413817882538,1.02784240245819,-9.93965339660645,-0.021462153312767,0.0608742684624411,0.0167254745800448,1.17245623423117,5.0380096000382,0.887683858896867
1730865971.03338,-1.59834384918213,1.03708183765411,-9.97574520111084,-0.0212868250737538,0.0619145593913593,0.0167140446236274,1.1728231266543,5.03613570172548,0.887639723300345
1730865971.08342,-1.57126021385193,1.03325605392456,-9.99349784851074,-0.0210743940726042,0.0628335927230923,0.0166701060774399,1.17315019673909,5.03376020637117,0.887697046644963
1730865971.1334,-1.55055725574493,1.03925943374634,-9.94452571868897,-0.0208193779947511,0.0636272805877524,0.0165868329809722,1.17505233149793,5.02224756564402,0.887834087612665
1730865971.18345,-1.55759453773499,1.01536118984222,-9.9150915145874,-0.0205131908672759,0.0642922978930899,0.0164558295221777,1.17558542881257,5.01875651917057,0.887906750783908
1730865971.23344,-1.61283838748932,0.989021122455597,-9.85912322998047,-0.0201445404084416,0.0648261552825571,0.0162678232174997,1.17610594488572,5.01530499669854,0.887989660277207
1730865971.28335,-1.70072448253632,0.978692471981049,-9.80023956298828,-0.0197002333290794,0.0652273862424529,0.0160135189152871,1.17661313071596,5.01190003507634,0.888082491012219
1730865971.33331,-1.76883792877197,1.01469445228577,-9.75594520568848,-0.0191664536172582,0.0654956912392083,0.0156844499229957,1.1769661509916,5.00812334693426,0.887843904025174
1730865971.38337,-1.76883792877197,1.01469445228577,-9.75594520568848,-0.018530400733078,0.065631810284535,0.0152736664770759,1.17895339891554,4.99580003709451,0.887648441875819
1730865971.43328,-1.82173955440521,1.03400099277496,-9.76532077789307,-0.01778172956936,0.0656371753611221,0.0147760741492749,1.17949012802914,4.99232403953402,0.887632146917919
1730865971.48329,-1.78291177749634,1.05370128154755,-9.80487060546875,-0.0169132525075957,0.0655135868051969,0.0141883739812436,1.18317113113796,4.97969450928616,0.887411115786895
1730865971.53328,-1.7525897026062,1.06123864650726,-9.85537052154541,-0.0159209086448892,0.0652629810620123,0.0135086830093963,1.18417412353446,4.97562923006973,0.887376265319047
1730865971.58324,-1.74062478542328,1.11160290241241,-9.87990665435791,-0.0148032871414728,0.0648872163411263,0.0127359556519203,1.18516444158415,4.97161707359394,0.887349711451102
1730865971.63326,-1.77052450180054,1.11589753627777,-9.90289306640625,-0.0135610605295877,0.0643878266804628,0.0118694033162073,1.18615170556807,4.9676218081329,0.887330733458577
1730865971.6832,-1.79004406929016,1.15451109409332,-9.8997859954834,-0.0121966682123369,0.0637657652908689,0.0109081031117408,1.18763082755983,4.9656913296218,0.887392878130482
1730865971.73318,-1.79004406929016,1.15451109409332,-9.8997859954834,-0.0107142712528794,0.0630212117458204,0.00985085216605923,1.18902005400591,4.95448151357701,0.887401483125282
1730865971.78335,-1.86539089679718,1.16241705417633,-9.86264038085938,-0.00911980093139454,0.062153493167059,0.00869624125534647,1.18954303013176,4.95133645315455,0.887411885087784
1730865971.83325,-1.84821355342865,1.11970400810242,-9.8585147857666,-0.0074210593635175,0.0611611731338672,0.00744290426158171,1.19005740325497,4.94825055533207,0.887427253239017
1730865971.88323,-1.82702136039734,1.1148294210434,-9.80533409118652,-0.00562771742903946,0.0600424422345605,0.00608991384938425,1.19056893264808,4.94519511061433,0.887446879168984
1730865971.93341,-1.79397583007813,1.04532516002655,-9.82236766815186,-0.0037508586137975,0.0587959280216169,0.00463731290972252,1.19135068501011,4.93900803268118,0.887600720322341
1730865971.98326,-1.72093331813812,1.01371312141418,-9.82844734191895,-0.00180209996734168,0.0574217286440248,0.00308658055593245,1.19167002857126,4.93705879698558,0.887629502426127
1730865972.0333,-1.60120296478271,0.971973121166229,-9.87098693847656,0.000207408632470425,0.0559222247599872,0.00144069664251302,1.1934618835684,4.92488059546675,0.887811844329394
1730865972.0832,-1.56734836101532,0.992790043354034,-9.87456798553467,0.00226802925411047,0.0543024454973126,-0.000296200441712765,1.19399047521514,4.92148560845831,0.887862750992413
1730865972.13324,-1.56179904937744,1.01944410800934,-9.91531658172607,0.00437252875079109,0.0525700020982767,-0.00211927734319166,1.19560819483318,4.91062601636422,0.888018261982812
1730865972.18317,-1.57656860351563,1.05841100215912,-9.88632774353027,0.00651643159282061,0.050734630538566,-0.0040233912113711,1.19618180374775,4.90694303631534,0.888069969423184
1730865972.23326,-1.6311422586441,1.07285332679749,-9.91388988494873,0.00869775978810562,0.0488075040250824,-0.00600331566842411,1.1967640940618,4.90326620985498,0.888118880875939
1730865972.2831,-1.7173388004303,1.07996535301209,-9.86382007598877,0.0109163226142183,0.0468005781396701,-0.00805379164490447,1.19763258498509,4.8969563583247,0.888021172046066
1730865972.3332,-1.82231605052948,1.10778284072876,-9.82663154602051,0.0131726482452078,0.0447261102927619,-0.0101693931590996,1.19800158586697,4.89464119267564,0.888022870817944
1730865972.38316,-1.85338497161865,1.1184059381485,-9.80068206787109,0.0154667347264328,0.0425962997407401,-0.0123441961454861,1.20033498109249,4.88269524197908,0.888002110314017
1730865972.43308,-1.89548718929291,1.09499144554138,-9.76114463806152,0.0177970625621956,0.0404229878178855,-0.0145714152195389,1.20099177513169,4.8792713415289,0.887989443786183
1730865972.48304,-1.89892172813416,1.02629709243774,-9.77944660186768,0.0201602577785961,0.0382175360327716,-0.0168432684834952,1.20165707291018,4.8758891241682,0.887967069857165
1730865972.53316,-1.85367715358734,1.00829303264618,-9.78778076171875,0.0225513250158781,0.0359910305090894,-0.0191511358320398,1.20234550308967,4.87248169942091,0.88793295642325
1730865972.58312,-1.7839742898941,1.00465881824493,-9.84261703491211,0.0249641766064554,0.0337546750795748,-0.0214859075854438,1.20314163235995,4.86790345404224,0.887985966801981
1730865972.63307,-1.7839742898941,1.00465881824493,-9.84261703491211,0.027392330226937,0.0315200356376101,-0.0238384318640874,1.2059306450093,4.85184743024484,0.887983127292739
1730865972.68306,-1.72191977500916,1.08062851428986,-9.91091442108154,0.029829594520707,0.0292989538631746,-0.026199991221228,1.20830936834903,4.83814450350099,0.890846733379494
1730865972.73313,-1.72191977500916,1.08062851428986,-9.91091442108154,0.0322705739795828,0.0271031420123568,-0.0285627534218151,1.20949980883274,4.83157145537278,0.891669456957988
1730865972.78308,-1.68808746337891,1.1303209066391,-9.95122146606445,0.034711004177449,0.0249436263131124,-0.0309201514115777,1.21070466165118,4.82505070297524,0.892469079014291
1730865972.83304,-1.68808746337891,1.1303209066391,-9.95122146606445,0.0371479420632445,0.0228302753317576,-0.0332671309474438,1.21193362137671,4.81853589843655,0.893249749852258
1730865972.88306,-1.69285380840302,1.11379718780518,-9.93874454498291,0.0395798024180337,0.0207715377147852,-0.0356002225966885,1.21318401325076,4.81204782953011,0.894007383059412
1730865972.93294,-1.70444107055664,1.07389903068542,-9.89489936828613,0.0420062335049265,0.0187744691029499,-0.0379173790072697,1.21052451358715,4.82336923304399,0.894193827221146
1730865972.98299,-1.72882485389709,1.04707765579224,-9.85446357727051,0.044427694224874,0.0168450190973034,-0.0402174515658487,1.21091992399564,4.8212871197425,0.894505339402482
1730865973.033,-1.78296589851379,1.01431322097778,-9.82283592224121,0.0468444790214524,0.0149883429785888,-0.0424992547936656,1.21134391393532,4.81921508240364,0.89479091834661
1730865973.08295,-1.83634507656097,1.01090216636658,-9.76731777191162,0.0492553888182663,0.0132090090452271,-0.044760510768186,1.2131731283304,4.81039639915368,0.89713704463822
1730865973.13289,-1.88694524765015,0.989475905895233,-9.76078224182129,0.0516567143245352,0.0115111807310365,-0.0469971256780057,1.21376416847357,4.80774387791584,0.897620408515717
1730865973.18295,-1.84733521938324,1.03479278087616,-9.73960494995117,0.0540418320055759,0.00989875774977794,-0.0492029210634147,1.21438997412469,4.8050902063261,0.898075148731397
1730865973.23294,-1.81638956069946,1.04650008678436,-9.77476119995117,0.0564013578479999,0.00837532590166449,-0.0513697030516254,1.21553178891657,4.79684807856211,0.899906646230959
1730865973.28288,-1.783855676651,1.07690739631653,-9.79489803314209,0.0587237844475549,0.00694389747367226,-0.0534876155075855,1.21748527459782,4.78483821329474,0.902322178257453
1730865973.33282,-1.76468288898468,1.05352067947388,-9.82564926147461,0.0609963283238108,0.00560663346136115,-0.0555457169576455,1.21813211299645,4.78144916553158,0.90293251104955
1730865973.38286,-1.73510408401489,1.01457798480988,-9.85471153259277,0.0632056923761977,0.00436478289542065,-0.0575326355176351,1.21881753972163,4.77806485290833,0.903507140998279
1730865973.43291,-1.6830712556839,0.974965155124664,-9.90010261535645,0.0653387112347043,0.0032189498208155,-0.0594371999731367,1.21954532287324,4.77467335496174,0.904046616815518
1730865973.48285,-1.64537703990936,0.957863032817841,-9.91089057922363,0.0673829833761722,0.00216956851125039,-0.0612490236940835,1.22031069852577,4.77130154459786,0.90454553224151
1730865973.53285,-1.64968872070313,0.956542313098908,-9.94575119018555,0.0693273928175014,0.00121723856196325,-0.0629589047323226,1.2211191677271,4.76792874298174,0.905006020246833
1730865973.58285,-1.64425802230835,0.995408415794373,-9.94022560119629,0.071162201352263,0.000362563656843597,-0.0645588325785158,1.22016905365492,4.76665505290788,0.90261274051589
1730865973.63283,-1.66893672943115,1.04973924160004,-9.93779563903809,0.072878725305712,-0.000394473442214075,-0.0660416993709754,1.22052554931371,4.76495701070972,0.902593472201228
1730865973.68279,-1.68594193458557,1.08345425128937,-9.91556930541992,0.0744689847734599,-0.00105520306559427,-0.0674010448042034,1.22261625749222,4.75546181670922,0.902240546338923
1730865973.73286,-1.71327543258667,1.12624371051788,-9.89312076568604,0.0759254704730446,-0.00162277266279137,-0.0686309052435853,1.22317711302868,4.7532311673116,0.902137970454658
1730865973.78278,-1.7269731760025,1.14721667766571,-9.87269878387451,0.0772409346417923,-0.00210246416903555,-0.0697256361661932,1.22378916335502,4.7509851500934,0.90199172374418
1730865973.8328,-1.73506629467011,1.14010679721832,-9.8331184387207,0.0784082155720426,-0.00250182067677307,-0.0706796833614542,1.22440874942303,4.73891068515482,0.902333239916597
1730865973.88276,-1.71795892715454,1.14969658851624,-9.81530570983887,0.0794201800525211,-0.00283053379972378,-0.0714873359920483,1.2248393708554,4.73619474389813,0.902259082407696
1730865973.93277,-1.66732692718506,1.18075430393219,-9.81236553192139,0.0802698712054629,-0.00310017504986941,-0.0721425197851935,1.22631600063007,4.72585258820545,0.902731909829864
1730865973.98271,-1.71898591518402,1.20055460929871,-9.81655025482178,0.0809508350126684,-0.00332397572331667,-0.0726387418552572,1.22689876061478,4.7225840071367,0.902720582554326
1730865974.03276,-1.77717816829681,1.18633770942688,-9.79629993438721,0.0814573003154523,-0.00351669241939662,-0.0729691998808369,1.22804662259558,4.7132098588272,0.902948564361307
1730865974.0837,-1.82670068740845,1.10754072666168,-9.83360290527344,0.0817840641825811,-0.00369418178013758,-0.0731270609278511,1.22862662896745,4.70984749485408,0.90290841313109
1730865974.13282,-1.81292343139648,1.0744457244873,-9.8337345123291,0.0819265857965119,-0.00387221465758126,-0.073106087863278,1.22923683117234,4.70659998600073,0.90282463209698
1730865974.18279,-1.78489410877228,1.03419589996338,-9.85495185852051,0.0818815531225055,-0.00406486766766808,-0.0729014856118221,1.22990726339869,4.70329936172044,0.902694343740061
1730865974.23279,-1.70691919326782,1.0519814491272,-9.86600875854492,0.0816474980219987,-0.00428345195256026,-0.0725104568183769,1.23007288415887,4.69700716266716,0.903135273946627
1730865974.28271,-1.73302900791168,1.03807926177979,-9.89164543151856,0.0812252203847117,-0.00453628552763848,-0.0719323595156638,1.23049688365921,4.69460610247801,0.903063427161944
1730865974.33365,-1.72374796867371,1.06072437763214,-9.90710735321045,0.0806179987785619,-0.00482891391152415,-0.0711687479291734,1.23194648762421,4.68479122970359,0.90332569400369
1730865974.3837,-1.63339006900787,1.10294198989868,-9.92292594909668,0.0798315711050213,-0.00516450743034365,-0.0702234069973299,1.23247377833461,4.682007380288,0.903267122281631
1730865974.43369,-1.7185343503952,1.09121263027191,-9.8854923248291,0.0788740828641259,-0.00554438185875115,-0.0691022968578913,1.23305100632373,4.67921850699442,0.903164954650791
1730865974.48359,-1.76323676109314,1.08111166954041,-9.88436126708984,0.0777558880954435,-0.00596847728214177,-0.0678132980874408,1.23348881908082,4.66848493738307,0.903143988867308
1730865974.53378,-1.7660847902298,1.06649434566498,-9.817702293396,0.07648890995803,-0.00643559467878298,-0.0663657466945137,1.23387218533466,4.66587798173097,0.9030298234049
1730865974.58364,-1.76335608959198,1.07303047180176,-9.78666019439697,0.0750858898460093,-0.00694344583073159,-0.0647698198470006,1.23496918064484,4.65513158523495,0.902930378017325
1730865974.63362,-1.7550356388092,1.06633949279785,-9.75559329986572,0.0735599087867958,-0.00748874383329077,-0.0630359280593029,1.23543322909405,4.6519488665349,0.902796644308985
1730865974.68356,-1.77974629402161,1.05051851272583,-9.7277364730835,0.0719239854081907,-0.00806744797671337,-0.061174394696811,1.23620642050578,4.64176560994958,0.902915063278976
1730865974.73361,-1.79051840305328,1.05069780349731,-9.73346042633057,0.0701905823589326,-0.00867503882550747,-0.0591954317733966,1.23664317945253,4.63831383646671,0.902817020228193
1730865974.78348,-1.71968984603882,1.08977997303009,-9.77666473388672,0.0683712875869365,-0.0093067003376735,-0.057109179895967,1.23732519491522,4.62570418745683,0.902924354422379
1730865974.83354,-1.77137100696564,1.1019127368927,-9.83509826660156,0.066476886792878,-0.009957526568872,-0.0549258693129561,1.23768582835865,4.62229011555608,0.902840080682056
1730865974.88351,-1.80289196968079,1.13870751857758,-9.85267066955566,0.0645175319623187,-0.0106228480575679,-0.0526562244677541,1.23699040691683,4.60788813350226,0.902738419985485
1730865974.9336,-1.82858312129974,1.18246674537659,-9.9228630065918,0.0625026101202393,-0.0112986122274357,-0.0503119436738092,1.23707585962674,4.60369512585774,0.902624339020301
1730865974.98346,-1.80773651599884,1.22200632095337,-9.93525791168213,0.0604404410377642,-0.0119817931977827,-0.047906093891886,1.23719900720461,4.59951934521348,0.902480410529383
1730865975.03359,-1.82683992385864,1.19771409034729,-9.95826625823975,0.058338154663364,-0.0126707581801748,-0.0454533746938326,1.23736039890765,4.59530174747417,0.902306038578426
1730865975.0835,-1.75530564785004,1.1827597618103,-9.94264698028564,0.0562018257754339,-0.0133653657761989,-0.0429701587985194,1.23755619112165,4.59110857335202,0.90210549271061
1730865975.13344,-1.77022159099579,1.13122773170471,-9.93575382232666,0.0540368031880453,-0.0140666789709239,-0.0404742628455155,1.23650468386599,4.59064721846412,0.902522810744907
1730865975.18342,-1.73506724834442,1.07566630840302,-9.8892240524292,0.0518480984053887,-0.0147763799448004,-0.0379843788131872,1.23654947734381,4.58849502049806,0.902435326339723
1730865975.23343,-1.69802451133728,1.01480793952942,-9.84932231903076,0.0496406685554514,-0.0154959995342912,-0.0355189909948296,1.23746030773753,4.57467003806954,0.902339946137935
1730865975.28338,-1.74787175655365,0.924736380577087,-9.83838939666748,0.0474195880113443,-0.0162260573517727,-0.0330950410731762,1.23772701103346,4.57073323704988,0.902240679208784
1730865975.33337,-1.72180771827698,0.919073104858398,-9.83518409729004,0.0451900941012189,-0.0169652556526754,-0.0307270559055845,1.2385109700812,4.55793622038608,0.9021419436326
1730865975.38336,-1.71015441417694,0.968927085399628,-9.80912017822266,0.0429575180392247,-0.0177100161988369,-0.0284269392282817,1.2388309034866,4.55353717658031,0.902043936090279
1730865975.4334,-1.68370842933655,0.987815499305725,-9.84134006500244,0.0407273002033434,-0.0184546423091306,-0.0262040608187685,1.23918918429834,4.54269055654219,0.901960259232595
1730865975.4834,-1.650559425354,1.00813901424408,-9.83605575561523,0.0385051748188029,-0.0191919517967777,-0.0240654626668506,1.23941375126286,4.53921942308636,0.901879755617341
1730865975.53336,-1.67467164993286,1.01412904262543,-9.85738658905029,0.0362973884478064,-0.0199139370820495,-0.0220161849646546,1.24157694224429,4.52573656879585,0.901954233280707
1730865975.58334,-1.68518102169037,1.00433373451233,-9.85263252258301,0.0341107581043899,-0.0206122208731285,-0.0200596217557998,1.24361795811235,4.51364109725595,0.901967956123941
1730865975.63337,-1.68518102169037,1.00433373451233,-9.85263252258301,0.0319524963876378,-0.0212783046839416,-0.0181978109663782,1.24436849277374,4.50898586872264,0.901936062590086
1730865975.68332,-1.722811460495,1.03274583816528,-9.87534713745117,0.0298299312033227,-0.0219037120158874,-0.0164316532445226,1.24513575517762,4.50433280656297,0.901893488500124
1730865975.73334,-1.80888760089874,1.03667807579041,-9.7524938583374,0.027750203397155,-0.0224802134606373,-0.0147611390448838,1.24592534353021,4.49963991545448,0.901840897792138
1730865975.78329,-1.84924638271332,1.08795869350433,-9.82381343841553,0.0257199207425577,-0.0230002540598068,-0.0131856869470842,1.24630915600109,4.49532360590684,0.901776073500251
1730865975.83324,-1.8476037979126,1.07335698604584,-9.7686071395874,0.0237448139628986,-0.0234574729565508,-0.0117045676760897,1.24676804082585,4.49239891188335,0.901729546620594
1730865975.88323,-1.79652237892151,1.04591429233551,-9.81515216827393,0.0218295526066419,-0.0238470088988327,-0.0103171997807643,1.24872714860986,4.47891890792643,0.901576012699943
1730865975.93318,-1.79697167873383,1.04254853725433,-9.87128067016602,0.0199778777028491,-0.024165408488606,-0.00902328844554152,1.25082169752284,4.46980003200141,0.901407753548233
1730865975.98327,-1.73038876056671,1.07939958572388,-9.87966442108154,0.0181929897461065,-0.0244103584567358,-0.00782307559253428,1.25148802191853,4.46645184615153,0.901344605456599
1730865976.03317,-1.67766714096069,1.15414321422577,-9.95030498504639,0.0164780477308179,-0.0245806500911275,-0.00671773212244543,1.25216186128314,4.46310499180229,0.901277231450875
1730865976.08316,-1.66434049606323,1.21000099182129,-9.94538021087647,0.0148367256391743,-0.0246765484433133,-0.00570970176481321,1.25567621097092,4.45349504202594,0.901175983371149
1730865976.13309,-1.69494032859802,1.20416235923767,-9.97741031646729,0.0132736140373763,-0.0247003357923615,-0.00480290885260239,1.25652981375701,4.45045158624175,0.90112512113597
1730865976.18308,-1.71538352966309,1.15041613578796,-9.95951366424561,0.0117941952217857,-0.0246565537634853,-0.00400277436067059,1.26036464055736,4.44140760228413,0.900974043388655
1730865976.23313,-1.73099744319916,1.073575258255,-9.93534660339356,0.0104044569087712,-0.0245516203328915,-0.0033160051735589,1.26319954693918,4.43056323151466,0.898385467325315
1730865976.28311,-1.75183236598969,1.02950084209442,-9.86796092987061,0.00911037640511189,-0.0243929351250155,-0.00275002477987295,1.2643719787862,4.42646146360579,0.897682648055979
1730865976.33317,-1.78943312168121,1.02314460277557,-9.80477905273438,0.00791731361367659,-0.0241879236375752,-0.00231183260485528,1.2655552063203,4.42232536974249,0.89697497025641
1730865976.38303,-1.78943312168121,1.02314460277557,-9.80477905273438,0.00682936821427697,-0.0239434269951187,-0.00200659931858627,1.26633410764929,4.4149012866758,0.895331714372379
1730865976.43319,-1.78071784973145,0.996200263500214,-9.77080154418945,0.00584898626720357,-0.023665473871719,-0.0018367578748647,1.26694855655178,4.41218853369084,0.894848312719077
1730865976.48303,-1.78491520881653,0.925196528434753,-9.75138664245606,0.00497695475065729,-0.0233591372703531,-0.00180178115022984,1.2675572222099,4.40950156063516,0.894370974465336
1730865976.53308,-1.78465628623962,0.88950103521347,-9.75967597961426,0.00421259095249504,-0.0230282004428914,-0.00189825619480381,1.2681767450418,4.40676482638482,0.893886220246643
1730865976.58311,-1.78268826007843,0.873282849788666,-9.80506706237793,0.00355393290785798,-0.0226747029495704,-0.00212012841591411,1.26973448260792,4.40289989200811,0.892646348728627
1730865976.63313,-1.79522669315338,0.896665871143341,-9.82733058929443,0.00299789469715912,-0.0222986891246566,-0.00245922628298653,1.2702416071384,4.40106720286263,0.89226568141214
1730865976.68304,-1.8137618303299,0.899200260639191,-9.88708019256592,0.00254036829068525,-0.0218983350429319,-0.00290599856044147,1.27074516228019,4.39923990326763,0.891887319462584
1730865976.73315,-1.76033818721771,1.01267731189728,-9.92757415771484,0.00217629839588875,-0.0214704203016192,-0.00345031163083978,1.27153462845999,4.38763460107279,0.890030631988666
1730865976.78296,-1.76033818721771,1.01267731189728,-9.92757415771484,0.0018998867556284,-0.0210110917672145,-0.00408218435650028,1.27386102419908,4.37441463047531,0.887810275792278
1730865976.83306,-1.75214791297913,1.10049843788147,-9.94594955444336,0.00170492943004911,-0.0205167049609099,-0.00479220863204705,1.27449580144037,4.37067367831969,0.887172773099808
1730865976.88299,-1.77777373790741,1.09998881816864,-9.93660259246826,0.00158502692200829,-0.0199844019742391,-0.0055714304285229,1.27689056594987,4.36033226619651,0.887632286704991
1730865976.9329,-1.75524163246155,1.09993636608124,-9.89273738861084,0.00153357423189279,-0.0194123490067053,-0.00641087945805138,1.27771183523139,4.35639482327197,0.887503920904009
1730865976.98293,-1.74437952041626,1.02992594242096,-9.85945129394531,0.00154375132381143,-0.0187996971818829,-0.00730111398133776,1.27853741607381,4.35242936900028,0.887370740324026
1730865977.03297,-1.73845028877258,0.991324126720428,-9.82112693786621,0.00160866752902177,-0.0181462197863567,-0.00823186987458307,1.27935211729589,4.34600130933891,0.887899753747815
1730865977.08293,-1.72636079788208,1.00422775745392,-9.78069496154785,0.00172157166601863,-0.0174517487996912,-0.00919175313740446,1.27983003019106,4.34335833023506,0.887887341530373
1730865977.1329,-1.70197403430939,1.03017568588257,-9.77783584594727,0.00187603981869388,-0.0167158118684909,-0.0101680049343177,1.28190383086007,4.33125203497937,0.8879660690308
1730865977.18292,-1.71006155014038,1.02366960048676,-9.77223682403564,0.00206615386921163,-0.0159376742297064,-0.0111464385944518,1.28255444965997,4.3275631886074,0.887952232953404
1730865977.23287,-1.68488121032715,1.04759609699249,-9.79813289642334,0.00228664697706698,-0.0151165728578946,-0.012111620621197,1.28320924074179,4.32384869068553,0.887931050198704
1730865977.28288,-1.69280707836151,1.08160245418549,-9.83933734893799,0.00253298624170341,-0.014251953188045,-0.0130472939259146,1.28386129483751,4.32014908640297,0.887902183092313
1730865977.33286,-1.69280707836151,1.08160245418549,-9.83933734893799,0.00280139803596396,-0.0133437332219739,-0.0139369685598424,1.28372675752336,4.31692182373969,0.88798201767929
1730865977.38283,-1.70587015151978,1.15146958827972,-9.90182781219482,0.00308876577638432,-0.01239256190837,-0.0147646172121006,1.28401563632013,4.31489484084178,0.887962971429474
1730865977.43284,-1.71806478500366,1.18822288513184,-9.8997049331665,0.00339230904167771,-0.0114000240107967,-0.0155155371468892,1.28554656478059,4.30281318144442,0.887983995706312
1730865977.4828,-1.75595355033875,1.21086263656616,-9.87931823730469,0.00370912683295383,-0.0103688625013531,-0.0161771887508384,1.28600981647106,4.29938025252428,0.887963050276439
1730865977.53296,-1.75302851200104,1.21330988407135,-9.8572301864624,0.00403581226865582,-0.00930319690355355,-0.0167395018983528,1.28739740832693,4.28715832418009,0.887982903543552
1730865977.58277,-1.77166724205017,1.2144695520401,-9.8249568939209,0.00436824896817622,-0.00820859125597196,-0.0171945840433485,1.2879609866349,4.28256726966126,0.88796019812794
1730865977.63276,-1.79045271873474,1.17357444763184,-9.81508827209473,0.00470154508734358,-0.00709189546387084,-0.0175362230964553,1.28852955293325,4.27795386961416,0.887926565264803
1730865977.68267,-1.79112839698792,1.14004635810852,-9.79453468322754,0.00503001268569425,-0.00596085468186081,-0.0177594439429446,1.29144279958782,4.27353460729255,0.887980146489227
1730865977.73271,-1.7754602432251,1.09687793254852,-9.80405521392822,0.00534720141539028,-0.00482353101076607,-0.0178601929876579,1.29207800597153,4.27084730565689,0.887955251908942
1730865977.78268,-1.74517560005188,1.07555961608887,-9.82016277313232,0.00564608988074341,-0.00368767671801161,-0.0178351911893786,1.29541630246385,4.25934945550979,0.887980538031178
1730865977.83269,-1.75351941585541,1.03845870494843,-9.84111976623535,0.00591943019029614,-0.00256020266450778,-0.0176819755619716,1.29637647213968,4.2556555651393,0.887955752839862
1730865977.88268,-1.74279487133026,1.03233397006989,-9.85258102416992,0.00616007978220824,-0.00144679416642788,-0.0173990706606105,1.29733874343688,4.25196687338111,0.887920036263933
1730865977.9326,-1.75669860839844,1.00324773788452,-9.87722587585449,0.00636125706943347,-0.000351778115311797,-0.0169861781111688,1.29830253297481,4.24828674773183,0.887873700225571
1730865977.98261,-1.75199055671692,1.00942051410675,-9.89998531341553,0.00651685984011951,0.000721578270228787,-0.0164443391855349,1.29715900947907,4.2452808632783,0.888167829670658
1730865978.03366,-1.76268994808197,1.01432275772095,-9.91411972045898,0.00662181618941226,0.00177049185264375,-0.0157760819540957,1.2974880446215,4.24328323633141,0.888161640309114
1730865978.08359,-1.74064838886261,1.03809332847595,-9.91038036346436,0.00667224581069527,0.00279223598529377,-0.0149855126551765,1.29764270018648,4.23009049846468,0.888398840720004
1730865978.13364,-1.74943137168884,1.05107510089874,-9.90699577331543,0.00666544110743617,0.00378394037373445,-0.0140782719524084,1.30481378419184,4.21761435959113,0.886278746734013
1730865978.18361,-1.71826064586639,1.08003878593445,-9.8860034942627,0.00659983696903554,0.0047424269317991,-0.0130613352789979,1.3066197097695,4.21309076737026,0.885779855672819
1730865978.23357,-1.7213134765625,1.06543207168579,-9.85827827453613,0.00647502351590466,0.00566404976262662,-0.0119426853275763,1.3084363809041,4.20855374149733,0.885271313960721
1730865978.28358,-1.72018098831177,1.03515148162842,-9.8329381942749,0.00629175877408283,0.00654467404267026,-0.010730886963804,1.31025380717308,4.20402859264442,0.884756598804987
1730865978.33362,-1.74725663661957,1.00850450992584,-9.81911754608154,0.00605188675536947,0.00737990724304666,-0.00943463545961914,1.3142552060862,4.20185303841283,0.883484012593621
1730865978.38349,-1.73989534378052,1.00016164779663,-9.79943656921387,0.00575811953148701,0.00816549889681777,-0.00806237667853334,1.31551806171688,4.19944088282513,0.883110182292044
1730865978.43363,-1.76128554344177,1.00427103042603,-9.8075647354126,0.00541377112898157,0.00889768021104438,-0.00662205252109558,1.3154578448116,4.18113411200465,0.879593989329922
1730865978.48348,-1.77682733535767,1.0146998167038,-9.7987756729126,0.00502253125230094,0.00957331157552069,-0.00512105456324531,1.3159559104066,4.1763711150105,0.878645158423674
1730865978.53365,-1.78690147399902,0.988168120384216,-9.82278251647949,0.00458829084956137,0.0101899079305295,-0.00356650728499773,1.31646160989822,4.17157014498548,0.877684804288934
1730865978.58342,-1.79139280319214,0.963596999645233,-9.84312248229981,0.00411500997765445,0.0107457110349062,-0.00196576728512373,1.31696464339508,4.16682661481775,0.876732922581595
1730865978.63353,-1.77453517913818,0.944753110408783,-9.86640548706055,0.00360663082820935,0.011239876450777,-0.000326829928869436,1.31634109200111,4.16296217131789,0.876286554492023
1730865978.68343,-1.74015259742737,0.937737166881561,-9.90295505523682,0.00306709556543106,0.0116726770097909,0.00134144351668875,1.31692646682494,4.15110977677584,0.87655705362566
1730865978.73346,-1.68542909622192,0.974590599536896,-9.93772888183594,0.00250056285297861,0.0120455657057617,0.0030291406472746,1.31714488318236,4.1475255068079,0.876424292395036
1730865978.78345,-1.64661002159119,0.985525667667389,-9.95121574401856,0.00191182195760129,0.0123609942725025,0.00472510570130098,1.31517802616331,4.1387952881301,0.876887297696104
1730865978.83348,-1.65633630752563,1.00782752037048,-9.9380521774292,0.00130672505866493,0.0126220453006819,0.00641685762258139,1.31483726184915,4.13546770313807,0.876900650483389
1730865978.88339,-1.70043551921844,1.016641497612,-9.93179035186768,0.000692335770132647,0.0128320540974301,0.00809074274967605,1.31449746601092,4.13215142916894,0.87691852480129
1730865978.93334,-1.71247589588165,1.01660454273224,-9.90400886535645,7.66411674943041E-05,0.0129943324180254,0.00973230312994171,1.31416006415462,4.1288641837212,0.87694180013983
1730865978.98338,-1.74848771095276,0.987415850162506,-9.87387561798096,-0.000531988798953336,0.0131120462268125,0.0113267648639857,1.31321322667769,4.1220953833592,0.876990735539834
1730865979.03337,-1.77819752693176,0.972392320632935,-9.8269567489624,-0.00112534323520917,0.0131882525395221,0.0128596296266785,1.31363972735771,4.11107352478035,0.877003232870309
1730865979.08334,-1.82492852210999,0.968479633331299,-9.80851078033447,-0.00169586708662701,0.0132259569745984,0.0143173771273234,1.31363157931291,4.1079524850713,0.877019875115138
1730865979.13346,-1.80773270130157,0.99198979139328,-9.79758644104004,-0.002237104111781,0.0132280577753773,0.0156881181161012,1.31362214941442,4.10482312509939,0.877046051793497
1730865979.18334,-1.77585828304291,1.00172746181488,-9.79526233673096,-0.00274391379889273,0.0131972036633946,0.0169619604378449,1.31361125085075,4.1017292595839,0.877082168677373
1730865979.23343,-1.74456000328064,0.990562438964844,-9.82331275939941,-0.0032123053051598,0.0131356569982938,0.0181310406243551,1.31425119084763,4.0955500503196,0.877210020746752
1730865979.28334,-1.72716963291168,1.0075136423111,-9.83942794799805,-0.00363900768699848,0.0130452350515639,0.0191893094424669,1.31430042974028,4.09351335164462,0.877256395469844
1730865979.33332,-1.69500076770782,1.06875765323639,-9.85866546630859,-0.00402102860970314,0.0129272616278167,0.0201321717052085,1.31434749451622,4.09147571761811,0.877315258796758
1730865979.38326,-1.67579746246338,1.07852697372437,-9.88278770446777,-0.00435530129011487,0.0127823546124193,0.020956099169196,1.3143918017299,4.08945249967578,0.877386738311118
1730865979.43328,-1.66925191879272,1.05868434906006,-9.9091157913208,-0.00463841708885647,0.0126101448421871,0.0216582721131459,1.30748571883633,4.08170349245742,0.877428075987496
1730865979.48323,-1.71250092983246,1.05493724346161,-9.89641189575195,-0.00486652498146922,0.0124092351448279,0.0222362703069442,1.30666811983741,4.07972893099419,0.877485587374038
1730865979.53314,-1.75042152404785,1.05898475646973,-9.8703145980835,-0.00503553038603768,0.0121774192682698,0.0226879291917363,1.30584298285157,4.07775128618186,0.877557418397364
1730865979.58322,-1.78584778308868,1.06759309768677,-9.84801959991455,-0.00514156738679,0.0119119985307501,0.0230114795626329,1.30084726879411,4.06608546468122,0.877623565046038
1730865979.63326,-1.78838443756104,1.05583119392395,-9.80819416046143,-0.00518150229847488,0.0116102438080724,0.0232059335334302,1.29994702730118,4.06389372020809,0.877683234320303
1730865979.68322,-1.76748883724213,1.03694212436676,-9.8049840927124,-0.00515321400176391,0.0112699736635323,0.023271535663171,1.29904562802702,4.06171416961532,0.877757290055985
1730865979.73326,-1.74220836162567,1.04481649398804,-9.79116630554199,-0.00505555629250929,0.0108899570191719,0.0232100654806005,1.30128155282281,4.04859567147173,0.877836073381712
1730865979.78314,-1.71837675571442,1.05622637271881,-9.81582260131836,-0.00488807516823449,0.0104699961648649,0.0230248853361982,1.30122831759722,4.04558278180779,0.877905584331032
1730865979.83314,-1.71659409999847,1.02408254146576,-9.85257911682129,-0.00465065628805335,0.0100108258750524,0.0227207348927285,1.3011719555092,4.04256778625802,0.877989567383796
1730865979.88311,-1.75324869155884,1.06546378135681,-9.87915992736816,-0.00434330754995623,0.00951399825115412,0.0223033024437426,1.30238245653902,4.0277805542047,0.878036825093983
1730865979.93317,-1.75188422203064,1.10929811000824,-9.90780544281006,-0.00396619822625637,0.0089817063157926,0.0217786886960035,1.30248796029431,4.02433778907243,0.878103695365908
1730865979.98308,-1.75125312805176,1.13361084461212,-9.91305065155029,-0.00351984289544284,0.00841639148617107,0.0211529351422191,1.30368718928693,4.00992867116679,0.878038766339262
1730865980.03315,-1.77467155456543,1.1063928604126,-9.92974185943604,-0.00300523126273083,0.00782028465231677,0.0204317108909811,1.30395025746177,4.00556804460536,0.878077831725272
1730865980.08308,-1.76337337493896,1.05503392219543,-9.91777515411377,-0.00242389005015545,0.00719525570255031,0.0196201619919885,1.3042103604119,4.00123318323678,0.878129197879684
1730865980.13305,-1.76781785488129,0.998613893985748,-9.90388202667236,-0.00177793276674282,0.00654306462743122,0.0187229636802918,1.30446978163121,3.9968921141418,0.878192658661121
1730865980.18306,-1.75529372692108,0.964221239089966,-9.86319160461426,-0.00107008438636073,0.00586572064046545,0.0177446848812357,1.30485311018247,3.98892647774067,0.876510335508132
1730865980.2331,-1.75107073783875,0.931886434555054,-9.83151435852051,-0.000303654749207285,0.00516573845495529,0.0166903889927406,1.30500016301177,3.98620548289233,0.876389116353209
1730865980.28302,-1.77132654190063,0.908929407596588,-9.8017520904541,0.000517538855152566,0.00444637773870454,0.0155661784601986,1.30565941455548,3.96772334344816,0.87479900110699
1730865980.33308,-1.77132654190063,0.908929407596588,-9.8017520904541,0.00138922588853478,0.00371188153283294,0.014379506969142,1.30638251118923,3.95394523329893,0.873474998507438
1730865980.38301,-1.7231832742691,0.943996906280518,-9.80113220214844,0.00230672152383661,0.00296753459604552,0.0131392492761233,1.30662754560874,3.9489588984721,0.873064400092023
1730865980.4331,-1.67387580871582,1.05137586593628,-9.82166004180908,0.00326515463886962,0.00221934701999217,0.0118555466166964,1.30687537371845,3.94395289485411,0.872659882515325
1730865980.48301,-1.65971112251282,1.14778196811676,-9.85054397583008,0.00425994874450807,0.00147324350589802,0.0105394660142954,1.30712452710072,3.93896871662504,0.872264027874106
1730865980.53304,-1.65840280056,1.21059846878052,-9.88291358947754,0.00528728829862885,0.000733906103882768,0.00920252228041469,1.30720305614298,3.93609877357584,0.871845172693286
1730865980.58292,-1.68622326850891,1.23560476303101,-9.89293575286865,0.00634429253640284,3.72691477903929E-06,0.00785614761308553,1.30699871633216,3.92397302590109,0.870703106574092
1730865980.63292,-1.70742630958557,1.24063289165497,-9.91036510467529,0.00742885958312868,-0.000717744962917954,0.00651124182788973,1.30702035305552,3.92042551683069,0.87039000363878
1730865980.68295,-1.73134875297546,1.23194396495819,-9.89135551452637,0.00853927931602862,-0.001433609919531,0.00517788608607216,1.30654721664065,3.90729084142563,0.870710512282368
1730865980.7329,-1.76210117340088,1.19772398471832,-9.85715675354004,0.00967370595314033,-0.00214844481626266,0.00386525195716829,1.30648188240482,3.90327744766539,0.870669103347208
1730865980.78289,-1.80518543720245,1.19251585006714,-9.80748081207275,0.0108295946831791,-0.00286662234720203,0.0025817655241508,1.30642300010763,3.89926541623892,0.870629738561099
1730865980.83303,-1.82078742980957,1.2165002822876,-9.75685977935791,0.0120032385303517,-0.00359122970184785,0.00133553551758165,1.30609548057696,3.89435869509991,0.870962258730308
1730865980.88286,-1.8196736574173,1.18229126930237,-9.74319171905518,0.0131895099852963,-0.00432389857388666,0.000134889921013507,1.30546075346087,3.88390585192819,0.870991568780823
1730865980.93287,-1.8196736574173,1.18229126930237,-9.74319171905518,0.0143818513486989,-0.00506494744417717,-0.0010112363287907,1.3053018695732,3.88037813257497,0.870999443042158
1730865980.98285,-1.74926352500916,1.15322732925415,-9.78507900238037,0.0155725246901252,-0.00581343204144248,-0.00209325438124613,1.30464453935451,3.87451995622321,0.870999887222742
1730865981.03288,-1.73717069625855,1.16760444641113,-9.82460021972656,0.0167531222256621,-0.00656714000563155,-0.00310125012771205,1.3044474774093,3.87165313937929,0.870999681631032
1730865981.0828,-1.75647330284119,1.15783870220184,-9.85862064361572,0.0179151653719533,-0.0073226513710457,-0.00402556856662124,1.30426250643413,3.86880084806446,0.870997258903726
1730865981.13282,-1.7453453540802,1.18029701709747,-9.89036178588867,0.0190504713220653,-0.00807550916425386,-0.00485744160948297,1.30408845644537,3.86593434177256,0.870992056867402
1730865981.18279,-1.74211740493774,1.21222102642059,-9.90776824951172,0.0201512523653615,-0.00882050356100577,-0.00558949489834507,1.3033422444751,3.8655129946468,0.871193595489417
1730865981.23278,-1.76489889621735,1.21313071250916,-9.90522480010986,0.0212101776121969,-0.00955207433240847,-0.00621605060848672,1.30223156131112,3.86127310311942,0.87137188403893
1730865981.28271,-1.75511312484741,1.19818007946014,-9.90882205963135,0.0222204894930095,-0.0102647301752393,-0.00673317466162646,1.30196186465156,3.85973272874981,0.871407945558166
1730865981.33278,-1.7433922290802,1.20481598377228,-9.89398097991943,0.0231761381057703,-0.0109532991533611,-0.00713851896620173,1.30067730915669,3.85535067672084,0.871598465940637
1730865981.38277,-1.73917591571808,1.19729340076447,-9.87742328643799,0.0240719058622744,-0.0116129832916531,-0.00743107692321756,1.30034701656529,3.85381598552416,0.871641028945896
1730865981.43273,-1.72765123844147,1.16439366340637,-9.87500667572022,0.0249035003338002,-0.0122393106867559,-0.00761091055710912,1.29924777624622,3.84614631597389,0.87180320104287
1730865981.48267,-1.7301276922226,1.14628219604492,-9.85884284973145,0.0256676045385072,-0.0128279861850466,-0.00767888851874416,1.29893398452466,3.84403846737192,0.871842669766231
1730865981.53271,-1.76739871501923,1.1232705116272,-9.83583736419678,0.0263618432679483,-0.0133746460264338,-0.00763645302453213,1.29784302739439,3.83734642486001,0.872003818180898
1730865981.58263,-1.77129197120667,1.07682526111603,-9.81404876708984,0.0269845944606077,-0.0138745907588728,-0.00748536755292283,1.29753486481601,3.83522602385885,0.872042536661774
1730865981.63265,-1.76564061641693,1.04927504062653,-9.81301116943359,0.0275347191839556,-0.0143225027755531,-0.00722744882017298,1.30095000591938,3.8278749902378,0.872011955059027
1730865981.68265,-1.76668679714203,1.06127333641052,-9.80043411254883,0.0280113989481587,-0.0147121907681378,-0.00686437300677938,1.30166346719437,3.82508753033524,0.872015088129122
1730865981.7326,-1.75602400302887,1.07175254821777,-9.80214977264404,0.0284141219024424,-0.0150365419400095,-0.00639759503167447,1.3023929419164,3.82229698047869,0.872014078094966
1730865981.78262,-1.76920187473297,1.05045461654663,-9.82007694244385,0.0287427214767689,-0.0152878699320517,-0.00582843927877078,1.30399389929285,3.81814313849022,0.873861861241436
1730865981.83257,-1.77150189876556,1.05015027523041,-9.84186935424805,0.028997389462297,-0.0154587166159743,-0.00515852433831139,1.30450264750255,3.81640919366616,0.874072897537421
1730865981.88255,-1.76637136936188,1.0353684425354,-9.84198474884033,0.0291786447575985,-0.0155427487318801,-0.00439039617590828,1.30320989949176,3.81100301130234,0.876016366785197
1730865981.93254,-1.77603721618652,1.01610898971558,-9.86762714385986,0.0292872927902578,-0.0155351592556325,-0.00352793805069759,1.30319171427653,3.80909192606541,0.876472790359976
1730865981.98255,-1.76343750953674,0.961387991905212,-9.85209846496582,0.0293244011422144,-0.0154324759959958,-0.00257643805646604,1.30319190422828,3.80716437153126,0.876928900633469
1730865982.03259,-1.7791496515274,0.965471982955933,-9.84702682495117,0.0292912835213082,-0.0152321082948436,-0.0015424756905899,1.30321035928418,3.80524164945079,0.877380321363409
1730865982.08257,-1.78255867958069,0.971047103404999,-9.85220432281494,0.0291894662509107,-0.0149319470081321,-0.000433704387739154,1.3021708061482,3.80021007875663,0.878131173726169
1730865982.1326,-1.79582643508911,0.958623111248016,-9.84224796295166,0.0290206068109668,-0.0145301966201185,0.000741394851744245,1.30210628627468,3.79868818177903,0.878424874982746
1730865982.18254,-1.78078269958496,0.928944766521454,-9.85590744018555,0.0287863977060849,-0.014025338813555,0.00197371388523941,1.30206003051578,3.79716268793597,0.878718397268466
1730865982.23247,-1.78993117809296,0.914166808128357,-9.85895347595215,0.0284885300643735,-0.0134160131010486,0.00325365961459002,1.30097018000652,3.78982212023793,0.880024575983292
1730865982.28243,-1.72887563705444,0.920392751693726,-9.8869686126709,0.0281287670736305,-0.0127008319726003,0.00457121901465512,1.30085152223829,3.78824428716738,0.880318058578938
1730865982.33249,-1.68104982376099,0.962044596672058,-9.88410758972168,0.0277091289761128,-0.0118784155922178,0.00591600618309235,1.30075013668303,3.78665653796845,0.880615233586973
1730865982.38242,-1.68104982376099,0.962044596672058,-9.88410758972168,0.027232035438619,-0.0109479029725921,0.00727747576332976,1.30066596233942,3.7850624655899,0.88091637829264
1730865982.43251,-1.65841448307037,1.04215490818024,-9.88492488861084,0.0267002702299609,-0.00990974250322506,0.00864530218574758,1.30018779454466,3.77654878252283,0.882094900169148
1730865982.48342,-1.69527494907379,1.03017783164978,-9.88704586029053,0.0261168899986544,-0.00876631610863846,0.0100096586793194,1.30011712110991,3.77473211105916,0.882393675254809
1730865982.53345,-1.70304846763611,1.08067774772644,-9.8615837097168,0.0254851306889106,-0.0075222464218053,0.0113613143179142,1.30006387604926,3.77293865985176,0.88269454033826
1730865982.58339,-1.71079623699188,1.07155048847198,-9.87658882141113,0.0248082261677439,-0.00618447458485235,0.0126917074136709,1.2994889141166,3.76347030858505,0.882332752415535
1730865982.63338,-1.72981762886047,1.08495938777924,-9.84212112426758,0.0240892063893582,-0.0047621792165689,0.0139930472675978,1.29939778860172,3.76116331488849,0.88243782769521
1730865982.68327,-1.73821580410004,1.09401655197144,-9.82889175415039,0.0233307476859787,-0.00326657380434603,0.0152584346438555,1.2994747299165,3.74801702136639,0.882455384565856
1730865982.73332,-1.70926642417908,1.09616577625275,-9.81002998352051,0.0225350862146152,-0.00171064608621546,0.0164820325052261,1.29947435342029,3.74525009539814,0.882524297444028
1730865982.78326,-1.72090005874634,1.08160293102264,-9.81411838531494,0.0217040636198071,-0.000108872784055015,0.0176592285811528,1.29950041319513,3.73397640608088,0.882639209992351
1730865982.83334,-1.69078123569489,1.10644793510437,-9.82235908508301,0.0208392910501792,0.00152310559848689,0.0187866740860589,1.29952235157754,3.73073993788188,0.882714789479139
1730865982.88323,-1.69235193729401,1.08957302570343,-9.83572864532471,0.0199423474060327,0.00316891280479327,0.0198621183515616,1.29955682696906,3.72753020821787,0.88280182002041
1730865982.93322,-1.67920064926147,1.11522352695465,-9.8637580871582,0.0190149900849651,0.00481212761460338,0.0208839954261341,1.2996035396991,3.72431403159236,0.882901792550402
1730865982.98315,-1.71534991264343,1.10831570625305,-9.87551403045654,0.0180593027386697,0.00643708405761927,0.021850878464034,1.29966167675127,3.72110873209355,0.883014827122487
1730865983.03318,-1.70175492763519,1.11460101604462,-9.87297534942627,0.0170776660764649,0.00802931195139409,0.0227610737502548,1.29973114424723,3.71789010973166,0.883142467855578
1730865983.08315,-1.72474563121796,1.10348212718964,-9.87665748596191,0.016072602574883,0.00957558976966567,0.0236124878709788,1.29971653286765,3.71670579245169,0.88579301228743
1730865983.13324,-1.72379839420319,1.10829186439514,-9.86619186401367,0.0150466259277787,0.0110639240639649,0.0244026781134344,1.29975714763274,3.71496858126533,0.886091325272444
1730865983.18315,-1.74892258644104,1.09052801132202,-9.85448932647705,0.0140021120958841,0.0124835636283864,0.0251289861932517,1.29673161693181,3.70114209199131,0.888985462433707
1730865983.23317,-1.77240192890167,1.04966986179352,-9.82920169830322,0.0129411404704304,0.0138250704102229,0.0257887402211003,1.29621424016582,3.69782363953663,0.889647316800172
1730865983.28313,-1.80045449733734,1.02965891361237,-9.82227325439453,0.0118652761269813,0.0150805147297713,0.0263795130166895,1.29570315228872,3.69450470937999,0.890327428820385
1730865983.33319,-1.80354630947113,0.988169431686401,-9.8297233581543,0.0107753332637319,0.016243764187642,0.026899352233355,1.29350299000729,3.68277545640132,0.889833414433566
1730865983.38313,-1.78938293457031,0.94960618019104,-9.83481311798096,0.00967124634727153,0.0173107773748478,0.0273468734367559,1.29303964583789,3.6799317136807,0.890073842932351
1730865983.43321,-1.76079726219177,0.959880173206329,-9.86942577362061,0.00855222776060788,0.0182797221652618,0.0277212149881862,1.29444367451212,3.66384806898332,0.890348917769754
1730865983.4831,-1.72905957698822,0.976589322090149,-9.88254833221436,0.00741732878767825,0.0191505635718817,0.0280219435595398,1.29455201149303,3.6594332015292,0.890561118416776
1730865983.53311,-1.6965514421463,1.00114619731903,-9.90936088562012,0.0062662155816218,0.0199241759170189,0.0282489319671717,1.29466533617224,3.65500025851103,0.890792238929127
1730865983.58309,-1.68780541419983,1.04492831230164,-9.92502784729004,0.00509976333846758,0.0206015540519252,0.0284021650556462,1.29478256804332,3.65056626732103,0.89104180318859
1730865983.63303,-1.71054637432098,1.06220650672913,-9.91223335266113,0.0039202757857148,0.0211833383602945,0.0284815263954801,1.29490211082799,3.64616415612124,0.891308019925098
1730865983.68301,-1.72884404659271,1.03166031837463,-9.90595626831055,0.00273135977626297,0.021669534121046,0.0284867159919667,1.29570599277496,3.64517254243905,0.890918645693005
1730865983.733,-1.76651191711426,1.02306926250458,-9.8697395324707,0.0015375452093382,0.0220595013353074,0.0284173685917905,1.29711858744221,3.63026268527169,0.888788998702169
1730865983.78297,-1.78795850276947,1.01245379447937,-9.84963893890381,0.000343783141270392,0.0223522143903873,0.0282733264387214,1.29745219030297,3.62622964397106,0.888422763265072
1730865983.83301,-1.75726127624512,1.02388179302216,-9.81447219848633,-0.000844999690080784,0.0225465538772805,0.0280549885377818,1.29884653731091,3.61260757506708,0.885854352777385
1730865983.88302,-1.72585356235504,1.0155987739563,-9.81412887573242,-0.00202407166186866,0.0226414708838585,0.0277636388291082,1.29933240281332,3.60741888689686,0.885110481528128
1730865983.93299,-1.73854768276215,1.01788687705994,-9.8132848739624,-0.00318875680291504,0.0226360576496744,0.0274016397224077,1.29977663617766,3.60267172009826,0.884445119317063
1730865983.98296,-1.74372923374176,1.01105439662933,-9.83091640472412,-0.00433427998862676,0.0225296528181733,0.0269723854104696,1.30022592167451,3.59506909035687,0.88570625425103
1730865984.03301,-1.76549124717712,1.00781607627869,-9.82791614532471,-0.00545586209313622,0.0223220911312044,0.0264799881410124,1.30048809361624,3.59184709756431,0.885588171119295
1730865984.08301,-1.77713942527771,0.991449475288391,-9.83285236358643,-0.00654900244606976,0.0220140305637337,0.0259288705272334,1.30160822732915,3.58071285692787,0.885891849214551
1730865984.13306,-1.76701819896698,0.987955868244171,-9.83788585662842,-0.00760973359880539,0.0216071685513036,0.025323499962991,1.30195514280092,3.57697753202054,0.885887139670366
1730865984.18294,-1.75500953197479,0.941633343696594,-9.84298515319824,-0.00863470619503043,0.0211043336191676,0.0246682790462667,1.30300830861223,3.56645682285316,0.885977720491511
1730865984.23303,-1.76935970783234,0.93175220489502,-9.85207843780518,-0.0096211187127502,0.0205095989003894,0.0239674717968876,1.30336094977066,3.56273249800067,0.886001524484741
1730865984.28291,-1.76760828495026,0.973117113113403,-9.87411022186279,-0.0105666361531146,0.0198283817127132,0.0232251070831945,1.30468277214157,3.55318718192969,0.88600993500749
1730865984.33294,-1.75310051441193,1.03554129600525,-9.88809108734131,-0.0114693637588359,0.0190672526388728,0.0224448366528054,1.30502076095478,3.55020145739215,0.886039864026211
1730865984.3829,-1.74027192592621,1.10372304916382,-9.89394283294678,-0.0123277829889154,0.0182333072351061,0.0216297697289183,1.30534992071648,3.54723972351978,0.886083435994988
1730865984.4329,-1.71569550037384,1.12841856479645,-9.89376926422119,-0.0131405866738132,0.017333311362239,0.0207823658672523,1.30636634400266,3.53857806163293,0.88602265175527
1730865984.48287,-1.7093425989151,1.1048458814621,-9.89311981201172,-0.0139064608812626,0.0163730238414653,0.0199044341667538,1.30663692627939,3.5360668856045,0.886052437603813
1730865984.53296,-1.70153248310089,1.07376623153687,-9.87398338317871,-0.014623934680436,0.0153570627963163,0.0189972658221801,1.3069010059275,3.53354251574771,0.886094771500433
1730865984.58278,-1.68859529495239,1.08986461162567,-9.83182144165039,-0.015291417542036,0.0142893691345857,0.018061987291665,1.307151597456,3.53106779818941,0.886147894494159
1730865984.63284,-1.6946405172348,1.09533512592316,-9.82016563415527,-0.0159073557106064,0.0131738121997963,0.0171001012438858,1.30827892311163,3.52412478286144,0.886024535975194
1730865984.68279,-1.70645081996918,1.09038352966309,-9.81499099731445,-0.0164703471683339,0.0120144538834687,0.0161139386701435,1.30852410477064,3.52207006366285,0.886050473940358
1730865984.73283,-1.73288190364838,1.12455177307129,-9.79418277740479,-0.0169792416394827,0.0108154964177193,0.0151068410412576,1.30967849102191,3.50997122713749,0.884239795527076
1730865984.78281,-1.74724018573761,1.14162027835846,-9.79966926574707,-0.0174333223241069,0.00958110490523574,0.0140831709468435,1.31000029003846,3.50663468668658,0.883907987638089
1730865984.83286,-1.78012013435364,1.12701690196991,-9.79018115997314,-0.0178325459028288,0.00831518128230619,0.0130482589576323,1.31031198090974,3.50329382050256,0.883583704742251
1730865984.88278,-1.80647301673889,1.05418658256531,-9.81400489807129,-0.0181777921810404,0.00702130097995605,0.0120082763411726,1.31061514227524,3.49992622837912,0.88326433858985
1730865984.93277,-1.79140710830688,0.997020542621613,-9.81450080871582,-0.0184710739129216,0.00570305369275216,0.0109700148375868,1.31147410896272,3.49511463827362,0.882339327649432
1730865984.98272,-1.81413638591766,0.988487720489502,-9.82939147949219,-0.0187156063093741,0.00436467371821977,0.00994060978899351,1.31169947341865,3.49298146031075,0.882103206266473
1730865985.03278,-1.79770600795746,0.980342030525208,-9.84432029724121,-0.018915720803301,0.0030115429772519,0.0089272644647535,1.31190547440832,3.49092426545438,0.881881053820886
1730865985.08274,-1.77139937877655,0.981299161911011,-9.87798881530762,-0.0190766130873856,0.00165024219543371,0.00793697381138606,1.31329861232248,3.48121900546826,0.880591035391909
1730865985.13278,-1.71804940700531,1.01244962215424,-9.93563365936279,-0.0192037557544076,0.000288076036622925,0.00697617907957267,1.31355398945117,3.47901090395387,0.880332985015985
1730865985.18263,-1.68361055850983,1.02129590511322,-9.95579338073731,-0.0193020280520827,-0.00106769167366071,0.00605031790563001,1.31379539729267,3.47682016262253,0.880081029857803
1730865985.23264,-1.66958343982697,1.02097260951996,-9.98298263549805,-0.0193749775857236,-0.00241043201065462,0.00516337560084578,1.31402617995594,3.47461545641287,0.879831084589145
1730865985.2826,-1.68204271793365,1.02095901966095,-9.98202800750732,-0.0194244896447702,-0.0037343659305431,0.00431760743084326,1.31525307212732,3.46255007050845,0.878734601367269
1730865985.33282,-1.68615531921387,1.04480600357056,-9.94004535675049,-0.0194508301846827,-0.005034577030023,0.00351353173018019,1.31547437430624,3.46022408700991,0.878505726984109
1730865985.38262,-1.69026839733124,1.0727926492691,-9.8845911026001,-0.0194529052633873,-0.00630705326373279,0.00275026392572331,1.31751402255482,3.4485131166896,0.877033592698922
1730865985.43271,-1.67506766319275,1.09510314464569,-9.83919620513916,-0.0194285498564787,-0.00754884539287573,0.00202617231296541,1.31792169833671,3.445626057359,0.876698634018152
1730865985.48255,-1.69607615470886,1.0948531627655,-9.80368900299072,-0.0193747444945784,-0.00875825838273816,0.00133964429922053,1.31831415522218,3.44275595531057,0.876367283744818
1730865985.53262,-1.72246623039246,1.08729732036591,-9.75157260894775,-0.0192878349961055,-0.00993491812255441,0.000689747210081279,1.31975523331606,3.4297667716315,0.877647092661152
1730865985.58259,-1.74270367622376,1.06764626502991,-9.74773025512695,-0.019163868832704,-0.0110796372774072,7.67197553339436E-05,1.32009823186237,3.42672907534955,0.87768409493574
1730865985.63263,-1.73652923107147,1.09337627887726,-9.76123142242432,-0.0189990142920122,-0.0121940580809699,-0.000497874833393558,1.32240415127315,3.41099915538817,0.878566301842397
1730865985.68249,-1.73235321044922,1.12094104290009,-9.78426170349121,-0.0187899370877732,-0.0132800895527265,-0.00103163143214475,1.32300677904344,3.40646248613059,0.87873888399008
1730865985.7325,-1.70229697227478,1.17846870422363,-9.81755924224854,-0.0185340034087415,-0.01433945273059,-0.00152223011776693,1.32359023378627,3.40197442717993,0.878908499862495
1730865985.78247,-1.68604850769043,1.19862997531891,-9.86282062530518,-0.0182292129840058,-0.0153737340674742,-0.00196821871365218,1.32416529233545,3.39745388304063,0.879077910012843
1730865985.83239,-1.68604850769043,1.19862997531891,-9.86282062530518,-0.0178739506334512,-0.0163847903969451,-0.002369460579731,1.32445844183311,3.39123361500989,0.879614098032926
1730865985.8824,-1.72776460647583,1.24221956729889,-9.87636852264404,-0.0174668202070284,-0.0173750638398388,-0.00272735390783395,1.3247298921653,3.38856871259519,0.879735421773836
1730865985.93248,-1.74583303928375,1.2251580953598,-9.87302684783936,-0.0170067452192316,-0.0183477268984851,-0.00304484072928263,1.32693116401843,3.37139768051623,0.880644871391117
1730865985.98234,-1.74583303928375,1.2251580953598,-9.87302684783936,-0.0164932462212654,-0.0193067214274775,-0.00332625811234394,1.32750632599234,3.36657759549182,0.880881893340449
1730865986.03243,-1.77847981452942,1.16624128818512,-9.86202430725098,-0.0159266714083183,-0.0202566002265282,-0.00357711205550888,1.32919958141232,3.35481548111666,0.881679602524164
1730865986.08341,-1.82829213142395,1.09251987934113,-9.83261013031006,-0.015308370662248,-0.0212020708056403,-0.00380378207058739,1.32980331283248,3.35010103288013,0.881951029140877
1730865986.13235,-1.7940286397934,1.03036594390869,-9.82827281951904,-0.0146409070025746,-0.0221472500792312,-0.00401315041502438,1.33034957758994,3.34575254681195,0.882198311663777
1730865986.1823,-1.76107692718506,1.00078225135803,-9.8305721282959,-0.0139280911010182,-0.0230949145072991,-0.00421217559976962,1.33187899302302,3.33545200736755,0.881911620299552
1730865986.23342,-1.73898386955261,0.976126313209534,-9.86747932434082,-0.0131745799432259,-0.0240462056893542,-0.00440745282404473,1.33236908271478,3.33168074673434,0.881991326285604
1730865986.28227,-1.71665990352631,0.961865305900574,-9.8866548538208,-0.0123852389085194,-0.0250007969550261,-0.0046049347980554,1.33418771108218,3.31955848224699,0.882052621898643
1730865986.33336,-1.70383620262146,0.935012102127075,-9.91744422912598,-0.0115646351366625,-0.025957066352789,-0.00481000339935131,1.3347684762397,3.31533286533248,0.882109011355474
1730865986.38325,-1.67404448986053,0.890020132064819,-9.92084217071533,-0.0107167330494673,-0.0269120519536661,-0.00502777294019382,1.33535847605235,3.31096986857465,0.882163789701923
1730865986.43329,-1.71755957603455,0.923788487911224,-9.90382289886475,-0.00984472845687322,-0.027861328211461,-0.00526332307856629,1.33590612477039,3.30685767470763,0.882212113006957
1730865986.4832,-1.71228098869324,0.951262414455414,-9.86517429351807,-0.00895107767737327,-0.0287990651730041,-0.00552167898899358,1.33703523537759,3.29979400092084,0.881649347475578
1730865986.5332,-1.70684313774109,0.97887134552002,-9.85363006591797,-0.00803769733857973,-0.0297184249134492,-0.00580754048071605,1.33739004863956,3.29718249325795,0.881615643444225
1730865986.58319,-1.68314564228058,0.970668971538544,-9.84888648986816,-0.00710610782678147,-0.0306121155554093,-0.00612494188086833,1.33997496939444,3.28319933875051,0.88119623019184
1730865986.63315,-1.68827426433563,0.938607096672058,-9.83388710021973,-0.00615740911488193,-0.0314727702450731,-0.0064770339585015,1.34420240537186,3.2684581565558,0.880818172843173
1730865986.68309,-1.64872419834137,0.93311870098114,-9.85664653778076,-0.00519218556340889,-0.032293014316523,-0.00686601896503481,1.34546216508642,3.26337405934565,0.880690199447059
1730865986.73324,-1.65031409263611,0.99140602350235,-9.86914539337158,-0.00421049683313269,-0.0330654312843024,-0.00729319053807922,1.34669959482409,3.2583479868853,0.88055980079279
1730865986.78312,-1.65365493297577,1.05309867858887,-9.8663854598999,-0.00321217106077236,-0.0337828223762184,-0.00775899553028799,1.34796872997125,3.25316201172316,0.880420976123298
1730865986.83315,-1.6711368560791,1.10382199287415,-9.88141345977783,-0.00219736192880828,-0.0344388662174813,-0.00826305893477858,1.34965977915658,3.24955808609956,0.880346801998142
1730865986.88309,-1.6711368560791,1.10382199287415,-9.88141345977783,-0.00116697079597383,-0.0350288421275174,-0.00880424920837964,1.35363420033257,3.23613245711429,0.880189625882307
1730865986.93311,-1.70005238056183,1.10529446601868,-9.90708255767822,-0.00012277960987037,-0.0355500323186767,-0.00938084786845774,1.35470250092714,3.23235032301537,0.880120469693529
1730865986.98308,-1.73378014564514,1.0643322467804,-9.90074157714844,0.00093248095673092,-0.0360016903897131,-0.00999076837448978,1.35897418780046,3.22275973387426,0.880362933003463
1730865987.03302,-1.78095006942749,1.00274300575256,-9.88818740844727,0.00199495150256383,-0.0363846368516729,-0.0106317267924346,1.36021894728369,3.21940269879156,0.880372748391736
1730865987.0831,-1.84232604503632,0.925354480743408,-9.86498165130615,0.00305933176690511,-0.0367005400352187,-0.0113012641810112,1.36151582593225,3.21588563780815,0.88037577079408
1730865987.133,-1.8662633895874,0.959105968475342,-9.82202434539795,0.00411850315645863,-0.0369510762969861,-0.011996587232888,1.36356071151071,3.20426702594469,0.880588387811471
1730865987.18295,-1.86591017246246,1.02110350131989,-9.78867912292481,0.00516326188624258,-0.0371374446498904,-0.0127142675033153,1.36798924044854,3.18791177353522,0.880777315381282
1730865987.23301,-1.8529464006424,1.06073129177094,-9.74617099761963,0.00618236073419225,-0.0372605661618844,-0.0134498715430979,1.36936064389696,3.18287325742228,0.880815121322938
1730865987.28292,-1.80710792541504,1.08416795730591,-9.73522186279297,0.00716304466729443,-0.0373216161204368,-0.0141977485820419,1.37320464175921,3.17075723172043,0.881008243356633
1730865987.3329,-1.77425229549408,1.09493708610535,-9.74527454376221,0.00809224967229723,-0.0373222338977918,-0.0149513289344116,1.37464453136981,3.16593329020026,0.881051056820801
1730865987.38291,-1.76093912124634,1.10833716392517,-9.783616065979,0.00895809404691944,-0.0372643431601414,-0.0157038795024269,1.37613297698796,3.1609411714316,0.881085464535616
1730865987.43289,-1.71407520771027,1.13251197338104,-9.81420707702637,0.00975087498777442,-0.0371500348232968,-0.0164492232436731,1.37758979121818,3.15605153012952,0.881109086894437
1730865987.48287,-1.71407520771027,1.13251197338104,-9.81420707702637,0.0104634278927129,-0.0369816864445203,-0.0171821866513433,1.37772306251447,3.15295301432213,0.881011740549894
1730865987.53282,-1.72280478477478,1.17361950874329,-9.84845638275147,0.011091187609072,-0.03676214900195,-0.0178988497440122,1.38145562219015,3.14191221225271,0.880996950892769
1730865987.58283,-1.77290201187134,1.21415269374847,-9.90110683441162,0.0116319945890752,-0.0364949567018149,-0.0185967177799945,1.38260176617041,3.1382879403612,0.880976348104021
1730865987.63284,-1.75905501842499,1.1910924911499,-9.93851947784424,0.0120856271629463,-0.0361845805490751,-0.019274971570636,1.38366993147031,3.13491092433858,0.880945911796033
1730865987.6828,-1.73301231861115,1.16854417324066,-9.9509449005127,0.0124533267970142,-0.0358365249931898,-0.0199347779048986,1.38480243445946,3.13133225095152,0.880901619514101
1730865987.7327,-1.73301231861115,1.16854417324066,-9.9509449005127,0.0127375866411419,-0.0354571088725496,-0.0205794422438913,1.38657320041234,3.12367756932862,0.88098135411721
1730865987.78279,-1.73645126819611,1.05917418003082,-9.94207191467285,0.0129421183621234,-0.0350530228801368,-0.0212142850690541,1.38729603937876,3.12113857237084,0.880952195952
1730865987.83279,-1.73735511302948,1.03225004673004,-9.91882991790772,0.0130716963331744,-0.0346307399009721,-0.0218461292998658,1.38984422376323,3.10635545711113,0.880979102944634
1730865987.88272,-1.73735511302948,1.03225004673004,-9.91882991790772,0.0131317315488869,-0.0341959661111319,-0.0224822025664052,1.39074050639056,3.10198021631464,0.880949675174028
1730865987.9328,-1.70526421070099,1.03511238098145,-9.84923362731934,0.0131277848335638,-0.0337534456370551,-0.0231287670845029,1.39307486465862,3.09257378261697,0.880976389543782
1730865987.98269,-1.74676287174225,1.06504619121552,-9.78439903259277,0.0130653350808383,-0.0333070883140181,-0.0237901147113223,1.39397749297113,3.08866962418196,0.880944839745439
1730865988.03274,-1.78328001499176,1.04294228553772,-9.76693439483643,0.0129496877715533,-0.0328601828597171,-0.0244679853983675,1.39489420319468,3.08471906698003,0.88089797621681
1730865988.0827,-1.76014506816864,1.03574919700623,-9.74085903167725,0.0127857507216921,-0.0324155435365092,-0.0251612273305301,1.39602175450283,3.07797518931786,0.880972284147409
1730865988.13278,-1.74610638618469,1.0197616815567,-9.77653121948242,0.0125778438729751,-0.0319755037059796,-0.0258657785534049,1.39656511766373,3.07542365195354,0.880936907537785
1730865988.18265,-1.69725942611694,1.03520858287811,-9.78740978240967,0.0123298150811754,-0.031541829089471,-0.026575016642051,1.39714117815568,3.07273652302948,0.880882324102013
1730865988.23273,-1.67021310329437,1.03363394737244,-9.81984710693359,0.0120454177653907,-0.0311157070337773,-0.0272803650296814,1.39912988797265,3.06228292087275,0.880970800888787
1730865988.28268,-1.64487791061401,1.05800950527191,-9.8371696472168,0.0117287595097466,-0.0306978570108517,-0.0279719807002049,1.39974545091249,3.0592715945045,0.880933165693629
1730865988.33273,-1.66637825965881,1.05003094673157,-9.87773704528809,0.0113846276678006,-0.030288707025053,-0.0286394081956843,1.40037016680928,3.05623181032254,0.880877675790108
1730865988.38268,-1.67239940166473,1.03761339187622,-9.87703609466553,0.0110184859327078,-0.029888528344252,-0.0292722061899324,1.40256795090966,3.05004586896767,0.880967683635416
1730865988.43268,-1.72892725467682,1.01715111732483,-9.89578628540039,0.0106360172929701,-0.0294974173545072,-0.0298605577617208,1.40317802945607,3.04773445471927,0.880926613939504
1730865988.48258,-1.72892725467682,1.01715111732483,-9.89578628540039,0.010242396596842,-0.0291151450397046,-0.030395762683161,1.40546586742744,3.03760191924642,0.880967887409065
1730865988.53267,-1.82139730453491,0.957509875297546,-9.89642333984375,0.00984165466082482,-0.028740974410745,-0.0308704829556835,1.40815361276297,3.02724662781268,0.879136362092479
1730865988.58255,-1.79520452022553,0.978837668895721,-9.89189910888672,0.00943623680816605,-0.0283734623292093,-0.0312787565284873,1.40897714684153,3.02397500487621,0.878728338417724
1730865988.63277,-1.75018632411957,1.0390020608902,-9.90385723114014,0.00902680716521187,-0.0280103761597596,-0.0316159089106209,1.40980912606572,3.02067518000633,0.87829918450404
1730865988.68263,-1.70026075839996,1.07270610332489,-9.91929244995117,0.00861253410247863,-0.0276489901999224,-0.0318784862757574,1.41181233652325,3.01283071773301,0.876544168712739
1730865988.73274,-1.66676092147827,1.065220952034,-9.91917037963867,0.0081917988991282,-0.0272866594364272,-0.0320642563709935,1.41247281208727,3.01021616693149,0.876094546419498
