Timestamp,IMU_Linear_Acc_X,IMU_Linear_Acc_Y,IMU_Linear_Acc_Z,Filtered_X,Filtered_Y,Filtered_Z,Pose_X,Pose_Y,Pose_Z
1731474136.2091148,-0.3425276577472687,0.41691985726356506,-9.980188369750977,-1.3318100983594215e-05,-5.762517323554206e-05,2.765723011147101e-05,2.238374979080618,7.436550747011464,0.8036337835203571
1731474136.25901,-0.34130141139030457,0.4240894317626953,-9.983531951904297,-1.7464270351747588e-05,-8.108071095877013e-05,3.8827220412798425e-05,2.2783370877729583,7.437551767461685,0.8197687110445195
1731474136.3090398,-0.3349152207374573,0.42120271921157837,-9.987563133239746,-2.226438352189673e-05,-0.00011004759942852922,5.276445691602092e-05,2.2784887756419683,7.43828028184429,0.8198261102337437
1731474136.3588867,-0.27416113018989563,0.43637028336524963,-9.988398551940918,-2.785512151380339e-05,-0.00014474621399264913,6.978866931354673e-05,2.3096210868046696,7.438945562007058,0.831146953272871
1731474136.408835,-0.46316227316856384,0.3740302622318268,-9.99268913269043,-3.454080472005987e-05,-0.00018523679838715662,9.016858518442697e-05,2.309770987959887,7.439734657343945,0.8312036510832359
1731474136.4588637,-0.46316227316856384,0.3740302622318268,-9.99268913269043,-4.243589187691375e-05,-0.0002312928117931599,0.00011408672738538571,2.3099199778833093,7.440518955846903,0.8312600045352483
1731474136.4588637,-0.7430660724639893,0.23497319221496582,-10.004386901855469,-5.0445231422717546e-05,-0.00028203410776661764,0.00014160758216740248,2.309941529528991,7.44063240595662,0.8312681561864207
1731474136.5088224,-0.1835746020078659,0.5284029841423035,-9.957141876220703,-5.533241883297418e-05,-0.0003355865955827343,0.00017267643274722735,2.3145622047942034,7.464956067343396,0.8330161116491076
1731474136.5587819,-0.1835746020078659,0.5284029841423035,-9.957141876220703,-5.2417122338961115e-05,-0.0003895020090829113,0.00020723843883302845,2.3192112625620522,7.489428939369625,0.8347753295126177
1731474136.5587819,-0.32869449257850647,0.37620213627815247,-10.047292709350586,-3.773496066410279e-05,-0.00044181892145872683,0.00024536843986235735,2.3192400561083493,7.489580509140783,0.8347862268542992
1731474136.6086814,-0.3212164640426636,0.5026140809059143,-9.98022747039795,-9.22870802434865e-06,-0.0004915092017551531,0.0002871433242088732,2.3479879870980724,7.513826978286389,0.8453629926844354
1731474136.6586556,-0.3097893297672272,0.373074471950531,-9.942727088928223,3.374959100133934e-05,-0.0005381310331507207,0.0003324692350690819,2.352015364162179,7.538269781407099,0.8469024352371616
1731474136.7085814,-0.3097893297672272,0.373074471950531,-9.942727088928223,9.107529698440501e-05,-0.0005814155159765528,0.0003812781649368035,2.3706951927983875,7.562687600377905,0.854015931449563
1731474136.7085814,-0.36415764689445496,0.45885133743286133,-10.01577377319336,0.0001620512587552604,-0.0006209413666250341,0.0004338186921584561,2.3707153968781105,7.5628314680759665,0.8540239358177255
1731474136.7586725,-0.3174515664577484,0.43460458517074585,-9.97563648223877,0.00024559963722238347,-0.00065609924387101,0.0004905706565359786,2.374138814613094,7.587205681342996,0.8553807029143583
1731474136.808501,-0.37348827719688416,0.42250683903694153,-9.971975326538086,0.00034048941793676725,-0.0006863776797750141,0.0005519884876402188,2.386997585855741,7.611760252308901,0.8605566600331471
1731474136.858473,-0.37348827719688416,0.42250683903694153,-9.971975326538086,0.0004455115655556112,-0.0007114909602585225,0.0006184629440490876,2.389817635041243,7.635988219003716,0.8617444915844085
1731474136.858473,-0.3333224654197693,0.4560640752315521,-10.020543098449707,0.0005596299351051237,-0.0007313059149864387,0.0006903768290573762,2.3898344463713164,7.6361326171611825,0.8617515758519545
1731474136.9084017,-0.3333224654197693,0.4560640752315521,-10.020543098449707,0.0006819757880462004,-0.0007458785757874518,0.0007679720152375501,2.3927343573735538,7.661032311740999,0.8629742210233585
1731474136.9084017,-0.3716474175453186,0.4254069924354553,-9.993083000183105,0.0008116946739355403,-0.0007555701813094758,0.0008511295607403002,2.3994467841413147,7.661057145911382,0.8655480942325237
1731474136.9583972,-0.30855798721313477,0.4505065679550171,-9.975634574890137,0.0009478851669770878,-0.0007610322548780987,0.0009393611729244931,2.4017909839583904,7.684854994981883,0.8665673846619901
1731474137.0092394,-0.33945232629776,0.44332513213157654,-10.006049156188965,0.001089582720619773,-0.0007631057614087208,0.0010320066197717541,2.408074455381435,7.709633898464421,0.8693836363597206
1731474137.0592687,-0.30693483352661133,0.45724576711654663,-9.974886894226074,0.0012356551240460692,-0.0007627959888153993,0.0011283753166851005,2.4100235248355797,7.734117162564005,0.8703037697051931
1731474137.1091747,-0.30693483352661133,0.45724576711654663,-9.974886894226074,0.0013846943562770184,-0.0007613108369602616,0.0012277911589056198,2.414515230138893,7.75851516380339,0.8722986553701151
1731474137.1091747,-0.3404017686843872,0.42924872040748596,-9.97957992553711,0.0015349806840938994,-0.0007600628170284266,0.0013296654704523267,2.4145248039901195,7.7586594485986,0.872303432565408
1731474137.159192,-0.33027854561805725,0.4503231644630432,-9.993732452392578,0.0016845699210127393,-0.0007605826991384152,0.001433543093293615,2.416140064468855,7.78297002233855,0.873110159645475
1731474137.2090607,-0.3312438130378723,0.4298307001590729,-9.984983444213867,0.001831464949848499,-0.0007644008974775464,0.0015390447239084942,2.4177798594532183,7.807581148659665,0.8739306753498046
1731474137.2591295,-0.3312438130378723,0.4298307001590729,-9.984983444213867,0.0019737166031195915,-0.0007729663191777977,0.00164579584548267,2.4208082629790986,7.83180611455493,0.8752564414312153
1731474137.2591295,-0.32849225401878357,0.44427555799484253,-9.991825103759766,0.0021094371324072362,-0.0007875913273483729,0.001753414221474514,2.4208162743408415,7.831950228535035,0.8752606291311845
1731474137.308942,-0.32849225401878357,0.44427555799484253,-9.991825103759766,0.002236800153577077,-0.0008094499527416335,0.0018615077883973373,2.422164031258858,7.856143969579238,0.8759659830844493
1731474137.308942,-0.3466336131095886,0.43178790807724,-9.988767623901367,0.0023540588902831393,-0.0008396283043196866,0.001969652794908489,2.4221724296356855,7.856294415180312,0.8759703837155765
1731474137.3589773,-0.3226473927497864,0.4400995373725891,-9.986501693725586,0.0024595932780870555,-0.0008791339221722907,0.0020773905931273364,2.4243337248044545,7.880630928827328,0.8769648434470441
1731474137.4088914,-0.3401765823364258,0.42628738284111023,-10.006254196166992,0.002551940623217587,-0.0009288525636077514,0.002184237908652523,2.4254487766138535,7.905190284243407,0.8775861386897053
1731474137.4588525,-0.3401765823364258,0.42628738284111023,-10.006254196166992,0.002629794771018019,-0.0009894995149435089,0.002289647631426432,2.426772343817522,7.929424216653328,0.8782404713881213
1731474137.4588525,-0.32638588547706604,0.4399968981742859,-9.992179870605469,0.002692017783321585,-0.001061585992712409,0.0023929414966534493,2.426777793536697,7.929571166442362,0.8782437171312184
1731474137.50879,-0.32638588547706604,0.4399968981742859,-9.992179870605469,0.0027376283772812824,-0.0011454432363080984,0.002493319554747965,2.427676655458962,7.953716421852877,0.878780122513565
1731474137.50879,-0.3352645933628082,0.4304140508174896,-9.980989456176758,0.002765748523589012,-0.0012412905609075265,0.002589956743769278,2.4276826102709075,7.953875773224967,0.8787836831006027
1731474137.5588923,-0.33292460441589355,0.43939563632011414,-9.997173309326172,0.0027755885044256044,-0.0013492641759176999,0.002682093754769377,2.4285969137243493,7.978247740287501,0.8793316588481126
1731474137.6086698,-0.3363683819770813,0.4308415949344635,-9.980420112609863,0.0027664838001542967,-0.001469404743831796,0.002769067447681001,2.4296540909664257,8.00304108332605,0.8796524946046987
1731474137.6586838,-0.3302421271800995,0.4421899914741516,-9.979595184326172,0.002737921539972805,-0.0016016559651192913,0.0028503200174907076,2.4304196153273208,8.026950552165392,0.8801181878602407
1731474137.7086177,-0.3302421271800995,0.4421899914741516,-9.979595184326172,0.0026895316337433614,-0.0017458893208467728,0.0029254371490878544,2.430601133328717,8.051276433378511,0.8802887310194262
1731474137.7086177,-0.3371421694755554,0.43059173226356506,-9.996553421020508,0.002621065347897167,-0.0019019355909318824,0.0029941686918064153,2.430632745177533,8.052534064897214,0.8803100954106486
1731474137.758543,-0.3371421694755554,0.43059173226356506,-9.996553421020508,0.0025323985145739615,-0.002069575353704878,0.0030563666396993686,2.431217345959355,8.075669407137452,0.8807067766544013
1731474137.758543,-0.3301190137863159,0.4375700056552887,-9.977168083190918,0.0024235526141102863,-0.0022484940193514785,0.0031119011131882216,2.431221122354234,8.075818112229678,0.8807093488731681
1731474137.8085432,-0.3301190137863159,0.4375700056552887,-9.977168083190918,0.0022946853497002777,-0.0024382743043029507,0.003160671001083714,2.4318393836524095,8.100048418945189,0.8811324490205839
1731474137.8085432,-0.34019094705581665,0.43010377883911133,-9.982741355895996,0.002146059022838604,-0.0026384282726426276,0.0032026883357494994,2.4318450877848874,8.100270913653272,0.8811363707891566
1731474137.8584952,-0.33192288875579834,0.43809831142425537,-9.991263389587402,0.0019780387006605705,-0.0028484104569123357,0.0032381063298341176,2.4324673211288936,8.124442360898488,0.8815665036069689
1731474137.9083514,-0.34595686197280884,0.4304082989692688,-9.981121063232422,0.0017911168325855896,-0.0030676122800662596,0.003267165334163047,2.431879977815782,8.149481812064248,0.88137787214932
1731474137.9583144,-0.34595686197280884,0.4304082989692688,-9.981121063232422,0.0015859437596360676,-0.0032953590948926483,0.0032901504958932075,2.43232304627281,8.173052066591572,0.8817359351769843
1731474137.9583144,-0.3420066237449646,0.443705290555954,-9.989968299865723,0.00136336094908844,-0.003530912631469815,0.0033073958193138423,2.4323261321988063,8.173215515142855,0.881738445475583
1731474138.0092392,-0.34163692593574524,0.42966023087501526,-9.989768028259277,0.0011244036746727514,-0.0037734963646053076,0.00331927299197827,2.431258670479516,8.197828700106273,0.8803883853373401
1731474138.0592258,-0.33824580907821655,0.44014066457748413,-9.97556209564209,0.0008702590298762286,-0.0040223268536649145,0.0033261590303409697,2.431520717900803,8.22224228444737,0.8805656770573312
1731474138.1091983,-0.341629296541214,0.4363786280155182,-9.98953914642334,0.000602215707981445,-0.004276623433155415,0.0033284414911468607,2.4317857811513157,8.246752748972934,0.8807521723241715
1731474138.1591976,-0.3402191698551178,0.43175989389419556,-9.978646278381348,0.00032163267439952497,-0.004535610718704999,0.003326543733495326,2.4320485233865616,8.270931160996257,0.8809445019640979
1731474138.209059,-0.3476492762565613,0.432100772857666,-9.985774040222168,2.9930712797306808e-05,-0.004798509228362585,0.0033209254562140684,2.432311399328943,8.295070439141583,0.8811448114629693
1731474138.2590916,-0.33999305963516235,0.4344528317451477,-9.983550071716309,-0.00027140216009109307,-0.0050645137347822685,0.0033120715030219307,2.4311588011480447,8.319375104903093,0.880063136314907
1731474138.3088815,-0.34422069787979126,0.4327370822429657,-9.9750337600708,-0.0005808146709960704,-0.005332790067720169,0.0033004879962650327,2.431312593312275,8.343495338040881,0.8801889142854334
1731474138.3589008,-0.3437175154685974,0.44072937965393066,-9.988846778869629,-0.0008967126260760132,-0.005602495205862924,0.0032867090882943133,2.4314656468775335,8.367775247723419,0.8803238091304102
1731474138.4087975,-0.34332624077796936,0.4315757751464844,-9.98684024810791,-0.0012174766380019916,-0.005872804144278542,0.0032712873733757915,2.4297913022629425,8.392391624426088,0.8790043127506946
1731474138.458818,-0.33988749980926514,0.436118483543396,-9.992659568786621,-0.0015414770330047802,-0.006142923154252597,0.003254745693527467,2.429803818955169,8.416225670526439,0.8790534378688241
1731474138.5087607,-0.3460216820240021,0.428290456533432,-9.99396800994873,-0.0018670956020418314,-0.006412078033286604,0.0032375229275447494,2.4298123410767856,8.440536321078318,0.8791116702762438
1731474138.5588555,-0.32766076922416687,0.4385663866996765,-9.993430137634277,-0.002192752720399778,-0.00667949710633822,0.0032199412366649984,2.428346817839504,8.464666735504043,0.8776575872594243
1731474138.6086557,-0.3306537866592407,0.4353063106536865,-9.987985610961914,-0.0025169589057565988,-0.006944417277364437,0.0032022009538851723,2.4282455199067003,8.489328748610074,0.8776256711936797
1731474138.6586676,-0.3333236277103424,0.4373985528945923,-9.995209693908691,-0.0028383822941864555,-0.007206111145814542,0.0031844029962294572,2.4270101758173754,8.512932667530485,0.8760590224522339
1731474138.7086084,-0.3319365978240967,0.4339129328727722,-9.97912311553955,-0.003155873923999116,-0.007463905256587545,0.0031665815848713275,2.4258005201841377,8.537001943758737,0.8757108268274506
1731474138.758562,-0.333381712436676,0.4398839473724365,-9.9823637008667,-0.003468446739503255,-0.007717180303054978,0.0031487502093169055,2.4255258056806417,8.561038956313961,0.8755978073116775
1731474138.8085184,-0.3302189111709595,0.438150554895401,-9.991358757019043,-0.0037752542637197943,-0.00796537513712208,0.0031309507874458953,2.4252411799911857,8.5851334849955,0.8754922535078984
1731474138.8586066,-0.3308621346950531,0.44120118021965027,-9.983616828918457,-0.004075584115625924,-0.00820800221826547,0.0031132575709548614,2.424945598117433,8.609300520131141,0.8753941344704794
1731474138.8586066,-0.3308621346950531,0.44120118021965027,-9.983616828918457,-0.0043688565975224265,-0.008444662087988912,0.0030957536796632134,2.424687324238156,8.616688446105071,0.8752061924543585
1731474139.2399957,-0.3376094102859497,0.43933042883872986,-9.987139701843262,-0.004654612073478358,-0.008675048855382244,0.003078532222696648,2.4219836926267604,8.791886275348125,0.8746916724764863
1731474139.2900891,-0.3423849642276764,0.43753117322921753,-9.985186576843262,-0.004932470630023216,-0.008898941151684355,0.003061702574793817,2.421624320881736,8.815823077260282,0.8746861223545135
1731474139.3398674,-0.34360605478286743,0.4366273581981659,-9.992426872253418,-0.00520207001180168,-0.009116177962746275,0.0030453750779705895,2.421311260107985,8.839339042054506,0.8745755681219138
1731474139.389985,-0.3389294445514679,0.4368346929550171,-9.979833602905273,-0.005463018103823608,-0.009326632716474534,0.0030296426598720077,2.420930468603358,8.863284197456773,0.8745835086235109
1731474139.4397805,-0.3331068754196167,0.42958614230155945,-9.990646362304688,-0.005714895736743372,-0.009530191745779765,0.0030145825893948407,2.420525162417496,8.887825060516144,0.8745995731627343
1731474139.4898527,-0.335146963596344,0.4248596131801605,-9.98840618133545,-0.005957303164587096,-0.009726720764523236,0.0030002645101585316,2.420129572707799,8.910898228389822,0.874621982836172
1731474139.539713,-0.3328384459018707,0.4296468496322632,-9.984148025512695,-0.006189905853985245,-0.00991601906592352,0.0029867428638640043,2.420008207416944,8.934199364503414,0.874500690625878
1731474139.5897124,-0.3308675289154053,0.4361976087093353,-9.986226081848145,-0.006412455239678336,-0.010097805258996033,0.002974056229345783,2.419591833932248,8.95795609674309,0.8745332567010543
1731474139.639718,-0.3300713300704956,0.44613346457481384,-9.986385345458984,-0.006624799529067225,-0.010271769448556282,0.002962242631973982,2.4189201314755207,8.9815057463341,0.874436217392508
1731474139.6895943,-0.3355879783630371,0.4400116503238678,-9.9830961227417,-0.006826888781910236,-0.010437661855128125,0.0029513473233580504,2.418447414623494,9.005057451966787,0.874477351950419
1731474139.7396622,-0.3371192514896393,0.4425605237483978,-9.980547904968262,-0.007018755415350693,-0.010595350761144439,0.00294143036865536,2.4179536667929935,9.028767854641806,0.8745261796770413
1731474139.789675,-0.33719924092292786,0.4419511556625366,-9.980554580688477,-0.0072004738601063635,-0.010744825953008344,0.0029325876908689705,2.4174443434430986,9.05234788720425,0.8745821208048339
1731474139.8395355,-0.3354564905166626,0.445912629365921,-9.973817825317383,-0.007372130514093083,-0.01088618512206594,0.002924975421376737,2.4169158338603505,9.075946999182309,0.8746454831212518
1731474139.8896139,-0.3405797779560089,0.44538143277168274,-9.989174842834473,-0.0075338150521938934,-0.011019633174883206,0.002918820770100613,2.417095617387365,9.099029331884212,0.8744930868350336
1731474139.9394777,-0.33414551615715027,0.4462050497531891,-9.99086856842041,-0.007685617434416802,-0.011145486493213421,0.0029143896114180836,2.416579349662381,9.122582569477949,0.8745593170951136
1731474139.9894018,-0.3440423011779785,0.44702938199043274,-9.984944343566895,-0.007827623157796504,-0.011264169360818964,0.0029119171140483805,2.4164905378058523,9.14547702614086,0.8744431003484096
1731474140.0392613,-0.32870543003082275,0.43953606486320496,-9.982325553894043,-0.007959912619026562,-0.011376197271267678,0.0029115738051980256,2.415966897604079,9.168980431389143,0.87451270785452
1731474140.089296,-0.34796392917633057,0.4402678906917572,-9.993621826171875,-0.008082567662018203,-0.01148213978540035,0.0029134833681525923,2.415425114726311,9.19237233925751,0.8745893287851334
1731474140.1402464,-0.33399584889411926,0.432169646024704,-9.98773193359375,-0.008195670450815273,-0.011582566120188022,0.002917725475358497,2.4148508278502057,9.216235348313875,0.8746750785740537
1731474140.1902158,-0.339699923992157,0.42898687720298767,-9.98838996887207,-0.008299293852412957,-0.011677985859511712,0.0029243144794512607,2.4151181009863354,9.238959456544416,0.8745175371801327
1731474140.2401154,-0.34191736578941345,0.42445263266563416,-9.988052368164062,-0.008393503374639845,-0.01176879007908985,0.002933199112812263,2.414570445015347,9.26234250634929,0.8746015706703941
1731474140.2900033,-0.32970547676086426,0.4250764548778534,-9.985917091369629,-0.0084783667723579,-0.011855204595388299,0.002944282183431554,2.414568677359907,9.284852094188423,0.8744791443782881
1731474140.3400288,-0.32910072803497314,0.4251329004764557,-9.99003791809082,-0.008553981644930344,-0.011937272705726589,0.0029574359859870754,2.41417472013254,9.307503272198675,0.8744062975980647
1731474140.3900661,-0.3384392559528351,0.42610400915145874,-9.983735084533691,-0.00862052056176202,-0.012014868942742523,0.0029725100615277814,2.413600949869991,9.330721466039371,0.8744869680864406
1731474140.439955,-0.3377346694469452,0.435489296913147,-9.978569030761719,-0.008678234179858352,-0.012087738042997878,0.0029893481880778876,2.413002235846324,9.354038103272254,0.8745755859299127
1731474140.4899478,-0.33423569798469543,0.4322376847267151,-9.991771697998047,-0.008727409173360144,-0.012155556217880049,0.0030078176684218425,2.4133642865013463,8.626069396588054,0.8745695839901407
1731474140.5398195,-0.3368098735809326,0.4413033127784729,-9.979137420654297,-0.0087683446163223,-0.012217998026432284,0.0030278168616812706,2.4128127881488015,8.63747242977688,0.8746656752825479
1731474140.5896668,-0.32903242111206055,0.43979355692863464,-9.979314804077148,-0.008801361434770151,-0.012274791110934345,0.0030492688359669467,2.4122349632124798,8.648943631349953,0.8747700569916081
1731474140.6397073,-0.33598414063453674,0.4474576413631439,-9.982017517089844,-0.008826820384665797,-0.012325761019281145,0.0030721396404015406,2.4116271312232875,8.66053919611817,0.8748835553232641
1731474140.6897366,-0.341476172208786,0.44930747151374817,-9.990230560302734,-0.008845121586801237,-0.01237087188551577,0.0030964465469394704,2.412237880673166,8.625264336610492,0.8748390941529455
1731474140.7397206,-0.3397352695465088,0.44789478182792664,-9.97748851776123,-0.008856667611556422,-0.012410258060753736,0.0031222269717463024,2.4116675586905005,8.635517132559617,0.8749580370183379
1731474140.7895658,-0.3330007493495941,0.44037196040153503,-9.997563362121582,-0.00886182670230261,-0.0124442238016087,0.003149507349007888,2.4110853281760978,8.645559384631447,0.8750826492298508
1731474140.8395772,-0.03880907967686653,0.5903394818305969,-9.978856086730957,-0.008861209089180835,-0.01247333014673101,0.0031782846123289085,2.4104721489868344,8.655721065724116,0.8752170623442709
1731474140.8895676,-0.0758434385061264,0.5316457748413086,-10.008713722229004,-0.008856687977458397,-0.01249879390732457,0.0032085000120980695,2.4104304063877295,8.646161689519545,0.8751289354535462
1731474140.9393978,0.48951706290245056,0.8079436421394348,-9.981762886047363,-0.008853174491913127,-0.012523192814134387,0.0032400040462344177,2.4097927276100335,8.65562421413749,0.8752644361709664
1731474140.9892786,0.7771492004394531,0.6103816628456116,-10.015816688537598,-0.008861251497401815,-0.012551259705129453,0.0032725253122711916,2.4093556028008134,8.662332810309321,0.8751222511605682
1731474141.0394018,0.1431780755519867,0.499295175075531,-10.044015884399414,-0.008899822530265226,-0.012590099646103812,0.003305598267621541,2.4086657034882197,8.672035463562,0.8752533951358987
1731474141.0892773,0.413790225982666,0.48516714572906494,-9.909783363342285,-0.008996117872917537,-0.012648200915505736,0.0033385031936422694,2.407963051694633,8.68157307097539,0.8753909954484794
1731474141.1401522,0.038903508335351944,0.3011943995952606,-9.996171951293945,-0.009182827835411484,-0.012733833760968108,0.003370467659483518,2.4072633355886532,8.683662822557757,0.8752248796079782
1731474141.1902132,0.22217567265033722,0.33590275049209595,-10.001534461975098,-0.00949507998878693,-0.012853682876057967,0.003400960365035954,2.4064944181325734,8.692817652662624,0.8753581285481025
1731474141.2402446,0.017560504376888275,0.20069876313209534,-9.97430419921875,-0.009968422937064904,-0.013011845631766807,0.0034296580568073855,2.4050784803276133,8.68466032337012,0.8752174296970965
1731474141.2901216,-0.7728275656700134,-0.02461777999997139,-9.977519989013672,-0.010636668777211842,-0.013208974444977041,0.003456294773087774,2.4041870079063843,8.692120540776033,0.8753459884615735
1731474141.3400016,-1.2074174880981445,-0.021463442593812943,-10.009428024291992,-0.01152761024591545,-0.013441188645935015,0.003480666891829177,2.403105147089023,8.685305445890256,0.8752212051027001
1731474141.3900766,-0.23980385065078735,0.27316224575042725,-9.937684059143066,-0.012657928276020143,-0.013699390926800142,0.0035026526258673638,2.4021290775110993,8.691477499308903,0.8753477109098914
1731474141.4400213,-0.7082184553146362,0.12128511071205139,-10.163931846618652,-0.014032205940661124,-0.013970157034570392,0.0035220976414731845,2.401113602197319,8.697652124077774,0.875483798801989
1731474141.4898539,-0.29287877678871155,0.4290388226509094,-9.929959297180176,-0.015646176937738763,-0.014237670583201047,0.0035384893620897164,2.401559507378182,8.67716868507618,0.8753215805530355
1731474141.5398967,-0.5628702044487,0.09986446797847748,-10.001678466796875,-0.017489766537317705,-0.014485328512730286,0.0035508049239822,2.4006008975788284,8.68112746976929,0.8754536867353696
1731474141.5897396,-0.3513105511665344,0.46714502573013306,-10.08678913116455,-0.01954857776922813,-0.01469659460504282,0.003557781506984339,2.399606151191006,8.685010126991601,0.8755932551998145
1731474141.6397777,-0.5107159614562988,0.16161222755908966,-9.946783065795898,-0.021804798991434296,-0.014855448689436104,0.0035580418922253835,2.398006397664214,8.658460645710875,0.875526449497283
1731474141.6896517,-0.4068586826324463,0.43703973293304443,-9.962201118469238,-0.024237853304573266,-0.014946754004891904,0.0035501153734538147,2.3968227167904366,8.660005457861983,0.8756729114232912
1731474141.7396317,-0.49801453948020935,0.2526971399784088,-10.004266738891602,-0.026824878627785043,-0.014956546520243436,0.003532765880666166,2.3955661145184957,8.661524463934896,0.8758293526786164
1731474141.789641,-0.37864023447036743,0.4197238087654114,-9.953781127929688,-0.029541180876038783,-0.014872278449197057,0.0035052149536545438,2.394250171838087,8.662993577884626,0.8759932091309511
1731474141.8394883,-0.42949461936950684,0.29616859555244446,-9.941106796264648,-0.03236081851004369,-0.014683022935989231,0.003467124671061778,2.3938475606417513,8.635481520754588,0.8758305223348719
1731474141.8893626,-0.41107162833213806,0.3372349739074707,-10.000696182250977,-0.03525724841532187,-0.014379503333248708,0.003418640868496,2.3907025478624275,8.598575953397924,0.8756875407103774
1731474141.9393225,-0.3805420398712158,0.7001015543937683,-9.957939147949219,-0.038203819229395676,-0.013954269053755818,0.003360361095660076,2.3889910957803604,8.595135620312263,0.8758349460747027
1731474141.9893405,-0.4000968039035797,0.667378306388855,-9.877378463745117,-0.04117415544080018,-0.013402788657691563,0.003293261227986141,2.3860112779828446,8.562505355039773,0.8757035271839606
1731474142.0393183,-0.4872780740261078,1.1421082019805908,-9.997286796569824,-0.044142415549798586,-0.01272544600602836,0.0032188419618442593,2.383938391417872,8.556557826623264,0.875846122291608
1731474142.0892508,-0.4453103244304657,0.9864438772201538,-9.849359512329102,-0.04708322850378017,-0.011929605266104606,0.0031392728540548705,2.3817649803248733,8.550618003694172,0.8759957369278196
1731474142.139246,-0.5104879140853882,0.7967690229415894,-10.028023719787598,-0.04997148343909529,-0.011030582784867397,0.0030573214985574505,2.3810565823934864,8.535719876450132,0.8758195729875325
1731474142.1901712,-0.3782177269458771,0.7711344957351685,-9.996058464050293,-0.05278236402655358,-0.010050462924592028,0.002976057459890145,2.378745954652479,8.529534611984516,0.8759639961968042
1731474142.2401364,-0.4499201774597168,0.7072227597236633,-10.010408401489258,-0.055491741760876886,-0.00901556155236817,0.0028983327972594954,2.3786779504814475,8.508360125834477,0.8758065948403033
1731474142.2900872,-0.3696022629737854,0.713841438293457,-10.044113159179688,-0.05807671578763827,-0.007954329266108109,0.002826360721087811,2.376362161937363,8.50130364236542,0.875941214620582
1731474142.3400176,-0.42195576429367065,0.5679761171340942,-9.984193801879883,-0.06051601212597448,-0.0068959991695915265,0.0027615928679860804,2.3738853151819885,8.494191400536996,0.8760835568425865
1731474142.3899982,-0.30900314450263977,0.6061761379241943,-10.027217864990234,-0.06279025277478656,-0.005869420252885751,0.002704785891223556,2.3712792172392874,8.48713138588133,0.8762313185053519
1731474142.4399173,-0.36433690786361694,0.5541598200798035,-9.993165969848633,-0.0648822655006567,-0.004902032351275851,0.0026561586675891463,2.373261598793288,8.476789806618987,0.8759823299905936
1731474142.4898849,-0.3449501693248749,0.5600143671035767,-10.049895286560059,-0.06677734583389672,-0.004019231976943878,0.00261549154715978,2.370703477725874,8.469947168870355,0.8761186746965645
1731474142.5398262,-0.3187732696533203,0.5636372566223145,-10.002037048339844,-0.06846330317619163,-0.003244087099573767,0.002582113271454803,2.371527209049417,8.451346428526632,0.8759147384935956
1731474142.5898345,-0.30297085642814636,0.5662887096405029,-10.012564659118652,-0.06993044114987937,-0.0025972526015148626,0.0025549141813080256,2.371098462417931,8.427796938763795,0.8757828895053512
1731474142.6396751,-0.3056734502315521,0.5174658894538879,-10.006267547607422,-0.07117161949475899,-0.002096979077220553,0.00253247539506877,2.3684398263758157,8.41865822713906,0.8758994544586755
1731474142.689624,-0.32618317008018494,0.5069574117660522,-9.982719421386719,-0.07218223609686245,-0.0017590248861787763,0.0025132384643482327,2.365618826596014,8.409569777096767,0.8760215959348633
1731474142.7396877,-0.273434042930603,0.514680802822113,-9.964303016662598,-0.07296005782384998,-0.0015964713280188982,0.0024956841168268786,2.3625886936876466,8.400391679001165,0.8761511874151341
1731474142.7895157,-0.2996521592140198,0.5227103233337402,-9.985552787780762,-0.07350507339946871,-0.001619674616819053,0.002478531240628673,2.3642184449910335,8.393039323949955,0.8759343757975985
1731474142.8395174,-0.3358599841594696,0.5379204750061035,-9.958097457885742,-0.07381936648387763,-0.0018364467693511384,0.002460854239771985,2.361167441503198,8.384257067506143,0.8760550450008445
1731474142.8894358,-0.336078017950058,0.4931144118309021,-9.98670482635498,-0.07390680267600838,-0.002252306110183847,0.002442086742379421,2.3581069948589093,8.375478248737679,0.87587228559619
1731474142.939421,-0.33337661623954773,0.5128029584884644,-10.005820274353027,-0.07377260343695619,-0.002870610031295462,0.0024219431734194517,2.354703522179537,8.366689916574222,0.8759857604112938
1731474142.989331,-0.3498041331768036,0.4721747934818268,-9.94282341003418,-0.07342304869998215,-0.0036925691312175287,0.0024002940490882134,2.351143706718997,8.357963378980736,0.8761043414602817
1731474143.0392566,-0.32534632086753845,0.5132566094398499,-9.986802101135254,-0.07286531520379047,-0.004717276707804341,0.0023771507962880726,2.347401469381703,8.349224479603864,0.8762288805032445
1731474143.0892653,-0.3674081265926361,0.5218324065208435,-10.014200210571289,-0.07210735411388729,-0.00594187424632877,0.002352708012014112,2.3436099848840777,8.340310710017445,0.8759768241665024
1731474143.1392438,-0.40713658928871155,0.5078936219215393,-9.99518871307373,-0.0711576933348442,-0.007361858930558329,0.0023272052328330178,2.3394772937618935,8.331451659629687,0.876092317526751
1731474143.1901145,-0.3748840391635895,0.5032426118850708,-9.95654582977295,-0.0700251047558594,-0.008971356009685854,0.0023007720979968944,2.3354572805740608,8.32222202726042,0.876042251757426
1731474143.2401328,-0.41319382190704346,0.513997495174408,-10.000679969787598,-0.06871832198524973,-0.010763249702626869,0.002273508076864294,2.3314844931025087,8.312848883610151,0.8760986299528317
1731474143.2901106,-0.4174082279205322,0.5009680390357971,-9.988465309143066,-0.06724591240635495,-0.012729284808647101,0.0022455910967795318,2.326897600664435,8.303918451065371,0.8762308574223802
1731474143.3401623,-0.4119400978088379,0.5024043917655945,-9.968817710876465,-0.0656161796432949,-0.014860192786202178,0.002217243874906979,2.3221336850505474,8.29493342655896,0.8763689823129566
1731474143.3899338,-0.3861069083213806,0.4877097010612488,-9.973749160766602,-0.06383712939432923,-0.01714578705800227,0.002188733225580876,2.317254605479356,8.285994044675778,0.8765112545921508
1731474143.4400024,-0.3813762664794922,0.4656544327735901,-10.00214672088623,-0.0619166070969252,-0.019575000498065005,0.002160427575342303,2.3126023883494606,8.27643679047665,0.8769130101067083
1731474143.489819,-0.3586125075817108,0.4547431170940399,-9.964475631713867,-0.059862529726360504,-0.02213585953342907,0.0021327641814219986,2.3074310046436404,8.267380799479058,0.8770962972605607
1731474143.5397732,-0.3363964855670929,0.4302753210067749,-9.970362663269043,-0.05768311137014524,-0.024815421470888336,0.0021062103648938407,2.3020736339807524,8.25819733732391,0.8772862674138167
1731474143.5897393,-0.3230259418487549,0.4246014356613159,-10.018203735351562,-0.05538707780161044,-0.027599726210346176,0.002081285471701377,2.2969634051307244,8.248637566646329,0.8777281885901348
1731474143.6397502,-0.3195480704307556,0.4174511432647705,-9.99730110168457,-0.052983841154379555,-0.030473800825349354,0.002058471079910255,2.291317985171561,8.23927805942625,0.877949999729127
1731474143.6896462,-0.29733991622924805,0.400546669960022,-9.969202995300293,-0.05048358369088484,-0.033421731719325644,0.0020380651241665025,2.285592273993727,8.229919442456438,0.8781750040258339
1731474143.7396011,-0.2849956750869751,0.3818894624710083,-10.001726150512695,-0.0478972878363748,-0.03642675626184838,0.0020202121993308565,2.2801501063737226,8.22001218344824,0.8788290044955425
1731474143.789569,-0.2620607912540436,0.3989132344722748,-10.011852264404297,-0.045236778324354625,-0.039471344560831303,0.002004981424319113,2.274181161948129,8.210441411775346,0.8791004132198956
1731474143.8395295,-0.3114404082298279,0.37750130891799927,-9.98075008392334,-0.04251472024951182,-0.042537335686496,0.0019923117096429417,2.268572577469605,8.200278335031609,0.879842243777292
1731474143.8895874,-0.29066282510757446,0.38888999819755554,-10.001361846923828,-0.03974444232958098,-0.04560613983204647,0.0019819779365688205,2.26238398436924,8.190458028939833,0.8801663369506891
1731474143.939539,-0.31284046173095703,0.36997202038764954,-10.00731372833252,-0.03693962470459476,-0.04865893597534742,0.001973639945425726,2.2561015796751214,8.180523178311805,0.8804952675063131
1731474143.9893997,-0.27976566553115845,0.3753986358642578,-10.026233673095703,-0.0341140453679214,-0.05167683732101058,0.001966816215662182,2.249748297729518,8.170491243330359,0.880828183232502
1731474144.0392823,-0.2954639196395874,0.3394887149333954,-9.958551406860352,-0.03128146642503273,-0.05464101432541574,0.0019608249266984327,2.2439239979773067,8.159754535574216,0.8810548862466426
1731474144.089266,-0.5322554707527161,-0.19363191723823547,-10.011695861816406,-0.02845536242455151,-0.05753226664333178,0.001954875755897717,2.2373947872112225,8.149386935769108,0.8813820654758173
1731474144.139285,-0.4975226819515228,-0.47324222326278687,-10.109478950500488,-0.025648031779799966,-0.060328954896444194,0.0019481086298961821,2.231483225988755,8.138250594281235,0.8812820765103944
1731474144.1902807,-0.6517626047134399,-0.1517183631658554,-10.05496883392334,-0.02286933810079827,-0.06300393334038541,0.001939252596660434,2.224747584421093,8.127419640454756,0.8815755937167981
1731474144.2401178,-0.7958483099937439,-0.4603233337402344,-10.047149658203125,-0.020125620831892,-0.06552316829827265,0.0019262504211663425,2.2188354888287525,8.11592768707137,0.8814679658567756
1731474144.2899477,-0.3774668574333191,0.1904527246952057,-9.920002937316895,-0.017419109744687657,-0.06784697385680222,0.0019064422527975942,2.2121765896773624,8.105017506920415,0.8817233219374492
1731474144.3399312,-0.7103548049926758,-0.2533815801143646,-10.023809432983398,-0.01474844214336008,-0.06993261067559337,0.0018772073056489572,2.2062247508981336,8.093020231442607,0.8816098632885806
1731474144.389945,-0.5084047317504883,0.20593859255313873,-9.930323600769043,-0.012109825050504272,-0.07173688153171354,0.0018364690953868068,2.1994598570307504,8.081664845239803,0.8818403948092697
1731474144.4399543,-0.6116470098495483,0.06604569405317307,-9.929553985595703,-0.009497681160129988,-0.07321805693118222,0.001782886543004005,2.193575220064332,8.069257061166342,0.8817170328767397
1731474144.489831,-0.6116470098495483,0.06604569405317307,-9.929553985595703,-0.006904906019536262,-0.07433728928183553,0.0017160150406422174,2.187762556797545,8.056655453483788,0.8816457014207925
1731474144.489831,-0.5259138345718384,0.24936124682426453,-9.96333122253418,-0.004323158640244341,-0.0750595053567548,0.0016364013083316933,2.1877087564231004,8.056561479906904,0.8816471539822767
1731474144.5398407,-0.5633005499839783,0.1612505167722702,-9.892698287963867,-0.0017432655765243976,-0.07535397100910002,0.0015454640380811275,2.1809332251971325,8.04463590218499,0.8818319678744982
1731474144.5897121,-0.5227437615394592,0.1753193736076355,-9.91405963897705,0.0008442342056299271,-0.07519481073329734,0.0014454057978284388,2.174199302375686,8.032599850141898,0.882019305457655
1731474144.6397834,-0.530639111995697,0.1455938071012497,-9.948212623596191,0.0034486441154042875,-0.07456106036783983,0.0013392262788493579,2.1674023979972907,8.020254694814994,0.8822120198860229
1731474144.6897333,-0.4877649247646332,0.19532594084739685,-9.93302059173584,0.006078802179149041,-0.07343632533344491,0.0012305695297050246,2.1618066864407903,8.006689476827598,0.8819873552881744
1731474144.7396362,-0.4850020408630371,0.15887004137039185,-9.961091995239258,0.008742765286327222,-0.07180854719932306,0.001123417119621835,2.1550804308093032,7.99398970404705,0.882155022643692
1731474144.7895703,-0.042006008327007294,0.42955347895622253,-9.968608856201172,0.011447124569488789,-0.06967009622492322,0.0010218216997310537,2.1483968141857996,7.9811471678750685,0.8823249197737411
1731474144.8395107,0.20982344448566437,0.5299987196922302,-9.996824264526367,0.014195104718535707,-0.06701854041671272,0.0009296655037176482,2.143058030017548,7.966869876861519,0.882067522314513
1731474144.8894217,-0.2961362600326538,0.27400559186935425,-10.028383255004883,0.016984082665598924,-0.06385772916536495,0.000850377353173824,2.136462048425147,7.953654753775846,0.8822141841446843
1731474144.9395008,-0.07620701938867569,0.45252323150634766,-9.962984085083008,0.019805109620554068,-0.060197859682725355,0.0007866943519633123,2.1313431476194267,7.9389052915742955,0.8819994708971315
1731474144.989377,-0.3626199960708618,0.24273060262203217,-10.05359172821045,0.022644809813007795,-0.05605441290726109,0.0007406005879625791,2.1248808594547914,7.925381751391467,0.8821266020236779
1731474145.0394049,-0.1496284306049347,0.48473837971687317,-10.041500091552734,0.025487405990080522,-0.05144710318150374,0.0007133065174606942,2.120042474514386,7.910242362421906,0.8819400644516955
1731474145.0892012,-0.3409866988658905,0.2217046469449997,-10.007319450378418,0.02831584664036161,-0.046399248777641566,0.0007051332621607127,2.113759922755895,7.896489364205753,0.8820506154106721
1731474145.1393504,-0.19522902369499207,0.4383619427680969,-10.02239990234375,0.03111241374980013,-0.04093723311837017,0.0007155399618691843,2.1091848725547875,7.880875859844606,0.881885515540975
1731474145.1891997,-0.3174585700035095,0.26658883690834045,-9.997493743896484,0.03385912652869226,-0.0350899281692089,0.000743364382729149,2.103083322091966,7.86688127061995,0.8819828144076667
1731474145.2401588,-0.2567730247974396,0.41878947615623474,-9.975645065307617,0.03653808431315926,-0.0288882355675903,0.000787082113950139,2.0969168663847304,7.852448754264794,0.8820845513985643
1731474145.290124,-0.31867489218711853,0.322895348072052,-10.004502296447754,0.03913181715960244,-0.022364777337312746,0.0008450333882257855,2.0909809580327736,7.8382690533113095,0.8821861007086379
1731474145.3400424,-0.2900391221046448,0.4151308536529541,-9.99188232421875,0.041623622916088586,-0.01555365707338453,0.0009155559564373859,2.087160611483642,7.82221447536947,0.8819570901673414
1731474145.390102,-0.2900391221046448,0.4151308536529541,-9.99188232421875,0.043997799734817225,-0.008490294702238537,0.0009969879738252895,2.0814381283473296,7.807852297183588,0.8820459645482301
1731474145.390102,-0.331870973110199,0.35072141885757446,-9.961592674255371,0.04623977073099111,-0.0012112775393504204,0.0010876917348633512,2.081388218762984,7.8077257093789685,0.8820467584277352
1731474145.4399805,-0.31109046936035156,0.4003080129623413,-9.982954025268555,0.048336219731163185,0.00624597157798965,0.0011861722693519555,2.078070961479511,7.7916682458619695,0.8818533886018247
1731474145.4899025,-0.3297779858112335,0.40445318818092346,-9.977746963500977,0.050275258543481,0.013843646118901926,0.0012911704470063472,2.07264113516022,7.777336940162518,0.8819323508291855
1731474145.5398126,-0.3312694728374481,0.4171616733074188,-9.975252151489258,0.05204652569548199,0.021543819382805432,0.001401651883965127,2.0673390721364338,7.763050037052492,0.8820146715724698
1731474145.589731,-0.3365127444267273,0.42672958970069885,-9.98169231414795,0.053641227049207124,0.0293085554136854,0.0015167623635517736,2.0646700539594045,7.746800835427352,0.8818212844850672
1731474145.6397784,-0.6444383859634399,0.252627432346344,-9.986760139465332,0.05505243724400892,0.037100215467471886,0.0016357918314919132,2.059649018152905,7.73254561952539,0.8818968443214206
1731474145.6896195,-0.5891392230987549,0.3251998722553253,-9.954066276550293,0.05627609484827721,0.044882201477888885,0.0017581472690156434,2.054808340425686,7.718510718667601,0.8819760064858987
1731474145.739691,-0.7718563675880432,0.09749940782785416,-9.974160194396973,0.05731235533260004,0.05261997278876335,0.0018833896860561705,2.0500694075130528,7.704479470565526,0.882060416819209
1731474145.7895942,-0.46285444498062134,0.407083123922348,-9.982929229736328,0.05816623727832107,0.0602818342709266,0.0020112847909836734,2.0483995894512117,7.6883763051814205,0.8818326519434689
1731474145.839546,0.17480438947677612,0.5993920564651489,-9.956948280334473,0.05884629858057994,0.06783866177521371,0.002141767896962924,2.0440013003741146,7.674614372071359,0.8819108895693889
1731474145.8895202,-0.4296962022781372,0.3416212499141693,-10.036373138427734,0.05936128083435209,0.07526244341461798,0.0022748475331395937,2.0403021042877842,7.6586513593052805,0.8817354091943248
1731474145.9394314,-0.10667605698108673,0.5735830664634705,-9.944799423217773,0.05971756272222458,0.08252519510152678,0.002410478146126385,2.0361717120669325,7.645163040550822,0.881811469477693
1731474145.9893925,-0.4261827766895294,0.25164923071861267,-9.998679161071777,0.05991934354480846,0.0895991612960319,0.002548503428462982,2.0311889987243763,7.629487389442341,0.8816676285780166
1731474146.0393891,-0.4261827766895294,0.25164923071861267,-9.998679161071777,0.05997001607498365,0.09645778572379905,0.002688709527536662,2.027335147988367,7.616475630906125,0.881743250922323
1731474146.0393891,-0.1757666915655136,0.5858380794525146,-10.030649185180664,0.05987321460930414,0.10307671216772121,0.0028307716303360435,2.027301167975066,7.616359692363686,0.8817439619192201
1731474146.0892906,-0.36952340602874756,0.26452311873435974,-9.984543800354004,0.059632953876924764,0.1094338276944524,0.0029740867472302615,2.023668024833692,7.60384836901146,0.8818251476884053
1731474146.1392066,-0.2180897742509842,0.5275964140892029,-9.984308242797852,0.059253107239854705,0.11550865863010065,0.003117765518836308,2.0201359754127988,7.591457255648955,0.8819148879180572
1731474146.1892066,-0.35027265548706055,0.3020928204059601,-9.998504638671875,0.05873718705441457,0.12128223630126655,0.003260805840902616,2.016739551671382,7.579320542596314,0.8820129024569251
1731474146.2392662,-0.24522694945335388,0.4789474606513977,-9.97572135925293,0.05808847918303813,0.12673727984099026,0.0034022281080927485,2.0135984233938813,7.564347508783428,0.8817743133866216
1731474146.2900531,-0.32880857586860657,0.3587845265865326,-9.992473602294922,0.05731016420916325,0.1318582888836964,0.0035411151729832476,2.010441158751829,7.552636234483073,0.8818713432938516
1731474146.3401139,-0.28920209407806396,0.4533703923225403,-9.996732711791992,0.056405419087199524,0.136631550752656,0.0036766214768856847,2.0048917865300346,7.538063825734258,0.8816918293635306
1731474146.3900425,-0.32036682963371277,0.38436904549598694,-9.975886344909668,0.05537754337575348,0.14104510717610264,0.0038079547309401397,2.002011841905806,7.527207480265723,0.8817881745173289
1731474146.4399643,-0.3222068250179291,0.4288286566734314,-9.992498397827148,0.054230093384200095,0.1450887511432984,0.003934375305835839,1.999246848497661,7.516625151541163,0.8818949844030927
1731474146.4898868,-0.3282969295978546,0.4256960153579712,-9.982223510742188,0.05296699922975637,0.14875402620518172,0.00405522983020589,1.9966343171515264,7.50648119623281,0.8820110225241888
1731474146.5398424,-0.3282969295978546,0.4256960153579712,-9.982223510742188,0.051592654382225905,0.1520341665590281,0.004169966031028473,1.9921557695744219,7.492930546122236,0.881776352100931
1731474146.5398424,-0.3342430889606476,0.41899538040161133,-9.977553367614746,0.05011194962505545,0.15492402571404107,0.004278144657413965,1.9921358783232384,7.492852603781423,0.8817772402916624
1731474146.5898244,-0.3272224962711334,0.4375999867916107,-9.990431785583496,0.04853026033084417,0.15742005848423823,0.0043794571781563705,1.98976732979725,7.479673212461288,0.8816335241917121
1731474146.6398294,-0.3272224962711334,0.4375999867916107,-9.990431785583496,0.04685340179327393,0.15952028740496627,0.004473700400822781,1.987468385658274,7.4704843039502515,0.8817429055668937
1731474146.6398294,-0.348007470369339,0.42216381430625916,-9.980985641479492,0.04508757386457312,0.16122422763980543,0.004560721597835047,1.9874495158660372,7.47040858303705,0.8817438755635016
1731474146.6897447,-0.3311549723148346,0.43346843123435974,-9.981561660766602,0.04323934444562642,0.16253285795110933,0.004640407021634274,1.9853163062712156,7.461834950371865,0.8818618936971636
1731474146.7396312,-0.3635404109954834,0.40990909934043884,-9.988479614257812,0.04131566296831139,0.16344864598383252,0.004712711581345014,1.9832535704300562,7.4535275070269815,0.8819933679281524
1731474146.789546,-0.32311975955963135,0.4552238881587982,-9.978585243225098,0.039323853888651575,0.16397554731603003,0.004777667128927165,1.9813012424398755,7.445667979287681,0.882135904143376
1731474146.8395026,-0.3543110489845276,0.4205108880996704,-9.987153053283691,0.03727155484923644,0.16411891997064154,0.004835370757816246,1.9792917381545843,7.433774322487674,0.8818512130044524
1731474146.8894835,-0.33690303564071655,0.44204410910606384,-9.983466148376465,0.03516662117490322,0.16388540430376375,0.004885977624865813,1.977509061184473,7.426610239873463,0.8819907313489652
1731474146.939377,-0.3456494212150574,0.4204249382019043,-9.974058151245117,0.03301705583423714,0.16328285891375702,0.004929698545838462,1.9754900719207649,7.41530032846625,0.88161391368397
1731474146.9893372,-0.32335811853408813,0.44455331563949585,-9.994388580322266,0.030830940259910507,0.1623203286950634,0.004966805915228234,1.97386729583307,7.408887961697158,0.881736042341268
1731474147.0392928,-0.3419918715953827,0.4153200089931488,-9.980100631713867,0.028616326403571132,0.16100798915574538,0.004997620441188463,1.9723222508303593,7.402893390422469,0.8818703892060731
1731474147.0892532,-0.33232659101486206,0.44813141226768494,-9.970808982849121,0.02638114587515792,0.15935707850592368,0.0050224903886115025,1.970848028737241,7.397307047111868,0.8820170425191568
1731474147.1392598,-0.3414287269115448,0.42118310928344727,-9.989472389221191,0.024133177704031564,0.15737981818350544,0.0050418153269017225,1.9690732847007901,2.793351920292146,0.8816221562606792
1731474147.1892078,-0.32821929454803467,0.43675288558006287,-9.983247756958008,0.021880032520135664,0.15508932381793034,0.005056058160436647,1.96771416941812,2.7476461000447783,0.8817575952017004
1731474147.239118,-0.3308393657207489,0.41653814911842346,-9.989508628845215,0.019629107084156626,0.15249954214483513,0.005065695044211163,1.9664093058905412,2.7024109902025755,0.8819053622114085
1731474147.2890556,-0.3233639597892761,0.44228991866111755,-9.99915599822998,0.017387513514839328,0.14962520068089702,0.005071153808551824,1.9647495892996916,2.465189597936129,0.8839794584324986
1731474147.34003,-0.3317860960960388,0.42187803983688354,-9.981391906738281,0.015162018417612829,0.14648172112052252,0.005072771584479891,1.9634984771095583,2.429664038159008,0.8843367240769779
1731474147.389953,-0.3199501931667328,0.43816444277763367,-9.984302520751953,0.01295901259860139,0.14308510784004394,0.005070798977816952,1.962306875590329,2.395184592356537,0.8846999640886587
1731474147.4399762,-0.3348630368709564,0.410004585981369,-9.995926856994629,0.01078450074311058,0.13945186437926707,0.005065446817439012,1.961145056607008,2.361060876081863,0.8850758611954501
1731474147.4898822,-0.31965500116348267,0.4335654675960541,-9.987404823303223,0.008644101354934352,0.13559895032926822,0.005056897033530018,1.9595660416515062,2.313824177199845,0.8870382450790613
1731474147.5398347,-0.33629316091537476,0.42236918210983276,-9.98745346069336,0.006543053660931199,0.13154372702070086,0.005045280233285819,1.9584524817752718,2.28896942641935,0.8875478827285211
1731474147.5897639,-0.32917505502700806,0.4344494938850403,-9.999245643615723,0.0044862331114253005,0.12730385128840369,0.0050306746241451615,1.9568698073904562,2.272745828544749,0.8910245785940578
1731474147.6397233,-0.3516184091567993,0.42074695229530334,-9.990751266479492,0.002478194109772659,0.12289715503126086,0.005013100126737576,1.9557589214413589,2.254766307416804,0.8918353562455487
1731474147.6896822,-0.3454195261001587,0.43337929248809814,-9.982441902160645,0.0005232466379170943,0.11834155484811797,0.004992510850411962,1.9546631563264891,2.2372701344000117,0.8926502237673001
1731474147.739603,-0.3505779504776001,0.42843934893608093,-9.977140426635742,-0.0013744691704805877,0.11365497373052723,0.004968845666288623,1.953065017781566,2.240613469549482,0.8924116535214579
1731474147.7895708,-0.3442579209804535,0.44717955589294434,-10.014467239379883,-0.0032109599335877126,0.10885523762230052,0.004942083634942232,1.9519448778367652,2.2280873277083084,0.8931359270290309
1731474147.839557,-0.3442579209804535,0.44717955589294434,-10.014467239379883,-0.004982411577991101,0.10395993503351367,0.004912172289925854,1.9502809367794942,2.242899439032042,0.8929071213469891
1731474147.839557,-0.2940550446510315,0.5944892764091492,-9.976007461547852,-0.006685287138296424,0.09898613874033041,0.004878895164811435,1.950274134663275,2.2428533408366595,0.8929109142800719
1731474147.889536,-0.20518560707569122,0.54371577501297,-9.946371078491211,-0.008316621577952458,0.09394984732104562,0.004841937160997184,1.9491303398241357,2.2352888935821578,0.8935489682024438
1731474147.939503,-0.20518560707569122,0.54371577501297,-9.946371078491211,-0.009874585136572111,0.08886543408887707,0.004801186293712988,1.947396226680242,2.253258596360378,0.8900131731988663
1731474147.939503,-0.43645983934402466,0.24578015506267548,-9.995434761047363,-0.011358805717284825,0.08374583198623585,0.004756960995104181,1.94738881071892,2.2532366160060717,0.890014402671607
1731474147.9893682,-0.2412494719028473,0.5809628963470459,-10.00178050994873,-0.012769883030154684,0.07860350866027795,0.004709902762502031,1.9461940539425826,2.249838934935412,0.8902156750344982
1731474148.0393229,-0.4226839542388916,0.305077463388443,-9.972904205322266,-0.014108628147834435,0.07345116785666325,0.004660687046291407,1.9449488521536284,2.246583488670789,0.8904314981692423
1731474148.0892675,-0.17636924982070923,0.6643232107162476,-9.994385719299316,-0.015375835022560904,0.06830157200571435,0.00460988581625365,1.9436777932543758,2.243532427013854,0.890656974827468
1731474148.1391916,-0.017241640016436577,0.4965020716190338,-10.021503448486328,-0.016572840853274456,0.06316686093346943,0.004557965160819367,1.9417434340824546,2.2600326255180905,0.887977075050635
1731474148.1891968,-0.017241640016436577,0.4965020716190338,-10.021503448486328,-0.017702874417165643,0.05805792083047728,0.004505181880180814,1.939749327602123,2.284171932183342,0.8843358480108477
1731474148.1891968,0.08745230734348297,0.6030604839324951,-10.011589050292969,-0.018772427382380476,0.05298426617878756,0.004451424788128383,1.9397386128782856,2.284186941905086,0.8843334209377928
1731474148.2391913,-0.9778934717178345,0.07814757525920868,-9.990920066833496,-0.019790913575721703,0.04795455343193859,0.004396210573344079,1.938318940538787,2.286201168856572,0.884022994140758
1731474148.289004,-0.9778934717178345,0.07814757525920868,-9.990920066833496,-0.020767005945949817,0.04297811545125156,0.00433885102909313,1.9368569840342933,2.288316694710614,0.8837250869249914
1731474148.289004,-0.13256236910820007,0.6477596163749695,-9.916261672973633,-0.02170404682676186,0.03806672130745273,0.0042787086453359175,1.936845391856702,2.288333593878648,0.8837228077443207
1731474148.3390393,-0.5607509613037109,0.18505153059959412,-10.030675888061523,-0.02259974260687478,0.03323425655394123,0.0042154478632958296,1.9353256490595907,2.2905495059471566,0.8834348184210178
1731474148.3899746,-0.24053697288036346,0.6703055500984192,-9.993346214294434,-0.02344940506146312,0.028494885507432968,0.0041490395362477365,1.9330285950498205,2.305890861596727,0.8827843160942288
1731474148.4399455,-0.4149532914161682,0.18424800038337708,-9.922703742980957,-0.02424810938480818,0.02386199101521972,0.004079566822198242,1.9313676428897715,2.309126239544497,0.8825530097176629
1731474148.4898977,-0.32263457775115967,0.564312756061554,-10.011099815368652,-0.02499121099645111,0.019348075501705246,0.004007241538098226,1.9289305385753426,2.332879194406892,0.882093872626671
1731474148.539939,-0.4096713662147522,0.33358514308929443,-9.978320121765137,-0.02567446063800053,0.014964871534591,0.00393250875933617,1.9271461947942021,2.3380597361737974,0.8819125424142426
1731474148.5898108,-0.4096713662147522,0.33358514308929443,-9.978320121765137,-0.026293866891331483,0.010723394028380965,0.003855937270636223,1.9245320627986473,2.358312286461459,0.8815795261848461
1731474148.5898108,-0.33266475796699524,0.4822407364845276,-9.983787536621094,-0.026845508951878125,0.0066340746446901504,0.0037781136842881284,1.9245151289651494,2.3583701718667283,0.8815782251227277
1731474148.6398258,-0.36633315682411194,0.4079146981239319,-10.017582893371582,-0.02732562175034489,0.0027067138502767122,0.0036996228436713425,1.9226031397604284,2.36479322302519,0.8814385365908338
1731474148.6896837,-0.37975364923477173,0.41329842805862427,-9.984230041503906,-0.027730856744020083,-0.0010499122094081142,0.003620950999107643,1.9198269174109408,2.3817924597835507,0.8811840191937347
1731474148.7397082,-0.3236582279205322,0.45023560523986816,-9.957239151000977,-0.02805839473683845,-0.004628234758686275,0.003542438357867719,1.917746831806654,2.3889166772804438,0.881078061730739
1731474148.7895982,-0.4094269871711731,0.40006208419799805,-10.010847091674805,-0.02830594091013076,-0.008021837071613674,0.003464400378860923,1.9147721588206992,2.409445464965116,0.8808935744811555
1731474148.8395123,-0.3341081142425537,0.49790847301483154,-9.974881172180176,-0.02847169969971261,-0.011225476102077933,0.00338720319841816,1.9116924328103528,2.4250151121606094,0.8807453948691657
1731474148.8895173,-0.40162166953086853,0.3858509361743927,-9.979796409606934,-0.028554303501326518,-0.014235151179827245,0.0033112149507142736,1.9093889055344797,2.4335098190491253,0.8806864720134002
1731474148.9394271,-0.33520281314849854,0.49349677562713623,-9.995915412902832,-0.028552776995723048,-0.01704810861112482,0.003236794714393947,1.9070103882609684,2.4419777296707283,0.8806356745715594
1731474148.989394,-0.39363962411880493,0.3769837021827698,-9.9759521484375,-0.02846655453918688,-0.019662745218647623,0.0031643042843816672,1.9045737005470866,2.4503543353716974,0.8805931195986983
1731474149.0393794,-0.32641667127609253,0.49767252802848816,-9.984671592712402,-0.028295509098262162,-0.02207848683819478,0.0030940949535303596,1.9011554456026756,2.4637590030013756,0.8804946936423158
1731474149.0893095,-0.39658495783805847,0.40310895442962646,-9.991823196411133,-0.02803998087070758,-0.024295727598841417,0.003026512030082775,1.8985655648039712,2.4722117256844833,0.8804716963819528
1731474149.139286,-0.31508591771125793,0.49019932746887207,-9.974615097045898,-0.02770078844713308,-0.026315829404178433,0.0029618910111555543,1.8958901938529957,2.480651420596933,0.8804560822414124
1731474149.1892076,-0.3865351676940918,0.38851404190063477,-9.984769821166992,-0.027279239633726263,-0.028141085710857522,0.002900554966240994,1.892232747191266,2.48901170660726,0.8803787864289989
1731474149.2392628,-0.3284973204135895,0.4553205966949463,-9.989445686340332,-0.026777138529176885,-0.029774572690683697,0.0028428299991290883,1.889416510547918,2.497302899568098,0.8803783243013316
1731474149.2891707,-0.36882221698760986,0.4021817743778229,-9.976908683776855,-0.026196759714312713,-0.031219953959407548,0.0027890346909075674,1.8865305376702355,2.505526642822949,0.880384942116756
1731474149.3390863,-0.339903861284256,0.46282950043678284,-9.997218132019043,-0.025540813782177624,-0.032481372566408866,0.0027394564231752218,1.8835904699571246,2.5136404111439625,0.8803984516999327
1731474149.3890233,-0.36403632164001465,0.4146801829338074,-9.983406066894531,-0.024812411176712658,-0.03356345426535824,0.002694331945364647,1.8795963742262412,2.521771115568975,0.880320035182951
1731474149.4399798,-0.3282560706138611,0.4430561661720276,-9.990992546081543,-0.024015025169612403,-0.03447131578364397,0.002653824414030743,1.8764434718928786,2.5299306014405802,0.8803439731455259
1731474149.489963,-0.34830936789512634,0.4099680185317993,-9.985173225402832,-0.023152494651325035,-0.03521049986300061,0.00261802114392963,1.8733076491623146,2.537803124281751,0.8803740023169667
1731474149.5398574,-0.3367198407649994,0.4484230577945709,-9.979958534240723,-0.022229043065479338,-0.03578688130937928,0.002586957898720504,1.8690663276317088,2.545873245383827,0.8802969236476669
1731474149.5898209,-0.3511849343776703,0.42940324544906616,-9.9827299118042,-0.02124924519870698,-0.036206633564678306,0.0025606567131420633,1.865812298326591,2.5535769365034393,0.8803338140128043
1731474149.639785,-0.3449540138244629,0.44740235805511475,-9.993281364440918,-0.020217941586825862,-0.0364762556095465,0.0025391480746265243,1.8625009399940564,2.5612025666550116,0.8803771473480528
1731474149.689714,-0.348348468542099,0.4309273660182953,-9.968509674072266,-0.019140149407001112,-0.03660258333447368,0.0025224601522903134,1.8580293425869376,2.5691362578194386,0.8802971193468326
1731474149.7397473,-0.3465837836265564,0.4344233572483063,-9.99363899230957,-0.01802099886798919,-0.03659274450441494,0.0025106205271002878,1.8545958520420882,2.5766303538111366,0.8803453561000926
1731474149.7896135,-0.35121646523475647,0.43669408559799194,-9.989757537841797,-0.016865687339126405,-0.0364540810326469,0.0025036595932811092,1.4961327416987957,2.584584124754285,0.8802796699583759
1731474149.839714,-0.3436480164527893,0.4485608637332916,-9.986307144165039,-0.01567943688483137,-0.0361940992402225,0.0025015681453498416,1.4802450452177995,2.5922511425942805,0.8802403060840526
1731474149.8895714,-0.3596985638141632,0.44395580887794495,-9.989258766174316,-0.014467453363919903,-0.03582047690195321,0.0025042632933893138,1.474222228732002,2.5994378314094884,0.8802917483874859
1731474149.9394937,-0.3440133035182953,0.440993994474411,-9.989282608032227,-0.013234880300768949,-0.03534107184950499,0.002511597139796737,1.4681345117938018,2.6065717629894443,0.8803497161074013
1731474149.9894161,-0.3629949986934662,0.4327376186847687,-9.978323936462402,-0.011986751477606895,-0.03476386976134955,0.0025233753440492245,1.4620416220927575,2.6135877304955297,0.8804136997813318
1731474150.0394707,-0.35161831974983215,0.4358040392398834,-9.977865219116211,-0.010727949173038709,-0.034096884482954365,0.0025393959130061393,1.4644687889505734,2.6210174776707045,0.8803340620482386
1731474150.0892787,-0.3588835597038269,0.44195646047592163,-9.983288764953613,-0.00946316617436659,-0.03334807574702166,0.0025595032209252064,1.4593384445207347,2.6278880676025973,0.8804002867025312
1731474150.1392915,-0.3525645434856415,0.4376795291900635,-9.988021850585938,-0.008196885980406451,-0.032525321752978856,0.00258359829450818,1.4541822442287098,2.634681509266632,0.8804729819715781
1731474150.1892414,-0.3610277473926544,0.4366692900657654,-9.989734649658203,-0.00693337894894195,-0.031636411381345625,0.0026115924691428424,1.4490027025774874,2.641948539163488,0.8803781858773011
1731474150.239233,-0.35390523076057434,0.44004589319229126,-9.980785369873047,-0.005676693470056022,-0.030689015800981295,0.002643361516316897,1.4438208185136376,2.6485838002936086,0.8804516948194019
1731474150.2891834,-0.35390523076057434,0.44004589319229126,-9.980785369873047,-0.004430650706355555,-0.029690657803473453,0.0026787509244192665,1.438606819118413,2.6551684085421265,0.8805321420251662
1731474150.2891834,-0.34808841347694397,0.4356316924095154,-9.990507125854492,-0.003198863233268945,-0.0286486938437851,0.002717608840709279,1.4385675575115815,2.6552176556973324,0.880532772609778
1731474150.3391497,-0.3495331108570099,0.4318283796310425,-9.987534523010254,-0.0019847697916114885,-0.02757028233732007,0.002759783284912697,1.4334229100876532,2.662283737790621,0.8804195609177619
1731474150.3889644,-0.3495331108570099,0.4318283796310425,-9.987534523010254,-0.0007916595901432285,-0.026462329131728083,0.0028050877866381504,1.4282069350233952,2.66873075331892,0.8804995002242703
1731474150.3889644,-0.34229859709739685,0.43807172775268555,-9.979005813598633,0.00037732042648399417,-0.02533144437097871,0.0028532951425680863,1.428161439820166,2.6687866846137425,0.8805002281843775
1731474150.4399717,-0.35194361209869385,0.43843650817871094,-9.987793922424316,0.0015191621154140205,-0.02418394184292999,0.0029041686597791735,1.422904019696457,2.675946519312781,0.8804056218600996
1731474150.4899325,-0.35194361209869385,0.43843650817871094,-9.987793922424316,0.002631007988091058,-0.023025864997503084,0.0029574812425285078,1.4176991100373182,2.6830403338967934,0.8803492634752061
1731474150.4899325,-0.3497510850429535,0.43838438391685486,-9.9824857711792,0.003710188601967292,-0.021863001738120946,0.0030130025500379074,1.417653341872899,2.683095929060278,0.8803499059497968
1731474150.5399475,-0.3440338671207428,0.4448617100715637,-9.980924606323242,0.00475424515642634,-0.020700884961362916,0.003070496754925073,1.4124955368341212,2.6893426445706843,0.8804261985670395
1731474150.5898569,-0.3435697555541992,0.4436219334602356,-9.993441581726074,0.00576090878512479,-0.019544802529701845,0.0031297393422534403,1.4073105936955803,2.6955880282343876,0.8805107966813295
1731474150.6397717,-0.3434273302555084,0.4445556402206421,-9.981748580932617,0.00672806616230154,-0.01839981443833968,0.0031905092628170904,1.4021666243725883,2.702645153909716,0.8804221054628611
1731474150.6896904,-0.34205594658851624,0.4357181191444397,-9.985618591308594,0.007653743964792818,-0.017270747885340547,0.0032525707746149384,1.3970214536107628,2.7088089509270468,0.8805082629849408
1731474150.7397027,-0.3368449807167053,0.4365089237689972,-9.985532760620117,0.008536105315962264,-0.01616215625074292,0.0033156825044975413,1.3918752834756138,2.7159306265933902,0.8804281916126906
1731474150.7896504,-0.3370206654071808,0.44003918766975403,-9.988101959228516,0.009373437098205834,-0.015078269926689598,0.003379607624465498,1.386766345145709,2.722040381688007,0.8805171557828304
1731474150.839731,-0.34878137707710266,0.4350849390029907,-9.995030403137207,0.010164144273628876,-0.014022976653359914,0.0034440962447221013,1.3816808574220885,2.729183457496217,0.8804407651004544
1731474150.8894904,-0.34958556294441223,0.43955448269844055,-9.992443084716797,0.01090679116004149,-0.012999824878275903,0.0035088495731054976,1.3766421353482245,2.7352206119714904,0.8805327054087095
1731474150.9395454,-0.33814793825149536,0.4347154200077057,-9.992836952209473,0.011600164038054389,-0.012012026453553615,0.003573492298642231,1.371598643657675,2.7412659344518424,0.8806341079371425
1731474150.9894862,-0.3534073531627655,0.43426117300987244,-9.98823356628418,0.01224329040058797,-0.011062453883249725,0.003637577328378946,1.366599319151688,2.7472651941360207,0.8807442343485713
1731474151.0393903,-0.35689619183540344,0.43784937262535095,-9.982269287109375,0.012835444059421441,-0.010153635334058967,0.003700624340243973,1.3616536796751972,2.7544902279214,0.880596357007193
1731474151.089344,-0.34376397728919983,0.4424741268157959,-9.984296798706055,0.013376180490475982,-0.009287766629185928,0.003762175681370269,1.3566977037752233,2.7604882891960103,0.8807066302253858
1731474151.1394033,-0.34501925110816956,0.4349685609340668,-9.980411529541016,0.013865339093554144,-0.008466745573815392,0.003821843022623107,1.3518039743537535,2.7678171607599285,0.8805811988504222
1731474151.1892505,-0.35001081228256226,0.4367660880088806,-9.98748779296875,0.014302989646463489,-0.007692191765271336,0.003879324059367425,1.3469413417606528,2.7737697420405536,0.8806922446698843
1731474151.2393665,-0.35077399015426636,0.4410512447357178,-9.983784675598145,0.014689401652759173,-0.006965442799515355,0.0039343905130372146,1.3421166609005935,2.779701818313226,0.8808129827908305
1731474151.2891529,-0.35077399015426636,0.4410512447357178,-9.983784675598145,0.015025057521534536,-0.00628756558423237,0.003986867609800433,1.3373167959005985,2.7872099470087317,0.8806590290723261
1731474151.2891529,-0.3346041738986969,0.4414082169532776,-9.978825569152832,0.015310647905274262,-0.005659388764516209,0.004036631332112894,1.3372763757308008,2.7872602690702855,0.8806600097781275
1731474151.339152,-0.3532467186450958,0.44168803095817566,-9.982125282287598,0.015547022745259593,-0.005081527342624862,0.00408362491287283,1.3325613452168112,2.79314802562485,0.880779932699451
1731474151.38902,-0.3444956839084625,0.44681721925735474,-9.989038467407227,0.015735154798821246,-0.004554397917931892,0.004127862270697327,1.3278985043809872,2.800716394780165,0.8806398740472842
1731474151.4390323,-0.3444956839084625,0.44681721925735474,-9.989038467407227,0.015876145609278015,-0.004078242890449358,0.004169393296563874,1.3232104598443901,2.8066765124084236,0.8807615423136798
1731474151.4390323,-0.3412024676799774,0.45108357071876526,-9.988518714904785,0.015971220445044218,-0.003653163823450146,0.0042082545775571755,1.3231730744915866,2.8067242052397496,0.8807625589813547
1731474151.4888942,-0.35135704278945923,0.44728460907936096,-9.988907814025879,0.016021702699958985,-0.003279148463251007,0.004244445674384719,1.3185622913215054,2.8144777306853994,0.8806336255129841
1731474151.5399947,-0.3428148031234741,0.43845781683921814,-9.985496520996094,0.016029011465424584,-0.0029560697398932677,0.0042779340285249,1.3138786380029341,2.8205525051472953,0.880758404491924
1731474151.589838,-0.35130253434181213,0.43799132108688354,-9.989453315734863,0.015994674730891518,-0.002683642341031141,0.004308669791851266,1.3093376995910317,2.8264871970690684,0.8808912213336942
1731474151.6397727,-0.34227749705314636,0.4340595602989197,-9.994230270385742,0.01592032901990189,-0.002461361895937852,0.00433658915964212,1.3048493803538883,2.834490727713552,0.8807260887884321
1731474151.6898038,-0.34227749705314636,0.4340595602989197,-9.994230270385742,0.015807699248447275,-0.002288466432825067,0.004361591911341348,1.3003543991662299,2.84049398151262,0.8808589930038531
1731474151.6898038,-0.345090389251709,0.4354267120361328,-9.992863655090332,0.01565856506431518,-0.002163928740098345,0.00438351380353111,1.3003174084248104,2.840543581878316,0.8808601373963457
1731474151.7628806,-0.345090389251709,0.4354267120361328,-9.992863655090332,0.015474739703326816,-0.0020864729450833053,0.0044021239287781845,1.2939030685603023,2.851458791900757,0.8807687751693191
1731474151.7628806,-0.3515869379043579,0.4293767511844635,-9.992466926574707,0.015258078673450966,-0.0020545997043018406,0.0044171427090183716,1.2938610927240608,2.8515160930354755,0.8807700302713092
1731474151.7896523,-0.3438718020915985,0.40278133749961853,-9.977875709533691,0.015010499634010382,-0.002066571382312973,0.004428273984797619,1.2915405273323601,2.854690439950759,0.8808411491144608
1731474151.839626,-0.3438718020915985,0.40278133749961853,-9.977875709533691,0.014733981132380093,-0.0021203165059936863,0.004435269033880004,1.2871979555917756,2.8630994673410783,0.8807017492556954
1731474151.839626,-0.3230764865875244,0.15276339650154114,-9.979936599731445,0.014430513305544878,-0.0022130905611654093,0.004438002951155009,1.2871746986516999,2.8631318084522253,0.88070242550418
1731474151.8895721,-0.3230764865875244,0.15276339650154114,-9.979936599731445,0.014101995433357316,-0.0023405875508811314,0.004436505248713288,1.2828816739007751,2.869123055391825,0.8808332497788891
1731474151.8895721,-0.22208143770694733,0.187400683760643,-10.070066452026367,0.013750036208856075,-0.002495866028990786,0.004430859621572721,1.2828562830692414,2.8691586176641986,0.8808340592944627
1731474151.939552,-0.3626958727836609,-0.3957504630088806,-10.0033597946167,0.01337568559341495,-0.0026685159854624957,0.004420925833797218,1.2785868364549902,2.8751583681658652,0.8809762072296076
1731474151.989412,-0.49128592014312744,-0.6028002500534058,-10.101073265075684,0.012979582893580777,-0.0028429780718871285,0.004406042188664575,1.2743683889876678,2.883848103803932,0.8807831756672053
1731474152.039409,-0.33004650473594666,0.15001556277275085,-9.991525650024414,0.012562741922337894,-0.002996421685205493,0.00438489856879895,1.2701592051285813,2.892694129575291,0.8806687171850471
1731474152.0893848,-0.42409035563468933,-0.23452405631542206,-9.928579330444336,0.012127112918792525,-0.0030993124033663224,0.004355736745243479,1.2659384965007676,2.8988301203760702,0.8807978380680749
1731474152.139399,-0.3635537326335907,0.16380023956298828,-9.96257495880127,0.01167543714629757,-0.0031185797452515695,0.004316939671031068,1.2617683008986895,2.9049283066601927,0.8809372132381954
1731474152.1892323,-0.3265819549560547,0.03705446049571037,-9.926668167114258,0.011210901940315529,-0.003020366625280319,0.004267591232900224,1.2576457279617197,2.9109908362289563,0.8810866225333442
1731474152.2392316,-0.34383344650268555,0.2610261142253876,-9.951214790344238,0.010736798056070597,-0.002771816631010727,0.004207636455380757,1.2535322246369942,2.9170731016597715,0.8812472808362084
1731474152.2891235,-0.35642221570014954,0.23940710723400116,-9.95168685913086,0.010256217409095755,-0.0023426006753414002,0.004137798107438893,1.2495112584734667,2.926397811262275,0.880967382142636
1731474152.3392637,-0.3735845685005188,0.305618554353714,-9.976515769958496,0.009772022760425825,-0.001706105354602546,0.004059399086255879,1.2454200014625485,2.9325655735205407,0.8811198158633015
1731474152.389072,-0.3662432134151459,0.2762035131454468,-9.98367977142334,0.009287008487886798,-0.0008401092296029117,0.003974107428700045,1.2414395761738402,2.942158328997159,0.8833649333361288
1731474152.4390504,-0.3853393793106079,0.2848801612854004,-9.992253303527832,0.008804028526903382,0.00027308382688185924,0.003883677998501486,1.2374142227769702,2.9483488474599664,0.8837723853890862
1731474152.4890246,-0.3745778203010559,0.2969180941581726,-9.987142562866211,0.0083260508574768,0.0016468531030088085,0.0037897678430685476,1.2334881882533164,2.9582127380085947,0.8860655569405138
1731474152.539969,-0.36941108107566833,0.32635197043418884,-10.017279624938965,0.007856156839281779,0.003290510476301246,0.0036938312982786638,1.2294327777552254,2.964583439737147,0.8867052662858409
1731474152.5898287,-0.3613957464694977,0.32036691904067993,-9.987659454345703,0.007397466944547888,0.0052094523077294425,0.003597044208357922,1.2255015391522235,2.970799779392211,0.8873375553777723
1731474152.6398501,-0.3558109700679779,0.3377763330936432,-10.017905235290527,0.006953013836527882,0.0074052949221375215,0.0035002611989889887,1.221598807446321,2.981188494889455,0.8872105775849677
1731474152.6896672,0.11172740161418915,0.9410831928253174,-9.988750457763672,0.006525205361771463,0.00987554541105911,0.003404028798278616,1.217719831636827,2.9874757710029898,0.8877719414551083
1731474152.7397246,0.6022413969039917,1.6053311824798584,-9.950591087341309,0.006113701819182063,0.012611194764503396,0.0033086819169744087,1.2138485650222326,2.9982257212482386,0.8877085128944086
1731474152.7897217,0.45707929134368896,1.1785728931427002,-9.883322715759277,0.005711652398566148,0.015592306462146927,0.003214645352401832,1.2099658953023487,3.0046972871999897,0.8882254747455482
1731474152.8396256,0.18722468614578247,0.8254978060722351,-10.014012336730957,0.005303199153714637,0.01878581340898581,0.003122823264464273,1.2060840884422284,3.0112336446567918,0.8887521212463385
1731474152.889567,-0.2138817459344864,0.33085402846336365,-10.020838737487793,0.004864972918322587,0.022148822525600232,0.003034565788728513,1.2022533186921254,3.017755991409667,0.889281184260141
1731474152.939633,-0.84199458360672,-0.42900434136390686,-10.077438354492188,0.004371079687940938,0.0256357768005355,0.0029510804246102073,1.1984542556080962,3.029297735206274,0.8888133279579888
1731474152.9894435,-1.1347620487213135,-0.6553553342819214,-10.159132957458496,0.0037996197790074273,0.02920654224880105,0.0028727145335425306,1.1946365962129162,3.036033589463331,0.8892805455697056
1731474153.0395005,-1.1347620487213135,-0.6553553342819214,-10.159132957458496,0.0031385243861499056,0.03283297812545999,0.0027983388413865638,1.1908536466959232,3.0480575937171475,0.8864718299870049
1731474153.0395005,-0.5375619530677795,0.026560742408037186,-10.053828239440918,0.0023879344717063215,0.036501160307840064,0.0027250281656729268,1.190816729651723,3.0481248116406654,0.8864734092129904
1731474153.0893981,-0.6419805884361267,-0.14039817452430725,-10.018117904663086,0.001557977007637795,0.040208515584718975,0.0026484354031183917,1.1870515459460937,3.0550331837688356,0.8866378077994602
1731474153.13939,-0.48468977212905884,0.17504572868347168,-9.904268264770508,0.0006644655553135336,0.043958901542586,0.0025637875497810875,1.1832166393376051,3.0621798505250974,0.8868118879042398
1731474153.1893013,-0.5061772465705872,0.20886747539043427,-9.975037574768066,-0.00027423226067023953,0.047758792058732395,0.0024669305812283805,1.1794192884863821,3.0693715254375507,0.8869905447114634
1731474153.2392278,-0.504601240158081,0.35937514901161194,-9.961531639099121,-0.001238697982607412,0.05161474906551399,0.0023548891293449893,1.175591951043668,3.076740810126137,0.8871765584838022
1731474153.2890863,-0.5235366225242615,0.4285810589790344,-9.942535400390625,-0.0022091724559068484,0.0555314723596001,0.002225859899759098,1.1718922205090025,8.487107230713093,0.8850979489971917
1731474153.3391986,-0.5182399153709412,0.41647854447364807,-9.95583724975586,-0.0031658390040264317,0.05951047864038326,0.002079044891843395,1.1680263183789548,8.546394323173269,0.885155624506656
1731474153.3890479,-0.5484158992767334,0.4480695128440857,-9.937871932983398,-0.0040889430747477196,0.06354954236173038,0.001914577017040198,1.1642803530505144,8.853441033939319,0.884549499285768
1731474153.4390175,-0.5478430390357971,0.4370619058609009,-9.939542770385742,-0.004958882797533775,0.06764277402459172,0.0017334619288684868,1.1604361207054545,8.900619163715598,0.8846142956340033
1731474153.4889638,-0.5263280868530273,0.4694240391254425,-9.992203712463379,-0.005756302927284414,0.07178097757161178,0.0015374587553191566,1.1566759147036954,9.017273090303165,0.8843254695394537
1731474153.5389593,-0.5467596054077148,0.46723413467407227,-9.985711097717285,-0.00646228152731758,0.07595201933580512,0.0013288163290387637,1.1528058349659343,9.05560972762195,0.8844118845337567
1731474153.5898702,-0.551529049873352,0.4757702946662903,-9.996859550476074,-0.007058550328754773,0.08014117793823676,0.0011099216751365806,1.148933294918463,9.114272800868141,0.8841904820926771
1731474153.6398945,-0.5152885317802429,0.4587487578392029,-9.976001739501953,-0.007527655917821194,0.08433153400584188,0.0008830821614174956,1.145015523231619,9.146217494059039,0.8842877739901238
1731474153.6898081,-0.5710768699645996,0.47691261768341064,-10.003650665283203,-0.007853115831273079,0.08850442501555802,0.00065048350071644,1.1412005238020166,9.174197218905142,0.8842225584572753
1731474153.7397523,-0.525538980960846,0.48766395449638367,-9.994609832763672,-0.008019550886299416,0.09263987402205102,0.00041417532285144173,1.1373537336304298,9.19851757070701,0.8841363247095454
1731474153.789613,-0.5084438323974609,0.5185731053352356,-9.965476989746094,-0.00801279928606193,0.09671688265855036,0.0001760470365006747,1.133393385260613,9.221195077709291,0.8842504136996889
1731474153.8396065,-0.5292466878890991,0.4623800218105316,-9.98769760131836,-0.007820125493771524,0.10071364752896395,-6.211349805137508e-05,1.129423938993486,9.244057336398035,0.8843643399977202
1731474153.88953,-0.48913973569869995,0.46731847524642944,-9.979022026062012,-0.007430436936049632,0.10460791193980355,-0.0002985302011308784,1.125426084863338,9.267229524338482,0.8844780871150079
1731474153.9395475,-0.4685397744178772,0.5056860446929932,-9.99309253692627,-0.006834443150044428,0.10837743835606473,-0.0005314445840696185,1.1215329936036607,9.262746438119597,0.8842794287295865
1731474153.9894257,-0.45702219009399414,0.4998912811279297,-9.956080436706543,-0.006024865682571866,0.112000308749419,-0.0007591573437622685,1.117620538283176,9.257241485249413,0.8840868742283384
1731474154.0394197,-0.4022035002708435,0.5028836131095886,-9.970311164855957,-0.004996685064969233,0.11545501964225259,-0.0009799841822223329,1.1135781014196389,9.273152062007517,0.8841698852572736
1731474154.089314,-0.42270535230636597,0.48164358735084534,-9.983999252319336,-0.003747352652344497,0.11872062588804289,-0.0011921814989939493,1.1095463763283127,9.289267594463096,0.88424976738646
1731474154.1392968,-0.38456615805625916,0.5007065534591675,-9.960416793823242,-0.0022769103236043382,0.12177700302782632,-0.0013939628551202618,1.1054588267794563,9.305878185345993,0.8843273557973849
1731474154.1892097,-0.3837924003601074,0.4896668791770935,-10.00211238861084,-0.0005879823725261054,0.1246050956372738,-0.001583574699954064,1.1013999592241739,9.322665291446025,0.8844006146208391
1731474154.2391903,-0.3806689977645874,0.47306615114212036,-10.001392364501953,0.0013143089364394257,0.1271871045979535,-0.0017594010925666374,1.0973367928856896,9.339787696708827,0.8844698014450125
1731474154.2891269,-0.5227342247962952,0.9770021438598633,-9.972333908081055,0.003422625612932247,0.12950623618259016,-0.0019200916065560108,1.0934737097441425,9.301628488820716,0.8842413303960782
1731474154.3391964,-0.6536251306533813,1.1910713911056519,-9.957026481628418,0.005728262336907075,0.1315449821324388,-0.0020645506162259688,1.0894082388371618,9.315294743961418,0.8842930154722436
1731474154.389024,-0.5680765509605408,0.5152410864830017,-9.884139060974121,0.008222458400967216,0.13328276530945152,-0.0021916771138146044,1.0853795127947596,9.329227628616723,0.8843391282385642
1731474154.438984,-0.8518714904785156,1.0223649740219116,-10.114818572998047,0.010897527465825325,0.13469582770929703,-0.0023001448719665793,1.081612358408717,9.284150743993909,0.8842102490542877
1731474154.4890203,-0.5428992509841919,0.5303182005882263,-9.948053359985352,0.013747523359141518,0.13575921026683224,-0.0023886671275907094,1.0776244795681735,9.294634786753589,0.8842444896710976
1731474154.4890203,-0.5428992509841919,0.5303182005882263,-9.948053359985352,0.016768135307386682,0.13644869733976028,-0.0024563851012494855,1.076370955798372,9.298021439595173,0.8842540575126833
1731474154.8706543,-0.253031849861145,0.3442539572715759,-9.981415748596191,0.019955366614969827,0.13674281051614454,-0.002502719282003631,1.0494847009239356,9.17231091142596,0.8844445949012671
1731474154.9205117,-0.23775433003902435,1.9156547784805298,-9.855184555053711,0.023303481643984294,0.13662345063313353,-0.0025269603751327356,1.0462227506647794,9.147217337181136,0.884371715696399
1731474154.9705315,-0.4001409411430359,0.5899046659469604,-9.77047061920166,0.02680344751707229,0.1360728372943956,-0.0025278103367568066,1.0427850199678999,9.148298850262922,0.8843694659941229
1731474155.020408,-0.1947299689054489,1.112312912940979,-10.022409439086914,0.03044267909079511,0.13507042849726392,-0.0025028622242289885,1.039654191423143,9.11906371757908,0.8843097229883822
1731474155.0704117,-0.1947299689054489,1.112312912940979,-10.022409439086914,0.03420541789534618,0.1335936551887853,-0.0024488378179846407,1.0363515765359175,9.119185060261495,0.8842947463308516
1731474155.0704117,-0.21322882175445557,0.8714746236801147,-10.088143348693848,0.038072756924517406,0.1316195529253645,-0.002362776450164665,1.0363254396352335,9.119187369208518,0.8842946017660308
1731474155.1203022,-0.2239534556865692,0.9041865468025208,-9.905142784118652,0.04202271403362878,0.1291255686783599,-0.002242943919361105,1.0330887413884662,9.119642104899262,0.8842735532169086
1731474155.1704328,-1.3943976163864136,-0.5810168385505676,-10.084527969360352,0.04603186471855286,0.12609215709357474,-0.002088773422667461,1.030016432580893,9.120402335814836,0.8842475504302321
1731474155.2202253,-0.5982986688613892,0.3721615672111511,-10.063822746276855,0.050079368121215884,0.12250809092778481,-0.0019005936831396047,1.0269208796455385,9.121524259178019,0.8842150781063715
1731474155.2702136,-0.46314603090286255,0.03619835898280144,-10.011496543884277,0.05415013041569879,0.11837469188236888,-0.001679758872361492,1.0245392099090853,9.09593222725849,0.8841817957127296
1731474155.320184,-0.46314603090286255,0.03619835898280144,-10.011496543884277,0.0582334842103913,0.11370567122924764,-0.0014286797044111232,1.0217577358336372,9.096611841247274,0.8841454362740524
1731474155.320184,-0.5183843374252319,0.10595713555812836,-10.015792846679688,0.06232009309667867,0.1085251239169644,-0.001150463966947292,1.0217360902582608,9.096618480045004,0.8841451302271808
1731474155.3702235,-0.11161405593156815,0.15249505639076233,-10.028287887573242,0.06640043474021812,0.10286609502939537,-0.0008486130824173653,1.0196488171200015,9.068585996126828,0.8841227769506339
1731474155.4200754,-0.11161405593156815,0.15249505639076233,-10.028287887573242,0.07046360401076594,0.09676894240598678,-0.0005269591914046892,1.0172641842495034,9.068261949388056,0.8840877657516134
1731474155.4200754,0.01588253118097782,0.03391246125102043,-10.020575523376465,0.0744954974180699,0.09027968768051671,-0.00018966061899526279,1.0171990221609255,9.068256254379149,0.8840867526059143
1731474155.469965,-0.25383296608924866,0.3448643088340759,-9.974748611450195,0.078477800721543,0.08344883902749621,0.000158904127404136,1.0150606313028623,9.068162492999326,0.8840522078425082
1731474155.5198517,-0.10165785253047943,0.2227284014225006,-9.922452926635742,0.08238860031753661,0.07632998599899668,0.0005144532807412364,1.013063426527839,9.068261891120194,0.8840175899797287
1731474155.5699394,-0.1839110553264618,0.4192267656326294,-9.99095344543457,0.08620370249442018,0.06897796527398807,0.0008732310958793047,1.011689123837292,9.034682996763255,0.8840234592299451
1731474155.6198208,-0.19280876219272614,0.3612631559371948,-9.950533866882324,0.08989761128703382,0.06144724146687196,0.0012322103932407354,1.0100744029593476,9.033213874928382,0.8839976880824246
1731474155.6698928,-0.00384950777515769,0.6912849545478821,-9.922014236450195,0.093444053669384,0.05379052722105854,0.0015890444041446311,1.0092174440069501,9.03183111952687,0.8841396012798856
1731474155.7207956,0.744889497756958,1.6483407020568848,-9.939879417419434,0.09681530604790398,0.04605626257446567,0.001942093465892963,1.0085269545496651,9.030301025338856,0.8843616561957036
1731474155.770732,0.3141680657863617,1.1341841220855713,-10.00156307220459,0.09997958731850659,0.03828410573341898,0.0022904527984341713,1.0076932176462559,9.029222652253132,0.8843923543949953
1731474155.8206358,-0.22723086178302765,1.8611536026000977,-9.893811225891113,0.10289946110750398,0.030500816967337932,0.0026337675464956968,1.0070966038450324,9.028204762086112,0.884430078091401
1731474155.8706558,-0.4820658564567566,1.1263463497161865,-9.909140586853027,0.10553488302713834,0.022719088807778946,0.002972154176780756,1.006773407882785,9.02728022398411,0.884473697490094
1731474155.9206085,-0.49431735277175903,1.4234706163406372,-9.892594337463379,0.1078489302937625,0.014939076296751366,0.003306428611734359,1.0071839623680243,9.026128931100352,0.8845567060342084
1731474155.970523,-0.07631285488605499,0.5004467964172363,-10.070384979248047,0.1098113061578326,0.007151976711516584,0.0036381369117875705,1.0078677841015518,9.024776619854673,0.8847174016748046
1731474156.0204434,-0.24069371819496155,-0.35270124673843384,-10.206377029418945,0.11139799469338396,-0.0006539212041827545,0.003968792434039289,1.0083610261459393,9.023885094765028,0.8847975004245083
1731474156.0704284,-0.6625279188156128,-0.9579870700836182,-10.202309608459473,0.11258978667242217,-0.0084843531706902,0.004298460429555347,1.009135132000818,9.022980947644417,0.8848880480930578
1731474156.1203353,-0.7205891013145447,-0.26662561297416687,-10.021163940429688,0.11337296099493799,-0.016330584092276206,0.004624792545439269,1.0101889419463979,9.022048257717676,0.8849894825270785
1731474156.170457,-0.7205891013145447,-0.26662561297416687,-10.021163940429688,0.11374154505594058,-0.02416690972341888,0.0049434425615732455,1.0120242898160647,9.02056051351412,0.8850402828727718
1731474156.170457,-0.539745032787323,-0.3440362215042114,-10.02015209197998,0.11369826454013707,-0.03195414714755476,0.0052492914689932085,1.0120352455744017,9.020552908063289,0.885041103968632
1731474156.220292,-0.539745032787323,-0.3440362215042114,-10.02015209197998,0.11325337164996369,-0.039643730788761475,0.00553728800059424,1.0136488936368968,9.019480947391367,0.8851583927804616
1731474156.220292,-0.7099660634994507,-0.18074804544448853,-9.97559928894043,0.11242285172298286,-0.04718001958943685,0.005802714172873829,1.0136618543387714,9.019472661938115,0.8851593102521743
1731474156.270222,-0.4648881256580353,-0.01231425255537033,-9.95477294921875,0.1112273395360224,-0.05450248468237193,0.006041383873072454,1.0160482762239726,9.017868264502491,0.8851309152714056
1731474156.320121,-0.6345815658569336,0.11943099647760391,-9.89240837097168,0.10969142173858104,-0.06154873789534225,0.00624999724783673,1.0182640859600023,9.01649961216487,0.8852610844905292
1731474156.370157,-0.4727819561958313,0.4156271815299988,-9.890789985656738,0.10784271576546489,-0.06825786456834843,0.006426559036255601,1.021190344327227,9.014540901908587,0.8852221187588473
1731474156.419992,-0.4727819561958313,0.4156271815299988,-9.890789985656738,0.1057108902427694,-0.07457356645585245,0.006570678260273271,1.0239138174870326,9.012844744590597,0.8853618954639336
1731474156.419992,-0.4746846556663513,0.4383656084537506,-9.960733413696289,0.10332670930695134,-0.08044652636568436,0.006683535589788943,1.0239352531531534,9.012831311992558,0.8853630063862256
1731474156.4700122,-0.4082532823085785,0.4868992269039154,-9.922954559326172,0.10072119303531596,-0.08583543131135847,0.006767492035058017,1.0269210898455994,9.01093179371911,0.885519690506155
1731474156.5199811,-0.4082532823085785,0.4868992269039154,-9.922954559326172,0.09792499501972433,-0.09070702958246078,0.006825657366688101,1.0306332615511273,9.008262193556344,0.885419656604825
1731474156.5199811,-0.42095184326171875,0.46034306287765503,-9.94420051574707,0.09496789750008845,-0.09503586456368167,0.006861686398780724,1.0306578594144333,9.008245767488622,0.8854207952379252
1731474156.5699735,-0.3570947051048279,0.568742036819458,-9.979055404663086,0.09187846957011025,-0.09880385425068891,0.0068796297550556655,1.0341148597133165,9.005890760998023,0.8855840814704051
1731474156.6198468,-0.35170891880989075,0.5658196806907654,-10.006991386413574,0.08868380031151905,-0.10199995416920947,0.0068836041140058896,1.038299621716811,9.002648340391184,0.8854835910459946
1731474156.6698449,-0.35522300004959106,0.5524300336837769,-9.985919952392578,0.08540918677131636,-0.10461997961821232,0.006877394625017557,1.0422325660308862,8.999752467588674,0.8856548273373702
1731474156.7197773,-0.35522300004959106,0.5524300336837769,-9.985919952392578,0.08207795764375082,-0.10666621777611399,0.006864245994910319,1.0463518610188804,8.996610016737325,0.8858421964675053
1731474156.7197773,-0.3219449818134308,0.549161434173584,-9.999293327331543,0.07871148155010645,-0.10814673687300425,0.006846879065619232,1.0463861131698609,8.996583439994032,0.8858437862155182
1731474156.7707493,-0.28970977663993835,0.5290778875350952,-9.999696731567383,0.07532913280279707,-0.10907464095856732,0.006827542053084731,1.0507696821569654,8.993116971531288,0.8860515320326205
1731474156.8206139,-0.3143123984336853,0.5126650929450989,-10.002466201782227,0.07194814626162549,-0.10946734069538444,0.006807999173157267,1.1862245850726498,8.988537298964212,0.8859167600465477
1731474156.870688,-0.2599155902862549,0.5240530371665955,-9.9974946975708,0.06858352621306057,-0.10934582767962,0.006789527212312942,1.1925383065010524,8.983745927830878,0.885945017954823
1731474156.9205627,-0.2969132363796234,0.4891177713871002,-9.995007514953613,0.06524806557795605,-0.10873402507602098,0.006772965202239096,1.19587547468008,8.979556900499771,0.8861538669052541
1731474156.9705002,-0.2292598932981491,0.49995648860931396,-10.004132270812988,0.06195239492776032,-0.10765821672127693,0.006758786884914406,1.1980724716093964,8.97411336433027,0.8861852042764952
1731474157.0204966,-0.2292598932981491,0.49995648860931396,-10.004132270812988,0.05870498806401706,-0.10614653364228646,0.006747145092450861,1.2011516965000306,8.96927551447013,0.8864158556349128
1731474157.0204966,-0.2579132318496704,0.4924958348274231,-10.007848739624023,0.05551214949277981,-0.10422854538590934,0.006737878056111213,1.2011752503084618,8.969238377225745,0.8864176420935943
1731474157.0704823,-0.24598565697669983,0.4703907370567322,-10.037233352661133,0.05237816289109047,-0.1019349088658014,0.006730487443820885,1.2043716558909718,8.964174576846677,0.8866635028794393
1731474157.1203732,-0.2604096531867981,0.4892358183860779,-9.96359920501709,0.04930561967627605,-0.09929699083005426,0.006724126707487541,1.2077171113818221,8.958824583455796,0.8869278537226952
1731474157.1703653,-0.2412901222705841,0.49372807145118713,-10.008519172668457,0.04629572551578968,-0.09634654432279477,0.006717716090205805,1.2060209351886244,8.952149754238931,0.8867426215340861
1731474157.2202988,-0.25269076228141785,0.49582356214523315,-9.967084884643555,0.04334850445364697,-0.09311552311570681,0.006710154963999441,1.2065868539505618,8.9451647349725,0.8868906973832545
1731474157.2702527,-0.29472479224205017,0.49913355708122253,-9.967273712158203,0.040463000170324635,-0.08963595631942764,0.006700483942532129,1.2093114889589989,8.939060211992736,0.8871692595929979
1731474157.3201697,-0.29472479224205017,0.49913355708122253,-9.967273712158203,0.037637598310547866,-0.08593979964056625,0.006688003910224134,1.212119283795453,8.932768643058534,0.8874630354427143
1731474157.3201697,-0.2970694601535797,0.489962100982666,-10.00029182434082,0.034870403788056364,-0.08205875943056723,0.006672324774237535,1.21214384018606,8.932713600855413,0.8874656343321451
1731474157.370167,-0.34497785568237305,0.48454904556274414,-9.985206604003906,0.03215952490419023,-0.07802408535273825,0.006653256927291325,1.2150295517208154,8.92623803529993,0.8877750720377664
1731474157.4200604,-0.34497785568237305,0.48454904556274414,-9.985206604003906,0.02950332449526913,-0.07386634209380397,0.006630661484443991,1.2124371574846922,8.918162513577004,0.8873926281100312
1731474157.4200604,-0.33604687452316284,0.4833928644657135,-9.957088470458984,0.026900666211310032,-0.06961521064068477,0.006604434590706234,1.2125501823283782,8.917854598369946,0.8874053332568618
1731474157.4700716,-0.3997398614883423,0.48361581563949585,-10.031452178955078,0.024351058058341066,-0.06529934593619366,0.006574564660669607,1.2149919503026296,8.911203855360867,0.8876844389330057
1731474157.5199513,-0.34380197525024414,0.5006750226020813,-9.992836952209473,0.02185474004052677,-0.06094628943860658,0.006541053672379175,1.2134295288480632,8.902445615073887,0.8873631968777417
1731474157.570007,-0.40116724371910095,0.47793707251548767,-9.987176895141602,0.019412736964045822,-0.056582425797294715,0.0065037617277333756,1.2156474314764374,8.895383194783571,0.8876288185701541
1731474157.6199002,-0.3695700168609619,0.49243950843811035,-9.979872703552246,0.017026827679466172,-0.05223293000171622,0.006462426058507502,1.2156604217689218,8.886203050713899,0.887349989885433
1731474157.6698487,-0.41193339228630066,0.5345649719238281,-9.984530448913574,0.014699500828608509,-0.04792172818300514,0.0064168103204210476,1.2178162812423146,8.878855808834315,0.8876034065423895
1731474157.7197323,-0.39578092098236084,0.5249258279800415,-9.9964017868042,0.012433939751525808,-0.04367159062135865,0.006366773618803922,1.2172367034116613,8.869431348676803,0.8873450141132427
1731474157.7697887,-0.4148857295513153,0.5152393579483032,-10.009360313415527,0.010234000671785554,-0.03950427144632586,0.006312212979691275,1.2192837495274136,8.861630143982632,0.8875958969357716
1731474157.8206913,-0.38384121656417847,0.5252273082733154,-9.947656631469727,0.008104134907703902,-0.035440496813208294,0.006252996972822536,1.2198777286989078,8.851493997681155,0.8874972638146145
1731474157.8705866,-0.37471675872802734,0.512197732925415,-9.963825225830078,0.006049197720150943,-0.03149984231655864,0.0061890657067296215,1.221844728283108,8.843648003157531,0.8877507561307217
1731474157.9205194,-0.39332878589630127,0.548274040222168,-9.980907440185547,0.004074184785531002,-0.027700650520226206,0.006120626334555729,1.2238830824286895,8.835493708841438,0.8880272502221386
1731474157.970504,-0.3940364420413971,0.5331264734268188,-9.951216697692871,0.002184056021795555,-0.024060040244700757,0.006048201949073468,1.2258910435571886,8.827427982955541,0.8883136237884927
1731474158.0204077,-0.3720216453075409,0.5273372530937195,-10.012054443359375,0.00038368089833205725,-0.02059394102192657,0.0059725380416729805,1.2279405773378835,8.819151925037197,0.888620622441103
1731474158.070431,-0.36154696345329285,0.5203379988670349,-9.981355667114258,-0.0013222594422505974,-0.017317037166441476,0.005894455829372582,1.2256317074926557,8.808640186457431,0.8880787000975253
1731474158.1203873,-0.33269548416137695,0.5211107134819031,-9.980409622192383,-0.002929494000535271,-0.014242637248765518,0.0058147079233125815,1.2274266146443749,8.80014080317084,0.8883636313162946
1731474158.170318,-0.3207956552505493,0.5135068893432617,-9.99845027923584,-0.004434435430668316,-0.011382570845824667,0.005733942420022453,1.2278747053610393,8.789425894808359,0.8879339157564138
1731474158.2202368,-0.30687013268470764,0.5224953889846802,-9.994780540466309,-0.005834426303496346,-0.00874713965149318,0.005652711848922417,1.227909684686748,8.778267885623318,0.8876739649649016
1731474158.2701979,-0.3119085729122162,0.5182780623435974,-9.960308074951172,-0.007127894383984543,-0.0063451147445296955,0.005571460269346767,1.2295058892639839,8.770001511092218,0.8879054350158219
1731474158.3202002,-0.3232634663581848,0.5220323204994202,-9.994431495666504,-0.008314366352496442,-0.004183770396654367,0.005490584519176457,1.2311764610615794,8.761233042202347,0.8881648617156745
1731474158.3702445,-0.28144803643226624,0.5371149778366089,-9.997028350830078,-0.00939438281748987,-0.002268942959957822,0.0054104953417597555,1.2304545908907818,8.75004033680433,0.8878210670631216
1731474158.4200966,-0.28144803643226624,0.5371149778366089,-9.997028350830078,-0.010369468246070088,-0.0006051289170789732,0.005331544888949496,1.2318876423707126,8.74150897882548,0.8880587080522357
1731474158.4200966,-0.31811031699180603,0.5085797905921936,-9.998974800109863,-0.011242157804742027,0.0008044238827854932,0.005253924379665717,1.2319462266380543,8.741156882876023,0.8880687986023155
1731474158.4701083,-0.2963423728942871,0.5248386859893799,-9.973089218139648,-0.012015888594931919,0.0019577249456870878,0.0051776627623308855,1.2317930781495101,8.729794338886807,0.887605356912803
1731474158.5199509,-0.2963423728942871,0.5248386859893799,-9.973089218139648,-0.01269478611894,0.0028540896031250184,0.005102731447173265,1.2331131543994343,8.721196549065127,0.8878148244893521
1731474158.5199509,-0.2880183458328247,0.5108221173286438,-10.006240844726562,-0.013283548594939656,0.003494114042991137,0.005029156433452018,1.2331228042097306,8.721132957419318,0.8878164217925425
1731474158.5699735,-0.2980497181415558,0.49068212509155273,-9.973512649536133,-0.01378741352769187,0.0038796500968684196,0.004957011536604621,1.2344064934475327,8.712564943383757,0.8880379463109958
1731474158.6198955,-0.2980497181415558,0.49068212509155273,-9.973512649536133,-0.014212083149149343,0.004013868850086129,0.0048863726176259946,1.2356599623456546,8.703975558792626,0.8882725451374273
1731474158.6198955,-0.31672346591949463,0.5230117440223694,-9.992152214050293,-0.014563584004114505,0.0039012969396739665,0.004817357032402714,1.2356694595973525,8.703909575785975,0.8882743956170706
1731474158.6698563,-0.3087119460105896,0.5085582733154297,-10.039146423339844,-0.014848093855496267,0.003547683687013331,0.004750094592797224,1.2341954500846457,8.691814783364475,0.8877825708843788
1731474158.719787,-0.3087119460105896,0.5085582733154297,-10.039146423339844,-0.015071797927198052,0.0029597876125404075,0.00468448407652166,1.235222033613456,8.683182576530196,0.8879958019467918
1731474158.719787,-0.37044280767440796,0.5171928405761719,-9.983965873718262,-0.01524076559530856,0.0021452406772235677,0.004619958671130744,1.235229807358385,8.683116007323301,0.8879974925277635
1731474158.769825,-0.35450124740600586,0.50801682472229,-9.950888633728027,-0.015360728273942536,0.0011124674341832415,0.0045556060498254634,1.2354190899901978,8.670666918604203,0.8876021689509718
1731474158.8206687,-0.35450124740600586,0.50801682472229,-9.950888633728027,-0.015436819625231218,-0.00012939566246133864,0.004490606718799089,1.2364236785124896,8.661842267864566,0.8878018514599161
1731474158.8206687,-0.3457523584365845,0.5308553576469421,-10.02107048034668,-0.015473500239245735,-0.0015705811906210451,0.004424544787690779,1.2364317191902225,8.661770194902386,0.8878035299394411
1731474158.8708599,-0.3598632216453552,0.5240755081176758,-9.973990440368652,-0.015474648501887523,-0.0032008186074492895,0.004357311989504664,1.2373834875639969,8.653059443587843,0.8880118111979757
1731474158.9206185,-0.37419551610946655,0.5006221532821655,-9.971975326538086,-0.015443620317069848,-0.00500947078062375,0.004288886444519068,1.2382888829683703,8.644412351795918,0.8882290400210051
1731474158.970634,-0.3892771303653717,0.5268489718437195,-10.022506713867188,-0.01538319704420107,-0.006985573298370044,0.004219284937689413,1.2374573603857772,8.631348213361315,0.8878196123929429
1731474159.0204418,-0.3892771303653717,0.5268489718437195,-10.022506713867188,-0.015295482459205829,-0.009117854956544996,0.0041484939479294845,1.2382242372842889,8.62258803890609,0.8880234626401214
1731474159.0204418,-0.42074161767959595,0.5047159194946289,-9.953629493713379,-0.015181823263920409,-0.011394830337016661,0.004076315131024698,1.2382302883130456,8.622517061594776,0.8880251540033515
1731474159.0705018,-0.4061630666255951,0.5313308238983154,-9.978107452392578,-0.01504275710588253,-0.01380487201870417,0.0040024433149566125,1.2404275164190655,8.609083977754349,0.8878319853823081
1731474159.1203768,-0.40526318550109863,0.5140536427497864,-10.022367477416992,-0.014878015430750957,-0.016336245267768466,0.0039266866005870935,1.2415773901210083,8.595322355345258,0.8876028770078843
1731474159.170345,-0.3965300917625427,0.502784788608551,-9.966509819030762,-0.014686642770808065,-0.01897715121633247,0.0038489604254880365,1.2425888533765064,8.586378360665824,0.8877864672347381
1731474159.2203305,-0.38581791520118713,0.508468508720398,-9.955740928649902,-0.014467200637732294,-0.021715725105759087,0.0037692203363001967,1.2435722959547924,8.577313786188524,0.8879809023641648
1731474159.2702694,-0.3934820294380188,0.535594642162323,-9.982986450195312,-0.014217972678732349,-0.024540039748482498,0.003687593060730034,1.244524187097473,8.568152684519415,0.8881854681339296
1731474159.3201983,-0.35386738181114197,0.5342658758163452,-9.970437049865723,-0.013937146530683758,-0.027438239991188648,0.0036044837129752573,1.2454492397778254,8.553636899544852,0.8878233967582065
1731474159.3701587,-0.3599652647972107,0.5136325359344482,-9.988588333129883,-0.013623014740693237,-0.030398724102433446,0.0035205015828193784,1.2463728725230068,8.544269209838575,0.8880092132797947
1731474159.4200087,-0.32312655448913574,0.5253065824508667,-10.006949424743652,-0.013274210360671175,-0.033410199032116596,0.003436321216178231,1.2478642081268,8.529233951662937,0.8877154793293341
1731474159.4701254,-0.32851725816726685,0.5242536067962646,-9.958294868469238,-0.012889927370190929,-0.03646164701826188,0.003352566170890044,1.2488138908013766,8.519655124890875,0.8878864728221296
1731474159.5200732,-0.2989529073238373,0.5134327411651611,-9.978981018066406,-0.012470091187280053,-0.039542324467064446,0.0032698134622146753,1.249740741929359,8.509889634892714,0.8880674148255912
1731474159.5699933,-0.2976040542125702,0.528435468673706,-10.035711288452148,-0.012015480896299334,-0.04264178177534826,0.0031886488946057025,1.250628922763341,8.500107722421767,0.8882548117655288
1731474159.6201284,-0.2584826648235321,0.5214108228683472,-9.999695777893066,-0.011527830433979046,-0.045749886056350345,0.0031095341849069974,1.2516628186676808,2.658131866907957,0.8877558416996237
1731474159.6698892,-0.29298895597457886,0.5123870372772217,-9.98195743560791,-0.011009907505523817,-0.04885685407860012,0.0030326290122141076,1.2525268356632393,2.594145193962943,0.8879154382207188
1731474159.7198591,-0.2805013358592987,0.5189118385314941,-9.997715950012207,-0.010465478067513141,-0.05195325376695308,0.002957855915836155,1.2533753645975243,2.529176129852633,0.8880847113718978
1731474159.7697053,-0.25231388211250305,0.526025652885437,-9.983038902282715,-0.009899158742501803,-0.055029996539264894,0.0028850676239914603,1.25462645616405,2.218004243973963,0.8875756895782619
1731474159.8196115,-0.2625800669193268,0.5331252813339233,-9.989421844482422,-0.009316323424226084,-0.05807839116928662,0.00281411747246354,1.2554834185994366,2.165791254592793,0.8877206140402643
1731474159.870672,-0.25197145342826843,0.5226522088050842,-10.016423225402832,-0.008723079873932763,-0.06109023156854363,0.0027448522646659253,1.2563015488665583,2.114401595642424,0.8878698726593874
1731474159.9206076,-0.25197145342826843,0.5226522088050842,-10.016423225402832,-0.00812619438266088,-0.06405783296544276,0.0026770222708483726,1.2570934914227672,2.0631868967826312,0.8880249056168642
1731474159.9206076,-0.2829984724521637,0.5082409381866455,-9.991646766662598,-0.007532938394744328,-0.06697399183536229,0.0026101659616115614,1.2570985460675106,2.0628552670144162,0.8880259294975441
1731474159.9705005,-0.28480449318885803,0.5353925824165344,-9.947487831115723,-0.006950845964637083,-0.06983192984340057,0.0025436740214437453,1.2583323166301914,1.995614764491788,0.8875533948978827
1731474160.0204332,-0.2747306227684021,0.5366898775100708,-10.02096939086914,-0.006387429261557788,-0.07262531621462012,0.002477021856132966,1.260711792871164,1.9452095463012982,0.8872776055163595
1731474160.0705328,-0.2890772521495819,0.5572153329849243,-9.990310668945312,-0.005849990015500945,-0.07534839194301554,0.002409854738810369,1.2615526340678402,1.9167982368158991,0.887385432316589
1731474160.120394,-0.2890772521495819,0.5572153329849243,-9.990310668945312,-0.005345523748385105,-0.07799612033360115,0.0023418626731752396,1.2624759056346846,1.884973487239343,0.8875111431148227
1731474160.120394,-0.30816128849983215,0.5108066201210022,-9.969518661499023,-0.004880609385138941,-0.08056424262035097,0.002272738386560289,1.262483255406763,1.8847175015141515,0.8875121747768859
1731474160.1703773,-0.3075338900089264,0.5318730473518372,-9.989680290222168,-0.004461265603862161,-0.08304914841053304,0.0022022830736325868,1.2633903023782023,1.8528286286432163,0.887643020184037
1731474160.220353,-0.3075338900089264,0.5318730473518372,-9.989680290222168,-0.0040928285895609285,-0.08544767808255703,0.0021304613456155463,1.2643540878588366,1.8138700211950856,0.8872857712020034
1731474160.220353,-0.3376113772392273,0.514896035194397,-9.994827270507812,-0.003779874024383367,-0.08775704028063092,0.002057340151892868,1.2643615514622344,1.8136279080403033,0.8872867264147517
1731474160.2703774,-0.34983736276626587,0.5286862254142761,-9.962014198303223,-0.003526114907672807,-0.08997479421276683,0.001983031484067486,1.2652386017044566,1.7849242398945486,0.8874019864013484
1731474160.3201654,-0.3544542193412781,0.5517596006393433,-9.99022388458252,-0.003334246604897319,-0.09209884542567856,0.0019077326771861998,1.2671832276778328,1.7560965795250547,0.8871195422637214
1731474160.370143,-0.3516252934932709,0.5374683141708374,-9.990341186523438,-0.003205846859918836,-0.0941275262989664,0.0018317696559356634,1.2682539694692883,1.7268949866084546,0.8869375620738144
1731474160.4202018,-0.35329899191856384,0.519231379032135,-9.9598970413208,-0.00314140354441233,-0.09605966904928012,0.0017555631454725198,1.2692258736922224,1.6971348322804873,0.8870297927452229
1731474160.4702244,-0.3345542550086975,0.5284436941146851,-9.966591835021973,-0.00314043591318646,-0.09789453374271151,0.0016796413125200838,1.2701844009043064,1.667301535348617,0.887125792115893
1731474160.5200076,-0.3611922562122345,0.5078816413879395,-10.020652770996094,-0.0032016505461523693,-0.09963166853118333,0.001604683731787251,1.2711392379501787,1.6370876784373856,0.8872263385169206
1731474160.570008,-0.3498118817806244,0.5143244862556458,-10.008946418762207,-0.0033230550321363527,-0.1012708067090765,0.0015313801702164687,1.2712540197884479,1.6071498399771622,0.8870839732547803
1731474160.6198819,-0.33152875304222107,0.5191381573677063,-9.96742057800293,-0.0035020307341465237,-0.10281180886321654,0.0014602120009274142,1.2721085794385054,1.576553265142361,0.8871821311750863
1731474160.6699362,-0.3189314603805542,0.520063042640686,-9.994635581970215,-0.0037354827284769142,-0.10425466761890921,0.0013914652903826072,1.2727233841587446,1.5461360910442457,0.8871573540800882
1731474160.7198498,-0.31146132946014404,0.49782794713974,-9.991044998168945,-0.004020081868343652,-0.10559953821491906,0.00132537925967632,1.2735505816625166,1.5149294846615664,0.8872628013014072
1731474160.7696915,-0.27925825119018555,0.5191643238067627,-9.976333618164062,-0.004352506347544602,-0.10684671715012398,0.0012621890426916184,1.2741081563485606,1.4845217735415854,0.8872547935075912
1731474160.8196826,-0.26903486251831055,0.5131709575653076,-9.989280700683594,-0.0047296751095305236,-0.10799661532623153,0.0012021227683495996,1.274898088516305,1.4528757745234608,0.8873646299970606
1731474160.8696597,-0.2614664137363434,0.5186227560043335,-10.001703262329102,-0.005148972559740835,-0.10904979525086901,0.00114540896220614,1.2754240699580321,1.4213090630576906,0.8873540569821576
1731474160.9207711,-0.2614664137363434,0.5186227560043335,-10.001703262329102,-0.005608383968938081,-0.11000702651645898,0.0010922142288598013,1.2761877480670072,1.3882391123103883,0.8874673427389619
1731474160.9207711,-0.2740640342235565,0.5009732246398926,-9.956851959228516,-0.0061064940753760375,-0.11086929847046112,0.0010425893363085988,1.276192151829287,1.3880456818067914,0.8874680108966481
1731474160.9705622,-0.274027019739151,0.5083372592926025,-10.000702857971191,-0.006642374880522375,-0.11163777531917092,0.000996550288744055,1.2770361005980786,1.3565058594857782,0.8875059160426989
1731474161.02048,-0.274027019739151,0.5083372592926025,-10.000702857971191,-0.007215432400095727,-0.11231373540213699,0.0009541549978006891,1.2788712543565726,1.3241531436301603,0.8874506741099226
1731474161.02048,-0.2422710508108139,0.5382094979286194,-10.02502155303955,-0.007825316819488202,-0.11289858575280154,0.0009153976638789731,1.2788777697164957,1.3239087743782063,0.8874514247353809
1731474161.070523,-0.2966766655445099,0.5066756010055542,-9.966814994812012,-0.00847191357183848,-0.11339395990886963,0.0008800645286429896,1.2797332929158536,1.2912902973262532,0.8875522735634668
1731474161.1204453,-0.24885393679141998,0.5543649792671204,-9.974495887756348,-0.009155297055726132,-0.11380180603313088,0.0008477982636769211,1.2805788421648787,1.2579295020729975,0.8876566969969312
1731474161.1704516,-0.2737577557563782,0.5325854420661926,-10.017370223999023,-0.009875640162338661,-0.11412445000806387,0.0008182829836061809,1.2813985763563247,1.2243614553532243,0.8877629622764985
1731474161.2202854,-0.2737577557563782,0.5325854420661926,-10.017370223999023,-0.010633166654443141,-0.11436464739731683,0.000791232468098075,1.2815528315296207,1.1912228559358098,0.8876201485324879
1731474161.2202854,-0.2906055152416229,0.5151991844177246,-9.989680290222168,-0.011428081765706906,-0.11452553960609663,0.000766206533202551,1.2815587812187308,1.190945027941271,0.8876208970567082
1731474161.2703397,-0.3137006163597107,0.5183002948760986,-9.986680030822754,-0.012260411444862078,-0.11461050615477884,0.0007425800903075503,1.2822633252238063,1.1571984682518321,0.887712352271899
1731474161.3202085,-0.3137006163597107,0.5183002948760986,-9.986680030822754,-0.01312979919990936,-0.11462302852987856,0.0007196997911210977,1.2829302072631263,1.123418836154054,0.8875853327185617
1731474161.3202085,-0.3133438229560852,0.5345419645309448,-10.003192901611328,-0.014035349494332106,-0.11456664340427726,0.0006969969817043824,1.282935761252842,1.1231382019873095,0.8875859804047316
1731474161.370244,-0.3098906874656677,0.528404951095581,-10.000290870666504,-0.01497559238063625,-0.11444498075609294,0.0006739609210921917,1.2833940214191706,1.0894149204713404,0.887499013742352
1731474161.4202275,-0.3098906874656677,0.528404951095581,-10.000290870666504,-0.015948548156118243,-0.1142618138098197,0.0006500608388917022,1.2840018947031744,1.0543875587033111,0.887568885975974
1731474161.4202275,-0.33454248309135437,0.49304723739624023,-9.936529159545898,-0.01695179326152054,-0.11402102359084419,0.0006247698431877716,1.284007255681735,1.0540666908590104,0.8875695309183328
1731474161.470167,-0.3619610667228699,0.5299280881881714,-10.047443389892578,-0.017982424313165882,-0.11372647118558649,0.0005976969950472416,1.2845619130725685,1.019417445347467,0.8876396264469743
1731474161.5199888,-0.36124423146247864,0.5293492674827576,-9.995766639709473,-0.019036907515137924,-0.11338192541273126,0.0005685670437524564,1.2850793984751347,0.9839465223331987,0.887712258736543
1731474161.570011,-0.3769206404685974,0.5511707663536072,-9.91990852355957,-0.020110940016849085,-0.11299115445885352,0.0005370929722572667,1.2849917971342206,0.9489504228311652,0.887570324554827
1731474161.6198852,-0.3783719837665558,0.543317973613739,-9.976374626159668,-0.021199417274116502,-0.11255808186514432,0.0005031422315773964,1.2853706791761266,0.9128925307250043,0.887632360843412
1731474161.6698837,-0.24439649283885956,0.7247949242591858,-9.980547904968262,-0.022296600909657693,-0.11208702982351784,0.0004670052160361524,1.2856943162344032,0.8766614480089964,0.8876954215017075
1731474161.7198694,-0.24439649283885956,0.7247949242591858,-9.980547904968262,-0.02339668145477257,-0.11158332307802396,0.00042932914062118537,1.2853132528575424,0.841197925764125,0.8875542479045697
1731474161.7198694,0.5133981704711914,1.6614665985107422,-9.919093132019043,-0.02449522591407206,-0.11105491007670681,0.00039095552936872194,1.2853148216628474,0.8409084220671496,0.8875546673084267
1731474161.769799,0.2999531030654907,1.1952157020568848,-10.016883850097656,-0.025592020086047017,-0.11051548378683497,0.00035294880582495343,1.285480376260271,0.8043851650383639,0.8876078172645989
1731474161.8197489,0.4892212450504303,1.505788803100586,-9.938413619995117,-0.026694026032807336,-0.10998727570637305,0.00031659655213897,1.2855828494449733,0.7670297401588504,0.8876626152568997
1731474161.8706505,-0.516516387462616,-0.022402653470635414,-9.965340614318848,-0.02781554131190299,-0.10950009002459296,0.0002833111561576586,1.2852574583342886,0.7302884490656979,0.8875233624825144
1731474161.9206002,-0.9550522565841675,-0.21024510264396667,-10.16689682006836,-0.028973812591275853,-0.10908495742206888,0.0002544413824986379,1.284967303362738,0.6937637324635338,0.8874339089192903
1731474161.9705899,-0.7593311667442322,-0.04050649330019951,-10.03207015991211,-0.03018200805606755,-0.10876547309838987,0.00023070923393453483,1.2848482873393614,0.655987550691876,0.8874722093166957
1731474162.0203743,-0.5015047788619995,0.2697582244873047,-10.028075218200684,-0.0314447552572026,-0.10855324832347991,0.00021166876166566915,1.2844758951796253,0.6193677682513019,0.887395047658817
1731474162.0706327,-0.6376875638961792,0.10086476802825928,-9.939265251159668,-0.03275870807749562,-0.10844935515910492,0.00019595830829882048,1.2841990423790248,0.5805618332415861,0.8874285405058008
1731474162.1203902,-0.4812456965446472,0.29825708270072937,-9.977543830871582,-0.03411509657642744,-0.10844753208402,0.00018206377635442597,1.2838406378066958,0.5418306895023343,0.887462208677565
1731474162.1703827,-0.5795964598655701,0.24074093997478485,-9.958183288574219,-0.03550145274029944,-0.10853632591002456,0.00016885331384227392,1.2833998236212691,0.5032023989969138,0.8874959876522871
1731474162.2203078,-0.5795964598655701,0.24074093997478485,-9.958183288574219,-0.03690251651261911,-0.10870049204460176,0.00015571894044923146,1.2832557808081868,0.4654365625573345,0.8873998338717803
1731474162.2203078,-0.508014976978302,0.46040502190589905,-9.957934379577637,-0.03830078905795443,-0.10892215227959483,0.00014255154938696294,1.2832525716434149,0.4651963354504756,0.8874000070027047
1731474162.2702415,-0.508014976978302,0.46040502190589905,-9.957934379577637,-0.039677110001483815,-0.10918213393069479,0.00012970297081653216,1.2826831335390874,0.4260956537462543,0.8874282497208267
1731474162.2702415,-0.508804440498352,0.4490143060684204,-9.982624053955078,-0.041011431360236536,-0.10946149468447243,0.00011790844947526286,1.282679296627313,0.42585219779426337,0.8874284259591834
1731474162.320172,-0.48865872621536255,0.4541880786418915,-9.978496551513672,-0.04228347304363416,-0.1097424553845339,0.0001081350827443988,1.2820078870171538,0.38643000787040205,0.8874569993134235
1731474162.370213,-0.5410983562469482,0.4174778163433075,-9.919493675231934,-0.04347310744540295,-0.11000855618596674,0.0001014689068710871,1.2821004043267397,0.3482384267389562,0.8873610081444199
1731474162.4201007,-0.47556886076927185,0.47924375534057617,-9.938119888305664,-0.0445605876999466,-0.11024457181458877,9.92108265210432e-05,1.2813056381087702,0.30779704597726776,0.8873845861543218
1731474162.47022,-0.47460830211639404,0.529241681098938,-10.030539512634277,-0.0455267989273933,-0.11043660084308739,0.00010298650281389754,1.2804010232330267,0.26723192810821234,0.8874083284151415
1731474162.5199964,-0.4850676357746124,0.5224998593330383,-9.974165916442871,-0.04635362824069304,-0.11057243608360334,0.00011450772241663525,1.2804678215126786,0.22887246569717215,0.8873234493969466
1731474162.5699408,-0.48955443501472473,0.4771479666233063,-9.996931076049805,-0.04702425412503672,-0.11064188049436707,0.00013520389655804737,1.2794382774851942,0.18777683390745178,0.887342958442271
1731474162.6199024,-0.4665283262729645,0.4885329604148865,-9.979948997497559,-0.0475232469398546,-0.11063665027941724,0.00016613029345783316,1.279471352637656,0.1488090295488474,0.887278236030542
1731474162.669962,-0.46965348720550537,0.5105751752853394,-9.998185157775879,-0.04783665730462061,-0.11055006620378269,0.000208046973236721,1.2785146192023118,0.10982498158038267,0.887233900654788
1731474162.7198188,-0.4509274959564209,0.5246589779853821,-10.004263877868652,-0.047952169115004745,-0.11037692452734374,0.0002614366422563564,1.2772556782601674,0.06796728449461296,0.8872483617407454
1731474162.7698064,-0.4414564073085785,0.5083518624305725,-9.974061965942383,-0.04785925308166724,-0.11011354462572573,0.0003264808986093503,1.275881781766186,0.02598249094330222,0.8872635043077113
1731474162.8197534,-0.41812509298324585,0.5166147947311401,-9.975350379943848,-0.047549312198699165,-0.10975775359203922,0.00040312023154947716,1.2761121623519682,-0.01358506685437418,0.8872185518913401
1731474162.8696876,-0.38708367943763733,0.5227304100990295,-9.974908828735352,-0.047015851755513455,-0.1093087609861555,0.0004912037435144126,1.2746608153924937,-0.05628071719455339,0.8872330527710068
1731474162.9196005,-0.36882284283638,0.5231413841247559,-9.979649543762207,-0.04625468241360641,-0.10876704081860969,0.0005905903432702987,1.2735267175227492,-0.09597199839610604,0.8871953241114373
1731474162.970591,-0.3273898661136627,0.5379171371459961,-10.020581245422363,-0.04526412822429314,-0.10813425894852705,0.0007011120221718488,1.2718338408866694,-0.13986790735478077,0.8872105185793983
1731474163.0204976,-0.3707225024700165,0.505232036113739,-9.976547241210938,-0.04404515530669802,-0.10741318994220461,0.0008224392152404809,1.2700592664522807,-0.18323087552510814,0.8872273560617004
1731474163.070438,-0.3476724922657013,0.5362069010734558,-9.949875831604004,-0.042601292617553285,-0.10660757435579117,0.0009540461384849416,1.268169674944496,-0.2270120250465202,0.8872464848191134
1731474163.1203568,-0.3835640251636505,0.5246970653533936,-9.991329193115234,-0.04093833524934002,-0.10572196620668249,0.0010953836243686498,1.2689790716518743,-0.2670004070204988,0.8871991835482248
1731474163.1703653,-0.3614824414253235,0.5287243723869324,-9.99287223815918,-0.03906397923263891,-0.10476163896119814,0.0012459965133855512,1.2671084240967543,-0.31126440109518844,0.8872202224308874
1731474163.2202575,-0.377625972032547,0.5039097666740417,-9.963214874267578,-0.03698750580500183,-0.1037324820706063,0.0014054404128922135,1.266442228570935,-0.3515970069302944,0.8871816740988112
1731474163.2702463,-0.3766827881336212,0.5053097605705261,-10.006082534790039,-0.03471953006698647,-0.10264081142327541,0.0015732127502537377,1.264466210641554,-0.39621408976992106,0.88720603109735
1731474163.3201778,-0.37935033440589905,0.516689121723175,-9.970401763916016,-0.03227177557052978,-0.10149316590694363,0.0017487554957596007,1.2636391087304277,-0.43706182262414583,0.8871731153952377
1731474163.3702471,-0.40080633759498596,0.4964871406555176,-10.002296447753906,-0.029656842306248772,-0.10029618817962307,0.0019314369579430265,1.2615580027948663,-0.48227928514186,0.8872023305052569
1731474163.4201424,-0.38300633430480957,0.5083088278770447,-10.015450477600098,-0.026887969592858243,-0.09905655644143749,0.0021205023015150267,1.2594270628057413,-0.5272988707917358,0.8872362966942249
1731474163.470025,-0.443865567445755,0.4779611825942993,-10.014248847961426,-0.023978793107263034,-0.09778088919482628,0.002314966495216491,1.2602094706560498,-0.5680642117848071,0.8871950808660406
1731474163.5200374,-0.3783123791217804,0.5307408571243286,-9.943964958190918,-0.02094309970515972,-0.09647565304614358,0.002513569166397163,1.258173564356276,-0.6138138055425432,0.8872351709813004
1731474163.569949,-0.4149475693702698,0.529784619808197,-9.995633125305176,-0.01779467397694622,-0.09514719282468209,0.002714963041951249,1.2586625838163816,-0.65484693889194,0.8871983400495468
1731474163.6199312,-0.4006003737449646,0.5575022101402283,-9.984058380126953,-0.014547274249799092,-0.09380191324093881,0.002917935033423358,1.2586098992912333,-0.6956314395908239,0.8871767851229029
1731474163.6698508,-0.4396592080593109,0.5405032634735107,-9.956144332885742,-0.011214573939512454,-0.09244646286874048,0.003121438611915063,1.256799911593352,-0.7417803393528609,0.8872256390675738
1731474163.719805,-0.4295702874660492,0.5543187260627747,-9.9859037399292,-0.007809979447466078,-0.09108778669435114,0.003324591483527905,1.254962186898823,-0.788259441044392,0.8872826617795788
1731474163.7697442,-0.42668965458869934,0.5741111636161804,-9.961564064025879,-0.004346445752472389,-0.08973309292990722,0.0035267192790930904,1.2531109148599306,-0.8349227901155488,0.88734819960324
1731474163.8196783,-0.4360142648220062,0.5671287775039673,-9.956544876098633,-0.0008364006454295932,-0.08838984599357379,0.0037273722152919775,1.254561306672411,-0.8758195381167762,0.8872869710122445
1731474163.8696399,-0.4315682351589203,0.557338535785675,-9.982433319091797,0.002708261447901053,-0.08706575696515043,0.003926338633518155,1.2529285557753271,-0.9229866968729302,0.8873608136671872
1731474163.9195507,-0.42473089694976807,0.5397765636444092,-10.009066581726074,0.00627618058342614,-0.08576865547342852,0.004123580452591065,1.251319271294223,-0.9700131486014295,0.887444108901792
1731474163.9695463,-0.42673540115356445,0.5290296673774719,-9.97465991973877,0.009856507508561504,-0.08450624679024962,0.004319041054528188,1.2527366817433112,-1.0109272930705546,0.8873597297537571
