Timestamp,IMU_Linear_Acc_X,IMU_Linear_Acc_Y,IMU_Linear_Acc_Z,Filtered_X,Filtered_Y,Filtered_Z,Pose_X,Pose_Y,Pose_Z
1730865946.3340743,-1.64725923538208,0.7226855158805847,-9.841316223144531,0.0,0.0,0.0,0.0,0.0,0.0
1730865946.8840554,-1.6464816331863403,1.1096014976501465,-9.926274299621582,6.986648002800934e-10,-3.47638649439567e-07,-7.63336547391717e-08,1.424871285214164e-13,-7.089813727820423e-11,-1.5567641691651547e-11
1730865947.2339377,-1.6475468873977661,1.4503509998321533,-9.745635986328125,5.216164135308943e-09,-3.3778331647365025e-06,-5.121698341526275e-07,2.179427051662019e-12,-1.3362606922131148e-09,-2.1953495054310202e-10
1730865947.2838902,-1.7597566843032837,1.3032793998718262,-9.741059303283691,-8.176812234838359e-08,-1.6260205501140034e-05,-1.5672228349449356e-06,-2.0011353900758958e-11,-8.814419178502368e-09,-1.081175194968448e-09
1730865947.3337905,-1.6816997528076172,1.2365984916687012,-9.753911018371582,-7.739869683440753e-07,-5.281300366469851e-05,-2.8044042494906543e-06,-3.0523651821514605e-10,-3.748481645083733e-08,-3.280862053513393e-09
1730865947.3838024,-1.757475733757019,1.2633165121078491,-9.788309097290039,-3.329218167989872e-06,-0.00013287800189227736,-2.680080228176916e-06,-1.8847462950119204e-09,-1.248601005531131e-07,-7.226882165009975e-09
1730865947.4338114,-1.9410609006881714,1.2342725992202759,-9.715015411376953,-1.0040937489476566e-05,-0.000280629053857825,1.3205197364249623e-06,-7.621219825436088e-09,-3.4060940402762295e-07,-1.1575617996619228e-08
1730865947.4836771,-1.7980672121047974,1.2204742431640625,-9.816902160644531,-2.481122695759841e-05,-0.000523236589104386,1.244775643790863e-05,-2.424710891248537e-08,-8.076472115000698e-07,-1.1633046254847106e-08
1730865947.5337312,-1.6201061010360718,1.2407430410385132,-9.861479759216309,-5.337299204986922e-05,-0.0008898734875204168,3.4386147956565476e-05,-6.516296412102456e-08,-1.7133872902947923e-06,2.8802165656053946e-09
1730865947.5837328,-1.6417081356048584,1.2559638023376465,-9.932706832885742,-0.00010227152142310226,-0.0014109120129328315,7.059633241903707e-05,-1.5515407080479314e-07,-3.3460853866001366e-06,5.042418318728792e-08
1730865947.6336718,-1.4783844947814941,1.2720919847488403,-9.962823867797852,-0.0001772720346030339,-0.002117378895006785,0.00012347445877579051,-3.314024769087972e-07,-6.064260873239325e-06,1.5795562994459557e-07
1730865947.6836586,-1.4127205610275269,1.249739170074463,-9.95790958404541,-0.0002823047171015851,-0.003040068287536713,0.00019383904420226952,-6.521684375652356e-07,-1.0407745385595166e-05,3.6519621042519585e-07
1730865947.7336457,-1.4345476627349854,1.2176520824432373,-9.960887908935547,-0.00041933972797201103,-0.0042072204773718844,0.0002811243734187134,-1.1922669464896343e-06,-1.7016156631873725e-05,7.209154116050956e-07
1730865947.7836764,-1.6071974039077759,1.2252144813537598,-9.856568336486816,-0.0005892158849652512,-0.005641407954458123,0.0003841516992235417,-2.0468120255155173e-06,-2.669389671689869e-05,1.284055704326404e-06
1730865947.8337014,-1.532752275466919,1.1856809854507446,-9.923158645629883,-0.0007929116799105556,-0.007357802152478372,0.000501934384896541,-3.335990942002571e-06,-4.046278638065862e-05,2.1258684797335262e-06
1730865947.8835726,-1.49844229221344,1.2116985321044922,-9.878271102905273,-0.0010323521373587718,-0.009364234045986592,0.0006341123368768871,-5.187905862970029e-06,-5.937882242464664e-05,3.317770151788325e-06
1730865947.9345996,-1.521494746208191,1.106750726699829,-9.946966171264648,-0.0013103540014019798,-0.011661797221832923,0.0007809640522425043,-7.83565918834529e-06,-8.548881126937035e-05,4.9919685046788375e-06
1730865947.9846032,-1.521235466003418,1.066617727279663,-9.89339542388916,-0.0016302152513806682,-0.014245243836825417,0.0009431934977923302,-1.1367309923359481e-05,-0.00011933835641208954,7.18237873735593e-06
1730865948.034629,-1.6524330377578735,0.9745575785636902,-9.893824577331543,-0.0019956242181475127,-0.017103070033913294,0.0011217691402390744,-1.6020944274889996e-05,-0.0001628786467276197,1.0011254856572586e-05
1730865948.0845356,-1.714928388595581,0.9513433575630188,-9.833707809448242,-0.0024111021891944783,-0.020217479950795175,0.001317994748859928,-2.2050422522049318e-05,-0.00021807174022337448,1.3601908438206403e-05
1730865948.1347377,-1.6118273735046387,0.9223973155021667,-9.884674072265625,-0.002882646253962915,-0.023564515824336912,0.00153372844044153,-2.976671461949678e-05,-0.0002872369847624217,1.8102613543895984e-05
1730865948.1846237,-1.3661701679229736,0.9260615110397339,-9.857068061828613,-0.003417610490870932,-0.027114505237506165,0.0017714740104768213,-3.9426923424676e-05,-0.000372014368856733,2.3621549102287822e-05
1730865948.2345996,-1.2212275266647339,0.8862243294715881,-9.932165145874023,-0.004023312171796523,-0.030833098958414757,0.002034186039215998,-5.136483111510676e-05,-0.0004744967118027649,3.0303404356539247e-05
1730865948.2835228,-1.0323896408081055,0.8774198889732361,-9.941996574401855,-0.00470525751407172,-0.034683294396305235,0.0023247958496357517,-6.574390682073054e-05,-0.0005950924467842029,3.819256598401373e-05
1730865948.3344536,-1.2495695352554321,0.9381879568099976,-9.924843788146973,-0.005466086767659281,-0.03862790930488344,0.002645648885535974,-8.392320840633901e-05,-0.0007437331032935182,4.797223899964779e-05
1730865948.3844686,-1.4342632293701172,1.0002256631851196,-9.9284086227417,-0.006305794312118394,-0.04263134157669233,0.002998210556724698,-0.00010547957400643738,-0.0009152693928139468,5.935180354854592e-05
1730865948.4344435,-1.6491162776947021,1.1198151111602783,-9.88106918334961,-0.007223462116617571,-0.046660587214519975,0.003383154424193405,-0.00013117627353067908,-0.0011140444229082815,7.268062131496218e-05
1730865948.4846096,-1.8150001764297485,1.2128596305847168,-9.911548614501953,-0.00821987813748829,-0.05068623263635698,0.0038006258711641254,-0.0001620883903208363,-0.001346159744042376,8.845295424153732e-05
1730865948.5345068,-1.8747748136520386,1.2866096496582031,-9.855307579040527,-0.009299875189335277,-0.05468353494159727,0.004250494146691234,-0.00019804383436974895,-0.0016079864306220056,0.00010652178477866879
1730865948.5845046,-1.8972151279449463,1.2438414096832275,-9.890105247497559,-0.010473662831088856,-0.05863318759277393,0.004732543888703539,-0.0002403387511613922,-0.0019064040205461574,0.00012747875781901277
1730865948.6345894,-1.8699368238449097,1.2726092338562012,-9.829380989074707,-0.011756985237628971,-0.06252141393518094,0.005246630531561359,-0.0002895634551034944,-0.0022425600695520406,0.00015154564328824903
1730865948.6844258,-1.9649289846420288,1.1705948114395142,-9.842905044555664,-0.013170481811354173,-0.06633940663645202,0.005792838499603665,-0.0003464432853978756,-0.0026181114273556207,0.00017899777880202338
1730865948.7343395,-1.755480170249939,1.117276906967163,-9.814167976379395,-0.01473873967531928,-0.07008232115295343,0.006371648960489873,-0.0004117682202005098,-0.0030346151484314855,0.0002101218469157002
1730865948.7843802,-1.648979902267456,1.0715574026107788,-9.870731353759766,-0.016488486141036082,-0.07374784014600147,0.006983957892818007,-0.0004873926840434723,-0.003499491205279535,0.00024567662950299347
1730865948.8343627,-1.619248390197754,1.0923936367034912,-9.766934394836426,-0.018445050274626274,-0.07733437142988657,0.0076308041117461615,-0.0005737209194409912,-0.004010264223075611,0.00028569821499261835
1730865948.8843756,-1.5719029903411865,1.1600306034088135,-9.814069747924805,-0.020628421673464802,-0.08083955877391893,0.008313091294243865,-0.0006724932701047516,-0.0045717863027346425,0.00033080870629388805
1730865948.9342463,-1.4718180894851685,1.2043366432189941,-9.855443000793457,-0.02305112425896752,-0.08425994018129286,0.009031521729770118,-0.0007840886130538968,-0.005180401832449927,0.0003809681008104124
1730865948.9843962,-1.5622344017028809,1.2559999227523804,-9.844598770141602,-0.025717899958365032,-0.08759159521559998,0.009786460857101113,-0.0009120738199609759,-0.005848866575775296,0.00043752061514419605
1730865949.0343103,-1.5622344017028809,1.2559999227523804,-9.844598770141602,-0.028626237534100037,-0.09083095218362089,0.010577691488115132,-0.0010562889064739697,-0.006569177540709128,0.00050010512620259
1730865949.084335,-1.6464300155639648,1.3352413177490234,-9.848318099975586,-0.03176747962330537,-0.09397535563849445,0.011404336209622327,-0.0012199415586609567,-0.0073499725394994735,0.0005698007922556286
1730865949.1342292,-1.7890230417251587,1.2793657779693604,-9.847938537597656,-0.03512834329597082,-0.09702343009032728,0.012264924249326119,-0.0014034432350945737,-0.00818561871727196,0.000646451079684434
1730865949.1843033,-1.9112098217010498,1.1769911050796509,-9.826825141906738,-0.038692762690815494,-0.09997509603029825,0.013157477037153838,-0.0016116774964742022,-0.009090170977549519,0.0007317316200687357
1730865949.2342906,-1.7468112707138062,1.169215440750122,-9.872337341308594,-0.04244369814501195,-0.10283099708335076,0.014079601304830425,-0.001843811239100395,-0.010051846467755064,0.0008249304614763695
1730865949.2843397,-1.7610691785812378,1.1731765270233154,-9.90518856048584,-0.046363996480818084,-0.10559169159327755,0.015028469179228359,-0.0021047386664103697,-0.011082870578928023,0.0009276395961784665
1730865949.3341703,-1.772855281829834,1.1963719129562378,-9.869773864746094,-0.05043609268788203,-0.10825713749334008,0.016000632833025906,-0.002393939655640766,-0.012173261504266309,0.0010392820315628885
1730865949.3842542,-1.7723252773284912,1.1582468748092651,-9.856871604919434,-0.05464133080945648,-0.11082630294434592,0.016991946374005182,-0.002718538073720958,-0.013341591763548521,0.0011622154445036358
1730865949.4341888,-1.5951693058013916,1.1924304962158203,-9.84045124053955,-0.058959355583769364,-0.11329670109947243,0.01799778436473703,-0.0030756554487251005,-0.014569576803339021,0.0012949692339415447
1730865949.4842129,-1.4303251504898071,1.1096744537353516,-9.871488571166992,-0.06336731120726494,-0.11566414404176788,0.01901334263755698,-0.0034739969216133764,-0.015879272082924115,0.0014403966011949504
1730865949.5342839,-1.4494115114212036,1.127644419670105,-9.831385612487793,-0.06783874856567707,-0.11792275191603616,0.02003379371641921,-0.003913048054352569,-0.017260730803367024,0.0015979073606414726
1730865949.5842733,-1.374488115310669,1.0864741802215576,-9.847817420959473,-0.0723428644626499,-0.12006498157690064,0.021054364044504302,-0.004395449179881576,-0.018715000451371165,0.0017680887388565618
1730865949.634126,-1.4525998830795288,1.0719263553619385,-9.802490234375,-0.07684460312783914,-0.12208167622404568,0.022070470063511715,-0.004921882669126389,-0.020237524031262513,0.0019508511396648962
1730865949.684152,-1.5784028768539429,1.0320987701416016,-9.840079307556152,-0.081305572579219,-0.12396214532554387,0.023077889836378755,-0.005497973281797543,-0.021838052900321682,0.0021478241950268714
1730865949.734146,-1.5448294878005981,0.9901504516601562,-9.828018188476562,-0.0856855662608001,-0.12569418795390347,0.024072847165764556,-0.006128473559701102,-0.023522794911023485,0.002360293233497076
1730865949.7841535,-1.495914340019226,0.9905200004577637,-9.897010803222656,-0.08994403692864597,-0.12726407682586832,0.025051909729482534,-0.006814041998703026,-0.025286953757295134,0.002588169965350344
1730865949.8341901,-1.5989469289779663,0.96947181224823,-9.889765739440918,-0.0940409079578357,-0.12865662809414927,0.026011703050226348,-0.007557783135004957,-0.027132625740709675,0.002832219720215276
1730865949.8841543,-1.5671354532241821,0.9694827198982239,-9.91878890991211,-0.09793727889844386,-0.129855633248693,0.026948621760216163,-0.008359112174856733,-0.029053208240516888,0.0030920346360620793
1730865949.9341342,-1.4966825246810913,0.9941743016242981,-9.964380264282227,-0.10159669145323967,-0.1308449944302121,0.027858741010371908,-0.009223212550370176,-0.031056386748154537,0.0033691178589307113
1730865949.984129,-1.4800490140914917,0.969645619392395,-9.981051445007324,-0.10498628330114888,-0.1316102256350757,0.028737808014094254,-0.010156224092551194,-0.033151306165394176,0.003665267251705446
1730865950.0342054,-1.459653377532959,1.016774296760559,-9.992463111877441,-0.10807701055845098,-0.13213938795502878,0.02958111119674767,-0.011151490082211881,-0.03531889110803874,0.003978265812907475
1730865950.0840492,-1.5144121646881104,1.049118995666504,-9.973414421081543,-0.11084334105948067,-0.13242333759373445,0.030383355917663193,-0.012214777432081523,-0.037568437598445845,0.0043098859881634454
1730865950.1340241,-1.6105612516403198,1.0086636543273926,-9.94045639038086,-0.11326323191463,-0.1324558204487547,0.031138765101811825,-0.013345249983594114,-0.03989510437004741,0.004659858331287623
1730865950.1840804,-1.5536221265792847,1.06661057472229,-9.94149398803711,-0.11531853716368631,-0.13223348495613244,0.031841403068603766,-0.014559161621780604,-0.04232865881865791,0.005033209127785647
1730865950.2339597,-1.603241205215454,1.065562129020691,-9.964529037475586,-0.11699535764056054,-0.13175578282921355,0.03248550370374431,-0.015825805488918755,-0.04480555187839064,0.005420575058063513
1730865950.2839465,-1.879683494567871,1.0326447486877441,-9.866992950439453,-0.11828427763176703,-0.13102486970537958,0.033065674442913445,-0.017181661815491214,-0.047395232995529696,0.005833223630701679
1730865950.3339956,-2.0737950801849365,0.9914940595626831,-9.809025764465332,-0.11918132502779176,-0.13004533868647225,0.03357723840207521,-0.01860554633927413,-0.0500547355785288,0.006264818276758761
1730865950.3840535,-2.0737950801849365,0.9914940595626831,-9.809025764465332,-0.11968972587283774,-0.12882367752208804,0.03401686582093703,-0.020114058011630485,-0.05281336038913568,0.006720550813544929
1730865950.4339852,-1.6435387134552002,1.0102969408035278,-9.805895805358887,-0.11982046133571511,-0.12736776338996042,0.0343829828523822,-0.021682510729125984,-0.055625029502894205,0.007193159863839824
1730865950.4839067,-1.5730770826339722,1.1460793018341064,-9.76155948638916,-0.11958959031657516,-0.12568682986396884,0.03467547584876475,-0.023329220153054307,-0.058522244670814016,0.007688391908353073
1730865950.5338778,-1.402429223060608,1.2469379901885986,-9.80485725402832,-0.11901356149972141,-0.12379210281848337,0.03489504941033777,-0.0250497142048424,-0.0614962964923724,0.008205133635157272
1730865950.5837739,-1.2801685333251953,1.27745521068573,-9.844583511352539,-0.11810559056094937,-0.12169780720196229,0.03504275870229863,-0.026842884869236652,-0.06454489189133815,0.008743305702594342
1730865950.6338754,-1.3144124746322632,1.2810062170028687,-9.876189231872559,-0.11687399660508153,-0.11942187407132966,0.03511963253757588,-0.028718710188744535,-0.06768443474251411,0.009306171877661133
1730865950.6837897,-1.3720238208770752,1.2254197597503662,-9.91110610961914,-0.11532188839315388,-0.11698591225219807,0.035126230202183355,-0.03066529030610557,-0.07089470713170436,0.009890448235152526
1730865950.7338083,-1.4993278980255127,1.1518988609313965,-9.931300163269043,-0.11344803828628355,-0.11441447116043256,0.03506225098049655,-0.032688478476327755,-0.0741854710808755,0.010498197434047559
1730865950.78379,-1.6006672382354736,1.0863429307937622,-9.86929702758789,-0.11124864084870455,-0.11173383099523249,0.03492635574938723,-0.0347701573879319,-0.07752790592317627,0.011124293582055177
1730865950.8337855,-1.81550133228302,1.01986563205719,-9.81452465057373,-0.10871945226024515,-0.10897063574066396,0.03471639368559154,-0.036923021984544495,-0.08094334964881207,0.01177288582978627
1730865950.8837059,-1.9375649690628052,0.9927679896354675,-9.77560806274414,-0.10585807429713445,-0.10615067184205716,0.03443005963018585,-0.039141720147681476,-0.08442418922537036,0.012442714258205973
1730865950.9336746,-2.0457820892333984,0.9714118242263794,-9.726194381713867,-0.10266611148990726,-0.10329798225533472,0.03406567832083639,-0.04142972703627056,-0.08797699304904749,0.013135198756045302
1730865950.9836621,-2.0869340896606445,1.0083929300308228,-9.737180709838867,-0.09915049536116882,-0.1004343506737508,0.03362275537540706,-0.04378078154983969,-0.09159340892055728,0.013848831208275469
1730865951.0336392,-2.0562994480133057,1.051559329032898,-9.758321762084961,-0.0953232247528388,-0.0975790832541131,0.03310203447853867,-0.04618853062193177,-0.09526548869776214,0.014582072524424054
1730865951.083622,-1.9736506938934326,1.1039338111877441,-9.822582244873047,-0.09119981026996479,-0.09474912152545788,0.03250504463288824,-0.048660547190221226,-0.09900676307864249,0.015337639803473378
1730865951.133597,-1.9302725791931152,1.1401413679122925,-9.887577056884766,-0.08679758660958087,-0.09195954493610412,0.03183339820702481,-0.05118523814905946,-0.10280190861515909,0.016112412345519526
1730865951.1835477,-1.8705997467041016,1.1601102352142334,-9.892549514770508,-0.08213448781005199,-0.08922424444407737,0.03108808683701591,-0.053755902621569256,-0.10664351759683885,0.016904741067714463
1730865951.233644,-1.852792739868164,1.1702474355697632,-9.919771194458008,-0.07722816923217507,-0.08655644471596471,0.030268974430639133,-0.05638809964030539,-0.11055756689611299,0.01771986547871971
1730865951.2836158,-1.850260853767395,1.1229956150054932,-9.914119720458984,-0.07209542983714509,-0.08396892237263878,0.02937461354364761,-0.059058648430596036,-0.11451256098183554,0.01855104958995833
1730865951.3335752,-1.8229795694351196,1.0839333534240723,-9.910886764526367,-0.06675196088157445,-0.08147386322914114,0.02840231848596042,-0.06177431356528481,-0.11852183433294364,0.019400818865339252
1730865951.3836124,-1.7985893487930298,1.0479875802993774,-9.888747215270996,-0.0612122718066995,-0.07908241281437196,0.02734840454517559,-0.06453496012230658,-0.12258864159347012,0.020269579555217222
1730865951.4335694,-1.7535266876220703,0.9978740811347961,-9.872357368469238,-0.05548958695559475,-0.07680412712637914,0.026208554323543805,-0.06732199445930871,-0.1266893240439852,0.021151887425774125
1730865951.4836032,-1.7225205898284912,0.9698752164840698,-9.863229751586914,-0.049595647136669016,-0.07464648227398324,0.024978235604196198,-0.07015467219101539,-0.1308561770184246,0.022054255879100416
1730865951.533507,-1.668954610824585,0.9353963732719421,-9.8529052734375,-0.04354083735949668,-0.07261455894457128,0.02365317621691337,-0.07300882152988769,-0.135057817727792,0.022969390530593093
1730865951.583536,-1.6359572410583496,0.9215210676193237,-9.852986335754395,-0.03733537605813938,-0.07071106203228489,0.022230031743274255,-0.07589134489864997,-0.13930881595002118,0.023899860407298648
1730865951.6334298,-1.6144894361495972,0.9229671359062195,-9.850465774536133,-0.03099106814533063,-0.06893661349764744,0.02070709228704369,-0.07878116486005439,-0.14358264379190228,0.02483916968476354
1730865951.6834772,-1.6067534685134888,0.9610587358474731,-9.857247352600098,-0.02452211355016414,-0.06729008839901482,0.01908459952859987,-0.0817056524026082,-0.1479246684980555,0.025796545558871193
1730865951.7344527,-1.5976148843765259,1.0084751844406128,-9.867647171020508,-0.017944795010951625,-0.06576901418916749,0.01736462246600742,-0.08469247749458415,-0.15238176793292066,0.02678157600530404
1730865951.7843916,-1.6114647388458252,1.0301212072372437,-9.874835968017578,-0.01127695394925555,-0.06437014143122347,0.015550765756658928,-0.08762560709239067,-0.15678587217053944,0.027756203338506716
1730865951.8344188,-1.5975745916366577,1.018343448638916,-9.889068603515625,-0.004537627547241865,-0.06309001073679996,0.013647857455949274,-0.09057813500483261,-0.16125155550392378,0.028744767112591215
1730865951.8845086,-1.6075562238693237,0.9683912396430969,-9.893061637878418,0.002253230819089131,-0.061925209792789204,0.011661647500522634,-0.09353316486737923,-0.1657591803655969,0.02974187293061204
1730865951.934418,-1.626556634902954,0.905511736869812,-9.897462844848633,0.00907498511002064,-0.06087217798836426,0.009598545263372128,-0.09647565391895209,-0.1702914523243934,0.030742586639214645
1730865951.9844997,-1.6508206129074097,0.8503293991088867,-9.890620231628418,0.01590644786927465,-0.05992665428240862,0.0074654276268189355,-0.09942058050489791,-0.17487745114178918,0.031752147876508756
1730865952.034278,-1.668717384338379,0.7852784395217896,-9.882685661315918,0.0227258878185065,-0.05908300000498325,0.0052695371068278455,-0.10232431985782887,-0.179454765812178,0.03275563217957084
1730865952.0843859,-1.666137456893921,0.7490000128746033,-9.847501754760742,0.02951101226185887,-0.05833376135009728,0.0030184795477367337,-0.10524586237370907,-0.18412279005211793,0.03377352710474827
1730865952.134316,-1.6244356632232666,0.7482098340988159,-9.854060173034668,0.0362390809174569,-0.057669923703008774,0.0007203059067917427,-0.10812762598056032,-0.18879626786963813,0.03478588269196351
1730865952.1843207,-1.5937052965164185,0.7874472141265869,-9.882034301757812,0.04288727624912215,-0.057081775433635525,-0.0016164458119184717,-0.11099947976002256,-0.19352991646574785,0.03580319367514746
1730865952.2342668,-1.5707736015319824,0.8576775789260864,-9.910017013549805,0.049433281949037816,-0.05655977651587653,-0.003982918689374713,-0.11382546485565742,-0.198270785486245,0.03681270273922267
1730865952.2842512,-1.587791085243225,0.9232023358345032,-9.935588836669922,0.05585582574319305,-0.05609527204677149,-0.006370312455813053,-0.11662620566962943,-0.20305955332474424,0.03782169729389771
1730865952.3342435,-1.5839658975601196,0.9715844392776489,-9.951668739318848,0.06213497286889662,-0.05568123422483151,-0.008770298793239675,-0.119388574113234,-0.2078805641282025,0.03882540936598686
1730865952.3842833,-1.6285433769226074,0.9795622229576111,-9.949352264404297,0.06825215073853856,-0.05531289966406025,-0.011175328327041765,-0.12211539874549712,-0.21274548455528075,0.0398247900843435
1730865952.4342704,-1.6731714010238647,0.9589577913284302,-9.931402206420898,0.07418995428017187,-0.054988032467265906,-0.013578746016735477,-0.12478890644956508,-0.21762886341304008,0.04081318619952129
1730865952.4843504,-1.7608195543289185,0.9085907340049744,-9.892904281616211,0.07993171856821167,-0.054706704354164595,-0.015974672024672766,-0.12742450131849936,-0.2225654367011045,0.0417961492323796
1730865952.5342863,-1.8198007345199585,0.8613375425338745,-9.845653533935547,0.08546087537834587,-0.05447066055708413,-0.018357654123086035,-0.12999900381686544,-0.22751824359424846,0.04276485823887409
1730865952.5842535,-1.8743910789489746,0.8098325729370117,-9.812735557556152,0.09076025011970373,-0.05428246767203958,-0.020722168853964832,-0.13252161911070712,-0.2325108798632371,0.04372253501157179
1730865952.634168,-1.8814746141433716,0.8248398900032043,-9.78154468536377,0.09581173774663097,-0.05414463889150063,-0.02306217983112308,-0.1349832456776565,-0.23753162093718666,0.0446654837230617
1730865952.6841817,-1.8178749084472656,0.9012826681137085,-9.799697875976562,0.10059695588727238,-0.05405894151928052,-0.025371028705581524,-0.13738892423666466,-0.24259719260080695,0.04559537359107563
1730865952.7341259,-1.7743693590164185,0.9895063042640686,-9.821540832519531,0.105098737549631,-0.054026257805278005,-0.027641706657178036,-0.1397279332255942,-0.24769137070967553,0.04650776666428684
1730865952.7841399,-1.7426655292510986,1.0704177618026733,-9.879551887512207,0.1093024830620696,-0.054047214784183104,-0.029867305988582192,-0.14200414295878633,-0.25282873259499833,0.04740383850630251
1730865952.834016,-1.7173658609390259,1.144403100013733,-9.899643898010254,0.11319684871116081,-0.054123236674767226,-0.032041523693230003,-0.14420308478807567,-0.25798188157518087,0.048277495312356845
1730865952.884022,-1.7238008975982666,1.201750636100769,-9.902915954589844,0.11677398531175451,-0.05425751302467206,-0.03415912776159011,-0.146332986658381,-0.263174948879245,0.04913156470256478
1730865952.9340377,-1.7645459175109863,1.1820310354232788,-9.86949348449707,0.12002946751441715,-0.0544556140473497,-0.03621617920311562,-0.14839055887524275,-0.26840582279672703,0.04996430326200466
1730865952.9839852,-1.83077871799469,1.1543887853622437,-9.82955265045166,0.1229618485759179,-0.05472557447076603,-0.03820987573237487,-0.150375489517579,-0.27367958500864514,0.05077512928990419
1730865953.0339887,-1.8594506978988647,1.0799541473388672,-9.79504680633545,0.1255718892841239,-0.05507737706982026,-0.0401380970017132,-0.1522779504182234,-0.2789746246503953,0.051559501755336516
1730865953.0839276,-1.8404059410095215,1.018115758895874,-9.759230613708496,0.12786176970468813,-0.055521992294025393,-0.04199884883513945,-0.15410124477339995,-0.28430367811091584,0.05231820199193783
1730865953.1339393,-1.7897979021072388,0.9865586757659912,-9.764646530151367,0.12983468632412615,-0.05607026612757608,-0.04378979747255596,-0.15584605812042632,-0.28967334684665247,0.05305093965124035
1730865953.1840162,-1.698754072189331,1.0258070230484009,-9.786855697631836,0.1314948554870855,-0.056731854568303805,-0.045508045949733164,-0.15751141411661645,-0.2950855326796352,0.053756709301933304
1730865953.2339149,-1.6195176839828491,1.096706748008728,-9.849236488342285,0.13284752356968046,-0.05751423433234334,-0.047150258497223575,-0.1590882551152644,-0.3005132256939866,0.05443100033796984
1730865953.2839737,-1.5690386295318604,1.1863417625427246,-9.894932746887207,0.13389894215371922,-0.05842215503211736,-0.04871313184220867,-0.16059447986175754,-0.30602346487804055,0.05508082447686804
1730865953.3338645,-1.5596836805343628,1.2637195587158203,-9.941064834594727,0.13465663352110246,-0.059458072591898885,-0.05019406174202923,-0.1619981107536923,-0.31149964299471056,0.055691647705062804
1730865953.384044,-1.59630286693573,1.3051685094833374,-9.960204124450684,0.13512974263640032,-0.060623285317996364,-0.05159176393856943,-0.16333580623499439,-0.31708725316487757,0.056278685297668635
1730865953.4338489,-1.6284863948822021,1.3273265361785889,-9.94701862335205,0.13532898216395978,-0.06191897314856966,-0.05290664420107761,-0.16457316026419022,-0.322644845954639,0.05682610053843235
1730865953.4840422,-1.6553434133529663,1.316172480583191,-9.920696258544922,0.13526616372837186,-0.06334675821874496,-0.054140805860234856,-0.1657408813788244,-0.3283115302115856,0.05734669261555363
1730865953.5338588,-1.6599690914154053,1.2806527614593506,-9.860176086425781,0.13495364455886444,-0.06490878657225149,-0.05529768671989746,-0.1668118990527204,-0.3339574273172175,0.057827611190182183
1730865953.583919,-1.6765570640563965,1.1801283359527588,-9.819402694702148,0.1344039201974032,-0.06660736079078428,-0.05638141746247717,-0.1678053401067048,-0.33967961687475756,0.0582765937605072
1730865953.6338382,-1.6720153093338013,1.0732054710388184,-9.787087440490723,0.1336293923007021,-0.06844411527425165,-0.05739608540985988,-0.1687103650437936,-0.3454153437154869,0.05868790967431659
1730865953.6838663,-1.6663193702697754,0.9791675806045532,-9.763050079345703,0.13264226591645148,-0.07041884223405827,-0.05834511849866528,-0.16953409429557514,-0.35120470157672684,0.05906392056869277
1730865953.7339408,-1.6707918643951416,0.9239218235015869,-9.750232696533203,0.13145452141842143,-0.07252839866680938,-0.05923092806919196,-0.17027943829708833,-0.3570716241179354,0.059405085380061985
1730865953.7837968,-1.6994575262069702,0.9047927856445312,-9.781537055969238,0.13007782707382487,-0.07476624892248226,-0.060054889036564904,-0.17093675451138812,-0.36293179356323635,0.05970609159423182
1730865953.8338177,-1.7137017250061035,0.9450106620788574,-9.824131965637207,0.1285233086256285,-0.07712273557097388,-0.06081766808848494,-0.17151711497604216,-0.36887342455732103,0.05997109047331602
1730865953.8838098,-1.7199853658676147,1.0237822532653809,-9.900525093078613,0.12680129971781062,-0.0795857615917318,-0.061519802015341754,-0.17201673300482787,-0.3748541918872488,0.060197424061992306
1730865953.933771,-1.7121604681015015,1.109671950340271,-9.941783905029297,0.12492123442463018,-0.08214175929160536,-0.062162411294382984,-0.17243827808058637,-0.3808936698212358,0.060385370705663674
1730865953.9838536,-1.7125602960586548,1.1412822008132935,-9.991416931152344,0.12289170518579795,-0.08477687575687379,-0.0627479094980744,-0.17278279110929887,-0.38699639216784515,0.0605344447653021
1730865954.033785,-1.7383090257644653,1.1559922695159912,-9.991555213928223,0.12072058460613307,-0.08747800917277707,-0.06328051682442151,-0.17304895732817768,-0.3931047191290144,0.06064321825524256
1730865954.0837812,-1.7700742483139038,1.0934906005859375,-9.966474533081055,0.11841505199701022,-0.0902333232731348,-0.06376642093639023,-0.17324219547593325,-0.39930909658975555,0.06071302849657459
1730865954.1337168,-1.7931220531463623,1.0574482679367065,-9.924484252929688,0.11598145472722513,-0.09303214113965587,-0.06421351251256967,-0.17336183564153673,-0.4055604112758714,0.060742714444514435
1730865954.1838078,-1.8051255941390991,0.9757516384124756,-9.861323356628418,0.1134251091300662,-0.0958643749450167,-0.06463075003582704,-0.17340982928924792,-0.4118750745630169,0.060732134815610676
1730865954.233678,-1.8243852853775024,0.909440279006958,-9.807530403137207,0.11075017850391969,-0.09871974001974983,-0.06502730909593163,-0.17338788836293864,-0.41822995186338374,0.06068123110742055
1730865954.2837088,-1.831785798072815,0.8526820540428162,-9.77783489227295,0.1079597975455635,-0.10158700348509855,-0.06541168579499998,-0.17329780031451178,-0.42465645701331506,0.060589628873163
1730865954.3335953,-1.7967559099197388,0.8678164482116699,-9.767488479614258,0.10505671335424956,-0.10445359814831398,-0.06579092821213456,-0.173141644481736,-0.4311360378990778,0.060457395964265054
1730865954.3836603,-1.7605763673782349,0.9291214346885681,-9.799591064453125,0.10204432468385767,-0.10730581205207053,-0.0661702004220217,-0.1729187705574397,-0.4377437016459003,0.060282338038578916
1730865954.433618,-1.710945725440979,1.0032237768173218,-9.818702697753906,0.09892754724521946,-0.11012945655284273,-0.06655282220460493,-0.1726350163140423,-0.4443624708172008,0.0600673173755444
1730865954.4836576,-1.7012803554534912,1.053971767425537,-9.838756561279297,0.09571327601932135,-0.11291079654221646,-0.06694067172100512,-0.17229027189409626,-0.45105849924239805,0.0598104425173616
1730865954.5335536,-1.6881037950515747,1.0379717350006104,-9.849413871765137,0.09241058056122034,-0.1156374345132211,-0.06733466318167979,-0.17188715985092792,-0.4578211633470808,0.059511914819593774
1730865954.5836434,-1.7113316059112549,0.9963055849075317,-9.854170799255371,0.08903065415977905,-0.11829875115511305,-0.0677351207069043,-0.17142507163502693,-0.4646915703357647,0.05916948925943076
1730865954.6335702,-1.745736837387085,0.9328804016113281,-9.85682487487793,0.08558648601436028,-0.12088572071976171,-0.0681420204088083,-0.1709113581459486,-0.4715947824152315,0.058786790591532974
1730865954.683587,-1.7479357719421387,0.8603179454803467,-9.831171989440918,0.0820923238395995,-0.12339025570226644,-0.06855510223163824,-0.1703445729569366,-0.4785853427827627,0.05836088418131061
1730865954.733575,-1.7491909265518188,0.843873918056488,-9.839099884033203,0.07856312365265762,-0.12580439335166557,-0.06897385523626905,-0.169726888949464,-0.4856625785187595,0.05789148013703764
1730865954.7836032,-1.719849944114685,0.8954249024391174,-9.856204986572266,0.07501419769671704,-0.12811972206975653,-0.06939747184734305,-0.16905935318866272,-0.49283849168146826,0.05737739250219307
1730865954.8335345,-1.69038987159729,1.013269066810608,-9.893735885620117,0.071460996532482,-0.1303273162404608,-0.06982483763696747,-0.1683486744743122,-0.5000670034124195,0.05682182843456483
1730865954.8834958,-1.6407148838043213,1.1782209873199463,-9.94733715057373,0.06791874823553337,-0.13241810167680484,-0.07025444714422346,-0.16759613741044604,-0.5073622829464505,0.05622387017104844
1730865954.9335127,-1.5968351364135742,1.3148117065429688,-9.980710983276367,0.06440207070495996,-0.13438368192102113,-0.07068434261258635,-0.16679922868956462,-0.5147703706491812,0.05557946994955319
1730865954.9834745,-1.5788203477859497,1.3853707313537598,-9.986942291259766,0.06092498810699031,-0.1362177184951842,-0.07111234810685801,-0.16596511024766103,-0.5222453681892177,0.05489236441668181
1730865955.0333755,-1.59587824344635,1.345052719116211,-9.986001014709473,0.05750124145631775,-0.13791725463363777,-0.07153644759501736,-0.16509240209862786,-0.5298202725462015,0.054159380676543675
1730865955.0834413,-1.6471034288406372,1.241713523864746,-9.92891788482666,0.05414437500858671,-0.13948307477408867,-0.07195492839840938,-0.1641844557215493,-0.5374846258908371,0.053381243244127845
1730865955.1334794,-1.7504501342773438,1.1041513681411743,-9.85863208770752,0.05086734623070194,-0.14091884791066273,-0.07236613229380288,-0.163243516307888,-0.5452377906212116,0.05255782622702843
1730865955.1834555,-1.8304283618927002,0.9711137413978577,-9.74976921081543,0.04768169344508371,-0.142229448926058,-0.07276780978896824,-0.16227214480213425,-0.55307625898906,0.051689354522976606
1730865955.2333221,-1.9156988859176636,0.9128645658493042,-9.670672416687012,0.04459648264292636,-0.1434190913210369,-0.07315618952303597,-0.16127627937712338,-0.5609697335537903,0.05077927777035416
1730865955.2834413,-1.9563443660736084,0.903839647769928,-9.61693286895752,0.04161736609194602,-0.14448990782149396,-0.07352503335872454,-0.1602442944102163,-0.569025245595824,0.04981484907873996
1730865955.3332965,-1.9662718772888184,0.9583784937858582,-9.625625610351562,0.0387460167119318,-0.14544139436462383,-0.07386502561087291,-0.15919717929877156,-0.5770938350744804,0.04881378920804733
1730865955.3834836,-1.923431158065796,1.0500279664993286,-9.705564498901367,0.03598030360671946,-0.14627073926642822,-0.07416396443723473,-0.15811636781791807,-0.585332829612304,0.04775644213331751
1730865955.4342368,-1.8367159366607666,1.1513241529464722,-9.823517799377441,0.03331566533084205,-0.14697376366408202,-0.07440821883146567,-0.157005636711465,-0.5937249122877324,0.04664403602362396
1730865955.4842105,-1.7143102884292603,1.2665013074874878,-9.948857307434082,0.030747349361607515,-0.14754619419427867,-0.0745851036803962,-0.15588575004364155,-0.6021263331430793,0.045495692810105064
1730865955.5342638,-1.5934988260269165,1.3747628927230835,-10.055098533630371,0.028272477960210277,-0.14798510066662968,-0.07468508035368762,-0.15475218560604515,-0.6105844125576065,0.04430563466550971
1730865955.5842412,-1.4835880994796753,1.4298890829086304,-10.111140251159668,0.025891532580993293,-0.14829027267311976,-0.07470321202526385,-0.15359967770370053,-0.6191501679079298,0.043066802897752665
1730865955.6342456,-1.443881630897522,1.4316983222961426,-10.103753089904785,0.023609418545756954,-0.14846517219583583,-0.0746398980888185,-0.15243131453648492,-0.6278115218198811,0.04178087414903602
1730865955.6842623,-1.4952565431594849,1.3775787353515625,-10.049909591674805,0.021435943951059945,-0.14851715654479794,-0.07450083122181282,-0.15124951375184242,-0.6365609467578145,0.04044905032887758
1730865955.7341847,-1.6399167776107788,1.2702287435531616,-9.953142166137695,0.019385329049400907,-0.14845688430914994,-0.07429614945641598,-0.1500569447754995,-0.6453884556331233,0.03907306517002808
1730865955.7842758,-1.8158236742019653,1.1555479764938354,-9.814238548278809,0.017474609885527757,-0.14829702785540105,-0.07403894212872555,-0.14884575284281948,-0.6543613367651164,0.03764236041977475
1730865955.8341494,-1.987913966178894,1.0372942686080933,-9.684324264526367,0.015721235398743608,-0.14805058499015228,-0.07374334069638441,-0.1476339664634603,-0.6633542976271112,0.03617716788467835
1730865955.8841746,-2.1046435832977295,0.9711049795150757,-9.589987754821777,0.014140488891766617,-0.14772918888615635,-0.07342251946959227,-0.1464065900630805,-0.6724861322314095,0.03465843349654681
1730865955.9341092,-2.1483964920043945,0.9394667744636536,-9.553539276123047,0.01274360600202108,-0.147341908871963,-0.07308717833794642,-0.14517455903177684,-0.6816822239352185,0.03309863771174075
1730865955.9841945,-2.121264934539795,0.9565346837043762,-9.586009979248047,0.011537434041764631,-0.146894986795235,-0.07274514526041934,-0.14392933195661395,-0.691012231522106,0.03148606634897562
1730865956.0340698,-2.039263963699341,0.9619608521461487,-9.645097732543945,0.010525493550456132,-0.1463923782649123,-0.07240206213324861,-0.1426847760773403,-0.7003770363941647,0.029838081165343408
1730865956.0840585,-1.9312196969985962,0.9948458671569824,-9.719782829284668,0.009709425086618156,-0.14583645583781396,-0.07206243807359644,-0.1414293994734024,-0.7098669352107176,0.028139055179691945
1730865956.1340225,-1.8107657432556152,1.0069457292556763,-9.799466133117676,0.00909035043162327,-0.14522854962956627,-0.07173064821631754,-0.14016756752288967,-0.7194522199236452,0.026394276352575786
1730865956.184022,-1.7375962734222412,1.0039891004562378,-9.883305549621582,0.00867023172588488,-0.1445693810563228,-0.07141190698191553,-0.13890373417828672,-0.7291009572913423,0.02460978773725347
1730865956.2339506,-1.6901278495788574,0.9899908900260925,-9.963652610778809,0.008453027338776398,-0.1438593507319468,-0.07111319925182394,-0.13763518835109537,-0.7388346961812574,0.022781854846115075
1730865956.2840056,-1.6511867046356201,1.0167818069458008,-10.022025108337402,0.008445356305964768,-0.1430986529226606,-0.07084406676721897,-0.13635209112968302,-0.7487295106049047,0.02089600234337899
1730865956.3338845,-1.626352071762085,1.0566904544830322,-10.058816909790039,0.008656682326144055,-0.1422874018552115,-0.07061714065507026,-0.1350748402864828,-0.7586270174099212,0.018982537804453928
1730865956.3839247,-1.6089198589324951,1.1275053024291992,-10.08283519744873,0.009099188538995356,-0.1414259821207422,-0.07044833153212163,-0.1337814730944489,-0.7686952466945887,0.017009020279765096
1730865956.433835,-1.548673152923584,1.161179542541504,-10.08017635345459,0.009787509921729245,-0.14051562832330627,-0.0703566725839607,-0.13249538724932952,-0.778748659140545,0.015011870413584146
1730865956.4838657,-1.5168516635894775,1.1840696334838867,-10.051786422729492,0.010737927028010227,-0.13955879407703586,-0.0703634034842154,-0.1311892773656974,-0.7889960955356631,0.012949499120397995
1730865956.533793,-1.4813148975372314,1.1318827867507935,-9.987784385681152,0.011966039008133922,-0.1385586066771884,-0.07048947588521734,-0.12988739927787224,-0.799241452729147,0.01086113888920179
1730865956.5838237,-1.4938756227493286,1.0512200593948364,-9.905617713928223,0.013483613465494135,-0.13751749618239478,-0.07075214053278289,-0.1285680363683374,-0.8096481321389811,0.008713285426643059
1730865956.6337664,-1.5253958702087402,0.9455553293228149,-9.82075309753418,0.015296850157649576,-0.13643587762281476,-0.07116260332072949,-0.12724767768186765,-0.8200773018400255,0.006534199441518673
1730865956.683823,-1.6069215536117554,0.8572342395782471,-9.72569751739502,0.017406285093597026,-0.13531120958928217,-0.07172517612233655,-0.1259092782444746,-0.8306531628466158,0.00429748643028518
1730865956.7337284,-1.7038275003433228,0.803158164024353,-9.66273307800293,0.019806875468964005,-0.13413724165757404,-0.07243696321685057,-0.1245633112043891,-0.8412811358280713,0.002022486293815761
1730865956.7837372,-1.8090814352035522,0.8006678223609924,-9.635173797607422,0.02248769447477012,-0.13290357262191926,-0.07328774838622254,-0.12320577816570849,-0.851979577522372,-0.0002952059842601169
1730865956.8336544,-1.8927173614501953,0.8072279691696167,-9.634767532348633,0.025431455815965974,-0.13159575092538606,-0.07426027748093358,-0.12183699763114618,-0.8627315605527744,-0.002652500723662519
1730865956.883653,-1.9440635442733765,0.8602471947669983,-9.668485641479492,0.028614155197691126,-0.13019590954026342,-0.07533101718716367,-0.12044312472176405,-0.8736297373007815,-0.005070675771572594
1730865956.9336395,-1.9826576709747314,0.9154075980186462,-9.733817100524902,0.032005058406004615,-0.1286837917340836,-0.07647134088470739,-0.11903185111589391,-0.8845966326429038,-0.007533640148862848
1730865956.9837236,-1.9989776611328125,0.9727869033813477,-9.810914993286133,0.03556709788852942,-0.12703800293517686,-0.07764904995524027,-0.11759456843357681,-0.8956809131638761,-0.010053375105365529
1730865957.033659,-1.9968469142913818,1.0430967807769775,-9.891023635864258,0.03925803739291353,-0.1252374341177338,-0.07883023317881643,-0.11614664682379047,-0.906746318313074,-0.012599634278022357
1730865957.083661,-1.9078164100646973,1.1033395528793335,-9.982389450073242,0.043033178838524797,-0.12326295951044709,-0.07998154701822388,-0.11466175902730849,-0.9179750900948922,-0.015215308155359077
1730865957.1336153,-1.811535358428955,1.1505705118179321,-10.037453651428223,0.04684908632114984,-0.12109915184998356,-0.08107254720941502,-0.11315728669323599,-0.929216321952998,-0.01786633461801838
1730865957.1835968,-1.684177279472351,1.158101201057434,-10.068291664123535,0.05066650181160716,-0.11873536315332918,-0.082077291655416,-0.1116157267878593,-0.9405817550192643,-0.020579993352552315
1730865957.2335598,-1.607757568359375,1.1402833461761475,-10.083259582519531,0.05445193156996162,-0.11616595276296446,-0.08297497512765081,-0.11004669610388133,-0.9519813006099134,-0.02333577843881576
1730865957.2836456,-1.5794684886932373,1.0847864151000977,-10.054425239562988,0.05817855645335388,-0.11338990490209847,-0.0837499274078975,-0.10843891306405404,-0.9634784699835673,-0.026149911016690695
1730865957.3335211,-1.6266781091690063,1.0333889722824097,-10.00820255279541,0.06182654265662111,-0.11041002884272129,-0.08439118203003555,-0.10680172365943374,-0.9749890081042286,-0.029002508554226984
1730865957.3835816,-1.7076492309570312,0.985153317451477,-9.948284149169922,0.06538251705318919,-0.10723192276444879,-0.08489167184684379,-0.10511248234763,-0.9866535453157206,-0.03192939498455892
1730865957.4335127,-1.7534598112106323,0.9991579055786133,-9.872818946838379,0.06883833723064191,-0.10386299147125835,-0.08524717664840419,-0.10339032511843324,-0.9983222028832005,-0.03489385292246541
1730865957.4836228,-1.761965274810791,1.019677996635437,-9.80775260925293,0.07218965381810052,-0.10031181683997985,-0.0854551779500284,-0.1016125076945305,-1.0101319591230615,-0.037931483215732635
1730865957.5335631,-1.7332777976989746,1.0601274967193604,-9.740081787109375,0.0754348164256124,-0.09658799884471891,-0.08551375653506581,-0.0998002994397539,-1.0219256380669202,-0.04100252233025222
1730865957.5835302,-1.7360866069793701,1.0578792095184326,-9.706241607666016,0.07857408323549127,-0.09270228682035929,-0.08542082789476214,-0.09793417709198536,-1.0338161163525428,-0.044136781680396815
1730865957.633568,-1.7078824043273926,1.0534155368804932,-9.675688743591309,0.08160850647987455,-0.08866666444601598,-0.08517413083069546,-0.09601885142629814,-1.0457576072667267,-0.04732289181296426
1730865957.683474,-1.7233083248138428,1.0290294885635376,-9.678693771362305,0.08453857903799814,-0.08449419692066593,-0.08477177983150969,-0.09405577771418729,-1.0577278858072445,-0.050555254639839356
1730865957.733404,-1.7296462059020996,1.0342074632644653,-9.693284034729004,0.08736350134760641,-0.08019871654396166,-0.08421266850804998,-0.09204170782248343,-1.0697345319188991,-0.053836136061463834
1730865957.7834828,-1.7782323360443115,1.0552161931991577,-9.738544464111328,0.09008112252185889,-0.07579454690222746,-0.08349659961639905,-0.08996336703976472,-1.0818423582397187,-0.05718377237568534
1730865957.833414,-1.8271551132202148,1.1032934188842773,-9.756502151489258,0.09268791177877575,-0.07129643635575621,-0.08262449241618953,-0.08783184639697816,-1.0939732861684206,-0.06057699201152303
1730865957.8834038,-1.8970963954925537,1.1459044218063354,-9.80887222290039,0.09517870020162385,-0.06671975525817203,-0.08159871670923792,-0.08563928111535435,-1.1061604977481692,-0.06402522956927194
1730865957.933347,-1.9201931953430176,1.1988476514816284,-9.833016395568848,0.09754630722847493,-0.062080866945306526,-0.08042343128257297,-0.0833911135281515,-1.1183628676810438,-0.06751691878724886
1730865957.983341,-1.93211030960083,1.2210768461227417,-9.855461120605469,0.0997812799967026,-0.05739751341762275,-0.07910486109164967,-0.0810779372386628,-1.1306209650058723,-0.0710636907061648
1730865958.0332818,-1.8952357769012451,1.1917591094970703,-9.863088607788086,0.10187196786281526,-0.05268901985334972,-0.07765143338703852,-0.07871052929081078,-1.1428685769452402,-0.07464624526397812
1730865958.0833924,-1.8420480489730835,1.143674373626709,-9.883455276489258,0.1038050209240256,-0.047976102556540404,-0.07607374203741418,-0.07625244521913253,-1.15528151596518,-0.07831634437830924
1730865958.1332362,-1.7618697881698608,1.129366159439087,-9.8805570602417,0.1055662950568095,-0.04328019677545236,-0.07438424348937092,-0.0737496537358344,-1.1676178779806468,-0.08200244960566862
1730865958.1833367,-1.694387674331665,1.115341305732727,-9.905627250671387,0.10714206868370407,-0.03862247977933844,-0.07259645606853633,-0.07118265752371915,-1.179969838420642,-0.08573135061614882
1730865958.2332082,-1.6100733280181885,1.094612956047058,-9.931663513183594,0.10852034460898705,-0.034022966972585854,-0.07072395638250027,-0.06855036114933313,-1.1923360222680484,-0.08950227879912756
1730865958.2832747,-1.5418109893798828,1.0807050466537476,-9.972339630126953,0.10969198657054134,-0.02949996303456664,-0.06877992877826618,-0.06583914776064613,-1.2047723083618898,-0.09333214141316849
1730865958.3331993,-1.499990701675415,1.0729589462280273,-10.015694618225098,0.11065157567363318,-0.025069823126651875,-0.06677739083221296,-0.06306902846774705,-1.217180883496365,-0.09719047150866969
1730865958.383289,-1.4388550519943237,1.0682786703109741,-10.016959190368652,0.1113979599394765,-0.020746865101892845,-0.06472961591581855,-0.060212961663770326,-1.2296767335882763,-0.10111273080130688
1730865958.4332135,-1.4234479665756226,1.0768064260482788,-10.036955833435059,0.11193451581382072,-0.01654338442846137,-0.0626504150550173,-0.05730417677756885,-1.2421101152539864,-0.1050514610675886
1730865958.4831707,-1.4432932138442993,1.1116139888763428,-10.005428314208984,0.11226911483029113,-0.012469798382442863,-0.06055417887991076,-0.054314270562637025,-1.2545996103840245,-0.10904362250929406
1730865958.5341525,-1.5085569620132446,1.1484904289245605,-9.962830543518066,0.11241367073505894,-0.008534967312535818,-0.05845565503790602,-0.051200665578322514,-1.267310856702921,-0.11314276108374001
1730865958.5831633,-1.5824558734893799,1.1850098371505737,-9.87814998626709,0.11238319391228388,-0.004746677988434934,-0.05636942056042685,-0.048138524042140515,-1.2795355599934997,-0.11711879366854756
1730865958.6341417,-1.7026240825653076,1.1562330722808838,-9.797066688537598,0.11219445996553958,-0.001112117643477436,-0.054309051492651264,-0.044876917598131665,-1.2922726887824654,-0.12129614997082136
1730865958.6841717,-1.8434793949127197,1.0966352224349976,-9.701960563659668,0.11186449799934088,0.002361926734011456,-0.052286269982877026,-0.0416126714379157,-1.3047440148531244,-0.12542005399744474
1730865958.7341104,-1.9647480249404907,1.0394996404647827,-9.635427474975586,0.11140913881203703,0.005669272463804747,-0.050310550532577394,-0.0382806275515237,-1.3172061045226209,-0.12957369506934846
1730865958.7841659,-2.0362460613250732,0.9632866978645325,-9.589738845825195,0.1108417662549924,0.00880486362402768,-0.04838914881762933,-0.03485705855715592,-1.329744526186154,-0.13378533541770915
1730865958.8331368,-2.0580220222473145,0.9396564364433289,-9.595098495483398,0.11017234774931255,0.01176544242484364,-0.046527054768865546,-0.03145555373322313,-1.3419503932270365,-0.13791615922620246
1730865958.8841126,-2.0260348320007324,0.9472898840904236,-9.640368461608887,0.10940697587277078,0.01455009434966556,-0.044726916870294134,-0.02784531289533293,-1.354646434752634,-0.14224470766471137
1730865958.9341154,-1.9630955457687378,1.0134309530258179,-9.721592903137207,0.10854813643424469,0.01716033273188203,-0.04298939495153685,-0.024229289930934858,-1.3671107293256346,-0.14652536387441045
1730865958.984118,-1.895137906074524,1.0919886827468872,-9.815616607666016,0.1075956086019913,0.019599580883074876,-0.041314040459531576,-0.020559933072034173,-1.3795155474047893,-0.1508157608451316
1730865959.0339692,-1.8222602605819702,1.1473636627197266,-9.905097961425781,0.10654769024042125,0.021872211127770918,-0.03970048128189391,-0.016818493981631544,-1.3919257669499316,-0.15513771203239984
1730865959.0840662,-1.7455374002456665,1.1361726522445679,-9.956357955932617,0.10540246574966863,0.023982555527111076,-0.03814960894785277,-0.012993507576622996,-1.4043782028330811,-0.15950379377079074
1730865959.1339521,-1.700907826423645,1.1482601165771484,-10.000899314880371,0.10415894435777985,0.025934312819358856,-0.0366644796969944,-0.009124101245169068,-1.4167469510603483,-0.16386931912456834
1730865959.1839936,-1.7207727432250977,1.1174755096435547,-10.020934104919434,0.10281788642714687,0.02773043885345471,-0.03525079305638984,-0.00517052359354635,-1.4291606671966082,-0.16827917988960234
1730865959.233999,-1.7523990869522095,1.134559988975525,-9.988039016723633,0.101382005370611,0.02937334285877579,-0.033916691182231444,-0.0011715689101848329,-1.4414990734491004,-0.17269018807261408
1730865959.2839696,-1.8286563158035278,1.1376848220825195,-9.950651168823242,0.09985532762867386,0.030865211415585368,-0.03267139708369384,0.002886217043647145,-1.4538073411055223,-0.17711780521935144
1730865959.3339097,-1.8731988668441772,1.1633003950119019,-9.883402824401855,0.09824201299588586,0.03220826017779124,-0.03152310280591705,0.007017111774899532,-1.466130282632926,-0.18157779945920166
1730865959.3839538,-1.87714421749115,1.2097761631011963,-9.829784393310547,0.0965453241097085,0.033404721981645534,-0.030477366308976902,0.011229488825205794,-1.4784928338834153,-0.18607910744425538
1730865959.43391,-1.8527741432189941,1.2444229125976562,-9.779115676879883,0.09476717903564782,0.034456556699686086,-0.029536376441422117,0.015466041119337309,-1.4907303390020517,-0.19056127082753302
1730865959.483997,-1.7791498899459839,1.2536530494689941,-9.761033058166504,0.09290830856561474,0.03536505981422284,-0.02869862636413631,0.019799085125899875,-1.5030542748306728,-0.19510142634597774
1730865959.5338774,-1.7433054447174072,1.2289862632751465,-9.7857084274292,0.0909688749510808,0.036130630028828936,-0.02795887425361645,0.02414607436764138,-1.5152330301141916,-0.19961390341549998
1730865959.583923,-1.7001326084136963,1.2023404836654663,-9.813427925109863,0.08894927946549697,0.036752869167149274,-0.027308511842313983,0.028577581547010723,-1.5274683445003432,-0.2041730376576422
1730865959.6338441,-1.658395528793335,1.1724835634231567,-9.855494499206543,0.08685086952237898,0.03723097361091463,-0.026736295825010956,0.03304422341159105,-1.539626513537723,-0.20872883481432875
1730865959.6838272,-1.589672565460205,1.1396898031234741,-9.88569164276123,0.08467649464118057,0.037564243425054364,-0.026229246159990345,0.03757582399405837,-1.5517925813663704,-0.2133128480939395
1730865959.733828,-1.5081108808517456,1.1046420335769653,-9.922158241271973,0.08243105259500612,0.0377525830706229,-0.025773525710549937,0.042174445839990915,-1.5639741955165594,-0.21792793832450746
1730865959.7838185,-1.4295170307159424,1.1049782037734985,-9.95274543762207,0.08012182643439791,0.03779689997496628,-0.02535524367329187,0.04680693271931442,-1.576087332890402,-0.22254200966778917
1730865959.833836,-1.4276865720748901,1.1359474658966064,-9.951932907104492,0.07775795315556301,0.03769922327657529,-0.024961195368100514,0.0514936174964358,-1.588189619845667,-0.22717665333412243
1730865959.8838398,-1.4848183393478394,1.1582427024841309,-9.916403770446777,0.07534909111656087,0.037462456364758166,-0.02457938857325752,0.056231249198749424,-1.6002762372811579,-0.23182980410673218
1730865959.9337692,-1.5948827266693115,1.1681678295135498,-9.850994110107422,0.07290418574075982,0.0370899617573867,-0.02419908244998433,0.06100208721393735,-1.6123064300147536,-0.23648538430279134
1730865959.9839382,-1.7093874216079712,1.1369863748550415,-9.79179573059082,0.07043050577553718,0.03658526926872265,-0.02381030940660084,0.06584591785847102,-1.6243840494677844,-0.2411833477784909
1730865960.0338023,-1.8193243741989136,1.1080282926559448,-9.737626075744629,0.06793255403803648,0.03595206883791935,-0.023403146992961747,0.07069952417622692,-1.6363558894283456,-0.24586367736908046
1730865960.083812,-1.884267807006836,1.1029753684997559,-9.714607238769531,0.06541096409406705,0.0351944465799017,-0.022967046531290322,0.07561854064005877,-1.6483638966330174,-0.25058135856889413
1730865960.1337838,-1.9105286598205566,1.1115912199020386,-9.716594696044922,0.06286176851024271,0.03431712835436905,-0.022490434596145338,0.08055278565984891,-1.6602899533153004,-0.2552894968393538
1730865960.1837988,-1.9257912635803223,1.116139531135559,-9.744019508361816,0.06027624034672843,0.03332553225206297,-0.02196069892563196,0.08554086849791888,-1.6722321827446924,-0.26002621834354833
1730865960.2337227,-1.9447674751281738,1.1083884239196777,-9.78177261352539,0.057641232547084566,0.03222566728671117,-0.021364549170410693,0.09056954808558185,-1.6841627900628324,-0.2647800161136929
1730865960.28374,-1.942165493965149,1.0875669717788696,-9.824285507202148,0.05493977271885205,0.031024045582743357,-0.02068863632998961,0.09562453152449611,-1.6960526962684124,-0.26953858769459016
1730865960.3336928,-1.9253342151641846,1.0885087251663208,-9.844911575317383,0.05215221518914874,0.02972768068681029,-0.01992035191975586,0.10070615338240134,-1.707907957459479,-0.27430349902799545
1730865960.383695,-1.8715403079986572,1.0781447887420654,-9.8873929977417,0.04925879738565492,0.028344083190998,-0.019048823079375256,0.10584262593877446,-1.7197989212128566,-0.2791022702980824
1730865960.4336674,-1.8378441333770752,1.0401469469070435,-9.917705535888672,0.046242980213782266,0.026881224428239852,-0.018065913530465442,0.11098531151876277,-1.7316181387627991,-0.28389060328496424
1730865960.48365,-1.7672381401062012,1.032460331916809,-9.951805114746094,0.043093594603486586,0.02534759271700924,-0.016966855420813807,0.11615781636388374,-1.7434257520071743,-0.2886917194284168
1730865960.5337403,-1.7021394968032837,1.0370874404907227,-9.975760459899902,0.03980543478645563,0.023752325324148522,-0.01575045617679266,0.12138500031928973,-1.7552833999272646,-0.29352971068422873
1730865960.5838394,-1.65043306350708,1.073177456855774,-10.0149564743042,0.03637937705248294,0.0221051964666219,-0.014419109700202222,0.12664042147248336,-1.767136207151364,-0.2983811266056602
1730865960.6337297,-1.6014059782028198,1.14634108543396,-10.020565032958984,0.03282244256630959,0.02041629757003764,-0.012978735197966678,0.1318777780535512,-1.7788863727703506,-0.30320449494646884
1730865960.6836996,-1.5850491523742676,1.22859787940979,-9.987622261047363,0.02914767609316013,0.018695374302010348,-0.011438574375302539,0.13714349173206447,-1.790644712731039,-0.30804381550029525
1730865960.733647,-1.6096011400222778,1.2526041269302368,-9.945744514465332,0.025373742398030315,0.016950958635089258,-0.009810693088595886,0.14245036532928737,-1.8024456016010943,-0.3129119128554368
1730865960.7837098,-1.665219783782959,1.2559261322021484,-9.857342720031738,0.021524133398269002,0.015189659843773413,-0.008109129670183571,0.14774671325551833,-1.8141804915634374,-0.31776251841845815
1730865960.8336103,-1.7471556663513184,1.2027697563171387,-9.769553184509277,0.017625948550338513,0.01341595570739113,-0.006348757621579985,0.15305568718956497,-1.825907432021157,-0.32261802336565
1730865960.8836133,-1.8258168697357178,1.1118991374969482,-9.667461395263672,0.013708276150346232,0.011632609329478787,-0.004544133811369649,0.15838117279826927,-1.8376414325809165,-0.3274830864759453
1730865960.9335773,-1.8815194368362427,1.0185134410858154,-9.608986854553223,0.00980025282983775,0.009841674159164149,-0.0027088112587303047,0.1637124859444373,-1.8493654036479354,-0.3323490339923462
1730865960.9835758,-1.8734042644500732,0.954424262046814,-9.58102798461914,0.005929255388000142,0.008045803956962328,-0.0008551470529218523,0.1690544995323871,-1.8610965041715044,-0.33722137470244345
1730865961.033538,-1.824157476425171,0.9195178747177124,-9.613903045654297,0.0021199283453595926,0.006249381917859787,0.0010058233295241453,0.17439633424841638,-1.872817219750717,-0.3420912107607392
1730865961.0836797,-1.7324042320251465,0.9404146075248718,-9.695297241210938,-0.0016057395915234523,0.004459122185965184,0.0028643906378805336,0.17975518953689407,-1.8845715700372012,-0.34697520217818173
1730865961.133535,-1.6441199779510498,0.9858413338661194,-9.814929962158203,-0.00522762166533057,0.002684044026063222,0.004711639261743746,0.18506212173455938,-1.89621444822085,-0.35181145146838927
1730865961.1836119,-1.5686087608337402,1.074684739112854,-9.920032501220703,-0.008726359701605284,0.0009348572574334142,0.006538359050317763,0.19040907549344946,-1.907953577053525,-0.3566846326962546
1730865961.2334654,-1.542607307434082,1.151999592781067,-10.003628730773926,-0.012082359431534849,-0.0007770910620935371,0.008333767540725673,0.1957196834380875,-1.91962706721581,-0.36152596093905265
1730865961.283573,-1.5542049407958984,1.2301385402679443,-10.041191101074219,-0.01527520916483256,-0.0024410569802308306,0.01008446747663586,0.20104954504495579,-1.9313626987784593,-0.36638688191007784
1730865961.3333614,-1.6225168704986572,1.2406723499298096,-10.066964149475098,-0.018283712681848623,-0.004048009938094767,0.01177391222483946,0.20633378498591023,-1.9430228223037442,-0.3712089097458513
1730865961.3834236,-1.7253564596176147,1.2138913869857788,-10.027120590209961,-0.02108656863281709,-0.005591285733582561,0.013382440732431451,0.21164760034225913,-1.9547784339711656,-0.37606129932605237
1730865961.4334004,-1.8377536535263062,1.1672279834747314,-9.96264362335205,-0.023663571010963995,-0.007066543155850563,0.014888129101999518,0.21692473102923707,-1.966487757240555,-0.38088412245738595
1730865961.4834306,-1.8791604042053223,1.118408203125,-9.90227222442627,-0.02599699170119347,-0.008471036592978683,0.01626887288053131,0.222207560437807,-1.9782491501840436,-0.38571661530218265
1730865961.5334456,-1.8703622817993164,1.049418330192566,-9.87574577331543,-0.028072642306510374,-0.009802554727667324,0.01750503536013452,0.227457888388965,-1.989981548281003,-0.39052428341753626
1730865961.5833516,-1.7904411554336548,0.9940613508224487,-9.860814094543457,-0.029880203984438945,-0.011058438392703918,0.01858114126659,0.2326760104256986,-2.001688747554332,-0.39530774256614987
1730865961.6333067,-1.6464136838912964,0.9628157019615173,-9.86606502532959,-0.03141267202192699,-0.012234840685275644,0.019486244253016306,0.23788958343211836,-2.0134359044471366,-0.4000926840590916
1730865961.683353,-1.5627888441085815,0.9482263922691345,-9.848698616027832,-0.03266505932266344,-0.013326267328189421,0.020213687370632484,0.24308432976753197,-2.025193744014978,-0.404866318072417
1730865961.7333167,-1.562458872795105,0.9341247081756592,-9.841981887817383,-0.0336329243100417,-0.014325432209862227,0.020760745043417104,0.24826253230369977,-2.036969743143326,-0.40963099138385345
1730865961.783527,-1.5797141790390015,0.9555282592773438,-9.840194702148438,-0.034311468317890434,-0.015223384468352048,0.021128272019893347,0.2534479060794845,-2.04882014704452,-0.41440877448032526
1730865961.8334281,-1.656130313873291,1.0449622869491577,-9.828990936279297,-0.034695505843208144,-0.016009916086104168,0.02132036061638143,0.2585564572409741,-2.0605538246136827,-0.4191223552779366
1730865961.883437,-1.7408385276794434,1.130565881729126,-9.812065124511719,-0.03478011975573195,-0.016674379745782935,0.021344005179103807,0.2636945357106666,-2.0724157819959723,-0.4238699224549337
1730865961.933372,-1.8037424087524414,1.1793253421783447,-9.80042552947998,-0.034561688377762,-0.017206844040430474,0.021208819787517312,0.2687578197547597,-2.084165416611297,-0.4285550752690687
1730865961.9834905,-1.8700915575027466,1.1633671522140503,-9.820185661315918,-0.034038916570101684,-0.017599141393016916,0.020926648654028414,0.27383999761421324,-2.0960196605435786,-0.43326439562106966
1730865962.0333447,-1.9134926795959473,1.100498914718628,-9.80792236328125,-0.03321355757868568,-0.017845327055341923,0.020510736134919008,0.2788586738297656,-2.1077855070930727,-0.43792135785186825
1730865962.083408,-1.9817607402801514,0.9967160820960999,-9.799867630004883,-0.03209082132198822,-0.01794136403294109,0.01997467183322269,0.2838911746956742,-2.1196427688417177,-0.44259743075230645
1730865962.1332574,-2.009242534637451,0.8998187184333801,-9.762540817260742,-0.030679660057899252,-0.01788417071331659,0.01933180727643602,0.2889438416052225,-2.1316058185291213,-0.44729827337309236
1730865962.1833553,-2.0146119594573975,0.8520634174346924,-9.732019424438477,-0.028992939698958647,-0.017670416319585477,0.01859530483810126,0.29388629715192777,-2.1433627295581372,-0.45190203153390424
1730865962.2332752,-1.9653370380401611,0.8578269481658936,-9.763777732849121,-0.027047283519936842,-0.0172955751590981,0.017778394245278908,0.2988384955319431,-2.155194899100401,-0.4565197628592078
1730865962.2832632,-1.8760980367660522,0.9307280778884888,-9.811843872070312,-0.024862412230842904,-0.016753649125172354,0.016894409112573654,0.3037818473626274,-2.1670551034593686,-0.46113351617758996
1730865962.3331802,-1.7786275148391724,1.0387083292007446,-9.875558853149414,-0.022459976622895512,-0.01603770011228324,0.015956403297403353,0.30870176811460914,-2.178904524697216,-0.46572891450479426
1730865962.3832405,-1.7020138502120972,1.1243410110473633,-9.926508903503418,-0.019862091541188884,-0.015141024177538752,0.014976459281920415,0.313637360944699,-2.1908333404617464,-0.4703416403874851
1730865962.4332123,-1.6601722240447998,1.1989141702651978,-9.964488983154297,-0.017089945257454234,-0.01405853978054512,0.013964965238248772,0.3185589982712217,-2.202765596063304,-0.4749430780595507
1730865962.4832904,-1.6342209577560425,1.2611186504364014,-9.975395202636719,-0.014162807025639466,-0.012787966793983642,0.012930085388724461,0.3234663856991193,-2.2146954373619887,-0.47953192101284675
1730865962.5331616,-1.622498869895935,1.2675787210464478,-9.962905883789062,-0.011097746576590475,-0.01133050041574701,0.011877681424434624,0.32834439069701016,-2.226580449255205,-0.4840929209766757
1730865962.5832772,-1.639206886291504,1.2061913013458252,-9.937066078186035,-0.00791038823651356,-0.009690674140233373,0.01081195540264352,0.33324943519289874,-2.238552434189212,-0.488677660272494
1730865962.6331246,-1.6860491037368774,1.1449236869812012,-9.880510330200195,-0.004616300248049276,-0.007875417055729994,0.009736580279403922,0.3381239290579274,-2.2504648762654273,-0.49323108845211755
1730865962.6834114,-1.7109571695327759,1.0855287313461304,-9.83228588104248,-0.0012320291771434084,-0.0058928354862760445,0.00865569046618993,0.3430445069138185,-2.2624987815209874,-0.49782348085331896
1730865962.7330935,-1.709753394126892,1.0741137266159058,-9.788422584533691,0.002224534814951662,-0.0037511999980459915,0.007574530473070405,0.347963596931328,-2.274531336585698,-0.5024090457058886
1730865962.7832174,-1.6724727153778076,1.0828081369400024,-9.795247077941895,0.0057342068338102434,-0.0014583149909486344,0.00649987682004473,0.35278507753847554,-2.2863207817462308,-0.5068970198851306
1730865962.8330767,-1.6206578016281128,1.0981696844100952,-9.837224006652832,0.009276910088895455,0.0009786692040676076,0.005440133810519389,0.3577503794354554,-2.298450346204513,-0.5115106299075259
1730865962.8830912,-1.5427521467208862,1.13316011428833,-9.84755802154541,0.012832423497608974,0.0035530858089540336,0.004404995616166175,0.3625571665477963,-2.310174818664402,-0.5159676623853211
1730865962.933006,-1.5629488229751587,1.1618047952651978,-9.863628387451172,0.016381266528212972,0.0062583867853841825,0.003404870856394938,0.3674544673546105,-2.3220950187536076,-0.5204978463609472
1730865962.9830446,-1.629149079322815,1.215698003768921,-9.845447540283203,0.019905283907562923,0.00908768604142822,0.002450387943086529,0.3723872675294424,-2.3340691146730776,-0.5250485073705249
1730865963.0340078,-1.6967530250549316,1.2590280771255493,-9.838217735290527,0.02338754801669476,0.012033254575462794,0.0015521302877806733,0.37742249777907716,-2.3462510809911143,-0.5296794726988223
1730865963.084012,-1.7413307428359985,1.2730633020401,-9.82457160949707,0.02681181692645864,0.01508604341067923,0.0007204397506346825,0.3823625871149038,-2.3581561125587087,-0.5342076859052095
1730865963.1339903,-1.7646113634109497,1.2583575248718262,-9.81188678741455,0.030162237650231592,0.018235416325854913,-3.504597419214572e-05,0.38732519369809604,-2.370062186441308,-0.5387400353670013
1730865963.1839724,-1.7786732912063599,1.2127102613449097,-9.802888870239258,0.03342347604217452,0.021469261289483794,-0.000706013430379361,0.39232730833240426,-2.382002687716047,-0.5432904689514604
1730865963.233917,-1.8130278587341309,1.14822256565094,-9.807696342468262,0.03658082862064378,0.024774496763666845,-0.001285758596125817,0.3973132379408056,-2.3938382234523563,-0.5478069982320579
1730865963.2838762,-1.809478998184204,1.100132703781128,-9.810400009155273,0.0396201076202036,0.02813785431069564,-0.001769107001441225,0.40234290833679376,-2.4057047232117204,-0.5523425893088626
1730865963.333905,-1.797210454940796,1.1131501197814941,-9.829365730285645,0.04252752732716471,0.0315466716779819,-0.0021523030863495173,0.40739769200925385,-2.417551327959122,-0.5568789228385341
1730865963.383851,-1.7991148233413696,1.125964879989624,-9.836786270141602,0.045289770978134705,0.034989352831271234,-0.0024329923889442337,0.4124824710324537,-2.429383139172041,-0.5614189845841256
1730865963.4338167,-1.7826963663101196,1.1695894002914429,-9.845488548278809,0.04789418221565596,0.038455353276493166,-0.0026102444479834943,0.41758730672094285,-2.441171148347039,-0.5659525941691472
1730865963.4838102,-1.7767739295959473,1.2048052549362183,-9.856528282165527,0.050328974597414346,0.041934824231445594,-0.002684558011910817,0.4227378081582392,-2.4529685165999298,-0.570501130347604
1730865963.5337822,-1.8129676580429077,1.1983704566955566,-9.851751327514648,0.052583388247313075,0.045418155170063354,-0.0026578235254597882,0.42800832968233526,-2.464936994481793,-0.5751281765764857
1730865963.5838563,-1.865580439567566,1.1427628993988037,-9.82577133178711,0.054647649615375674,0.04889571696038866,-0.0025332057016340163,0.43312967290517396,-2.476462943577136,-0.5795969336497679
1730865963.633715,-1.881205439567566,1.0834192037582397,-9.824111938476562,0.056512785394700255,0.0523578865899363,-0.0023148983262346375,0.43861131690844946,-2.4886833363338137,-0.5843495505012647
1730865963.68373,-1.863053321838379,1.0553536415100098,-9.826824188232422,0.0581707540064568,0.05579497038490938,-0.0020078261366847684,0.4436456919556292,-2.499798439260005,-0.5886861009938605
1730865963.7337158,-1.8265241384506226,1.0528087615966797,-9.850543975830078,0.05961504534037927,0.05919690389058359,-0.0016174574936418458,0.44918702801834504,-2.511910912542862,-0.593427539021598
1730865963.7837036,-1.7715882062911987,1.0776413679122925,-9.877630233764648,0.06084130945913289,0.06255312153524364,-0.0011498064565030495,0.4543152933631697,-2.523005370867854,-0.5977855482776339
1730865963.8336518,-1.7354477643966675,1.0973707437515259,-9.941924095153809,0.061847795486174126,0.06585262966773471,-0.0006116206301702104,0.4596987575388406,-2.5345317646116374,-0.6023291527763095
1730865963.8837056,-1.689695954322815,1.1317925453186035,-9.966397285461426,0.06263570770755822,0.06908398907533855,-1.0723848573276885e-05,0.46514325053969124,-2.54606305405765,-0.6068915457988279
1730865963.9335935,-1.6389662027359009,1.1293141841888428,-9.971222877502441,0.06320949468441901,0.07223519974581215,0.0006436389683700712,0.4705907720248388,-2.5574740008596892,-0.6114235053888056
1730865963.9836588,-1.6623183488845825,1.1505361795425415,-9.938908576965332,0.0635770078336115,0.07529364389692955,0.0013407129552155694,0.47611359085884786,-2.568913443802518,-0.6159844907024926
1730865964.0335605,-1.685981035232544,1.114296793937683,-9.907242774963379,0.06374937105740786,0.0782461709803392,0.002068530375274092,0.48185732737205983,-2.5806730689616986,-0.6206921708095255
1730865964.0836053,-1.7127622365951538,1.098321795463562,-9.828071594238281,0.06374044996823089,0.0810793654247396,0.0028145309201788797,0.4872510503337443,-2.591589446385624,-0.6250800215546024
1730865964.1335196,-1.7381293773651123,1.0863145589828491,-9.812661170959473,0.06356608936480825,0.08377996793926679,0.0035663634027837308,0.4929177764555962,-2.602927381655859,-0.6296558813988369
1730865964.1835907,-1.7394286394119263,1.1070185899734497,-9.751754760742188,0.06324325014388102,0.08633529428534628,0.004312604471446702,0.49854131717190175,-2.614047678510937,-0.6341627236641655
1730865964.2335656,-1.7783422470092773,1.099996566772461,-9.74980354309082,0.06278892230669303,0.08873352150776276,0.005043105889753179,0.5042601724008092,-2.6252240821840322,-0.6387115221998874
1730865964.2834716,-1.775434136390686,1.1180026531219482,-9.734968185424805,0.06221897386234043,0.09096384027782067,0.005749008363961814,0.5099920418268915,-2.6362938868796983,-0.6432363488713125
1730865964.3334875,-1.775434136390686,1.1180026531219482,-9.734968185424805,0.061547467531288584,0.09301649274841481,0.006422694557927379,0.5157725675308334,-2.6473258874741252,-0.6477653580187714
1730865964.3834748,-1.8024729490280151,1.096219539642334,-9.761283874511719,0.06078655539640841,0.0948827561690332,0.007057755588772713,0.5215954597497294,-2.658307222589851,-0.6522934367957851
1730865964.4334664,-1.8615046739578247,1.0873790979385376,-9.789366722106934,0.05994650918163195,0.0965550016770005,0.007648834433599018,0.5274647783764063,-2.6692449533064284,-0.6568236358860813
1730865964.4834557,-1.8906596899032593,1.113863468170166,-9.796687126159668,0.05903555712884621,0.09802681955467198,0.008191312743153841,0.533389273555252,-2.680154541545259,-0.6613625491626491
1730865964.533443,-1.8843986988067627,1.1354656219482422,-9.818350791931152,0.058059633527679615,0.09929301946952218,0.008680983814854316,0.5393227413331818,-2.6909514582275835,-0.6658749910898295
1730865964.5834439,-1.8520234823226929,1.1645499467849731,-9.829914093017578,0.057022364016571334,0.10034941531405096,0.009113812770005465,0.5452854629836725,-2.7016741431035265,-0.6703768636706702
1730865964.6334517,-1.8085271120071411,1.176212191581726,-9.861815452575684,0.055925453287382264,0.10119251240261189,0.009485747871411102,0.5512894813346003,-2.712344876015899,-0.6748775157331536
1730865964.6834452,-1.7181299924850464,1.1627516746520996,-9.876137733459473,0.05476941425900052,0.10181926941458053,0.009792528115944228,0.5573282886858887,-2.7229526828267305,-0.6793723331620176
1730865964.7333987,-1.6924563646316528,1.1392431259155273,-9.905946731567383,0.05355445566100496,0.10222709546150846,0.010029627502289364,0.5635555328235228,-2.7337637116210156,-0.6839748570668888
1730865964.7834475,-1.6710063219070435,1.1597439050674438,-9.915834426879883,0.052281192864862255,0.1024141215483042,0.01019262320311336,0.5695239665098302,-2.744006762474124,-0.6883560160200387
1730865964.8333828,-1.6623401641845703,1.1732234954833984,-9.910504341125488,0.05095096516810879,0.10237949258840792,0.010277834138024623,0.5758212150012123,-2.754691648554583,-0.6929476828520796
1730865964.8834436,-1.664509892463684,1.188157320022583,-9.918722152709961,0.04956591176765188,0.1021233940331823,0.010282690075251795,0.5818237202128108,-2.7647625973068877,-0.6972959488834748
1730865964.933397,-1.6572636365890503,1.1673773527145386,-9.908549308776855,0.04812897994174653,0.1016468936330385,0.010205725946359039,0.5880232526912421,-2.7750509410684665,-0.701758854430519
1730865964.9834638,-1.6591688394546509,1.130024790763855,-9.90406608581543,0.04664388088245787,0.10095189114644923,0.010046487642959482,0.5942808710307351,-2.785322607345529,-0.706235775653386
1730865965.0333724,-1.6591688394546509,1.130024790763855,-9.90406608581543,0.045115010629354954,0.10004128721597469,0.009805480910608077,0.6005368494640713,-2.795481652957721,-0.7106847924925302
1730865965.0834715,-1.6542800664901733,1.1127800941467285,-9.890379905700684,0.04354735874280136,0.09891921357234691,0.00948413665170717,0.606834259555281,-2.8056006749750115,-0.7151375093668099
1730865965.1333466,-1.6624219417572021,1.1077226400375366,-9.87459659576416,0.0419464129573632,0.09759115538018377,0.00908479355711797,0.6131400285489432,-2.8156289951744817,-0.7195714916206256
1730865965.183495,-1.6624219417572021,1.1077226400375366,-9.87459659576416,0.040318054971892454,0.09606396366354067,0.008610718023681109,0.6194857687166562,-2.825619489655875,-0.7240099756212215
1730865965.2333581,-1.6803877353668213,1.1172305345535278,-9.872438430786133,0.03866842635901384,0.09434578414087526,0.008066110648181963,0.6258343569929218,-2.8355165025294964,-0.7284280661972107
1730865965.2835011,-1.676072597503662,1.1518168449401855,-9.866317749023438,0.03700373995234779,0.0924458713976532,0.007455996175250685,0.6322536336412198,-2.8454279795860375,-0.7328739323483741
1730865965.3333554,-1.688549518585205,1.173169493675232,-9.839729309082031,0.035330025303999715,0.09037426998372027,0.006785960981699887,0.6386336519192958,-2.8551873109085673,-0.7372726115906146
1730865965.3832452,-1.7406500577926636,1.1670211553573608,-9.839791297912598,0.0336528278301,0.08814143828722262,0.006061887946226431,0.6450602210379754,-2.8649294902942235,-0.7416845937273594
1730865965.4331973,-1.7592371702194214,1.1434805393218994,-9.807424545288086,0.03197686793261412,0.08575799860286318,0.005289882807715675,0.6515447722683192,-2.874673609468324,-0.7461186473764587
1730865965.4832108,-1.7919294834136963,1.1425443887710571,-9.786770820617676,0.030305688729818602,0.08323472086794245,0.004476392140197674,0.6579846984036034,-2.8842690831555746,-0.7505059181263789
1730865965.5332005,-1.8289555311203003,1.1339582204818726,-9.734051704406738,0.02864136317676269,0.08058262837201585,0.003628429162584048,0.6644659744585942,-2.8938479568328987,-0.7549063595248569
1730865965.5832748,-1.906752586364746,1.1017496585845947,-9.722082138061523,0.026984218666827764,0.07781309388094611,0.0027538629670551826,0.6710084838362237,-2.9034416588174894,-0.7593344913836876
1730865965.6332035,-1.9440362453460693,1.0649313926696777,-9.711519241333008,0.0253324701522588,0.07493797668542308,0.0018616615409524806,0.6775144276923496,-2.9129101965502544,-0.7637253940077117
1730865965.6832056,-1.954621434211731,1.0486096143722534,-9.747272491455078,0.023681856969289965,0.07196986027317744,0.0009619180441661963,0.6840593094868853,-2.9223672729315324,-0.7681313683834504
1730865965.733109,-1.9300211668014526,1.0519165992736816,-9.785317420959473,0.022025562717246226,0.06892226453969932,6.55599352785226e-05,0.6907373294362481,-2.9319502548356473,-0.7726167598080026
1730865965.7832572,-1.8917458057403564,1.0662336349487305,-9.863221168518066,0.02035457397878182,0.06580965461553834,-0.0008162497999182324,0.6972304852974526,-2.9412073289499037,-0.7769693862468154
1730865965.8331983,-1.8261340856552124,1.0515388250350952,-9.917787551879883,0.01865855799481837,0.06264715719497868,-0.0016728731810147024,0.7037695021461584,-2.9504731616412454,-0.7813454772122075
1730865965.8832433,-1.7325536012649536,1.0188775062561035,-9.973783493041992,0.01692741358921701,0.0594500257393245,-0.0024948464386248597,0.7103584533031811,-2.959756069462187,-0.7857488733518647
1730865965.9331484,-1.6438817977905273,1.0134690999984741,-9.997303009033203,0.015153205862976233,0.05623314931497467,-0.0032742991422752663,0.7169520779738956,-2.9689954091210367,-0.7901505075855587
1730865965.9832146,-1.6068297624588013,1.0392526388168335,-10.010113716125488,0.013331693320095322,0.053010863793135805,-0.004005248019386079,0.7235707873198641,-2.9782232508784756,-0.7945652176355928
1730865966.0331244,-1.5930547714233398,1.1113393306732178,-9.983500480651855,0.011463038011684247,0.0497968301315771,-0.0046837412347639365,0.7301700464172132,-2.9873812178821524,-0.7989645102708991
1730865966.0831685,-1.6152253150939941,1.2080261707305908,-9.939994812011719,0.009551823134391128,0.046603576070715136,-0.00530768869723056,0.7368114093058993,-2.9965583063372683,-0.8033906144207925
1730865966.1329873,-1.6628810167312622,1.2549554109573364,-9.904179573059082,0.007606544763402121,0.04344168346995089,-0.005876363482058785,0.7434110577440752,-3.0056424149618692,-0.8077888381395568
1730865966.183079,-1.7237470149993896,1.2498868703842163,-9.840123176574707,0.005638701342273954,0.04031901419418574,-0.006389723329404289,0.7500599201091183,-3.014762380397474,-0.8122209368703082
1730865966.232996,-1.7540323734283447,1.1959750652313232,-9.810408592224121,0.003661670764772572,0.03724045007345697,-0.006847702095307203,0.7566912906257047,-3.023830144982093,-0.8166435726434884
1730865966.282932,-1.7761001586914062,1.1373709440231323,-9.77637004852295,0.0016896492257437532,0.03420832171343509,-0.007249589385878013,0.7633103079834289,-3.0328565333436184,-0.8210612416908776
1730865966.3329697,-1.7739691734313965,1.080772876739502,-9.734260559082031,-0.0002631217460108664,0.031223311246729037,-0.007593580934181197,0.7699640958770402,-3.041909259655642,-0.8255064653944736
1730865966.3838212,-1.7863746881484985,1.0190056562423706,-9.72805404663086,-0.002182839806501766,0.02828545305255527,-0.0078766606891922,0.7767058855359833,-3.0510637476419533,-0.8300159580788418
1730865966.4338863,-1.7863746881484985,1.0190056562423706,-9.72805404663086,-0.004056516939109172,0.02539491540786501,-0.008095135933240525,0.78336266981953,-3.060088502516614,-0.8344749593892865
1730865966.4838243,-1.7485802173614502,0.980993390083313,-9.72205638885498,-0.005872273058482187,0.022552439936253253,-0.008245621173008413,0.7899818001919915,-3.069051451026455,-0.8389159066879837
1730865966.5338418,-1.7739217281341553,0.9647471904754639,-9.749009132385254,-0.007619392543023315,0.01975956573711447,-0.008325694595685195,0.7966199869786713,-3.078032689445009,-0.8433776513607412
1730865966.5839176,-1.776928424835205,1.0090956687927246,-9.792386054992676,-0.009288229714017583,0.01701875088506542,-0.008334089832882864,0.8032664322712396,-3.087020735137465,-0.8478537513653369
1730865966.6337254,-1.7719019651412964,1.0469619035720825,-9.85647201538086,-0.010870192572117875,0.014333243255910533,-0.008270915248951466,0.8098544500426774,-3.095928491240336,-0.852299881687224
1730865966.6840096,-1.742720127105713,1.0767850875854492,-9.918389320373535,-0.012357744443714362,0.011706618433151468,-0.008138098358845106,0.8165137223963378,-3.104934291672674,-0.8568042129918035
1730865966.733826,-1.7308605909347534,1.0838773250579834,-9.983128547668457,-0.013744260228744316,0.009142227632170085,-0.007939935762252147,0.8230822532482777,-3.113821863339363,-0.8612576605431108
1730865966.7839155,-1.7244657278060913,1.1198302507400513,-10.016728401184082,-0.015023786683361268,0.00664279708134626,-0.007683589139617097,0.8297032424984128,-3.122787675278413,-0.8657576895560313
1730865966.8337839,-1.7244657278060913,1.1198302507400513,-10.016728401184082,-0.016190860603228708,0.004210178983874933,-0.007379351953469183,0.8362605579540262,-3.1316770335857465,-0.8702257295139726
1730865966.8839517,-1.6949405670166016,1.091368556022644,-10.003122329711914,-0.017240419866180925,0.0018452368784180125,-0.007040539789129476,0.842879808176601,-3.1406627297497733,-0.8747476905876403
1730865966.9338105,-1.6541407108306885,1.079060673713684,-9.937772750854492,-0.018167799969024696,-0.0004519888668171237,-0.0066827790345304686,0.8493979973479814,-3.149525711366368,-0.8792123763927773
1730865966.9837117,-1.6971153020858765,1.0559735298156738,-9.882655143737793,-0.018968990647614162,-0.0026817614113234353,-0.006322402264639562,0.8559416764833772,-3.1584400255581935,-0.8837064712481332
1730865967.0336804,-1.7184339761734009,1.0200108289718628,-9.829143524169922,-0.019641207945825974,-0.004843997894993394,-0.0059743719019961705,0.8624725974824125,-3.1673556980822855,-0.8882039009339515
1730865967.0837424,-1.7796587944030762,0.9819168448448181,-9.78043270111084,-0.020183473224245872,-0.006937757579856045,-0.005650769960546391,0.8690548722133267,-3.176362399266664,-0.8927490439383987
1730865967.1336548,-1.7767276763916016,0.9837790727615356,-9.749464988708496,-0.020596988568337582,-0.008960915930306363,-0.005360141481248899,0.8755411691547923,-3.185260120735487,-0.897240125537257
1730865967.1838517,-1.7815088033676147,1.03798508644104,-9.75819206237793,-0.02088530015153279,-0.010910081809436308,-0.0051073035634808875,0.8820608988370372,-3.194227747344323,-0.9017666270763782
1730865967.2337184,-1.7815088033676147,1.03798508644104,-9.75819206237793,-0.021054209674278467,-0.012780881214349869,-0.004893474362771831,0.8885156500031302,-3.2031312633653712,-0.9062601617851471
1730865967.283684,-1.7306779623031616,1.2181533575057983,-9.794438362121582,-0.021111454186037153,-0.01456860457608444,-0.004716708221132917,0.8949969498413105,-3.2120980911938157,-0.9107843397711586
1730865967.3336196,-1.73723566532135,1.2622041702270508,-9.825244903564453,-0.02106622118646835,-0.01626922105837277,-0.0045725408229744914,0.9014519901139612,-3.2210564270184903,-0.915302276495086
1730865967.3837023,-1.7728885412216187,1.2536513805389404,-9.841352462768555,-0.020928663791978174,-0.01788052164218322,-0.00445473628413121,0.9079119163878158,-3.2300504857448087,-0.9198356627537949
1730865967.4336104,-1.7957485914230347,1.2329119443893433,-9.852080345153809,-0.0207096884867799,-0.01940273457533695,-0.004355981291078205,0.9143309898218576,-3.239017339476511,-0.9243522275934128
1730865967.4835632,-1.8130037784576416,1.187165379524231,-9.869086265563965,-0.020420884367218266,-0.020838244893894443,-0.004268472977117694,0.9207577581629303,-3.2480254579327217,-0.9288859396987735
1730865967.5335834,-1.8403993844985962,1.1168467998504639,-9.861696243286133,-0.020074096986359063,-0.022190549712854928,-0.004184527166456608,0.9271767111485998,-3.2570538759536785,-0.933425733120608
1730865967.5836523,-1.8365612030029297,1.1099493503570557,-9.855596542358398,-0.01968073040771591,-0.023462905933759402,-0.004097135706987397,0.9335755888391583,-3.266085824318547,-0.937962712281722
1730865967.6335382,-1.8015090227127075,1.1125519275665283,-9.858222961425781,-0.019251322535913877,-0.024657382352252632,-0.004000210596524675,0.9399228748775909,-3.2750768707967977,-0.9424741679882845
1730865967.683565,-1.7416749000549316,1.0947171449661255,-9.853496551513672,-0.01879534643184672,-0.025774607936788034,-0.003888548194115134,0.9462991129463305,-3.28414144788696,-0.9470170897538823
1730865967.7336876,-1.707353949546814,1.0896289348602295,-9.870576858520508,-0.018320854674255486,-0.026813868642504932,-0.00375775258197044,0.95271306124975,-3.293292963889606,-0.9515976633179446
1730865967.7836096,-1.6856294870376587,1.0882185697555542,-9.87708854675293,-0.01783401955287717,-0.027773237459455584,-0.003604225331475295,0.9590417046809645,-3.3023559017417186,-0.956127672762192
1730865967.833548,-1.6856732368469238,1.1131680011749268,-9.89499282836914,-0.01733884754546756,-0.028649742457486336,-0.003425220794970868,0.9653733841650588,-3.3114564336535515,-0.960669881476418
1730865967.8835711,-1.6620116233825684,1.1451038122177124,-9.884458541870117,-0.016837155363858523,-0.029439673271847534,-0.0032189148289932107,0.9717018421092769,-3.320585807529153,-0.9652195078921055
1730865967.9334772,-1.6606212854385376,1.1801331043243408,-9.870457649230957,-0.016328695589282446,-0.030139048203676567,-0.002984391091085067,0.9780140139908693,-3.3297251984971,-0.9697667993047054
1730865967.9834714,-1.653437852859497,1.1797866821289062,-9.851520538330078,-0.01581132516082001,-0.030744132533648754,-0.0027214805826048633,0.9843277025572633,-3.3389003715314676,-0.97432420653762
1730865968.0334425,-1.6758476495742798,1.1824043989181519,-9.821070671081543,-0.015281356152041537,-0.031251824149395244,-0.0024305213291807414,0.9906202583881139,-3.348078285401996,-0.9788749723825952
1730865968.0835173,-1.7237505912780762,1.1566532850265503,-9.81063461303711,-0.01473440097344646,-0.03165980099065896,-0.0021121899193248138,0.9969167119671702,-3.3572952578234547,-0.9834367680608322
1730865968.1334534,-1.7996176481246948,1.1426687240600586,-9.782665252685547,-0.014166622803505632,-0.03196644828046203,-0.001767413984924061,1.0032033538205363,-3.3665310329644242,-0.9879992253196601
1730865968.1835039,-1.8628112077713013,1.1092867851257324,-9.77823543548584,-0.013575873736051835,-0.03217063283303052,-0.0013972286642443673,1.0094737948789043,-3.3757757867502436,-0.9925572059393084
1730865968.2334023,-1.8774480819702148,1.0935637950897217,-9.79169750213623,-0.012962451742224584,-0.03227140529229968,-0.0010025915751571668,1.0157415315984244,-3.3850489423290706,-0.9971200039413994
1730865968.2834685,-1.8534674644470215,1.108945369720459,-9.822172164916992,-0.012329436116663532,-0.0322677466389539,-0.000584344857837515,1.0219878364534032,-3.3943221861051445,-1.0016734370396765
1730865968.3333826,-1.7973651885986328,1.1064001321792603,-9.855999946594238,-0.01168248702519205,-0.03215848776633877,-0.00014341367021742833,1.0282422376293823,-3.4036387411917857,-1.0062384727493405
1730865968.3833833,-1.749116063117981,1.0848197937011719,-9.900351524353027,-0.011029138527168227,-0.03194237744551286,0.000318827925991653,1.0344719379014562,-3.412949033226383,-1.0107905931825392
1730865968.4334073,-1.6887575387954712,1.0780417919158936,-9.944061279296875,-0.010377833389005914,-0.031618119160736605,0.0008001198925183677,1.0407174789307758,-3.422312907440193,-1.01535883404884
1730865968.4834383,-1.660573959350586,1.0784896612167358,-9.943114280700684,-0.009736965673351104,-0.031184325820403754,0.0012969154883199102,1.0469284607364373,-3.431653920414782,-1.0199057266984162
1730865968.5333052,-1.6808581352233887,1.0688133239746094,-9.9386625289917,-0.009114157131690458,-0.030639496962413054,0.0018041849563963138,1.053127986911664,-3.4410056877737123,-1.0244475533048527
1730865968.5834394,-1.6925055980682373,1.0484857559204102,-9.91047477722168,-0.008515936299237248,-0.029982152676895756,0.002315617560216238,1.0593717279440675,-3.4504515286789763,-1.029024532206059
1730865968.6333168,-1.7340891361236572,1.0040960311889648,-9.874168395996094,-0.00794779228808592,-0.029211235241536137,0.0028243257358081747,1.0655667616993123,-3.4598499141955874,-1.0335679681963688
1730865968.6832635,-1.7513102293014526,0.9668171405792236,-9.831408500671387,-0.007414441715376179,-0.028326520304627918,0.003323829970639387,1.0717648219601512,-3.469278063903616,-1.038115217449297
1730865968.7332773,-1.7555934190750122,0.9132131338119507,-9.825553894042969,-0.006920165970591154,-0.027328550599098632,0.003808855089219602,1.0779958197644701,-3.478780668599905,-1.042687694700062
1730865968.783267,-1.7511773109436035,0.8991687297821045,-9.808719635009766,-0.006469058706396861,-0.02621812988575686,0.004275716158435344,1.084178682124443,-3.488232945231608,-1.0472253928939552
1730865968.833155,-1.7669599056243896,0.9138646125793457,-9.811017036437988,-0.0060651065609276175,-0.024995855119347977,0.004722402543422749,1.0903733227579795,-3.4977251921715347,-1.051771797751941
1730865968.8833268,-1.7647291421890259,0.9623916149139404,-9.817171096801758,-0.0057121970738805514,-0.023662017901912573,0.005148490512574181,1.0965644465210989,-3.507232896003035,-1.0563152379637077
1730865968.9331322,-1.774051547050476,0.9942019581794739,-9.836055755615234,-0.005414135246264229,-0.022216915010032545,0.005554928233025215,1.1027374150761662,-3.516732327319,-1.0608445645537332
1730865968.9830694,-1.7563841342926025,1.0308074951171875,-9.850176811218262,-0.005174640525517355,-0.02066137870340195,0.005943715254735769,1.1088940348817073,-3.526224947006373,-1.0653607394180957
1730865969.0331802,-1.7418923377990723,1.052126407623291,-9.863423347473145,-0.0049972638184495564,-0.018997282117192857,0.006317535092106627,1.1151129459527716,-3.5358310226026464,-1.069921096713021
1730865969.0830772,-1.7634446620941162,1.1164103746414185,-9.859697341918945,-0.004885239787648419,-0.01722793578785973,0.0066794286549125385,1.121249123018088,-3.5453252834582374,-1.0744190014623403
1730865969.1331055,-1.7613576650619507,1.1499154567718506,-9.857751846313477,-0.004841339465619535,-0.01535836170130905,0.007032533621744531,1.1274476145555972,-3.554930878896286,-1.0789605211890338
1730865969.1830616,-1.7613576650619507,1.1499154567718506,-9.857751846313477,-0.004867661021777541,-0.01339527045415546,0.007379809066870743,1.1335980788738382,-3.564475692573563,-1.0834645792886057
1730865969.2330203,-1.7597706317901611,1.146106243133545,-9.849930763244629,-0.004965345452425251,-0.01134668746478841,0.007723759794458848,1.1397950608903862,-3.574105258539096,-1.0880002202484997
1730865969.2830868,-1.7832831144332886,1.1196283102035522,-9.831854820251465,-0.0051344445001780484,-0.0092215119593527,0.008066336945586243,1.1459451690787583,-3.5836733038072093,-1.092498933531197
1730865969.3329446,-1.7911642789840698,1.0579688549041748,-9.824539184570312,-0.005374060190066317,-0.007029119769406508,0.00840906212775277,1.1520921440556149,-3.593246610932231,-1.0969926222069493
1730865969.3830001,-1.793712854385376,1.0126854181289673,-9.833224296569824,-0.0056826066406185614,-0.0047788294054994015,0.008753213033530969,1.1582607693947022,-3.6028627165127753,-1.1014992976142486
1730865969.432937,-1.7517714500427246,1.0202561616897583,-9.849518775939941,-0.006057985880107251,-0.0024792768729115706,0.009099904673870481,1.1644140658181394,-3.612462916860286,-1.1059918744732755
1730865969.4829564,-1.7155946493148804,1.0792349576950073,-9.881749153137207,-0.006497526423365708,-0.0001380667374458474,0.00945000221334252,1.1705488189730155,-3.6220410974526374,-1.1104679928354273
1730865969.532836,-1.6973638534545898,1.1483683586120605,-9.885079383850098,-0.006997702535576975,0.002238009229129207,0.009803909982070511,1.1766761490013036,-3.6316135800903266,-1.1149357733612373
1730865969.5827827,-1.6990910768508911,1.1914793252944946,-9.90003490447998,-0.00755385638086329,0.004642285195725295,0.010161363528285363,1.1828163072452307,-3.641211046243439,-1.1194099906935986
1730865969.6338701,-1.7048535346984863,1.1952179670333862,-9.894710540771484,-0.008160130740622691,0.007067482302805789,0.010521329509928751,1.1891173315375323,-3.65106412742519,-1.1239984276905035
1730865969.6838133,-1.7279154062271118,1.140415906906128,-9.889106750488281,-0.008809666530620423,0.009505336153489936,0.010882058826641162,1.1952327051942777,-3.6606300502723,-1.1284488197326692
1730865969.7338028,-1.727390170097351,1.0967813730239868,-9.850716590881348,-0.009495026668262437,0.011946768719784964,0.011241349889738074,1.2013668159158617,-3.670227526671096,-1.13291009546505
1730865969.7837937,-1.7448590993881226,1.0502889156341553,-9.854978561401367,-0.010208683769197105,0.014382475162779136,0.011596978616265397,1.2074624988390843,-3.6797662781415394,-1.137340778583022
1730865969.8337355,-1.7205950021743774,1.0371060371398926,-9.837763786315918,-0.010943344786044275,0.01680361302192834,0.011947070563222098,1.213572018177747,-3.6893272767942062,-1.1417789736919841
1730865969.8838043,-1.7044275999069214,1.004769206047058,-9.838481903076172,-0.011692022515438135,0.019202337759896805,0.012290278342454733,1.219691104704439,-3.698903064243564,-1.1462216766310798
1730865969.9337204,-1.6762114763259888,1.0011883974075317,-9.852025985717773,-0.01244790316331033,0.02157212219747393,0.012625814459731394,1.2257817428196196,-3.708433397478226,-1.1506414180245372
1730865969.9836867,-1.6579885482788086,0.9812003374099731,-9.872231483459473,-0.013204111239893236,0.02390791331867471,0.012953363065257533,1.2318658929573467,-3.7179519135652224,-1.1550542802063097
1730865970.0337353,-1.6788157224655151,1.0039273500442505,-9.869159698486328,-0.013953512464140436,0.026206155355653633,0.013272882322334822,1.2379479593590794,-3.727464787919204,-1.159463592332388
1730865970.0836577,-1.7302862405776978,0.9892690777778625,-9.866273880004883,-0.014688739637601068,0.028464676212354403,0.01358441889216775,1.244003548781724,-3.736933179487326,-1.1638518140483154
1730865970.1336935,-1.7561147212982178,1.0005706548690796,-9.84821891784668,-0.01540254462357107,0.030682490031385377,0.013888052509746576,1.2500909344806639,-3.746447489595926,-1.1682612990803303
1730865970.1836424,-1.7367112636566162,1.0267400741577148,-9.844929695129395,-0.016088281834434986,0.03285957253907401,0.014183966538999265,1.2561246019602081,-3.7558733803115794,-1.1726302335506635
1730865970.2335315,-1.7292639017105103,1.0034098625183105,-9.847564697265625,-0.01674016941911873,0.0349964833230362,0.014472512896012946,1.2621807259867053,-3.7653291672432885,-1.1770139001504674
1730865970.283596,-1.7082710266113281,1.0320013761520386,-9.856908798217773,-0.017353222974154627,0.03709366057525208,0.014754100450512184,1.2682054515341887,-3.7747300444616916,-1.181373419514638
1730865970.3336132,-1.7297741174697876,1.0265306234359741,-9.872505187988281,-0.017923059015474085,0.03915061232477466,0.01502892374417011,1.2742469061440116,-3.784150373253476,-1.1857437086109752
1730865970.3835676,-1.73284912109375,1.026072382926941,-9.879054069519043,-0.018445792001102364,0.04116549104906083,0.015296724959320766,1.2802210403391479,-3.793458411705494,-1.1900640533676883
1730865970.4335475,-1.7507237195968628,1.0402652025222778,-9.899032592773438,-0.018918085706627626,0.043135130450380865,0.015556666960033097,1.2862199436463002,-3.8027969153384116,-1.1944011167471706
1730865970.4835615,-1.7441734075546265,1.067531943321228,-9.886956214904785,-0.019337266495042797,0.04505520260144237,0.015807271326788934,1.292212591521514,-3.8121167206345272,-1.1987324980002931
1730865970.5335526,-1.7646288871765137,1.0706843137741089,-9.89332103729248,-0.019701401935060193,0.04692027690972895,0.01604642768753489,1.298198851317071,-3.821416790614687,-1.203058121838407
1730865970.583584,-1.8092890977859497,1.0768513679504395,-9.85693645477295,-0.020009384202599453,0.04872384380662799,0.016271515500582374,1.3041552277692965,-3.8306598336577564,-1.207361020788681
1730865970.6335008,-1.8451093435287476,1.0780317783355713,-9.835271835327148,-0.0202611424495983,0.050458416114904925,0.016479659450336217,1.3101137495388953,-3.839894722113226,-1.2116643241458571
1730865970.6835158,-1.8778879642486572,1.068177342414856,-9.794242858886719,-0.020457982373396858,0.05211571878838772,0.01666810865534957,1.3160525722588727,-3.849086734995594,-1.2159522307562178
1730865970.7335863,-1.8792659044265747,1.0619271993637085,-9.761591911315918,-0.020602882141697643,0.05368693954805907,0.01683467860820584,1.3219777071337935,-3.8582443567250757,-1.2202290492460046
1730865970.7835293,-1.8781741857528687,1.0342954397201538,-9.767451286315918,-0.020700446934291617,0.05516306316540939,0.01697807411003328,1.3278668697679052,-3.867332396192803,-1.2244786599663295
1730865970.8334446,-1.8452465534210205,1.0448501110076904,-9.792409896850586,-0.02075622160934242,0.0565353147024105,0.017097793294139768,1.333764222706847,-3.876418195429076,-1.2287328835459468
1730865970.8834481,-1.7909832000732422,1.0523160696029663,-9.833215713500977,-0.02077556335485046,0.05779557258508689,0.017193590033293422,1.3396360101893499,-3.8854489339880827,-1.2329673163623938
1730865970.9334626,-1.7380390167236328,1.0403714179992676,-9.891928672790527,-0.020762668125983538,0.058936558326161306,0.017264837171216303,1.345521280699353,-3.894483862256743,-1.2372100624581117
1730865970.9834626,-1.6841381788253784,1.027842402458191,-9.939653396606445,-0.020719930235928212,0.05995187890363769,0.017309964314844176,1.3514199667154294,-3.903521944105039,-1.2414610046091723
1730865971.0333781,-1.598343849182129,1.0370818376541138,-9.97574520111084,-0.02064742335199803,0.06083609373678724,0.01732594477879059,1.357243839260001,-3.9124275058887372,-1.245656528324845
1730865971.083417,-1.5712602138519287,1.0332560539245605,-9.993497848510742,-0.020542407173864036,0.061584774211919734,0.017307919008787875,1.3630571740487838,-3.9212985167724668,-1.2498429218146638
1730865971.133399,-1.550557255744934,1.039259433746338,-9.944525718688965,-0.020398987577290837,0.06219448675973731,0.01724911257173982,1.368892647689658,-3.9301841181265336,-1.2540436698660924
1730865971.1834455,-1.5575945377349854,1.0153611898422241,-9.915091514587402,-0.020208119359371453,0.0626627546881291,0.017141167132612916,1.374702081412206,-3.9390103466218793,-1.2582240584221995
1730865971.233443,-1.6128383874893188,0.9890211224555969,-9.859123229980469,-0.01995801251221133,0.06298810173116433,0.01697483579780043,1.3804992486848635,-3.9477977367919683,-1.2623939906501351
1730865971.283348,-1.6128383874893188,0.9890211224555969,-9.859123229980469,-0.019634866843550744,0.06317020250082406,0.01674078619727054,1.3862720502404922,-3.9565275812251044,-1.266544764713365
1730865971.3333108,-1.7688379287719727,1.0146944522857666,-9.755945205688477,-0.01922399519595428,0.0632099425461598,0.0164303431919363,1.392036659316769,-3.965223965755664,-1.2706880181798974
1730865971.3833656,-1.8208271265029907,1.02140212059021,-9.763900756835938,-0.018711643021865353,0.06310912469605331,0.016036252717525196,1.3978026001407002,-3.973900747666713,-1.274830602037587
1730865971.433279,-1.8217395544052124,1.0340009927749634,-9.765320777893066,-0.018087115484914613,0.06286994179227565,0.015553362442656447,1.4035394969919086,-3.9825118145844143,-1.2789507132200977
1730865971.48329,-1.782911777496338,1.0537012815475464,-9.80487060546875,-0.017343965314105585,0.062494583923434335,0.014978829854532194,1.4092905384839254,-3.9911214965285002,-1.2830793891807384
1730865971.5332751,-1.7525897026062012,1.0612386465072632,-9.85537052154541,-0.016479832211112478,0.06198505447154341,0.014311767056523938,1.4150030649799301,-3.9996505018811566,-1.2871788539722657
1730865971.5832372,-1.7406247854232788,1.1116029024124146,-9.87990665435791,-0.015495656479541799,0.06134302981932529,0.013552590088230194,1.4207078490152336,-4.008144429769648,-1.2912712324616775
1730865971.633259,-1.770524501800537,1.115897536277771,-9.90289306640625,-0.014394933604145373,0.06056966742778279,0.012702356557729314,1.4264313309437513,-4.01664192970498,-1.2953755153716433
1730865971.683197,-1.7900440692901611,1.1545110940933228,-9.899785995483398,-0.013183285312279698,0.059665391680895394,0.011762291863273839,1.4321016573220713,-4.025035884651891,-1.2994402243728311
1730865971.7331789,-1.8505797386169434,1.163799524307251,-9.896068572998047,-0.011868366966106101,0.05862973106770724,0.010733571861954092,1.4378038049638138,-4.033451555255541,-1.3035263254751288
1730865971.783353,-1.8653908967971802,1.1624170541763306,-9.862640380859375,-0.010459978646288953,0.05746125011807402,0.009617338095359588,1.4435158367580052,-4.0418556147917615,-1.307618138520887
1730865971.8332534,-1.84821355342865,1.119704008102417,-9.858514785766602,-0.008970157369536741,0.05615765771605361,0.008414890630131119,1.4491775392517063,-4.050159102393365,-1.3116726149021425
1730865971.8832345,-1.8270213603973389,1.114829421043396,-9.805334091186523,-0.007412881887471114,0.054716281613368646,0.007127979398945671,1.4548451431644516,-4.058444181321791,-1.3157301300038595
1730865971.9334147,-1.793975830078125,1.0453251600265503,-9.822367668151855,-0.005803126015630119,0.05313505578390336,0.005759122461256001,1.4605538082971992,-4.066761336937623,-1.3198159603092225
1730865971.9832606,-1.7209333181381226,1.0137131214141846,-9.828447341918945,-0.0041555520969530375,0.051413751117320924,0.004311818940300488,1.4661811597795111,-4.074932073219208,-1.3238426781708568
1730865972.0332992,-1.6012029647827148,0.9719731211662292,-9.870986938476562,-0.002483332288410542,0.04955487743379261,0.0027904858040168792,1.4718540603860415,-4.083140429422695,-1.327901255392622
1730865972.0832047,-1.5673483610153198,0.9927900433540344,-9.874567985534668,-0.0007971470724389489,0.04756402342247379,0.0012001325892909045,1.4774986115957016,-4.091279012576978,-1.3319390386125523
1730865972.133241,-1.5673483610153198,0.9927900433540344,-9.874567985534668,0.0008955939211598975,0.04544975442627395,-0.0004540053483258833,1.4831821087206534,-4.099444522300599,-1.3360044257612178
1730865972.1831715,-1.576568603515625,1.0584110021591187,-9.886327743530273,0.0025909884601568096,0.04322316733928256,-0.002166691786032255,1.4888233419117105,-4.107520154737665,-1.3400396205090432
1730865972.2332606,-1.631142258644104,1.0728533267974854,-9.91388988494873,0.0042882790369722645,0.04089718398057378,-0.0039328126416868815,1.4945155021720244,-4.115639178322915,-1.3441116145294787
1730865972.283102,-1.7173388004302979,1.079965353012085,-9.86382007598877,0.00598906743506582,0.03848577860299136,-0.005747483649642784,1.5001491013010242,-4.123645491105815,-1.3481424371909863
1730865972.3331964,-1.82231605052948,1.1077828407287598,-9.826631546020508,0.007696180058647969,0.036003369205416795,-0.00760599789693389,1.5058684090144479,-4.131743988514577,-1.3522357086614432
1730865972.383157,-1.8533849716186523,1.1184059381484985,-9.800682067871094,0.00941234565429729,0.03346439377924726,-0.00950348651250709,1.5115314226475538,-4.139733496258089,-1.356290209923025
1730865972.4330823,-1.8954871892929077,1.0949914455413818,-9.761144638061523,0.011139134325951545,0.030882978139073917,-0.011434507510537359,1.5172090059666117,-4.147714486844106,-1.3603570811925143
1730865972.4830406,-1.8989217281341553,1.0262970924377441,-9.779446601867676,0.012876552378925182,0.02827278462196344,-0.013392865923259403,1.522871584574472,-4.155645596444577,-1.3644155665914124
1730865972.5331557,-1.8536771535873413,1.0082930326461792,-9.78778076171875,0.01462321234595763,0.02564718999442238,-0.015371730567448722,1.5286277447658607,-4.163678548706082,-1.368543988835764
1730865972.5831227,-1.783974289894104,1.004658818244934,-9.84261703491211,0.0163768039516946,0.0230196547370364,-0.017363944157944674,1.5343015556152695,-4.171567991536064,-1.372616612593889
1730865972.6330674,-1.783974289894104,1.004658818244934,-9.84261703491211,0.01813473840576349,0.020403946174995014,-0.019362435068777543,1.5400439001211268,-4.179524101489147,-1.376742174465708
1730865972.6830595,-1.7219197750091553,1.080628514289856,-9.910914421081543,0.019894785224617188,0.017814033437240275,-0.021360661146232383,1.5457446760039057,-4.187394399216922,-1.380842030140869
1730865972.7331333,-1.704637885093689,1.1132997274398804,-9.919187545776367,0.021655548203762007,0.015263636447398393,-0.023353037783340143,1.5515093039324754,-4.195324532453436,-1.384992451382812
1730865972.7830756,-1.6880874633789062,1.1303209066390991,-9.951221466064453,0.023416804419230303,0.012765571825016999,-0.025335311402354944,1.5572486307468878,-4.203191834949937,-1.3891297097597355
1730865972.8330402,-1.6892642974853516,1.1353075504302979,-9.929433822631836,0.02517967824848396,0.010331224757984963,-0.027304772491476538,1.563032629648321,-4.211092328528656,-1.3933046756378131
1730865972.8830557,-1.6928538084030151,1.1137971878051758,-9.93874454498291,0.026946597034250404,0.007970349448235482,-0.029260227651882974,1.5688139118880418,-4.218961198910904,-1.3974835868205067
1730865972.9329422,-1.7044410705566406,1.0738990306854248,-9.894899368286133,0.028721081900689015,0.005691184596830951,-0.031201763703274266,1.5746080066323151,-4.226819696481268,-1.40167804851038
1730865972.9829872,-1.7288248538970947,1.0470776557922363,-9.854463577270508,0.03050728745663018,0.003500775247919474,-0.033130255874953676,1.5804428777414345,-4.234705508299548,-1.4059087376807682
1730865973.0330038,-1.782965898513794,1.0143132209777832,-9.822835922241211,0.03230901125836598,0.0014052893499995013,-0.03504648606846081,1.5862931061805676,-4.2425839751869185,-1.4101576433346734
1730865973.082945,-1.8363450765609741,1.0109021663665771,-9.767317771911621,0.034128349531945615,-0.0005897796631718875,-0.03695009328748844,1.5921614564355142,-4.2504586243431834,-1.414427132660819
1730865973.132889,-1.8869452476501465,0.9894759058952332,-9.760782241821289,0.03596466677199297,-0.0024794390812779795,-0.03883883509532484,1.5980295640660245,-4.258304673069622,-1.4187041498224928
1730865973.1829495,-1.8473352193832397,1.0347927808761597,-9.739604949951172,0.03781418059402494,-0.004259062502654719,-0.04070830561924938,1.6039465616503565,-4.266187393996611,-1.4230248481661478
1730865973.232936,-1.816389560699463,1.0465000867843628,-9.774761199951172,0.03967010680780864,-0.005924445271637831,-0.042551993310071944,1.6098852552122496,-4.274069923183845,-1.4273697324105084
1730865973.2828844,-1.783855676651001,1.0769073963165283,-9.79489803314209,0.04152329008108266,-0.007472067943613185,-0.04436162427881969,1.615840498917722,-4.281944979968931,-1.4317353070503385
1730865973.3328242,-1.7646828889846802,1.053520679473877,-9.82564926147461,0.04336304694305477,-0.008899376654066576,-0.04612773097091104,1.621830676059185,-4.289836280263222,-1.4361353188801325
1730865973.3828576,-1.7351040840148926,1.0145779848098755,-9.854711532592773,0.045177925891338774,-0.010204845208979657,-0.04784030031450384,1.6278472214126398,-4.29773183676025,-1.4405637402510312
1730865973.432912,-1.683071255683899,0.9749651551246643,-9.900102615356445,0.04695635220886153,-0.011387708445783042,-0.04948939939808525,1.6339143116700787,-4.3056625226705965,-1.4450386371769064
1730865973.4828544,-1.6453770399093628,0.9578630328178406,-9.910890579223633,0.04868726121907764,-0.012447486375728747,-0.0510657552689263,1.6399801802558611,-4.313560011911078,-1.4495220053815765
1730865973.532847,-1.649688720703125,0.9565423130989075,-9.945751190185547,0.050360622652494795,-0.013383647554727212,-0.05256115211282802,1.6460844117890678,-4.321475265304635,-1.454043221244541
1730865973.5828483,-1.6442580223083496,0.9954084157943726,-9.940225601196289,0.051967536957075636,-0.01419576797316527,-0.05396843620567442,1.6522427887330216,-4.329427728195368,-1.4586141915327278
1730865973.632834,-1.6689367294311523,1.0497392416000366,-9.937795639038086,0.05349991739804236,-0.014884152999756997,-0.05528122634594876,1.6583972110059377,-4.337341697881669,-1.4631918792226986
1730865973.682793,-1.6859419345855713,1.0834542512893677,-9.915569305419922,0.05495014578742435,-0.01545052584070834,-0.05649365893501694,1.6645755954389374,-4.3452526489486125,-1.4677970351291234
1730865973.7328548,-1.71327543258667,1.1262437105178833,-9.893120765686035,0.05631084685227223,-0.015898527286963927,-0.05760023813319058,1.6708285483984269,-4.353224322920394,-1.4724675197616177
1730865973.782775,-1.7269731760025024,1.1472166776657104,-9.872698783874512,0.057574687559286,-0.01623402830510384,-0.05859566013566106,1.677109306796469,-4.3611960356057375,-1.4771685236368262
1730865973.8327966,-1.735066294670105,1.1401067972183228,-9.833118438720703,0.05873421087598724,-0.016465251505746535,-0.05947458692881077,1.6834099178922382,-4.369157115402556,-1.4818940569351298
1730865973.8827624,-1.717958927154541,1.1496965885162354,-9.815305709838867,0.0597817881310245,-0.01660265294247789,-0.06023140255666722,1.689753674761542,-4.377136326186723,-1.4866615600139699
1730865973.9327734,-1.6673269271850586,1.18075430393219,-9.812365531921387,0.06070977736178433,-0.016658647623486376,-0.0608600100997399,1.6961533577305228,-4.3851488159090755,-1.4914806616768244
1730865973.9827108,-1.718985915184021,1.200554609298706,-9.816550254821777,0.06151086084583801,-0.016647383290238647,-0.061353780801966365,1.7025528660131397,-4.393123859381736,-1.496309016764295
1730865974.032757,-1.777178168296814,1.1863377094268799,-9.796299934387207,0.06217823650931565,-0.01658459964255241,-0.061705668006419606,1.7090351845181118,-4.4011642246305405,-1.5012091663855194
1730865974.0837018,-1.8267006874084473,1.1075407266616821,-9.833602905273438,0.06270551501920336,-0.01648719664885049,-0.06190849113156441,1.7156576117144544,-4.409339188217551,-1.5062246226183609
1730865974.1328225,-1.8129234313964844,1.0744457244873047,-9.833734512329102,0.06308682562753407,-0.016372042197415337,-0.061955567575686064,1.7220905377152813,-4.417242578216872,-1.5111053568357777
1730865974.1827915,-1.7848941087722778,1.034195899963379,-9.854951858520508,0.06331739495442426,-0.01625435709247994,-0.06184156474750298,1.7286729404437662,-4.425291588514438,-1.5161081456453325
1730865974.2327878,-1.7069191932678223,1.0519814491271973,-9.866008758544922,0.06339417429840834,-0.016146637258955293,-0.061563061734297965,1.7352670636906675,-4.433316865571562,-1.521128260810961
1730865974.2827125,-1.7330290079116821,1.0380792617797852,-9.891645431518555,0.0633162759802493,-0.01605841957085117,-0.06111871315814308,1.741937960396736,-4.441397439483988,-1.526215018804072
1730865974.333654,-1.723747968673706,1.0607243776321411,-9.90710735321045,0.06308519615558036,-0.015996496037522474,-0.060509296306247184,1.7487730453824362,-4.449637889264056,-1.5314351081948356
1730865974.383695,-1.6333900690078735,1.1029419898986816,-9.92292594909668,0.06270480752481039,-0.015965304771773402,-0.059737752069942,1.755520129304421,-4.457734404795896,-1.5365956344460134
1730865974.4336932,-1.7185343503952026,1.0912126302719116,-9.885492324829102,0.0621813194897337,-0.01596744443226584,-0.058809135902569996,1.7622875752599176,-4.465818577464712,-1.5417789160367823
1730865974.4835937,-1.7632367610931396,1.0811116695404053,-9.884361267089844,0.06152309077273783,-0.016004147051791137,-0.05773036954501383,1.76908164105092,-4.4738985801211655,-1.5469893552426348
1730865974.533778,-1.7660847902297974,1.066494345664978,-9.817702293395996,0.060740001415489166,-0.016075508774543265,-0.05650978248388454,1.7759910456375505,-4.482079986886655,-1.552294710200308
1730865974.583637,-1.76335608959198,1.0730304718017578,-9.786660194396973,0.05984271301174481,-0.016180534133043163,-0.055156504090032234,1.7828728172008301,-4.490194088379174,-1.5575848175519533
1730865974.6336203,-1.755035638809204,1.0663394927978516,-9.755593299865723,0.05884220088338367,-0.01631722115371519,-0.05367986213237997,1.7897886105535479,-4.4983148669910005,-1.562906555848098
1730865974.683558,-1.7797462940216064,1.05051851272583,-9.727736473083496,0.05774936245190806,-0.016482801081625885,-0.05208906849662894,1.7967163783116291,-4.506417482414943,-1.5682424771036285
1730865974.7336075,-1.7905184030532837,1.0506978034973145,-9.733460426330566,0.05657453365984681,-0.016674008564199257,-0.05039320105889995,1.8037447592000533,-4.514606268906075,-1.5736604122426907
1730865974.7834837,-1.7196898460388184,1.0897799730300903,-9.776664733886719,0.05532717981985416,-0.01688725914844793,-0.04860124954506856,1.8107680558465635,-4.522758913484368,-1.5790784029938099
1730865974.8335426,-1.7713710069656372,1.1019127368927002,-9.835098266601562,0.05401597718629858,-0.017118851646779717,-0.04672228231165837,1.8178671340546073,-4.530970352494805,-1.584558298402626
1730865974.8835092,-1.8028919696807861,1.1387075185775757,-9.852670669555664,0.052648990133125025,-0.01736529047543796,-0.04476585643048696,1.8249802127556507,-4.539170107152004,-1.5900518714402687
1730865974.9336016,-1.8285831212997437,1.182466745376587,-9.922863006591797,0.051233548065757306,-0.017623662307924462,-0.04274250267713809,1.8321156550145417,-4.547369151950049,-1.5955649908876162
1730865974.9834633,-1.8077365159988403,1.2220063209533691,-9.935257911682129,0.04977595078389907,-0.017892042438380017,-0.04066412538915055,1.8392658423038641,-4.555560072328879,-1.6010911721193042
1730865975.0335941,-1.8268399238586426,1.19771409034729,-9.958266258239746,0.048281353057625424,-0.0181698580355825,-0.038544271265677776,1.8464868302067898,-4.563808194453344,-1.60667314514324
1730865975.0834959,-1.7553056478500366,1.1827597618103027,-9.942646980285645,0.046753905906659246,-0.01845798360332737,-0.03639817448360527,1.85367512350596,-4.5719966521278845,-1.612230304510594
1730865975.1334362,-1.7702215909957886,1.131227731704712,-9.93575382232666,0.04519709191036937,-0.01875845144104337,-0.034242531786854886,1.8609202399516394,-4.580228855683181,-1.617831254053031
1730865975.1834197,-1.7350672483444214,1.0756663084030151,-9.8892240524292,0.04361411944234189,-0.019073864225234397,-0.032094937948487785,1.8682093969073823,-4.588491393887924,-1.623465524849411
1730865975.2334309,-1.6980245113372803,1.014807939529419,-9.849322319030762,0.04200821066085475,-0.019406622538549533,-0.029972806513825737,1.875528001911147,-4.596768982187806,-1.6291212700720668
1730865975.2833824,-1.74787175655365,0.9247363805770874,-9.83838939666748,0.040382777666754036,-0.019758063352289613,-0.02789203836114398,1.8828464081065293,-4.605029525242995,-1.634775054456069
1730865975.3333728,-1.7218077182769775,0.9190731048583984,-9.835184097290039,0.03874147223491265,-0.020127652544442338,-0.02586615268995869,1.8902309951165697,-4.613349279824677,-1.640477656145793
1730865975.3833628,-1.710154414176941,0.9689270853996277,-9.809120178222656,0.03708812025896703,-0.020512520695295466,-0.023906081644453868,1.8976111974684655,-4.6216500946155925,-1.6461741265704426
1730865975.4333987,-1.6837084293365479,0.9878154993057251,-9.841340065002441,0.03542674004427351,-0.020907624343812124,-0.02202026211165488,1.90501050609647,-4.629959886970782,-1.6518822133586368
1730865975.483403,-1.650559425354004,1.0081390142440796,-9.836055755615234,0.033761729518609646,-0.021306378395434856,-0.020214844246597096,1.912445165685056,-4.6382982909193355,-1.6576140899586789
1730865975.5333564,-1.6746716499328613,1.0141290426254272,-9.857386589050293,0.03209808677374831,-0.021701315960511808,-0.018494019537808173,1.9199006165758692,-4.6466503611883345,-1.6633582214499212
1730865975.5833364,-1.6851810216903687,1.004333734512329,-9.852632522583008,0.030441469770545668,-0.022084544005914423,-0.016860378257339596,1.9273728621289987,-4.655013031444477,-1.6691112815855338
1730865975.6333683,-1.5812643766403198,1.044628381729126,-9.859695434570312,0.028798115983556544,-0.022448028282043463,-0.015315207369011662,1.9348632192411064,-4.663389168515933,-1.674874087369489
1730865975.683324,-1.7228114604949951,1.0327458381652832,-9.875347137451172,0.02717482761060355,-0.022783839601209232,-0.013858728631765292,1.9423373084318947,-4.671741723150433,-1.6806200655299746
1730865975.7333395,-1.8088876008987427,1.0366780757904053,-9.752493858337402,0.025578796198420184,-0.023084428705425188,-0.012490335306229765,1.9498918036766943,-4.680180031896547,-1.6864234015279107
1730865975.7832942,-1.8492463827133179,1.0879586935043335,-9.823813438415527,0.02401698412088424,-0.02334294883257389,-0.011208912720156432,1.9574325512068786,-4.688600173511702,-1.6922116662038353
1730865975.8332365,-1.8476037979125977,1.0733569860458374,-9.768607139587402,0.022495452318876216,-0.023553649280398072,-0.010013240530000706,1.964968051994387,-4.697012886314055,-1.6979913943685654
1730865975.8832293,-1.7965223789215088,1.0459142923355103,-9.815152168273926,0.02101908466213612,-0.023712146943688398,-0.00890228252580412,1.9725282008930847,-4.705452707319898,-1.7037855208860704
1730865975.933179,-1.7969716787338257,1.0425485372543335,-9.871280670166016,0.019591737810458608,-0.023815343045701435,-0.007875326759294485,1.9801014986561376,-4.7139078906978185,-1.7095852496355846
1730865975.9832678,-1.7303887605667114,1.079399585723877,-9.879664421081543,0.01821664513795103,-0.023861163674951093,-0.006932236685780413,1.9877116019882672,-4.722405879659318,-1.7154087299520466
1730865976.0331671,-1.6776671409606934,1.154143214225769,-9.950304985046387,0.016896930486483587,-0.0238485322517693,-0.006073844180366516,1.995300247636563,-4.730882558184905,-1.7212114646783832
1730865976.0831647,-1.6643404960632324,1.210000991821289,-9.945380210876465,0.01563617819903593,-0.02377774654684006,-0.005302293911540531,2.002914971139626,-4.739391891390587,-1.727029923827515
1730865976.1330926,-1.6949403285980225,1.204162359237671,-9.977410316467285,0.014438847134006094,-0.023651029727609185,-0.004621251399938576,2.0105229365680524,-4.747897979161145,-1.7328391499222906
1730865976.1830785,-1.715383529663086,1.1504161357879639,-9.959513664245605,0.013310257148645928,-0.023472779827114074,-0.004035919114834352,2.018158665949881,-4.756440139496684,-1.7386656600802526
1730865976.2331274,-1.7309974431991577,1.0735752582550049,-9.935346603393555,0.012256213091776927,-0.02324919386411343,-0.0035528255869767536,2.025810343297109,-4.765005819427131,-1.7445006042455349
1730865976.2831085,-1.751832365989685,1.0295008420944214,-9.867960929870605,0.011282498288848477,-0.022987380018220323,-0.0031792557483191646,2.0334486395029274,-4.7735627289712905,-1.7503218413854595
1730865976.333172,-1.7894331216812134,1.0231446027755737,-9.804779052734375,0.010394275919974192,-0.022694408493278542,-0.0029221097235654324,2.041115636166724,-4.782158492209531,-1.7561616888085316
1730865976.3830342,-1.7807178497314453,0.9962002635002136,-9.770801544189453,0.009595461506948812,-0.022376683458633147,-0.002786466895967786,2.048743752115928,-4.7907177082818535,-1.761968962332397
1730865976.4331918,-1.7807178497314453,0.9962002635002136,-9.770801544189453,0.00888835834683352,-0.0220396524727577,-0.0027745894993413504,2.0564567942068233,-4.799379670314199,-1.7678382118717508
1730865976.4830334,-1.7849152088165283,0.9251965284347534,-9.751386642456055,0.008273668491676055,-0.021687636322398566,-0.002885657812309551,2.0640539699611002,-4.807919066315392,-1.773617005087629
1730865976.5330846,-1.784656286239624,0.8895010352134705,-9.759675979614258,0.007750664347176637,-0.021323571240814895,-0.0031159323263959923,2.0717425401255376,-4.816568986677505,-1.7794633894402825
1730865976.583109,-1.7826882600784302,0.8732828497886658,-9.80506706237793,0.007317355951429268,-0.020948645383556577,-0.003459103839237413,2.079444382946656,-4.825241791723271,-1.7853183329001292
1730865976.6331296,-1.7952266931533813,0.8966658711433411,-9.827330589294434,0.006970642324022986,-0.020562075980843558,-0.003906846428328087,2.08713912343013,-4.833914569728725,-1.791166780917065
1730865976.6830444,-1.813761830329895,0.8992002606391907,-9.887080192565918,0.0067064178725491416,-0.020161236468534172,-0.004449547199355916,2.094806663965879,-4.842564571138755,-1.796993920019104
1730865976.7331476,-1.7603381872177124,1.0126773118972778,-9.927574157714844,0.006519651127540561,-0.01974212843621202,-0.0050770963519398615,2.102529599676634,-4.851284906747016,-1.802862994141934
1730865976.7829556,-1.7341268062591553,1.0816811323165894,-9.964619636535645,0.0064046158467917814,-0.01930020753537751,-0.0057796482992915,2.110195396519634,-4.859948332668544,-1.8086889664350545
1730865976.8330567,-1.752147912979126,1.1004984378814697,-9.94594955444336,0.006355313938790599,-0.01883138392964022,-0.006548146592497542,2.117918577399067,-4.868684036317326,-1.8145593750173734
1730865976.882986,-1.7777737379074097,1.0999888181686401,-9.936602592468262,0.006365781766536053,-0.018332619625088465,-0.007374307917851679,2.1255905144893816,-4.877368859828975,-1.8203921545353992
1730865976.9328961,-1.7552416324615479,1.0999363660812378,-9.89273738861084,0.00643009717109891,-0.017801897444217972,-0.008250135436826515,2.1332839098020684,-4.886084704342868,-1.8262430813614683
1730865976.9829338,-1.7443795204162598,1.0299259424209595,-9.859451293945312,0.006542325217805567,-0.017237925800778302,-0.00916737881769101,2.141007008768134,-4.894840562663342,-1.8321189606581205
1730865977.0329692,-1.738450288772583,0.9913241267204285,-9.821126937866211,0.00669662040514315,-0.016639736691595356,-0.010117124405912378,2.1487388128935208,-4.903612206766531,-1.8380043517369247
1730865977.0829315,-1.72636079788208,1.0042277574539185,-9.780694961547852,0.006887405969754847,-0.016006171789235798,-0.011089451662813641,2.1564420959376323,-4.912356866305774,-1.8438714190600565
