Timestamp,IMU_Linear_Acc_X,IMU_Linear_Acc_Y,IMU_Linear_Acc_Z,Filtered_X,Filtered_Y,Filtered_Z,Pose_X,Pose_Y,Pose_Z
1730865946.8840554,-1.6525182723999023,1.072100281715393,-9.886634826660156,-0.09894298222971623,-0.0793586582353859,-8.330772294119697,0.9018453849765956,3.813209184098006,0.8988400224509652
1730865946.9339588,-1.6460669040679932,1.1705397367477417,-9.888028144836426,-0.10914041689825962,-0.10262347486528522,-9.173669826359141,0.9016585452374893,3.8149392842868175,0.8980507838643551
1730865946.9839773,-1.5448205471038818,1.3515266180038452,-9.916738510131836,-0.11844945819792335,-0.12866726387191016,-9.914839539221889,0.9016409928774113,3.814966859656677,0.898024268630545
1730865947.0338826,-1.4505513906478882,1.3764179944992065,-9.885746955871582,-0.12682349664791626,-0.1568902782689362,-10.54067723100352,0.898963528598403,3.170077022669995,0.8978434542920823
1730865947.083904,-1.4505513906478882,1.3764179944992065,-9.885746955871582,-0.13401111962792395,-0.18688748217366746,-11.044199338760817,0.8954185318654104,2.575144578391724,0.893804473680151
1730865947.083904,-1.483825922012329,1.3574954271316528,-9.83907413482666,-0.1395408256042429,-0.2184456074793824,-11.424642532074337,0.8953655620386946,2.566317620904862,0.8937135531604997
1730865947.1338828,-1.5220105648040771,1.4168083667755127,-9.791072845458984,-0.14286672131715406,-0.25140096354284436,-11.686710711743071,0.8860430206660117,1.0489729407471962,0.8637662118764077
1730865947.1838188,-1.466209888458252,1.5062932968139648,-9.781386375427246,-0.14356077070335999,-0.2855539651050816,-11.839592159463319,0.8763393605737374,-0.4796677625229066,0.8040342903841797
1730865947.2339377,-1.466209888458252,1.5062932968139648,-9.781386375427246,-0.1414050687232823,-0.32069819187454907,-11.895881658753433,0.8662979470164783,-2.006046466971305,0.7146909794688507
1730865947.2339377,-1.6475468873977661,1.4503509998321533,-9.745635986328125,-0.13640679622069996,-0.35664952021775187,-11.870510076471174,0.8662410598867926,-2.0145455074632186,0.714110316739728
1730865947.2838902,-1.7597566843032837,1.3032793998718262,-9.741059303283691,-0.12888653760789204,-0.39315140464669046,-11.779711196610524,0.8566081647648628,-3.422236264232574,0.6029697778217543
1730865947.3337905,-1.6816997528076172,1.2365984916687012,-9.753911018371582,-0.11960594944516469,-0.42968123102471767,-11.640057618496213,0.8466996408387752,-4.774304584525626,0.4688964072988248
1730865947.3838024,-1.757475733757019,1.2633165121078491,-9.788309097290039,-0.10971881268047258,-0.4653239023702659,-11.467636075653338,0.8358819558076855,-6.2723864595794385,0.2940867120361509
1730865947.4338114,-1.9410609006881714,1.2342725992202759,-9.715015411376953,-0.10057704192152542,-0.4988491091692647,-11.277383484916093,0.8274679925869859,-7.433695438800927,0.11532578057699365
1730865947.4836771,-1.7980672121047974,1.2204742431640625,-9.816902160644531,-0.09359775078108885,-0.5289305369279165,-11.08255531520845,0.8164731453793159,-8.895076928145443,-0.1126115306208412
1730865947.5337312,-1.6201061010360718,1.2407430410385132,-9.861479759216309,-0.09009691601170089,-0.5543536793587528,-10.894365633290668,0.8052338927041851,-10.359812160973718,-0.3683001424567487
1730865947.5837328,-1.6417081356048584,1.2559638023376465,-9.932706832885742,-0.090952093291431,-0.5741690497097559,-10.721846198348594,0.8847906924517885,-11.489234762794833,0.8836576953403797
1730865947.6336718,-1.4783844947814941,1.2720919847488403,-9.962823867797852,-0.0963178709726841,-0.5878076382866466,-10.571851139598307,0.8834312674439739,-12.939107773639167,0.8406564517652912
1730865947.6836586,-1.4127205610275269,1.249739170074463,-9.95790958404541,-0.10557472267261564,-0.595134912214461,-10.449106684575757,0.8818236705592563,-14.386632402190232,0.7715540139514444
1730865947.7336457,-1.4345476627349854,1.2176520824432373,-9.960887908935547,-0.11743638141926158,-0.5964155428449804,-10.356280236467114,0.8800283349218878,-15.377708399806048,0.8553529650987324
1730865947.7836764,-1.6071974039077759,1.2252144813537598,-9.856568336486816,-0.13021594300995082,-0.5922104430650994,-10.294080176320938,0.8779652075739269,-16.816920329825205,0.7993798183064335
1730865947.8337014,-1.532752275466919,1.1856809854507446,-9.923158645629883,-0.14224422332789521,-0.5832653661038252,-10.261411905119562,0.8755789635014986,-18.24597654487333,0.7182197753676774
1730865947.8835726,-1.49844229221344,1.2116985321044922,-9.878271102905273,-0.15220002906230556,-0.5704267310351991,-10.255644513801691,0.8756573256128435,-19.074724040426474,0.8425011454148948
1730865947.9345996,-1.521494746208191,1.106750726699829,-9.946966171264648,-0.15917911535068213,-0.5545717570696317,-10.273003692338952,0.8734021193816173,-20.515074957992983,0.7827263282683763
1730865947.9846032,-1.521235466003418,1.066617727279663,-9.89339542388916,-0.16263874295625175,-0.5365170264254542,-10.309011026585832,0.8739608665784296,-21.25509937233502,0.8403972698250829
1730865948.034629,-1.6524330377578735,0.9745575785636902,-9.893824577331543,-0.16239179997375575,-0.5169026967478669,-10.358872340477069,0.8727797779677887,0.6346310876516285,0.8451666986053679
1730865948.0845356,-1.714928388595581,0.9513433575630188,-9.833707809448242,-0.1586679498249637,-0.49610870403864743,-10.417772087244353,0.8709430260004305,0.4590367744443989,0.7896225978169589
1730865948.1347377,-1.6118273735046387,0.9223973155021667,-9.884674072265625,-0.15214420178576174,-0.47425443817232876,-10.481100132215504,0.8687081469872678,0.2814811989910336,0.7075946615706812
1730865948.1846237,-1.3661701679229736,0.9260615110397339,-9.857068061828613,-0.14376954961339453,-0.4512811835942917,-10.544665624506294,0.8661138158163462,0.10359665479825933,0.5996702996783662
1730865948.2345996,-1.2212275266647339,0.8862243294715881,-9.932165145874023,-0.13434636337251524,-0.4270708009730064,-10.604903683174669,0.871064604335853,0.7310318565649782,0.8331906006780642
1730865948.2835228,-1.0323896408081055,0.8774198889732361,-9.941996574401855,-0.12410679677597823,-0.4015391949458527,-10.659041806604758,0.8697469571249928,0.7017207744717991,0.773417340687299
1730865948.3344536,-1.2495695352554321,0.9381879568099976,-9.924843788146973,-0.11258150234025567,-0.37469609238916096,-10.705186927677138,0.8697441202158153,0.8001095678670107,0.8369085469057301
1730865948.3844686,-1.4342632293701172,1.0002256631851196,-9.9284086227417,-0.09890929452844809,-0.34672122513761355,-10.742295650564202,0.8684079809170686,0.7924904800844552,0.7764984462839383
1730865948.4344435,-1.6491162776947021,1.1198151111602783,-9.88106918334961,-0.08246121332397272,-0.3180734303262426,-10.770044333350036,0.8668629024474107,0.7841379465880645,0.690161597206038
1730865948.4846096,-1.8150001764297485,1.2128596305847168,-9.911548614501953,-0.06340460654880692,-0.2895868790538799,-10.78866581953849,0.8651017711543864,0.7748459717555148,0.5747285110896322
1730865948.5345068,-1.8747748136520386,1.2866096496582031,-9.855307579040527,-0.04291862157124224,-0.2624974461033528,-10.79880129068859,0.867005640053556,0.8307577296448877,0.8313838329199738
1730865948.5845046,-1.8972151279449463,1.2438414096832275,-9.890105247497559,-0.023029597530732145,-0.2383452816268935,-10.801377153311988,0.8655152197449751,0.8410525985663208,0.8416742204687852
1730865948.6345894,-1.8699368238449097,1.2726092338562012,-9.829380989074707,-0.006186068914582736,-0.21874037806672963,-10.797498939288808,0.8643756712144515,0.8414442334590326,0.7836091534935625
1730865948.6844258,-1.9649289846420288,1.1705948114395142,-9.842905044555664,0.00522383943937639,-0.20506744647719488,-10.788354579990525,0.8644049768889023,0.8489668440298692,0.8373166895491557
1730865948.7343395,-1.755480170249939,1.117276906967163,-9.814167976379395,0.009255747639932775,-0.1982212391990424,-10.775128892069617,0.8636839647009515,0.8500601339154701,0.7778143253167931
1730865948.7843802,-1.648979902267456,1.0715574026107788,-9.870731353759766,0.004722828485257766,-0.19842432598105605,-10.758951367587144,0.863547255760739,0.856600692607557,0.8369376358058769
1730865948.8343627,-1.619248390197754,1.0923936367034912,-9.766934394836426,-0.008539276239919366,-0.2051887728131916,-10.740876791107038,0.8629885500981795,0.8582516592512711,0.7768160503365092
1730865948.8843756,-1.5719029903411865,1.1600306034088135,-9.814069747924805,-0.02961479264952421,-0.2174597189030545,-10.721850941287236,0.864529633350441,0.8640225594398953,0.8370819428991917
1730865948.9342463,-1.4718180894851685,1.2043366432189941,-9.855443000793457,-0.05670351107885123,-0.23388906522612612,-10.702674829505973,0.8644676052388185,0.86608662012045,0.7776422744276642
1730865948.9843962,-1.5622344017028809,1.2559999227523804,-9.844598770141602,-0.08742330382259991,-0.2531218887292544,-10.684031620583681,0.865408125331211,0.8693199803666469,0.837023924645756
1730865949.0343103,-1.6065484285354614,1.3037285804748535,-9.91126537322998,-0.11916894734684522,-0.2739986459024579,-10.666544536039618,0.865304606774036,0.8711575882904654,0.7776170670876026
1730865949.084335,-1.6464300155639648,1.3352413177490234,-9.848318099975586,-0.14951750641979406,-0.29565422230774935,-10.650795553742075,0.8648631270656199,0.8722949339821641,0.6910089500662429
1730865949.1342292,-1.7890230417251587,1.2793657779693604,-9.847938537597656,-0.17656927382720017,-0.3175211434086861,-10.637286795802183,0.864443743492708,0.8737331377845446,0.835301625132999
1730865949.1843033,-1.9112098217010498,1.1769911050796509,-9.826825141906738,-0.1991747258037938,-0.33922013738994133,-10.626363583773305,0.8634948462489699,0.873911870608521,0.7747724945562766
1730865949.2342906,-1.7468112707138062,1.169215440750122,-9.872337341308594,-0.21702292035886506,-0.3603720703929175,-10.618166031147908,0.8620342103368055,0.8732232430269832,0.6881684545254977
1730865949.2843397,-1.7610691785812378,1.1731765270233154,-9.90518856048584,-0.2304785251118045,-0.3804675972768359,-10.612662899895074,0.8632747447998405,0.8793557775440957,0.8372963801516566
1730865949.3341703,-1.772855281829834,1.1963719129562378,-9.869773864746094,-0.24024004048330205,-0.39889300199604383,-10.60973026784626,0.8618557302949551,0.8794947353128432,0.7773593917894565
1730865949.3842542,-1.7723252773284912,1.1582468748092651,-9.856871604919434,-0.2470864852246026,-0.4150485578265357,-10.609188384909086,0.8598155848978636,0.8786149626292038,0.6903926270027247
1730865949.4341888,-1.5951693058013916,1.1924304962158203,-9.84045124053955,-0.2517523595866783,-0.4284444338142023,-10.610775426234419,0.8636385205295861,0.8866937966130188,0.8395316311084832
1730865949.4842129,-1.4303251504898071,1.1096744537353516,-9.871488571166992,-0.2547544526258346,-0.4387380424869803,-10.614126356637538,0.8623381620659085,0.886865024602874,0.779238495935079
1730865949.5342839,-1.4494115114212036,1.127644419670105,-9.831385612487793,-0.2561746077134929,-0.44572382401093624,-10.618800729315556,0.8627698412644348,0.8950636392492195,0.8446824592587779
1730865949.5842733,-1.374488115310669,1.0864741802215576,-9.847817420959473,-0.255607053102871,-0.4493013724620987,-10.624326404660444,0.8610943649759578,0.8963602759701369,0.7861013768161234
1730865949.634126,-1.4525998830795288,1.0719263553619385,-9.802490234375,-0.25234003116914927,-0.44945576103205986,-10.630223990943449,0.8632459839145,0.9013811833527661,0.8469412225265653
1730865949.684152,-1.5784028768539429,1.0320987701416016,-9.840079307556152,-0.2456605438445894,-0.44624706986554996,-10.636021631287843,0.8619291046054738,0.9022919065714023,0.7886059633948157
1730865949.734146,-1.5448294878005981,0.9901504516601562,-9.828018188476562,-0.23516929494087266,-0.43978872037858024,-10.64128530659605,0.864853632441785,0.9076105392415684,0.8483473772888366
1730865949.7841535,-1.495914340019226,0.9905200004577637,-9.897010803222656,-0.2209489280610406,-0.430222716693319,-10.645673943891094,0.8639589674578615,0.9080843754591617,0.7897822645301911
1730865949.8341901,-1.5989469289779663,0.96947181224823,-9.889765739440918,-0.2035063947134906,-0.4177175534317961,-10.649003615832049,0.8657069617957628,0.9153084893933874,0.8500464451200727
1730865949.8841543,-1.5671354532241821,0.9694827198982239,-9.91878890991211,-0.1836447655257814,-0.4024931113980279,-10.65128432149286,0.8665093649757203,0.9200161614918672,0.8556298972824541
1730865949.9341342,-1.4966825246810913,0.9941743016242981,-9.964380264282227,-0.1623598287018898,-0.3848530576233202,-10.652711604643464,0.8659309468268859,0.9214834145782248,0.7993368969260601
1730865949.984129,-1.4800490140914917,0.969645619392395,-9.981051445007324,-0.14068413426397838,-0.3652112279223664,-10.653639058936974,0.864964359968003,0.9220158841707352,0.7156029109513568
1730865950.0342054,-1.459653377532959,1.016774296760559,-9.992463111877441,-0.11950601337602793,-0.3440994093090969,-10.654542280020582,0.8636800850980886,0.9216547274656517,0.6059016685012638
1730865950.0840492,-1.5144121646881104,1.049118995666504,-9.973414421081543,-0.09948581705182993,-0.32216159258195787,-10.655950385008246,0.8659687557874638,0.9274575214563633,0.8443540468816105
1730865950.1340241,-1.6105612516403198,1.0086636543273926,-9.94045639038086,-0.08110640652336866,-0.3001422370250517,-10.658342970991399,0.8652670783792398,0.9280008149989835,0.7827103875558231
1730865950.1840804,-1.6105612516403198,1.0086636543273926,-9.94045639038086,-0.06480109925450507,-0.27883019329937586,-10.662044938534887,0.8656303740779123,0.9355671085660089,0.8495285760092952
1730865950.1840804,-1.5536221265792847,1.06661057472229,-9.94149398803711,-0.05102840393380107,-0.2589665931474864,-10.667167605908608,0.8656271345602474,0.9355809810262116,0.8492433820475236
1730865950.2339597,-1.603241205215454,1.065562129020691,-9.964529037475586,-0.040212490950118446,-0.24119841509438064,-10.673623616443138,0.865057753458201,0.9375096432445497,0.7903400443934242
1730865950.2839465,-1.879683494567871,1.0326447486877441,-9.866992950439453,-0.03269244233194661,-0.22607309087200672,-10.681176171176448,0.8643912678715471,0.938878580478058,0.7041941929455416
1730865950.3339956,-2.0737950801849365,0.9914940595626831,-9.809025764465332,-0.028881043574797417,-0.21399171155031863,-10.689442737674087,0.8675425856416289,0.9436655392769503,0.8541079581925309
1730865950.3840535,-2.0737950801849365,0.9914940595626831,-9.809025764465332,-0.02951996717394019,-0.2051255214031691,-10.69785485305174,0.8676402238795086,0.9449318029003602,0.7961073499867762
1730865950.3840535,-1.8243703842163086,0.9407444000244141,-9.798154830932617,-0.03565265492009648,-0.19937017653521277,-10.705676540284635,0.8676406051552519,0.9449381862798104,0.7956528066424932
1730865950.4339852,-1.6435387134552002,1.0102969408035278,-9.805895805358887,-0.04815841804514012,-0.19637067688382404,-10.712118101046784,0.8695676472874566,0.9535652865092631,0.8548380298373647
1730865950.4839067,-1.5730770826339722,1.1460793018341064,-9.76155948638916,-0.06715982511182142,-0.19563773070358825,-10.716465711625528,0.8700285384030269,0.9567371731361075,0.799334809937116
1730865950.5338778,-1.402429223060608,1.2469379901885986,-9.80485725402832,-0.0917212341722139,-0.19676645660205577,-10.718164006984935,0.8702869882268944,0.9593802628953585,0.7181288734077269
1730865950.5837739,-1.2801685333251953,1.27745521068573,-9.844583511352539,-0.11990144351457746,-0.19964877872818754,-10.716875526649055,0.8702849344182886,0.9615493164089713,0.6098642331042082
1730865950.6338754,-1.3144124746322632,1.2810062170028687,-9.876189231872559,-0.14900359594395152,-0.20451999675802662,-10.71255128087376,0.8699458165188824,0.9632245411940943,0.47411772218240467
1730865950.6837897,-1.3720238208770752,1.2254197597503662,-9.91110610961914,-0.17598651642156474,-0.21181341891029495,-10.705479098602499,0.8691993384729657,0.9643756181011377,0.3116457537966927
1730865950.7338083,-1.4993278980255127,1.1518988609313965,-9.931300163269043,-0.19801290694523882,-0.22191612438624103,-10.696266492876784,0.8679911439632325,0.9600906944488895,0.8401474913369653
1730865950.78379,-1.6006672382354736,1.0863429307937622,-9.86929702758789,-0.21297483213717872,-0.2349293312321471,-10.685751337993494,0.8662638158551833,0.9605530372088142,0.7773233876553669
1730865950.8337855,-1.6006672382354736,1.0863429307937622,-9.86929702758789,-0.2198203528522167,-0.2505254862658187,-10.674846395145723,0.8749935106734292,0.9666533780139871,0.8443987583492198
1730865950.8337855,-1.81550133228302,1.01986563205719,-9.81452465057373,-0.21862121157720554,-0.26795261523332925,-10.664365179573014,0.8749948189479032,0.9666624128327338,0.8441281596975655
1730865950.8837059,-1.9375649690628052,0.9927679896354675,-9.77560806274414,-0.21049424354010918,-0.2861398386505509,-10.654892709901388,0.8749581245168979,0.9678599636431957,0.7843810292076091
1730865950.9336746,-2.0457820892333984,0.9714118242263794,-9.726194381713867,-0.19748527227711407,-0.3038280926690812,-10.646712840137194,0.8744144734397636,0.9683291825546299,0.6979384777740042
1730865950.9836621,-2.0869340896606445,1.0083929300308228,-9.737180709838867,-0.18235379322226214,-0.31971818244974803,-10.639793464820928,0.8773866574754856,0.9782323722898553,0.8481263514638137
1730865951.0336392,-2.0562994480133057,1.051559329032898,-9.758321762084961,-0.16819894421213258,-0.3326536458023086,-10.633852827416264,0.8773716841061885,0.9800168729697053,0.7905637886441895
1730865951.083622,-1.9736506938934326,1.1039338111877441,-9.822582244873047,-0.15798444846916396,-0.34180979231489783,-10.628503849153818,0.876951480056807,0.9893780507270974,0.8445966233821537
1730865951.133597,-1.9302725791931152,1.1401413679122925,-9.887577056884766,-0.1540727829056192,-0.346828547326735,-10.623430924825039,0.8761417502246756,0.9924878120871414,0.7857822988337541
1730865951.1835477,-1.8705997467041016,1.1601102352142334,-9.892549514770508,-0.1578972422016881,-0.34785501245274075,-10.618531159682114,0.8749535947333529,1.0003429690113088,0.8408981792087247
1730865951.233644,-1.852792739868164,1.1702474355697632,-9.919771194458008,-0.1698485615032751,-0.34547275073340217,-10.61395631951677,0.8733425335151189,1.0040219297363648,0.7811135480898991
1730865951.2836158,-1.850260853767395,1.1229956150054932,-9.914119720458984,-0.1893589336695002,-0.34056162724218564,-10.61005174543091,0.8713133198241108,1.0126032699944971,0.8403919418462099
1730865951.3335752,-1.8229795694351196,1.0839333534240723,-9.910886764526367,-0.2151164205234813,-0.334105766907077,-10.60724747936516,0.8687563896597431,1.016316293214378,0.78122171312896
1730865951.3836124,-1.7985893487930298,1.0479875802993774,-9.888747215270996,-0.24532176701743919,-0.32699599280735475,-10.605945569369503,0.8656687363927142,1.0228356669381515,0.8403468302545819
1730865951.4335694,-1.7535266876220703,0.9978740811347961,-9.872357368469238,-0.2779157267941403,-0.319885455072238,-10.606422693258398,0.861978079438589,1.0322532785607184,0.846165304695525
1730865951.4836032,-1.7225205898284912,0.9698752164840698,-9.863229751586914,-0.3107583167577904,-0.3131228790771831,-10.608766500875035,0.857455282276286,1.036940727530476,0.7894785606519615
1730865951.533507,-1.668954610824585,0.9353963732719421,-9.8529052734375,-0.34177121704641494,-0.3067524562410986,-10.612859103926287,0.8521426424378221,1.0408314960660061,0.7066358593778054
1730865951.583536,-1.6359572410583496,0.9215210676193237,-9.852986335754395,-0.3690516241785457,-0.3005659261250483,-10.61840398986748,0.8459147371812109,1.0439804728571613,0.5968187587522545
1730865951.6334298,-1.6144894361495972,0.9229671359062195,-9.850465774536133,-0.39096592648981876,-0.29419192908405506,-10.624979687647189,0.9094540006398253,1.0436076643228192,0.8349914697656288
1730865951.6834772,-1.6067534685134888,0.9610587358474731,-9.857247352600098,-0.40623629623013285,-0.2872120303993714,-10.632103975529008,0.9085718608341681,1.0455507455694866,0.7733743235854031
1730865951.7344527,-1.5976148843765259,1.0084751844406128,-9.867647171020508,-0.4140185392311782,-0.27929490406479,-10.639297953040543,0.9126092691334338,1.056137871799126,0.8390995014003936
1730865951.7843916,-1.6114647388458252,1.0301212072372437,-9.874835968017578,-0.4139530485698125,-0.27031846696585743,-10.646142656488074,0.911716196971876,1.0602701187117813,0.7792540292755223
1730865951.8344188,-1.5975745916366577,1.018343448638916,-9.889068603515625,-0.4061756750102024,-0.2604248840507193,-10.652320760717547,0.9097860525398436,1.0637604309184676,0.6922482379698821
1730865951.8845086,-1.6075562238693237,0.9683912396430969,-9.893061637878418,-0.39128229166600303,-0.2499695123591047,-10.657638223567908,0.9138440440245971,1.0682373310702842,0.8365803796600908
1730865951.934418,-1.626556634902954,0.905511736869812,-9.897462844848633,-0.37025536521914704,-0.23937989868686627,-10.662024727558157,0.9122851051241391,1.070845616351406,0.7757418427813982
1730865951.9844997,-1.6508206129074097,0.8503293991088867,-9.890620231628418,-0.3443794850336598,-0.2289885150221437,-10.665513448637391,0.9163157687586047,1.0831899438463823,0.8399330477822039
1730865952.034278,-1.668717384338379,0.7852784395217896,-9.882685661315918,-0.3151581975603885,-0.2189081212247321,-10.668204716106564,0.9154240891377081,1.0883005922043119,0.7808280879271987
1730865952.0843859,-1.666137456893921,0.7490000128746033,-9.847501754760742,-0.2842180465791022,-0.20898365550582187,-10.670219153974138,0.9188462108366207,1.0936287007731398,0.8402228804293489
1730865952.134316,-1.6244356632232666,0.7482098340988159,-9.854060173034668,-0.2531822568595261,-0.19882573785215174,-10.671649108878636,0.9183553140838485,1.0981573029917926,0.7808093439384317
1730865952.1843207,-1.5937052965164185,0.7874472141265869,-9.882034301757812,-0.22351484382814232,-0.18792536906270796,-10.672537763822241,0.9172659736954691,1.1022192455118802,0.6944536348615539
1730865952.2342668,-1.5707736015319824,0.8576775789260864,-9.910017013549805,-0.19637371762673272,-0.17583122736109574,-10.672913195179195,0.9172785406620391,1.1046199128662817,0.836855346965077
1730865952.2842512,-1.587791085243225,0.9232023358345032,-9.935588836669922,-0.1725323317577391,-0.16233867751930567,-10.672853606877773,0.9161660141619248,1.1143960068907584,0.8455343950922146
1730865952.3342435,-1.5839658975601196,0.9715844392776489,-9.951668739318848,-0.15239464426213184,-0.14762213453204617,-10.672532038360863,0.9147613626252326,1.1191761957673407,0.788570563759185
1730865952.3842833,-1.6285433769226074,0.9795622229576111,-9.949352264404297,-0.13607495125037264,-0.1322557102679514,-10.672214762619666,0.9128800548444989,1.12527494865463,0.8406963189190532
1730865952.4342704,-1.6731714010238647,0.9589577913284302,-9.931402206420898,-0.12350617833849095,-0.11710884812071586,-10.672214594764911,0.9107848494881393,1.130262586195065,0.7810666704304671
1730865952.4843504,-1.7608195543289185,0.9085907340049744,-9.892904281616211,-0.11456212587371299,-0.10315067484793931,-10.672811803973861,0.9084037293349714,1.1349487637330675,0.6951213878042539
1730865952.5342863,-1.8198007345199585,0.8613375425338745,-9.845653533935547,-0.10917647838200015,-0.09122708283855635,-10.674163276211159,0.9103651270640628,1.1378919717142737,0.8366859550862766
1730865952.5842535,-1.8743910789489746,0.8098325729370117,-9.812735557556152,-0.1074207455543405,-0.08187875671880702,-10.676227971479197,0.9087998372983648,1.1417947088874654,0.7756999784307058
1730865952.634168,-1.8814746141433716,0.8248398900032043,-9.78154468536377,-0.10950376233906106,-0.07525340639919226,-10.678738835501466,0.9085756743709802,1.1526018357864114,0.839950878246191
1730865952.6841817,-1.8178749084472656,0.9012826681137085,-9.799697875976562,-0.11567665011879277,-0.0711504113385916,-10.681239391085477,0.9069645535038563,1.1586287762097327,0.7799865036101262
1730865952.7341259,-1.7743693590164185,0.9895063042640686,-9.821540832519531,-0.12605995745640816,-0.06919848378707197,-10.683184464033548,0.9066073353740526,1.162575758553731,0.840318538859414
1730865952.7841399,-1.7426655292510986,1.0704177618026733,-9.879551887512207,-0.14046808446603448,-0.06908878121398357,-10.684082647345548,0.9048744153735403,1.1678209296569408,0.7808792399005908
1730865952.834016,-1.7173658609390259,1.144403100013733,-9.899643898010254,-0.15832696539864233,-0.07075000831509203,-10.683634263357508,0.9067331140683709,1.1750332658780338,0.8403190568261575
1730865952.884022,-1.7238008975982666,1.201750636100769,-9.902915954589844,-0.17871295877599083,-0.07440822285832352,-10.681807690275068,0.9055215869344777,1.180650750401063,0.7801722094512216
1730865952.9340377,-1.7645459175109863,1.1820310354232788,-9.86949348449707,-0.20048322856468853,-0.08053213264001315,-10.678816347196115,0.9074731648603929,1.1844023702278743,0.8408137556761512
1730865952.9839852,-1.7645459175109863,1.1820310354232788,-9.86949348449707,-0.22245458585379735,-0.08968120220399657,-10.675015149968274,0.9082894477223217,1.1929279814973095,0.8464667988742322
1730865952.9839852,-1.83077871799469,1.1543887853622437,-9.82955265045166,-0.24357364767252193,-0.10230948498665447,-10.67078077739712,0.9082860374600682,1.1929614082625462,0.8462064902298062
1730865953.0339887,-1.8594506978988647,1.0799541473388672,-9.79504680633545,-0.2630432832429374,-0.11859494976363259,-10.666417512298443,0.9073925512169007,1.198365839378644,0.7897030197181736
1730865953.0839276,-1.8404059410095215,1.018115758895874,-9.759230613708496,-0.2803906028545407,-0.13831659680963232,-10.662089730887356,0.9058213983747858,1.2034672044098036,0.7065402454186257
1730865953.1339393,-1.7897979021072388,0.9865586757659912,-9.764646530151367,-0.2954383909363103,-0.160792483201045,-10.657791675983702,0.9035262269979418,1.2082097075004832,0.596499091090057
1730865953.1840162,-1.698754072189331,1.0258070230484009,-9.786855697631836,-0.30817001083759055,-0.1849296482532721,-10.653381187383221,0.908782916785788,1.2072927104776523,0.8451574669535951
1730865953.2339149,-1.6195176839828491,1.096706748008728,-9.849236488342285,-0.31854768013811896,-0.20941456188143903,-10.648679726515748,0.9073535325846084,1.2105481773131999,0.7867822869086268
1730865953.2839737,-1.5690386295318604,1.1863417625427246,-9.894932746887207,-0.3263700227267286,-0.23299458401378212,-10.643603849798271,0.9051046976540047,1.2132679854538218,0.7012834663977512
1730865953.3338645,-1.5596836805343628,1.2637195587158203,-9.941064834594727,-0.331237431615114,-0.25474716581556844,-10.638271864538199,0.9077769000588893,1.2200977801643245,0.8411592389499699
1730865953.384044,-1.59630286693573,1.3051685094833374,-9.960204124450684,-0.33264478816760723,-0.2742422574405665,-10.63303848171649,0.9058238280308563,1.2236450808898582,0.7808149606265605
1730865953.4338489,-1.6284863948822021,1.3273265361785889,-9.94701862335205,-0.3301598045999833,-0.2915551616085369,-10.628443512451419,0.9030673276352205,1.2264516754782022,0.694674433212848
1730865953.4840422,-1.6553434133529663,1.316172480583191,-9.920696258544922,-0.3236031352112103,-0.3071478183095746,-10.62509021990344,0.9069739117435933,1.2341068277125833,0.8384878386920678
1730865953.5338588,-1.6599690914154053,1.2806527614593506,-9.860176086425781,-0.3131497294034365,-0.321673849555382,-10.623488643393795,0.9097810200639584,1.2478982987668474,0.8473519893053924
1730865953.583919,-1.6765570640563965,1.1801283359527588,-9.819402694702148,-0.299325718181008,-0.3357559620729904,-10.623909176161767,0.9089080230112069,1.2533931406788201,0.7906389511343717
1730865953.6338382,-1.6720153093338013,1.0732054710388184,-9.787087440490723,-0.28293169149268765,-0.34976355480918475,-10.62629223425483,0.9126944273504746,1.2589019030535553,0.8428172419363922
1730865953.6838663,-1.6663193702697754,0.9791675806045532,-9.763050079345703,-0.2649327090045918,-0.3636319054471351,-10.630244286174063,0.9122280418623021,1.2627599657520587,0.7840848486682148
1730865953.7339408,-1.6707918643951416,0.9239218235015869,-9.750232696533203,-0.24634125478664504,-0.37678997761900546,-10.635111151510209,0.9111193452951597,1.2657056379618146,0.698479688346728
1730865953.7837968,-1.6994575262069702,0.9047927856445312,-9.781537055969238,-0.22812225427003044,-0.3882386904401955,-10.640099070051427,0.9154598715549941,1.271292769218293,0.8389484963725473
1730865953.8338177,-1.7137017250061035,0.9450106620788574,-9.824131965637207,-0.21114358805505762,-0.39676214484969524,-10.644427445403146,0.9150727589856215,1.2741652476875145,0.778242551980255
1730865953.8838098,-1.7199853658676147,1.0237822532653809,-9.900525093078613,-0.19615774113009177,-0.4012185108543231,-10.647495761081537,0.9183673068725544,1.2846792558820042,0.8421625654813532
1730865953.933771,-1.7121604681015015,1.109671950340271,-9.941783905029297,-0.18377904114878602,-0.40084058128059125,-10.649024993775036,0.9212811633093628,1.2936171238481482,0.8482896226128349
1730865953.9838536,-1.7125602960586548,1.1412822008132935,-9.991416931152344,-0.17444618660773226,-0.3954552341806687,-10.649125799699014,0.9219476609767533,1.2982043173938695,0.7914907665811964
1730865954.033785,-1.7383090257644653,1.1559922695159912,-9.991555213928223,-0.16839507905624204,-0.38553858213680087,-10.648268187690363,0.9221834112351519,1.3017917969820072,0.7085266453101455
1730865954.0837812,-1.7700742483139038,1.0934906005859375,-9.966474533081055,-0.1656730892757348,-0.37208774765845076,-10.647159629344403,0.9232718638790786,1.306624383029241,0.8392831420010267
1730865954.1337168,-1.7931220531463623,1.0574482679367065,-9.924484252929688,-0.1661936108795929,-0.35636589871850377,-10.646560886572885,0.9231603230947476,1.3091866265631606,0.7786295575223366
1730865954.1838078,-1.8051255941390991,0.9757516384124756,-9.861323356628418,-0.16979345687427613,-0.33961709506794,-10.647088820548829,0.9254310252179913,1.3214916774221481,0.8421639823989207
1730865954.233678,-1.8243852853775024,0.909440279006958,-9.807530403137207,-0.17626283168967954,-0.3228336978300957,-10.649058779377466,0.9255525474521401,1.3262895865168451,0.7829625873916076
1730865954.2837088,-1.831785798072815,0.8526820540428162,-9.77783489227295,-0.1853521253892034,-0.3066141054241804,-10.652404739102455,0.9277579795018261,1.3299148578285926,0.8424731721062155
1730865954.3335953,-1.7967559099197388,0.8678164482116699,-9.767488479614258,-0.19676371692255976,-0.29113308411611294,-10.656699670887207,0.927888822516443,1.3332658306445193,0.7833593504699969
1730865954.3836603,-1.7605763673782349,0.9291214346885681,-9.799591064453125,-0.210118121645084,-0.27624631448652587,-10.66127151679564,0.930500243505293,1.3420162545068428,0.8423380825262748
1730865954.433618,-1.710945725440979,1.0032237768173218,-9.818702697753906,-0.22489955201033052,-0.26170590110262626,-10.665377983863657,0.9306056781499825,1.3460082767425752,0.7829205874981652
1730865954.4836576,-1.7012803554534912,1.053971767425537,-9.838756561279297,-0.24042158867277613,-0.24739435370111507,-10.668379647694616,0.9337198377992898,1.3496749286347836,0.8423794885052761
1730865954.5335536,-1.6881037950515747,1.0379717350006104,-9.849413871765137,-0.25585312923509435,-0.23346106859389967,-10.669853906358371,0.933964774986192,1.3525104483501775,0.7830279010641792
1730865954.5836434,-1.7113316059112549,0.9963055849075317,-9.854170799255371,-0.270308360774873,-0.22029616384664338,-10.669632046474593,0.9350684401409007,1.3557932911252077,0.8422385393572617
1730865954.6335702,-1.745736837387085,0.9328804016113281,-9.85682487487793,-0.28297434856408454,-0.20836987336614446,-10.667777333460561,0.9347403519800304,1.3576940203787966,0.7828840042386961
1730865954.683587,-1.7479357719421387,0.8603179454803467,-9.831171989440918,-0.29323688420270094,-0.19803098530234867,-10.664526050496509,0.9336912331639703,1.359094164303513,0.6966613302088402
1730865954.733575,-1.7491909265518188,0.843873918056488,-9.839099884033203,-0.30075484588868256,-0.18935734864342704,-10.660209327842232,0.9357559863909239,1.3617973828509293,0.838867790131802
1730865954.7836032,-1.719849944114685,0.8954249024391174,-9.856204986572266,-0.30545324049790756,-0.18212910802760301,-10.655186506486704,0.9346438276146738,1.3623714744638833,0.7778465348849394
1730865954.8335345,-1.69038987159729,1.013269066810608,-9.893735885620117,-0.307451150448298,-0.1759608821340184,-10.64982291094684,0.9374360481106964,1.3662798683233766,0.8421871102323949
1730865954.8834958,-1.6407148838043213,1.1782209873199463,-9.94733715057373,-0.30696100856734376,-0.17055807365198006,-10.644512277430083,0.9397950594197073,1.3732704917426988,0.848182753879307
1730865954.9335127,-1.5968351364135742,1.3148117065429688,-9.980710983276367,-0.3041906054998199,-0.1659932381765414,-10.639714090884105,0.9397174132747294,1.3735468040291963,0.7914116858214386
1730865954.9834745,-1.5788203477859497,1.3853707313537598,-9.986942291259766,-0.29927566311286535,-0.16286985276503477,-10.635964240242947,0.9388860234507683,1.3734119571929588,0.7081349228004589
1730865955.0333755,-1.5788203477859497,1.3853707313537598,-9.986942291259766,-0.29226921214868534,-0.16227388775858545,-10.63382807098689,0.9407122558605531,1.3794366254868506,0.8394586552583914
1730865955.0333755,-1.59587824344635,1.345052719116211,-9.986001014709473,-0.28319313223094256,-0.16551543489894488,-10.633810223776663,0.940708604164261,1.3794340292352076,0.839195912834052
1730865955.0834413,-1.6471034288406372,1.241713523864746,-9.92891788482666,-0.2721281656575947,-0.17376027990090015,-10.636258996426772,0.9397078969877354,1.3787474470701622,0.7784411817474696
1730865955.1334794,-1.7504501342773438,1.1041513681411743,-9.85863208770752,-0.25932165094868975,-0.18766564421364584,-10.641272449604982,0.9380463236513326,1.377611460975669,0.6912638866493441
1730865955.1834555,-1.8304283618927002,0.9711137413978577,-9.74976921081543,-0.24529942359534845,-0.20710212981441553,-10.64860059365815,0.9433686996399219,1.3867912801141995,0.847769236355853
1730865955.2333221,-1.9156988859176636,0.9128645658493042,-9.670672416687012,-0.2309394539057418,-0.2310364902014044,-10.657570126781533,0.9428541031242402,1.3850749794234924,0.790742634760949
1730865955.2834413,-1.9563443660736084,0.903839647769928,-9.61693286895752,-0.21745359623493069,-0.2576385078197027,-10.667083236217998,0.9417726863654138,1.3827310826923376,0.7064842561441066
1730865955.3332965,-1.9563443660736084,0.903839647769928,-9.61693286895752,-0.20626007890121859,-0.28459403446194986,-10.675730142758226,0.9401727494136775,1.379731691530575,0.5963541499076904
1730865955.3332965,-1.9662718772888184,0.9583784937858582,-9.625625610351562,-0.1987744878690523,-0.3095105214165016,-10.682006399892064,0.9401572002246423,1.3797036060490009,0.5953206347214641
1730865955.3834836,-1.923431158065796,1.0500279664993286,-9.705564498901367,-0.19618170608025814,-0.3303055313189438,-10.684579137417487,0.938056208506186,1.3920307496944972,0.840986064947777
1730865955.4342368,-1.8367159366607666,1.1513241529464722,-9.823517799377441,-0.1992366384425041,-0.3455286427132491,-10.68255088185763,0.9354105893386837,1.3878886081374746,0.7818150114876722
1730865955.4842105,-1.7143102884292603,1.2665013074874878,-9.948857307434082,-0.20809539690863355,-0.3545801624246779,-10.675687021624825,0.9323298127872804,1.4074490552586376,0.844374543337972
1730865955.5342638,-1.5934988260269165,1.3747628927230835,-10.055098533630371,-0.22218785858543832,-0.35779282683961905,-10.664552366244411,0.9286711763941707,1.4026120956520227,0.7857300945169325
1730865955.5842412,-1.4835880994796753,1.4298890829086304,-10.111140251159668,-0.24018002434472177,-0.3563665330163476,-10.650493387707098,0.9540184986866258,6.889788784663491,0.8433967710579822
1730865955.6342456,-1.443881630897522,1.4316983222961426,-10.103753089904785,-0.26007272089575123,-0.3521555165619984,-10.635442179261204,0.9542485270931463,7.1711332850831955,0.7843140001333647
1730865955.6842623,-1.4952565431594849,1.3775787353515625,-10.049909591674805,-0.2794599238601867,-0.34732513401019793,-10.621573199499593,0.9564657899757416,6.802697012147771,0.6986661463684982
1730865955.7341847,-1.6399167776107788,1.2702287435531616,-9.953142166137695,-0.2959389046315978,-0.3439375733494427,-10.610891196029687,0.9561337389696754,6.870575917797943,0.5866506101918887
1730865955.7842758,-1.8158236742019653,1.1555479764938354,-9.814238548278809,-0.3076034888150306,-0.34355340154725694,-10.604844197923509,0.959778236851931,6.716191030000981,0.8313470638103081
1730865955.8341494,-1.987913966178894,1.0372942686080933,-9.684324264526367,-0.3134840484606456,-0.3469374116972898,-10.604035270818342,0.9632299116215968,6.677657758606715,0.8400710715958115
1730865955.8841746,-2.1046435832977295,0.9711049795150757,-9.589987754821777,-0.31378773571628826,-0.3539376748875512,-10.608090802627466,0.9637527594546507,6.679455775192939,0.7818077777908159
1730865955.9341092,-2.1483964920043945,0.9394667744636536,-9.553539276123047,-0.30985567549477466,-0.3635657345864094,-10.615729524620628,0.9634964008554759,6.680353681112972,0.6972593834683247
1730865955.9841945,-2.121264934539795,0.9565346837043762,-9.586009979248047,-0.3038471991534968,-0.3742525158968355,-10.625032368408764,0.9624693009255881,6.680330693695713,0.5856719078927702
1730865956.0340698,-2.039263963699341,0.9619608521461487,-9.645097732543945,-0.29824312964945326,-0.3842002145934157,-10.633851467454676,0.965324551805383,6.651467318110633,0.827319927810236
1730865956.0840585,-1.9312196969985962,0.9948458671569824,-9.719782829284668,-0.2953046628530459,-0.3917247705014503,-10.640247912211038,0.9645367784245407,6.6484412013000895,0.7650317578583896
1730865956.1340225,-1.8107657432556152,1.0069457292556763,-9.799466133117676,-0.2966192311281314,-0.3955117716451868,-10.642843536304154,0.963011259477155,6.644435807268465,0.6762498752567044
1730865956.184022,-1.7375962734222412,1.0039891004562378,-9.883305549621582,-0.30282700296522636,-0.39475544277825314,-10.641023440584078,0.9607364307073148,6.639441239661781,0.560839908968475
1730865956.2339506,-1.6901278495788574,0.9899908900260925,-9.963652610778809,-0.31357486060311385,-0.3891781762988771,-10.634987158800243,0.9577083316394329,6.639584301964608,0.8251798837809027
1730865956.2840056,-1.6511867046356201,1.0167818069458008,-10.022025108337402,-0.3276795093553313,-0.3789630737279239,-10.625673674076475,0.9538457512834015,6.63573594739462,0.7625539572758138
1730865956.3338845,-1.626352071762085,1.0566904544830322,-10.058816909790039,-0.3434126217336797,-0.36466763542602154,-10.614586520654761,0.9492179749031502,6.6378720334026,0.8290794958136061
1730865956.3839247,-1.6089198589324951,1.1275053024291992,-10.08283519744873,-0.35881038266610743,-0.3471685361887095,-10.603549752428812,0.9436370791842352,6.634972552510373,0.7688138058957734
1730865956.433835,-1.548673152923584,1.161179542541504,-10.08017635345459,-0.3719421052608949,-0.32762789576943796,-10.594438326953085,0.9372727894159585,6.636364250431206,0.8273229595538731
1730865956.4838657,-1.5168516635894775,1.1840696334838867,-10.051786422729492,-0.3810970326710066,-0.30743181192518776,-10.588922692783605,0.9299512859690457,6.637087670645604,0.8330773515848571
1730865956.533793,-1.4813148975372314,1.1318827867507935,-9.987784385681152,-0.38488964236154266,-0.2880589923768008,-10.588247762258332,0.9216235403096609,6.635171484635216,0.776398143796497
1730865956.5838237,-1.4938756227493286,1.0512200593948364,-9.905617713928223,-0.3823269670119078,-0.2708729121549863,-10.593057412618942,0.9122961779390728,6.632546505362447,0.6929310561869909
1730865956.6337664,-1.5253958702087402,0.9455553293228149,-9.82075309753418,-0.37287614714939044,-0.2568751216018943,-10.603283497170214,0.9020598091902916,6.62927219928767,0.583306424308914
1730865956.683823,-1.6069215536117554,0.8572342395782471,-9.72569751739502,-0.3565405761542795,-0.24649636765911345,-10.61812278026256,0.983515114319464,6.636656286062909,0.82181765151406
1730865956.7337284,-1.7038275003433228,0.803158164024353,-9.66273307800293,-0.3339313273427632,-0.2395051381127196,-10.63611203071293,0.9823255758407005,6.634992041022475,0.7604074115485395
1730865956.7837372,-1.8090814352035522,0.8006678223609924,-9.635173797607422,-0.3063049484423295,-0.2350752195523228,-10.65529997973542,0.980340549191469,6.636482407206422,0.8273792015616097
1730865956.8336544,-1.8927173614501953,0.8072279691696167,-9.634767532348633,-0.27552972407243614,-0.23199557016376895,-10.673505276559293,0.9776424201026352,6.637946737695428,0.8358330270302459
1730865956.883653,-1.9440635442733765,0.8602471947669983,-9.668485641479492,-0.24395121538862166,-0.22895287668631717,-10.688621977561994,0.974278634453875,6.6369980582460695,0.7797854453818542
1730865956.9336395,-1.9826576709747314,0.9154075980186462,-9.733817100524902,-0.21416021963122867,-0.2248088774500849,-10.698916919489944,0.9703352870514602,6.635479165631921,0.6968429018483309
1730865956.9837236,-1.9989776611328125,0.9727869033813477,-9.810914993286133,-0.1887076171386601,-0.2188175774971849,-10.703273941056509,0.9659206327983015,6.6387031966764996,0.8294648349799109
1730865957.033659,-1.9968469142913818,1.0430967807769775,-9.891023635864258,-0.16982649000970906,-0.2107480607371846,-10.701349616559604,0.9610572644410429,6.637688856345271,0.7695213338672666
1730865957.083661,-1.9078164100646973,1.1033395528793335,-9.982389450073242,-0.1591913449864702,-0.20090806953496546,-10.693617068671461,0.9557414170112418,6.6361498920041795,0.6822498558686249
1730865957.1336153,-1.811535358428955,1.1505705118179321,-10.037453651428223,-0.1577080557129328,-0.19008495704006284,-10.681297627637747,0.950145139436721,6.63938860568078,0.8312595828708702
1730865957.1835968,-1.684177279472351,1.158101201057434,-10.068291664123535,-0.1653477650677519,-0.17941447947041553,-10.666189618302354,0.9440625422160341,6.638476609812475,0.7709655837522174
1730865957.2335598,-1.607757568359375,1.1402833461761475,-10.083259582519531,-0.18108357108851927,-0.1701856120153699,-10.65041267392728,0.937543732247168,6.637127519465298,0.6840170970764691
1730865957.2836456,-1.5794684886932373,1.0847864151000977,-10.054425239562988,-0.202990962225982,-0.1636060819681922,-10.636111451333981,0.9305401418307173,6.635360121722134,0.5703915507834314
1730865957.3335211,-1.6266781091690063,1.0333889722824097,-10.00820255279541,-0.2285314007050522,-0.1605731781465274,-10.625166639571795,0.9232498637479706,6.630639269808613,0.8312407583170747
1730865957.3835816,-1.7076492309570312,0.985153317451477,-9.948284149169922,-0.2549753090712102,-0.1615051080506696,-10.618949218081772,0.9153933747343374,6.622772332798137,0.8438827629874169
1730865957.4335127,-1.7534598112106323,0.9991579055786133,-9.872818946838379,-0.27985216189817896,-0.16628409060934693,-10.618152152860024,0.9066188662787329,6.61851947155193,0.7878895263772192
1730865957.4836228,-1.761965274810791,1.019677996635437,-9.80775260925293,-0.30128205955650855,-0.17433545270494694,-10.622721441121026,0.8970836009626239,6.613823901700407,0.7050383905766152
1730865957.5335631,-1.7332777976989746,1.0601274967193604,-9.740081787109375,-0.31809496268564685,-0.18481132382329993,-10.631888525633272,0.8868208829958306,6.608702530733284,0.5960527802177698
1730865957.5835302,-1.7360866069793701,1.0578792095184326,-9.706241607666016,-0.32976294982739385,-0.19679520505704667,-10.644294866791824,0.8757085694405822,6.603084159187562,0.4600176908142567
1730865957.633568,-1.7078824043273926,1.0534155368804932,-9.675688743591309,-0.33625113563398557,-0.20944434258469352,-10.658189970081725,0.8644287922627277,6.607167488884582,0.8338131007130141
1730865957.683474,-1.7233083248138428,1.0290294885635376,-9.678693771362305,-0.33787320354011163,-0.222040973079735,-10.671672420636845,0.8517089488130725,6.6028873610104215,0.7719871289117296
1730865957.733404,-1.7296462059020996,1.0342074632644653,-9.693284034729004,-0.3351838826751554,-0.23398471622582762,-10.682937463426093,0.8390734226176727,6.591643831169918,0.8428540755138723
1730865957.7834828,-1.7782323360443115,1.0552161931991577,-9.738544464111328,-0.32891590256355213,-0.2447834128162475,-10.690500820886957,0.8246924316963363,6.584107524937024,0.7840421052071219
1730865957.833414,-1.8271551132202148,1.1032934188842773,-9.756502151489258,-0.31995641384010104,-0.2540803338735429,-10.69337107777637,0.8095524538294381,6.575975471345528,0.6987721038449352
1730865957.8834038,-1.8970963954925537,1.1459044218063354,-9.80887222290039,-0.3093452059483349,-0.26171272526917255,-10.691142253475128,0.7935710002427342,6.567168943876435,0.5864381073063386
1730865957.933347,-1.9201931953430176,1.1988476514816284,-9.833016395568848,-0.2982638157405641,-0.26776541510306334,-10.683999361428555,1.0263028538789765,6.5763799789031285,0.8368724118655052
1730865957.983341,-1.93211030960083,1.2210768461227417,-9.855461120605469,-0.28797627471618853,-0.27258404234184486,-10.672650591460092,1.025482170693809,6.571019419946433,0.7751910663813628
1730865958.0332818,-1.8952357769012451,1.1917591094970703,-9.863088607788086,-0.2797032421891858,-0.27672251201760933,-10.658199131714364,1.0239679926917902,6.559565233804952,0.8426178424191703
1730865958.0833924,-1.8420480489730835,1.143674373626709,-9.883455276489258,-0.27445034220031284,-0.2808116138378447,-10.641978629326422,1.0217309058314377,6.550791585181639,0.7827407980161168
1730865958.1332362,-1.7618697881698608,1.129366159439087,-9.8805570602417,-0.27283360546996094,-0.2853855767869624,-10.62538922922039,1.0353988210710827,6.543254556071455,0.8427917574805073
1730865958.1833367,-1.694387674331665,1.115341305732727,-9.905627250671387,-0.2749487411399658,-0.2907532297761506,-10.609758849508077,1.0354854103242728,6.533836956197989,0.7829825724276103
1730865958.2332082,-1.6100733280181885,1.094612956047058,-9.931663513183594,-0.2803210090204806,-0.29696307268643796,-10.596245024546622,1.0348815386634103,6.523841331244718,0.6978162049381376
1730865958.2832747,-1.5418109893798828,1.0807050466537476,-9.972339630126953,-0.2879442562490253,-0.3038337150543453,-10.585789077063682,1.0401311622980507,6.524691377452408,0.8388310114885448
1730865958.3331993,-1.499990701675415,1.0729589462280273,-10.015694618225098,-0.2963967540767269,-0.3110091557175761,-10.579115476108562,1.0432641149975896,6.50996599339976,0.8474797667420959
1730865958.383289,-1.4388550519943237,1.0682786703109741,-10.016959190368652,-0.304015201887918,-0.3180273004369516,-10.576747373117964,1.0434754877988626,6.499596609328831,0.7905283319533686
1730865958.4332135,-1.4234479665756226,1.0768064260482788,-10.036955833435059,-0.30909379952290117,-0.3243968363565404,-10.579005047395334,1.0477017438193106,6.486146208577765,0.8426076281711111
1730865958.4831707,-1.4432932138442993,1.1116139888763428,-10.005428314208984,-0.31008306959226695,-0.3296776909755549,-10.585978179455314,1.0483857027777244,6.472353195649268,0.7835868301843022
1730865958.5341525,-1.5085569620132446,1.1484904289245605,-9.962830543518066,-0.30579248232865824,-0.33356488596932193,-10.597482699536116,1.0482906172118798,6.457506699567978,0.696550470401087
1730865958.5831633,-1.5824558734893799,1.1850098371505737,-9.87814998626709,-0.2955872004145975,-0.3359627558260509,-10.613007545757672,1.0500003567133405,6.47863444218158,0.8390788727828788
1730865958.6341417,-1.7026240825653076,1.1562330722808838,-9.797066688537598,-0.2795377732380795,-0.33701232640855827,-10.631663875052757,1.049535977085066,6.47146448175724,0.7773285111024036
1730865958.6841717,-1.8434793949127197,1.0966352224349976,-9.701960563659668,-0.2584951312922933,-0.33702953930104457,-10.652166514907224,1.0484012738341584,6.463581612984087,0.6899047475009794
1730865958.7341104,-1.9647480249404907,1.0394996404647827,-9.635427474975586,-0.23408459026468664,-0.33635743609013524,-10.67287584983331,1.0466556421915,6.454878088528478,0.5761214147086751
1730865958.7841659,-2.0362460613250732,0.9632866978645325,-9.589738845825195,-0.20859505225905908,-0.33520130194548947,-10.691914233793714,1.0519576267731252,6.470640836924544,0.8353514874157237
1730865958.8331368,-2.0580220222473145,0.9396564364433289,-9.595098495483398,-0.18473351258668286,-0.33352386791158384,-10.707355304717137,1.0514313297850943,6.465429261383188,0.7747697680357315
1730865958.8841126,-2.0260348320007324,0.9472898840904236,-9.640368461608887,-0.1652622076208013,-0.3310438094570721,-10.717468213955804,1.054628901225853,6.46001637664449,0.8401302899785795
1730865958.9341154,-1.9630955457687378,1.0134309530258179,-9.721592903137207,-0.15258937437974696,-0.3273493090813465,-10.720980914720062,1.05457547723031,6.453776810575507,0.7798742144231886
1730865958.984118,-1.895137906074524,1.0919886827468872,-9.815616607666016,-0.14840520862784984,-0.32209448369645444,-10.717310023825366,1.0568469214542473,6.446733085766343,0.8408585505206794
1730865959.0339692,-1.8222602605819702,1.1473636627197266,-9.905097961425781,-0.15344335244641719,-0.315199775799808,-10.706700448945872,1.0569473541551135,6.439185944108573,0.7812123989150446
1730865959.0840662,-1.7455374002456665,1.1361726522445679,-9.956357955932617,-0.1674048543455846,-0.3069573239760105,-10.690231252234755,1.0598703552510422,6.434948295710177,0.8406132957157265
1730865959.1339521,-1.700907826423645,1.1482601165771484,-10.000899314880371,-0.18903346825942435,-0.2979852883958133,-10.66967505118511,1.060427540688222,6.426635213528452,0.7809096077438253
1730865959.1839936,-1.7207727432250977,1.1174755096435547,-10.020934104919434,-0.21632319726324414,-0.28907292839657384,-10.647245921998287,1.060478814472269,6.417542996871297,0.6941508629236106
1730865959.233999,-1.7523990869522095,1.134559988975525,-9.988039016723633,-0.24684125783289268,-0.2810092599356647,-10.625295609157915,1.0609645051684191,6.423072201648284,0.8386876894843871
1730865959.2839696,-1.8286563158035278,1.1376848220825195,-9.950651168823242,-0.278111782554876,-0.2744615188637647,-10.606001188436057,1.0603666980482835,6.416808300376097,0.7783667042555422
1730865959.3339097,-1.8731988668441772,1.1633003950119019,-9.883402824401855,-0.30797029131236153,-0.26992453203675726,-10.59108289872011,1.0628254935970884,6.409096235232554,0.8439383111453235
1730865959.3839538,-1.87714421749115,1.2097761631011963,-9.829784393310547,-0.334802177416465,-0.2677291870400036,-10.581600813427574,1.0640002426942972,6.4000041985313825,0.8507360540508836
1730865959.43391,-1.87714421749115,1.2097761631011963,-9.829784393310547,-0.35761410875749144,-0.2680821618933059,-10.577873204022657,1.0631903173036523,6.392387026594589,0.7955435370774547
1730865959.43391,-1.8527741432189941,1.2444229125976562,-9.779115676879883,-0.37596095490011033,-0.27110012489878277,-10.579532574475618,1.0631828705428743,6.392339629724897,0.7951369708158592
1730865959.483997,-1.7791498899459839,1.2536530494689941,-9.761033058166504,-0.38979416820871904,-0.2768199245639278,-10.58567414585633,1.0614300122991114,6.38394993921274,0.7128609327678772
1730865959.5338774,-1.7433054447174072,1.2289862632751465,-9.7857084274292,-0.3992801330008511,-0.2851911815902683,-10.595035474861593,1.065214199133395,6.376249998834992,0.8506683044936019
1730865959.583923,-1.7001326084136963,1.2023404836654663,-9.813427925109863,-0.40464000179656173,-0.29604537943359577,-10.60620098739851,1.0637778875892663,6.367057144975266,0.7943857805381943
1730865959.6338441,-1.658395528793335,1.1724835634231567,-9.855494499206543,-0.40605956445043956,-0.30904633401958065,-10.617823036522466,1.067087263661967,6.352609727613114,0.8518961325423653
1730865959.6838272,-1.589672565460205,1.1396898031234741,-9.88569164276123,-0.40365868967600377,-0.32365849944809255,-10.628807069404804,1.068513176749863,6.335804461583375,0.8573287209362719
1730865959.733828,-1.5081108808517456,1.1046420335769653,-9.922158241271973,-0.3974741145929939,-0.33915463970856863,-10.638420729984638,1.0673728337147068,6.322263372041176,0.8018276710481806
1730865959.7838185,-1.4295170307159424,1.1049782037734985,-9.95274543762207,-0.3874355121645843,-0.3546615987949302,-10.646325261933205,1.065253743043956,6.307900266604003,0.7198705875455732
1730865959.833836,-1.4295170307159424,1.1049782037734985,-9.95274543762207,-0.3733642009074935,-0.36924582150198293,-10.652542786420927,1.0621825560544988,6.292626780775855,0.611250976649677
1730865959.833836,-1.4276865720748901,1.1359474658966064,-9.951932907104492,-0.35504509703899156,-0.38203172038015687,-10.657368991251742,1.0621602471548475,6.292527625116915,0.6104821765923798
1730865959.8838398,-1.4848183393478394,1.1582427024841309,-9.916403770446777,-0.33237410067762885,-0.3923256333818671,-10.661245629194651,1.0695403586087087,6.3140718981192485,0.8478992668741443
1730865959.9337692,-1.4848183393478394,1.1582427024841309,-9.916403770446777,-0.30551601531338557,-0.39970779056600253,-10.664624893005584,1.0714442850784296,6.300314938189991,0.8586400618243036
1730865959.9337692,-1.5948827266693115,1.1681678295135498,-9.850994110107422,-0.2750089390010597,-0.40406024834331206,-10.667858632422789,1.071441913715763,6.300267936958749,0.8584475027740018
1730865959.9839382,-1.7093874216079712,1.1369863748550415,-9.79179573059082,-0.2418200091432902,-0.40552786414871134,-10.671114757720622,1.0706215743831025,6.289538085097485,0.8031411239993214
1730865960.0338023,-1.8193243741989136,1.1080282926559448,-9.737626075744629,-0.20738245719800572,-0.4044319625368137,-10.67431144286148,1.0737965065782396,6.2803859349039435,0.8629017229359758
1730865960.083812,-1.884267807006836,1.1029753684997559,-9.714607238769531,-0.17357546118391412,-0.40116630466131553,-10.677096128075778,1.0735237726566322,6.269265126840811,0.808813490988392
1730865960.1337838,-1.9105286598205566,1.1115912199020386,-9.716594696044922,-0.14258221227035495,-0.39612277208601854,-10.678905315523263,1.0728567153632007,6.257133305389834,0.7280306895690087
1730865960.1837988,-1.9257912635803223,1.116139531135559,-9.744019508361816,-0.1166342550872114,-0.38967439669685205,-10.679099002265017,1.0755605715934504,6.256640497000106,0.8554970589400599
1730865960.2337227,-1.9447674751281738,1.1083884239196777,-9.78177261352539,-0.09772279385968312,-0.38218858402713335,-10.677128413289728,1.0754703787698914,6.245585616719474,0.796174558050642
1730865960.28374,-1.942165493965149,1.0875669717788696,-9.824285507202148,-0.08736419460215446,-0.37402680398466615,-10.672686876364608,1.0774458051221256,6.237642185997273,0.8554979612792757
1730865960.3336928,-1.9253342151641846,1.0885087251663208,-9.844911575317383,-0.08645313462997681,-0.36551981490866126,-10.665801486232064,1.0777148946414983,6.225655872801931,0.7964108267752579
1730865960.383695,-1.8715403079986572,1.0781447887420654,-9.8873929977417,-0.09518582834131653,-0.3569418962090964,-10.65684614003807,1.0777574308514863,6.212746641585588,0.7105778283420366
1730865960.4336674,-1.8378441333770752,1.0401469469070435,-9.917705535888672,-0.11303532819605355,-0.3484970616405425,-10.64649206896581,1.0775402581607794,6.198983743545642,0.5983530901596072
1730865960.48365,-1.7672381401062012,1.032460331916809,-9.951805114746094,-0.1387841666854201,-0.3403034530848583,-10.635627933756439,1.0796691083267183,6.217911414374665,0.8466906193254499
1730865960.5337403,-1.7021394968032837,1.0370874404907227,-9.975760459899902,-0.17061596402639795,-0.33238390399624035,-10.625265950013514,1.0794679819230169,6.210195220913109,0.7844644161149381
1730865960.5838394,-1.65043306350708,1.073177456855774,-10.0149564743042,-0.20625258883161773,-0.3246963960738118,-10.616443179474018,1.082748226718305,6.201382199969744,0.8493701736903073
1730865960.6337297,-1.6014059782028198,1.14634108543396,-10.020565032958984,-0.2431318823326352,-0.31721489214244736,-10.610130272348353,1.0829167539743865,6.192014385867548,0.7892458690843148
1730865960.6836996,-1.6014059782028198,1.14634108543396,-10.020565032958984,-0.27862383870010843,-0.3100273606346834,-10.607146607543374,1.0856377001768487,6.181083872324878,0.8479508435918431
1730865960.6836996,-1.5850491523742676,1.22859787940979,-9.987622261047363,-0.31026778491423385,-0.30339373821257654,-10.608071917004445,1.085639541200706,6.181032621489485,0.8477259049756933
1730865960.733647,-1.6096011400222778,1.2526041269302368,-9.945744514465332,-0.3359966912079791,-0.29774646462787885,-10.61315818980518,1.0856024712099668,6.170015403351783,0.7877491544169636
1730865960.7837098,-1.665219783782959,1.2559261322021484,-9.857342720031738,-0.35431950075442686,-0.2936505815963851,-10.622254494765638,1.0847026994660405,6.15822051573162,0.7010283974121816
1730865960.8336103,-1.7471556663513184,1.2027697563171387,-9.769553184509277,-0.3644595925844349,-0.29170671658521785,-10.63475292860556,1.082909084861953,6.145726284998914,0.5880282770560097
1730865960.8836133,-1.8258168697357178,1.1118991374969482,-9.667461395263672,-0.3664442055099706,-0.2923836083748683,-10.64956932904015,1.0874660613494427,6.130555574687891,0.8499586402502001
1730865960.9335773,-1.8258168697357178,1.1118991374969482,-9.667461395263672,-0.361100713452192,-0.29583857787827994,-10.665195859745658,1.0863406988190774,6.1164694016135295,0.7909416720777454
1730865960.9335773,-1.8815194368362427,1.0185134410858154,-9.608986854553223,-0.3499189575922663,-0.30182053600271286,-10.67986056789093,1.0863313952907014,6.116384157406702,0.790514871063049
1730865960.9835758,-1.8734042644500732,0.954424262046814,-9.58102798461914,-0.3348146606099789,-0.3096738763484035,-10.691754985419022,1.0898778231842763,6.098017283138258,0.8517702662631452
1730865961.033538,-1.8734042644500732,0.954424262046814,-9.58102798461914,-0.3178688879052768,-0.3183991608955401,-10.699245207154776,1.0891321738059125,6.08216943717929,0.7964235716304355
1730865961.033538,-1.824157476425171,0.9195178747177124,-9.613903045654297,-0.30107682067107355,-0.3267749892637467,-10.701045564672679,1.0891249026135494,6.082066149962564,0.7959864973681147
1730865961.0836797,-1.7324042320251465,0.9404146075248718,-9.695297241210938,-0.2861102628411455,-0.33353945704953386,-10.696379334311429,1.0876215582500097,6.0653918870259,0.713781552789797
1730865961.133535,-1.6441199779510498,0.9858413338661194,-9.814929962158203,-0.2741066338305859,-0.33758227630844323,-10.685126410103365,1.0927363202133005,6.042123446916537,0.8502044619812341
1730865961.1836119,-1.5686087608337402,1.074684739112854,-9.920032501220703,-0.2655244260492853,-0.3381280084526892,-10.667930064849084,1.09218060445878,6.0234023120333395,0.7935605736934193
1730865961.2334654,-1.542607307434082,1.151999592781067,-10.003628730773926,-0.2601233424971622,-0.334899087379566,-10.646210511455376,1.0951672676396054,5.9945869295780065,0.848306474660389
1730865961.283573,-1.5542049407958984,1.2301385402679443,-10.041191101074219,-0.25709534322411487,-0.32821213370041086,-10.622037604641154,1.0948645646159707,5.973590889243386,0.7897520829160493
1730865961.3333614,-1.6225168704986572,1.2406723499298096,-10.066964149475098,-0.25531989580636105,-0.31895871960239836,-10.597869885103353,1.0939325226246008,5.952105501948209,0.7058183950442691
1730865961.3834236,-1.7253564596176147,1.2138913869857788,-10.027120590209961,-0.25368373205715367,-0.3084487451550827,-10.576218437074054,1.092355363668822,5.929605206299828,0.5945600440525525
1730865961.4334004,-1.8377536535263062,1.1672279834747314,-9.96264362335205,-0.2513916002356309,-0.2981423320789457,-10.559297029868667,1.0969482073624517,5.895716457763661,0.8397108040472734
1730865961.4834306,-1.8791604042053223,1.118408203125,-9.90227222442627,-0.24818165359576894,-0.2893535795039044,-10.548711960118204,1.0960854257231014,5.8713679711913604,0.7783484687522872
1730865961.5334456,-1.8703622817993164,1.049418330192566,-9.87574577331543,-0.24436063403784125,-0.28301583570551747,-10.545261964360936,1.099319371755597,5.8285694217530635,0.8442109435323583
1730865961.5833516,-1.7904411554336548,0.9940613508224487,-9.860814094543457,-0.2406329122640199,-0.27954713777615625,-10.548905819261769,1.101806146511663,5.777423576587805,0.8498859786597983
1730865961.6333067,-1.6464136838912964,0.9628157019615173,-9.86606502532959,-0.23778242047131656,-0.27882010889364706,-10.558886885199467,1.102018719872441,5.749100004349064,0.7936152357459691
1730865961.683353,-1.5627888441085815,0.9482263922691345,-9.848698616027832,-0.23632190156345317,-0.2802359825012062,-10.573944399660295,1.1016384306456084,5.720007166310391,0.7107565348301444
1730865961.7333167,-1.562458872795105,0.9341247081756592,-9.841981887817383,-0.2362628073774714,-0.28287939801339107,-10.592533189084927,1.1006663483079728,5.690218586478317,0.6014138111405318
1730865961.783527,-1.5797141790390015,0.9555282592773438,-9.840194702148438,-0.2371240491105298,-0.28570515990884415,-10.613009326497714,1.102160722403216,1.585567002476456,0.8397646034706798
1730865961.8334281,-1.656130313873291,1.0449622869491577,-9.828990936279297,-0.23814970760047402,-0.2877316568677244,-10.63377923492789,1.101232833014588,1.4581659389378094,0.778732399713607
1730865961.883437,-1.656130313873291,1.0449622869491577,-9.828990936279297,-0.23859094965555522,-0.28823069486092623,-10.653415240835354,1.0997050296397177,1.3294441531882983,0.6908206250073875
1730865961.883437,-1.7408385276794434,1.130565881729126,-9.812065124511719,-0.23792233117509315,-0.28686194962852196,-10.670733558380626,1.0996963378665139,1.3288303707025086,0.6903388847256453
1730865961.933372,-1.8037424087524414,1.1793253421783447,-9.80042552947998,-0.23596013996782275,-0.2837168349548539,-10.68483370307175,1.097593569587146,1.2005734803416819,0.5767502536732546
1730865961.9834905,-1.8700915575027466,1.1633671522140503,-9.820185661315918,-0.23291558616043817,-0.27928648964711594,-10.695109728862171,1.1020567417599707,1.5826566381573142,0.8447843380350878
1730865962.0333447,-1.9134926795959473,1.100498914718628,-9.80792236328125,-0.22938636731041348,-0.27433475131462626,-10.701252975215247,1.1009354872401664,1.5632820577885476,0.7866262701674411
1730865962.083408,-1.9134926795959473,1.100498914718628,-9.80792236328125,-0.226265276534672,-0.26967912100394226,-10.703244487741664,1.1023108547742024,1.614206035976653,0.8499597724085693
1730865962.083408,-1.9817607402801514,0.9967160820960999,-9.799867630004883,-0.2245853189096139,-0.2659743507868394,-10.701319365111459,1.1023054377921406,1.614168549443962,0.8496626964477411
1730865962.1332574,-2.009242534637451,0.8998187184333801,-9.762540817260742,-0.22536898612261508,-0.2635541610178396,-10.695903292935043,1.1012109794857825,1.6082025139474976,0.7917044538855628
1730865962.1833553,-2.0146119594573975,0.8520634174346924,-9.732019424438477,-0.2295222065913103,-0.26232294216371443,-10.687527592063766,1.1027287030274961,1.6282460999153843,0.8588014982590539
1730865962.2332752,-1.9653370380401611,0.8578269481658936,-9.763777732849121,-0.23773575845337258,-0.26174703032608937,-10.67674648405697,1.1029186645465456,1.6316497180473324,0.8621122296775695
1730865962.2832632,-1.8760980367660522,0.9307280778884888,-9.811843872070312,-0.2503528502243437,-0.261006296881527,-10.66411302377233,1.101824125897604,1.6301228118824769,0.8077235537549559
1730865962.3331802,-1.7786275148391724,1.0387083292007446,-9.875558853149414,-0.2672218521425492,-0.2592737848591422,-10.650233257602295,1.1001002091239391,1.6279680415343076,0.7275190335537091
1730865962.3832405,-1.7020138502120972,1.1243410110473633,-9.926508903503418,-0.287596911139705,-0.256019110265466,-10.6358428394647,1.097653131071267,1.625134064346781,0.6193797183643833
1730865962.4332123,-1.6601722240447998,1.1989141702651978,-9.964488983154297,-0.31015291664162004,-0.2512173097126824,-10.621838275757984,1.1026616279559507,1.6332911788401125,0.8476856266288932
1730865962.4832904,-1.6342209577560425,1.2611186504364014,-9.975395202636719,-0.33313618778341997,-0.24539659847765655,-10.609234211762175,1.1010130764772046,1.631887178293512,0.7861959586083272
1730865962.5331616,-1.622498869895935,1.2675787210464478,-9.962905883789062,-0.35460738281679527,-0.23953851333173493,-10.599053732128223,1.103061608443288,1.6341560417996455,0.8516391054205195
1730865962.5832772,-1.639206886291504,1.2061913013458252,-9.937066078186035,-0.3727058868357117,-0.2348654018201853,-10.592180653240884,1.101312476916245,1.6329313837862534,0.7924131874427549
1730865962.6331246,-1.6860491037368774,1.1449236869812012,-9.880510330200195,-0.38588984599387505,-0.2325491252345045,-10.589211429307428,1.0986311214581304,1.6311333226736477,0.7072297391797784
1730865962.6834114,-1.7109571695327759,1.0855287313461304,-9.83228588104248,-0.3931286908288056,-0.2334210244731877,-10.590338163605807,1.1032750492053771,1.6347641801469737,0.8474889482901093
1730865962.7330935,-1.709753394126892,1.0741137266159058,-9.788422584533691,-0.394009095103057,-0.23779096479122697,-10.595289394010527,1.101246766345279,1.633567821879321,0.7862723845955962
1730865962.7832174,-1.6724727153778076,1.0828081369400024,-9.795247077941895,-0.38871269641723105,-0.24543284203053858,-10.603356510633606,1.1037193934397678,1.6320527943797567,0.8530856692256049
1730865962.8330767,-1.6206578016281128,1.0981696844100952,-9.837224006652832,-0.37787174336526025,-0.2557120154438712,-10.61352247645242,1.101753746393886,1.6296760374293653,0.7939113034548361
1730865962.8830912,-1.5427521467208862,1.13316011428833,-9.84755802154541,-0.3623581133998451,-0.2677783401959774,-10.624666146885644,1.104160429035902,1.6274927350690833,0.8553216316433834
1730865962.933006,-1.5629488229751587,1.1618047952651978,-9.863628387451172,-0.34308523821563547,-0.28075476286849343,-10.635760101295983,1.1023588087523053,1.6239362645540854,0.7973627756197097
1730865962.9830446,-1.629149079322815,1.215698003768921,-9.845447540283203,-0.3209163276307475,-0.29388787586841103,-10.645986645417118,1.0997044592779808,1.6196241073901703,0.7120674472490083
1730865963.0340078,-1.629149079322815,1.215698003768921,-9.845447540283203,-0.29670716553672427,-0.3066448008278141,-10.654763779647055,1.0962364238333406,1.614506196512457,0.5987569828767619
1730865963.0340078,-1.6967530250549316,1.2590280771255493,-9.838217735290527,-0.2713877453401749,-0.3187440184681341,-10.661720312131513,1.0962135954252852,1.6144735124637914,0.5980037061990291
1730865963.084012,-1.7413307428359985,1.2730633020401,-9.82457160949707,-0.2459961825796798,-0.3301317578005616,-10.666658538278412,1.1046831474279748,1.610577198183084,0.8501256830894687
1730865963.1339903,-1.7646113634109497,1.2583575248718262,-9.81188678741455,-0.22166742519830313,-0.3409287168955858,-10.669516271213261,1.103346921209881,1.6040285863649082,0.7917321163599575
1730865963.1839724,-1.7786732912063599,1.2127102613449097,-9.802888870239258,-0.19957714703992369,-0.3513425763471696,-10.670328409217086,1.105858650968996,1.60028756029927,0.8546540260362097
1730865963.233917,-1.8130278587341309,1.14822256565094,-9.807696342468262,-0.1808420357463447,-0.3615404722901733,-10.669198195532623,1.104963434974541,1.592290215883448,0.7962365157565946
1730865963.2838762,-1.809478998184204,1.100132703781128,-9.810400009155273,-0.16641757264855725,-0.3715185908169437,-10.666287445997575,1.103633625156519,1.583356589866442,0.7111055496933266
1730865963.333905,-1.797210454940796,1.1131501197814941,-9.829365730285645,-0.15701410487539091,-0.38103456928249657,-10.661821806265326,1.1070728322928989,1.5787311720261494,0.85069405061316
1730865963.383851,-1.7991148233413696,1.125964879989624,-9.836786270141602,-0.1530251722837074,-0.38965195218585047,-10.65609982756516,1.1063944729094994,1.5681227628333485,0.789898539194345
1730865963.4338167,-1.7826963663101196,1.1695894002914429,-9.845488548278809,-0.15448443395772055,-0.39687832906649523,-10.649493120354663,1.108434667847991,1.565479797688234,0.8534005878833079
1730865963.4838102,-1.7767739295959473,1.2048052549362183,-9.856528282165527,-0.1610686287165576,-0.40232487749752155,-10.642429368313097,1.1080286635085732,1.5533933413573024,0.7938787682650283
1730865963.5337822,-1.8129676580429077,1.1983704566955566,-9.851751327514648,-0.1721465738468329,-0.40581923654644536,-10.635361076721125,1.1093222343501743,1.5518708672291912,0.8525637010510235
1730865963.5838563,-1.865580439567566,1.1427628993988037,-9.82577133178711,-0.18688318645876623,-0.40742067152287254,-10.628721192738116,1.108825167786955,1.5385838896771935,0.793974600671457
1730865963.633715,-1.881205439567566,1.0834192037582397,-9.824111938476562,-0.2043851004911876,-0.4073236702446038,-10.622865889163101,1.107788077069968,1.5234989552498759,0.7043480541722573
1730865963.68373,-1.863053321838379,1.0553536415100098,-9.826824188232422,-0.2238168735128163,-0.4057120818613372,-10.61802927872207,1.1100762645704962,1.522197495128754,0.8510909345264169
1730865963.7337158,-1.8265241384506226,1.0528087615966797,-9.850543975830078,-0.24442551957937458,-0.4026647763417068,-10.614321719128105,1.1091417766528804,1.505563831667556,0.7885622042619157
1730865963.7837036,-1.7715882062911987,1.0776413679122925,-9.877630233764648,-0.26548678936302683,-0.3981647909577693,-10.611771922126643,1.1076538799203208,1.4890528442487343,0.704508476605295
1730865963.8336518,-1.7354477643966675,1.0973707437515259,-9.941924095153809,-0.28623384356401804,-0.3921852421638814,-10.610393145476525,1.1107651140849932,1.491324321205675,0.8500627479291577
1730865963.8837056,-1.689695954322815,1.1317925453186035,-9.966397285461426,-0.3058206951576599,-0.38478948187253526,-10.610253134023374,1.1095516270440717,1.472958701627451,0.789251633739139
1730865963.9335935,-1.6389662027359009,1.1293141841888428,-9.971222877502441,-0.32333499596710963,-0.3761946646559665,-10.611511522829101,1.1075625738898565,1.4537718582060715,0.7024153181105515
1730865963.9836588,-1.6623183488845825,1.1505361795425415,-9.938908576965332,-0.3378518931996889,-0.36677677085441607,-10.614385008203618,1.1113719403218352,6.039623167731684,0.8516473222869533
1730865964.0335605,-1.685981035232544,1.114296793937683,-9.907242774963379,-0.34853737874509283,-0.357022021563875,-10.619046194622852,1.1097755578321984,6.182470181111444,0.7892525471485279
1730865964.0836053,-1.7127622365951538,1.098321795463562,-9.828071594238281,-0.35479220614344287,-0.34744094054353386,-10.625502474712373,1.1119176978146765,6.0169101050653575,0.8557060199716622
1730865964.1335196,-1.7381293773651123,1.0863145589828491,-9.812661170959473,-0.3563735665696758,-0.338472364078641,-10.633501368580824,1.11031456314983,6.045917542571702,0.7966581013119995
1730865964.1835907,-1.7394286394119263,1.1070185899734497,-9.751754760742188,-0.3534395310232665,-0.33042388421703517,-10.642500467679948,1.1124180611271905,5.973035281128775,0.7117164335874604
1730865964.2335656,-1.7783422470092773,1.099996566772461,-9.74980354309082,-0.346516122455618,-0.32347348641143137,-10.651714626178512,1.1108013463306834,5.974872446892447,0.6005402948806151
1730865964.2834716,-1.775434136390686,1.1180026531219482,-9.734968185424805,-0.3364200642796018,-0.3177053136592151,-10.660220262455955,1.1083102569468395,5.975924701278194,0.4614239196841694
1730865964.3334875,-1.775434136390686,1.1180026531219482,-9.734968185424805,-0.32415951953259337,-0.3131445316933962,-10.6670882844751,1.1128202773673035,5.9445747753773155,0.29815414483144526
1730865964.3334875,-1.7961090803146362,1.0978853702545166,-9.74190616607666,-0.3108199276539215,-0.30977650457664574,-10.671513113484341,1.112810230020662,5.944550362388182,0.2967619083873656
1730865964.3834748,-1.8024729490280151,1.096219539642334,-9.761283874511719,-0.2974609496132007,-0.3075431448313508,-10.672913707527279,1.111160896530772,5.941059790723439,0.10624436894355203
1730865964.4334664,-1.8615046739578247,1.0873790979385376,-9.789366722106934,-0.28505359850939016,-0.30632847400366336,-10.671003396807683,1.113979043415302,5.926646339224524,-0.11014099175313913
1730865964.4834557,-1.8906596899032593,1.113863468170166,-9.796687126159668,-0.2744621358743639,-0.3059624236277465,-10.665824336193866,1.112744381839181,5.920694022875252,-0.3557284681917202
1730865964.533443,-1.8843986988067627,1.1354656219482422,-9.818350791931152,-0.26644301993944564,-0.3062570563907076,-10.657734757575126,1.1108394067146279,5.914003912999396,-0.6268379558450135
1730865964.5834439,-1.8520234823226929,1.1645499467849731,-9.829914093017578,-0.2616075377616127,-0.3070629487337218,-10.647352281764068,1.108272206477613,5.906538661277214,-0.9249254184817114
1730865964.6334517,-1.8085271120071411,1.176212191581726,-9.861815452575684,-0.2603316199329845,-0.3083156806140931,-10.635477246295947,1.1143272673531488,5.911638084110598,0.8592864644582103
1730865964.6834452,-1.7181299924850464,1.1627516746520996,-9.876137733459473,-0.26265122555788123,-0.31004329615398907,-10.623017311857897,1.11297981620418,5.90593872692582,0.7979834136885479
1730865964.7333987,-1.6924563646316528,1.1392431259155273,-9.905946731567383,-0.26818833225805494,-0.3123236118598185,-10.610918153174296,1.1149267187803868,5.898379814263779,0.8701861773220994
1730865964.7834475,-1.6710063219070435,1.1597439050674438,-9.915834426879883,-0.2761552448078044,-0.31521635103810997,-10.600097783900848,1.1136804513182785,5.891034209003103,0.8130960946585989
1730865964.8333828,-1.6623401641845703,1.1732234954833984,-9.910504341125488,-0.28546383992079283,-0.3187252443352156,-10.591380059054305,1.1116614200522166,5.882570580573628,0.7264400302262348
1730865964.8834436,-1.664509892463684,1.188157320022583,-9.918722152709961,-0.29489899667479036,-0.3228129475988746,-10.585425286264766,1.1090318480750505,5.873728000577325,0.6181126125808348
1730865964.933397,-1.6572636365890503,1.1673773527145386,-9.908549308776855,-0.30329044480151435,-0.327429712327305,-10.582671780302064,1.1151802315032384,5.883765235334702,0.8671508404256127
1730865964.9834638,-1.6591688394546509,1.130024790763855,-9.90406608581543,-0.3096452560261488,-0.3325074123011857,-10.583304538056101,1.1135912028317743,5.878010053185647,0.8061500176028259
1730865965.0333724,-1.6591688394546509,1.130024790763855,-9.90406608581543,-0.31322984793663144,-0.3379184457390758,-10.587252409344227,1.1156584090434987,5.870784162408235,0.8747966582964444
1730865965.0333724,-1.6374982595443726,1.1253414154052734,-9.897210121154785,-0.3136034853196206,-0.3434485941947873,-10.594212341692932,1.1156489035383803,5.870722830925701,0.8744210236198771
1730865965.0834715,-1.6542800664901733,1.1127800941467285,-9.890379905700684,-0.31061007249149075,-0.34881590669237006,-10.603694432555342,1.1165264319524724,5.858402051594622,0.8896878075697139
1730865965.1333466,-1.6624219417572021,1.1077226400375366,-9.87459659576416,-0.3043504894183581,-0.353711195747888,-10.615072766698653,1.1153293328050284,5.849007743157364,0.8393725830799844
1730865965.183495,-1.6803877353668213,1.1172305345535278,-9.872438430786133,-0.2951585208350528,-0.3578349746881935,-10.627634352378635,1.113370846106378,5.838650582333081,0.7620186141487184
1730865965.2333581,-1.6642932891845703,1.1443051099777222,-9.851571083068848,-0.28356975121316946,-0.36093952070427016,-10.640627878667793,1.1167223355595528,5.844521820986793,0.8790139553387426
1730865965.2835011,-1.676072597503662,1.1518168449401855,-9.866317749023438,-0.27026242411187695,-0.3628798496524366,-10.65331393810251,1.115306801473562,5.837579655017627,0.820198568294453
1730865965.3333554,-1.688549518585205,1.173169493675232,-9.839729309082031,-0.2559835369865232,-0.3636511250125975,-10.665015422600336,1.1174539958453584,5.829986526113903,0.8795356443648262
1730865965.3832452,-1.7406500577926636,1.1670211553573608,-9.839791297912598,-0.24149786487584476,-0.36339149264650766,-10.675157821063175,1.1162951744483525,5.821167424502019,0.8209803280559005
1730865965.4331973,-1.7592371702194214,1.1434805393218994,-9.807424545288086,-0.22757424196255832,-0.36234546474757134,-10.683286843232061,1.1183117362111612,5.815189017148937,0.8767285084662972
1730865965.4832108,-1.7919294834136963,1.1425443887710571,-9.786770820617676,-0.21498139160272356,-0.36079628320559975,-10.68906349208633,1.117363253473107,5.805724670295472,0.8167035562418732
1730865965.5332005,-1.8289555311203003,1.1339582204818726,-9.734051704406738,-0.20446554724913374,-0.35899933888708313,-10.69224142510886,1.115901326475366,5.795445562022676,0.7306073440379429
1730865965.5832748,-1.906752586364746,1.1017496585845947,-9.722082138061523,-0.19672510080857367,-0.3571424745582407,-10.692635430874269,1.1190458575835196,5.799253877842995,0.8707085437863533
1730865965.6332035,-1.9440362453460693,1.0649313926696777,-9.711519241333008,-0.19240720245140142,-0.35531767361652905,-10.69010640760192,1.1181567079997294,5.791003655540809,0.8093531987449654
1730865965.6832056,-1.954621434211731,1.0486096143722534,-9.747272491455078,-0.19210182794532607,-0.35349215429499903,-10.684588725562561,1.1182969821636213,5.78258520937333,0.8725202962797225
1730865965.733109,-1.9300211668014526,1.0519165992736816,-9.785317420959473,-0.19628405881262642,-0.3515064801918775,-10.676159049097416,1.1169933455602323,5.77220413395472,0.8105186218298475
1730865965.7832572,-1.8917458057403564,1.0662336349487305,-9.863221168518066,-0.20520216272883224,-0.34912414289635185,-10.665121378804537,1.1152554556307885,5.761416653513929,0.7251041025583365
1730865965.8331983,-1.8261340856552124,1.0515388250350952,-9.917787551879883,-0.21875701150883473,-0.3461106535711293,-10.65207606448858,1.1129591863527388,5.749551688686389,0.6116624433701571
1730865965.8832433,-1.7325536012649536,1.0188775062561035,-9.973783493041992,-0.23641176811076114,-0.3422877767856005,-10.637939196896559,1.117448075225436,5.768237858372943,0.8658183355308263
1730865965.9331484,-1.6438817977905273,1.0134690999984741,-9.997303009033203,-0.25714698558082083,-0.3375350422189467,-10.623887801363898,1.1159852626337554,5.76194926797657,0.8037806283919742
1730865965.9832146,-1.6068297624588013,1.0392526388168335,-10.010113716125488,-0.2794846267618277,-0.33177599551325476,-10.611233427003466,1.1168262472750468,5.750709599740942,0.8713359750471292
1730865966.0331244,-1.5930547714233398,1.1113393306732178,-9.983500480651855,-0.30161774564852273,-0.32500878858399196,-10.601250207138552,1.1150846521425106,5.741049795955618,0.8119492870094477
1730865966.0831685,-1.6152253150939941,1.2080261707305908,-9.939994812011719,-0.3216432426480415,-0.3173966074312029,-10.594988040115442,1.1161202745282264,5.736891776522415,0.8717127898653717
1730865966.1329873,-1.6628810167312622,1.2549554109573364,-9.904179573059082,-0.3378393974230605,-0.30937080770620073,-10.593105896859049,1.1141456302772057,5.727876526609978,0.8127547582453931
1730865966.183079,-1.7237470149993896,1.2498868703842163,-9.840123176574707,-0.3489211496583761,-0.3016571396769128,-10.595764495690748,1.1112944163739022,5.718022056944186,0.7267694328109182
1730865966.232996,-1.7540323734283447,1.1959750652313232,-9.810408592224121,-0.3542183604766649,-0.29516055678186137,-10.602598796227138,1.1153285575517953,5.718176882638146,0.8682951149932613
1730865966.282932,-1.7761001586914062,1.1373709440231323,-9.77637004852295,-0.3537321190840891,-0.29073824956811606,-10.612770370754177,1.114887265382326,5.7025488767046735,0.8768702514816445
1730865966.3329697,-1.7739691734313965,1.080772876739502,-9.734260559082031,-0.3480601625236457,-0.2889640736212005,-10.62508541685439,1.11269611944599,5.691910826283384,0.8199361491606356
1730865966.3838212,-1.7863746881484985,1.0190056562423706,-9.72805404663086,-0.33823364623903207,-0.2899761326804974,-10.638145281879005,1.1136817014793763,5.683856147038588,0.8708972245838128
1730865966.4338863,-1.7863746881484985,1.0190056562423706,-9.72805404663086,-0.32552892429131125,-0.29344322558536573,-10.650507679256423,1.1112906161201974,5.672083852695758,0.8109673997478252
1730865966.4338863,-1.763444423675537,0.9958710074424744,-9.702902793884277,-0.31129455272653217,-0.2986467163071793,-10.66084638754911,1.1112104631978639,5.6717373924369,0.8088662796287781
1730865966.4838243,-1.7485802173614502,0.980993390083313,-9.72205638885498,-0.29679897324253435,-0.30463567593352275,-10.668078324059916,1.1081288132415792,5.659605179583102,0.7245972123653898
1730865966.5338418,-1.7739217281341553,0.9647471904754639,-9.749009132385254,-0.28311272094224005,-0.3103854039032508,-10.671448983981811,1.1136446077719888,5.669545930163841,0.8730454610987344
1730865966.5839176,-1.776928424835205,1.0090956687927246,-9.792386054992676,-0.27105791850037186,-0.3149303307627305,-10.670598631832618,1.1118768756531148,5.661831685984182,0.8152321809255911
1730865966.6337254,-1.7719019651412964,1.0469619035720825,-9.85647201538086,-0.26121609863709083,-0.31749368129927363,-10.665611168593035,1.1133386756878665,5.651174471724519,0.8733646493414674
1730865966.6840096,-1.742720127105713,1.0767850875854492,-9.918389320373535,-0.2539409467861805,-0.31761070329849705,-10.657030387124768,1.1116188935272895,5.640954969652345,0.814419187250276
1730865966.733826,-1.7308605909347534,1.0838773250579834,-9.983128547668457,-0.24935075091143155,-0.3151936888863701,-10.645833007403764,1.1131184239003413,5.6370577108324875,0.871640139480789
1730865966.7839155,-1.7244657278060913,1.1198302507400513,-10.016728401184082,-0.24732569163021384,-0.3105105830064854,-10.6333478849326,1.1115201753396815,5.627518302216948,0.8123555261097436
1730865966.8337839,-1.7244657278060913,1.1198302507400513,-10.016728401184082,-0.24754003349498452,-0.3041079060902532,-10.62111260852502,1.1140166313761457,5.619680227885849,0.8707847899262806
1730865966.8337839,-1.6922295093536377,1.1217204332351685,-10.01152515411377,-0.24952173950829445,-0.29671105356232064,-10.61067587874315,1.1140086677355527,5.619604159727098,0.8703898094117435
1730865966.8839517,-1.6949405670166016,1.091368556022644,-10.003122329711914,-0.25270860667380673,-0.28910646898792836,-10.603389128884903,1.1127667665441086,5.610406197349751,0.8112135406710007
1730865966.9338105,-1.6541407108306885,1.079060673713684,-9.937772750854492,-0.2564903427854628,-0.28201562171704164,-10.60023620914266,1.1151928775896889,5.604564005150361,0.8787384129731779
1730865966.9837117,-1.6971153020858765,1.0559735298156738,-9.882655143737793,-0.2602508978036003,-0.2759908457529099,-10.601709222274245,1.1141827698405549,5.5954959114948215,0.8236059592277012
1730865967.0336804,-1.7184339761734009,1.0200108289718628,-9.829143524169922,-0.26343425742793247,-0.27135425609515607,-10.607732700812837,1.116771286215439,5.586235564093335,0.8749334580680175
1730865967.0837424,-1.7796587944030762,0.9819168448448181,-9.78043270111084,-0.26563977555616974,-0.26817218436943,-10.617665091476699,1.1161143830729752,5.574330115376304,0.8169133582153243
1730865967.1336548,-1.7767276763916016,0.9837790727615356,-9.749464988708496,-0.26670695743876816,-0.2662594674250195,-10.630388662759689,1.1147999896433123,5.5618681405383965,0.732942889462169
1730865967.1838517,-1.7815088033676147,1.03798508644104,-9.75819206237793,-0.26673206291768,-0.2652407036017888,-10.644469830460471,1.117640980980623,5.56966351442149,0.8681265438826544
1730865967.2337184,-1.7815088033676147,1.03798508644104,-9.75819206237793,-0.2660047263600197,-0.26467858073231676,-10.65836672439383,1.116575876687173,5.561465541703549,0.8077428856999519
1730865967.2337184,-1.7619465589523315,1.1153185367584229,-9.77953052520752,-0.26490748613167564,-0.2642156293412464,-10.670643788963766,1.116564856985017,5.561398319844591,0.8071617910821203
1730865967.283684,-1.7306779623031616,1.2181533575057983,-9.794438362121582,-0.2638158327954533,-0.2636901071774551,-10.680145315562063,1.114848793913089,5.552594883474126,0.7206682754723581
1730865967.3336196,-1.73723566532135,1.2622041702270508,-9.825244903564453,-0.2630138469967277,-0.263231780821226,-10.686105947687613,1.1124667831435788,5.54307447965443,0.6070448733176258
1730865967.3837023,-1.7728885412216187,1.2536513805389404,-9.841352462768555,-0.26265891006629094,-0.2632887912246398,-10.68819879300965,1.1188894896393171,5.5576156273973725,0.8712441932334634
1730865967.4336104,-1.7957485914230347,1.2329119443893433,-9.852080345153809,-0.2628196725541657,-0.2645185672345565,-10.686523618598267,1.1178153699854338,5.551725502721114,0.8125682526733453
1730865967.4835632,-1.8130037784576416,1.187165379524231,-9.869086265563965,-0.263548261693771,-0.26758109248899903,-10.681541661893451,1.1201638263605558,5.53791705290141,0.872561786302292
1730865967.5335834,-1.8130037784576416,1.187165379524231,-9.869086265563965,-0.26492397897638725,-0.27294144691970257,-10.673977327259543,1.1191884996043266,5.529377703717145,0.8138607358965336
1730865967.5335834,-1.8403993844985962,1.1168467998504639,-9.861696243286133,-0.2670524155786423,-0.28075145424508996,-10.664706140424697,1.119177798552567,5.529305051127289,0.8132708754563227
1730865967.5836523,-1.8365612030029297,1.1099493503570557,-9.855596542358398,-0.2700464943963591,-0.2908108144369416,-10.65463852963482,1.1225974098976566,5.514309283425114,0.8760479148787746
1730865967.6335382,-1.8015090227127075,1.1125519275665283,-9.858222961425781,-0.2739991247237299,-0.30259417128639443,-10.644617161206147,1.1244909515830397,5.498018601840351,0.8794390513018027
1730865967.683565,-1.7416749000549316,1.0947171449661255,-9.853496551513672,-0.2789255660407364,-0.3153462848362325,-10.635348599611179,1.1242455142202497,5.485193314204696,0.8247734420836981
1730865967.7336876,-1.707353949546814,1.0896289348602295,-9.870576858520508,-0.2846806894791566,-0.3282093131131109,-10.627373054246863,1.123284178759517,5.4714228341539,0.7426389515179223
1730865967.7836096,-1.6856294870376587,1.0882185697555542,-9.87708854675293,-0.29090719846852015,-0.3403312475152832,-10.621065542230387,1.121608550104239,5.456932815694806,0.6345400599820018
1730865967.833548,-1.6856732368469238,1.1131680011749268,-9.89499282836914,-0.29706149350119815,-0.35095363045359856,-10.616658417699,1.1258493239495837,5.477212026875968,0.8660904515357384
1730865967.8835711,-1.6620116233825684,1.1451038122177124,-9.884458541870117,-0.3025033937839943,-0.35949601760364086,-10.614267414297235,1.124775541256059,5.468371764484158,0.8044322876471662
1730865967.9334772,-1.6606212854385376,1.1801331043243408,-9.870457649230957,-0.3065974677069452,-0.3656327287377518,-10.613901371619473,1.1276894479877424,5.457186191537023,0.8703458230344862
1730865967.9834714,-1.653437852859497,1.1797866821289062,-9.851520538330078,-0.30879245008565553,-0.3693344197828035,-10.615450498561522,1.1268945822768215,5.445389079667229,0.8112517463338816
1730865968.0334425,-1.6758476495742798,1.1824043989181519,-9.821070671081543,-0.3086819224591163,-0.3708453895803643,-10.618668324556303,1.1253289831035378,5.432669042447324,0.7256560147259429
1730865968.0835173,-1.7237505912780762,1.1566532850265503,-9.81063461303711,-0.3060621823425703,-0.3705984194851133,-10.6231664726769,1.1229698537660269,5.418887650430086,0.6123369288709614
1730865968.1334534,-1.7996176481246948,1.1426687240600586,-9.782665252685547,-0.3009981543285485,-0.36910032724799935,-10.628433029076927,1.1290554622958706,5.440075546748765,0.8640996121153603
1730865968.1835039,-1.8628112077713013,1.1092867851257324,-9.77823543548584,-0.29388710937236884,-0.36682406589410776,-10.633874108277977,1.1277977332894715,5.432638724088114,0.8022893587656763
1730865968.2334023,-1.8774480819702148,1.0935637950897217,-9.79169750213623,-0.28547521244919105,-0.36412983690698875,-10.638874463011776,1.131398714370624,5.419831981141218,0.868818206146737
1730865968.2834685,-1.8534674644470215,1.108945369720459,-9.822172164916992,-0.2767736624976833,-0.3612316855090697,-10.642879455901127,1.133233095605767,5.400031313868783,0.8747517198411003
1730865968.3333826,-1.7973651885986328,1.1064001321792603,-9.855999946594238,-0.2688688546816643,-0.3582197091495874,-10.645489592849872,1.1328621554919356,5.3854882320833495,0.8178745335898661
1730865968.3833833,-1.749116063117981,1.0848197937011719,-9.900351524353027,-0.26268831095269635,-0.35511147023467354,-10.646539967085697,1.1318324339173846,5.370134647116779,0.7348300504142721
1730865968.4334073,-1.6887575387954712,1.0780417919158936,-9.944061279296875,-0.2588078707086578,-0.35188431473365267,-10.646142883284629,1.130140612354144,5.353774523264033,0.6244313180496712
1730865968.4834383,-1.660573959350586,1.0784896612167358,-9.943114280700684,-0.2573549335556609,-0.3484839730400971,-10.644680845719993,1.1346117273506269,5.379209004666698,0.862935062407938
1730865968.5333052,-1.6808581352233887,1.0688133239746094,-9.9386625289917,-0.25802699092058146,-0.3448375667221329,-10.642735087598936,1.1359425895634774,5.36390311004602,0.8733242040134133
1730865968.5834394,-1.6925055980682373,1.0484857559204102,-9.91047477722168,-0.26021932184753277,-0.3408709775443188,-10.640957014762463,1.1352209401268984,5.352974761285426,0.8160083169716552
1730865968.6333168,-1.7340891361236572,1.0040960311889648,-9.874168395996094,-0.26321279967981126,-0.33650687183809713,-10.639922854877177,1.137923433345759,5.3478798266881125,0.8686031893364934
1730865968.6832635,-1.7513102293014526,0.9668171405792236,-9.831408500671387,-0.26634995688997937,-0.3316359055935253,-10.640010515803512,1.1373607985973466,5.338050074714432,0.8095175179564497
1730865968.7332773,-1.7555934190750122,0.9132131338119507,-9.825553894042969,-0.2691495230859256,-0.32607914139730304,-10.64132661013449,1.136124765804751,5.32735535534977,0.7235182249374672
1730865968.783267,-1.7511773109436035,0.8991687297821045,-9.808719635009766,-0.27133962933739086,-0.31956923492341005,-10.643706423277045,1.138857422603693,5.3279995216469045,0.8644113997259602
1730865968.833155,-1.7669599056243896,0.9138646125793457,-9.811017036437988,-0.2728282547848857,-0.3117778380435605,-10.646779953029357,1.137845858717157,5.318512085994697,0.8034965341680942
1730865968.8833268,-1.7647291421890259,0.9623916149139404,-9.817171096801758,-0.27365618108800266,-0.30240532051048175,-10.650068677457524,1.1361503269906323,5.308255945443434,0.7159269860382802
1730865968.9331322,-1.774051547050476,0.9942019581794739,-9.836055755615234,-0.2739568713626035,-0.2913085677409286,-10.653085911695666,1.1401474331838015,5.310122828140371,0.8639686050402494
1730865968.9830694,-1.7563841342926025,1.0308074951171875,-9.850176811218262,-0.27391778392059596,-0.278604468988877,-10.655426562092206,1.1390860835743606,5.3018766002442845,0.8031429283535482
1730865969.0331802,-1.7563841342926025,1.0308074951171875,-9.850176811218262,-0.27373646898612425,-0.2646975750024876,-10.656828355452891,1.1373222313794293,5.292862090205597,0.7147850287116727
1730865969.0331802,-1.7418923377990723,1.052126407623291,-9.863423347473145,-0.273578386211633,-0.25022611947177015,-10.657190763233807,1.1373042979485735,5.292782758538455,0.7139198629748462
1730865969.0830772,-1.7634446620941162,1.1164103746414185,-9.859697341918945,-0.27355276369300885,-0.23597162267830643,-10.656558814641343,1.1349133971188075,5.283388917165423,0.6016600834381208
1730865969.1331055,-1.7613576650619507,1.1499154567718506,-9.857751846313477,-0.27371744970548695,-0.22279230576111617,-10.655088017392853,1.141625173296269,5.289227577395545,0.8653883719855311
1730865969.1830616,-1.7668864727020264,1.152148723602295,-9.854114532470703,-0.2741014744451732,-0.21157805663525714,-10.65299929749672,1.1433559022425048,5.269453681866507,0.8743161286182459
1730865969.2330203,-1.7597706317901611,1.146106243133545,-9.849930763244629,-0.2747204918213231,-0.20317326161933608,-10.650533673294229,1.1426414546760897,5.258441145852093,0.8182441745646585
1730865969.2830868,-1.7832831144332886,1.1196283102035522,-9.831854820251465,-0.2755802063328252,-0.19825932193647156,-10.647914417807467,1.145142802924568,5.249344501970476,0.8685504325558127
1730865969.3329446,-1.7911642789840698,1.0579688549041748,-9.824539184570312,-0.2766850995910952,-0.19723434281015254,-10.645315374976716,1.144458529089308,5.238975790808371,0.8100492667929231
1730865969.3830001,-1.793712854385376,1.0126854181289673,-9.833224296569824,-0.27805465027516174,-0.20011599786123063,-10.642841855479062,1.1476433894591092,5.229514976336059,0.8656697405152043
1730865969.432937,-1.7517714500427246,1.0202561616897583,-9.849518775939941,-0.27972023658113265,-0.20650127560214843,-10.640540418166704,1.1471330991751814,5.21917370144135,0.8059467920240314
1730865969.4829564,-1.7155946493148804,1.0792349576950073,-9.881749153137207,-0.28168065847027474,-0.21563778093316643,-10.638439219267635,1.150078849464946,5.208097414500692,0.8638274907423957
1730865969.532836,-1.6973638534545898,1.1483683586120605,-9.885079383850098,-0.28383838203871825,-0.2266158161525963,-10.63659653946554,1.1496818437486471,5.1964467893407065,0.8040888036357716
1730865969.5827827,-1.6990910768508911,1.1914793252944946,-9.90003490447998,-0.28597172520860975,-0.23860189698646678,-10.635126333010362,1.148566845495005,5.1841285495018345,0.7172242366819027
1730865969.6338701,-1.7048535346984863,1.1952179670333862,-9.894710540771484,-0.2877716524793724,-0.2509992627858784,-10.634187331806322,1.1466878787441777,5.1709454072833445,0.6011867522519299
1730865969.6838133,-1.7279154062271118,1.140415906906128,-9.889106750488281,-0.28892070881072,-0.26346689647237875,-10.633946963076879,1.144137942199602,5.157481660684967,0.4616942713535511
1730865969.7338028,-1.727390170097351,1.0967813730239868,-9.850716590881348,-0.2891737052911446,-0.2758100849170551,-10.634531851696774,1.1517816640924208,5.192194594490452,0.2949278195820007
1730865969.7837937,-1.7448590993881226,1.0502889156341553,-9.854978561401367,-0.28840955143629393,-0.28782539595196444,-10.635975162729617,1.1506413422033435,5.186024133005261,0.10234512606597815
1730865969.8337355,-1.7205950021743774,1.0371060371398926,-9.837763786315918,-0.2866408696882575,-0.2991955424888877,-10.638187067130001,1.1545797132692759,5.173829377080179,-0.11605153539885933
1730865969.8838043,-1.7044275999069214,1.004769206047058,-9.838481903076172,-0.2839815417835038,-0.30947364573963154,-10.640965891441189,1.1540814525708005,5.16391418501476,-0.3628472573289084
1730865969.9337204,-1.6762114763259888,1.0011883974075317,-9.852025985717773,-0.28058468411792675,-0.31813270918651504,-10.644038744233898,1.152878961920581,5.153241717644648,-0.6355705284568027
1730865969.9836867,-1.6579885482788086,0.9812003374099731,-9.872231483459473,-0.2765794357006346,-0.32463971108821527,-10.64711943537114,1.1509854656218326,5.141790205603782,-0.9342567576666705
1730865970.0337353,-1.6788157224655151,1.0039273500442505,-9.869159698486328,-0.2720389066050276,-0.32853271507070037,-10.649970004645166,1.1568193867950982,5.15269165860766,0.8431006887171297
1730865970.0836577,-1.7302862405776978,0.9892690777778625,-9.866273880004883,-0.26700528234951015,-0.32949248000720344,-10.652435893948349,1.155890744373463,5.145152892066082,0.7779123156153575
1730865970.1336935,-1.7561147212982178,1.0005706548690796,-9.84821891784668,-0.2615677700009507,-0.3273926148912159,-10.654438728876144,1.1597439794695719,5.135081421571731,0.8508867729944635
1730865970.1836424,-1.7367112636566162,1.0267400741577148,-9.844929695129395,-0.255929807035979,-0.322319039261295,-10.65594327432185,1.1601970914904725,5.116359377984213,0.854219031944426
1730865970.2335315,-1.7292639017105103,1.0034098625183105,-9.847564697265625,-0.2503969059742304,-0.3145666200265369,-10.656928222992363,1.1595528921743758,5.102157565180806,0.7956326186835131
1730865970.283596,-1.7082710266113281,1.0320013761520386,-9.856908798217773,-0.24529621005967203,-0.30460982934759123,-10.657380683608451,1.158283201466865,5.087080785659372,0.7099337816044362
1730865970.3336132,-1.7297741174697876,1.0265306234359741,-9.872505187988281,-0.24089706821097795,-0.29304991796304203,-10.657312764738837,1.156377311613071,5.071067696747244,0.5959997161325429
1730865970.3835676,-1.73284912109375,1.026072382926941,-9.879054069519043,-0.2373806582492736,-0.28055803264861384,-10.656783816633274,1.1601848736378813,5.102958913247614,0.8411549067422902
1730865970.4335475,-1.7507237195968628,1.0402652025222778,-9.899032592773438,-0.2348549399482281,-0.26781898451443487,-10.655913294602435,1.159036584879763,5.095778258965804,0.7787688859577756
1730865970.4835615,-1.7441734075546265,1.067531943321228,-9.886956214904785,-0.23338068894607036,-0.2554857648866896,-10.654876930209738,1.1573033264532115,5.087947932665102,0.6897662311917089
1730865970.5335526,-1.7646288871765137,1.0706843137741089,-9.89332103729248,-0.2329850912952094,-0.2441592428921036,-10.653882965855619,1.162848972893721,5.09274390590247,0.8396591495681053
1730865970.583584,-1.8092890977859497,1.0768513679504395,-9.85693645477295,-0.23367435680292287,-0.23437465518808054,-10.653130140868566,1.16214838531919,5.0871190279686935,0.7785937406715678
1730865970.6335008,-1.8451093435287476,1.0780317783355713,-9.835271835327148,-0.23546820194406215,-0.2265737675533548,-10.652754240265644,1.1608536016117943,5.08083739399125,0.6901112755237797
1730865970.6835158,-1.8778879642486572,1.068177342414856,-9.794242858886719,-0.23844458753525377,-0.2210702650320332,-10.652774759780401,1.1659833598513338,5.074266002364772,0.8373371484361186
1730865970.7335863,-1.8792659044265747,1.0619271993637085,-9.761591911315918,-0.24275459383784728,-0.21802111602086133,-10.653058959252853,1.165558072605486,5.066700472108904,0.774982570346632
1730865970.7835293,-1.8781741857528687,1.0342954397201538,-9.767451286315918,-0.24858627721719473,-0.2174073605361972,-10.653321945902515,1.1686825899815314,5.056383603975027,0.8397764157698216
1730865970.8334446,-1.8452465534210205,1.0448501110076904,-9.792409896850586,-0.2560895227812176,-0.21902964010478687,-10.653182024178433,1.170643804964673,5.043641903289706,0.8446921582306247
1730865970.8834481,-1.7909832000732422,1.0523160696029663,-9.833215713500977,-0.265284447335725,-0.22253397991782722,-10.652270644667132,1.1706630290563709,5.032882614491789,0.7868680098234995
1730865970.9334626,-1.7380390167236328,1.0403714179992676,-9.891928672790527,-0.2759730047483573,-0.22747006494555042,-10.650360054829363,1.1700041091353717,5.021597502179228,0.7025593363625251
1730865970.9834626,-1.6841381788253784,1.027842402458191,-9.939653396606445,-0.28768113702905146,-0.23334869697971578,-10.647464946802785,1.1686460600293551,5.009776883141088,0.5920324020802988
1730865971.0333781,-1.598343849182129,1.0370818376541138,-9.97574520111084,-0.2996515346268024,-0.23967547068787262,-10.643887290675664,1.1723175970735136,5.029386870419342,0.8335814834357281
1730865971.083417,-1.5712602138519287,1.0332560539245605,-9.993497848510742,-0.3108824334417054,-0.24597900284275737,-10.640187116305523,1.1713399310713808,5.023055203680865,0.7713098738991349
1730865971.133399,-1.550557255744934,1.039259433746338,-9.944525718688965,-0.3202174029153308,-0.25184594411548655,-10.63707793883201,1.174678183610097,5.015187571204716,0.8395072395051968
1730865971.1834455,-1.5575945377349854,1.0153611898422241,-9.915091514587402,-0.3264951803211633,-0.2569461414281314,-10.635261085607265,1.174054925665784,5.006646762959292,0.7801329732976104
1730865971.233443,-1.6128383874893188,0.9890211224555969,-9.859123229980469,-0.32873437110796383,-0.2610292661216894,-10.635246006993409,1.1726126324896946,4.99746011412386,0.6941785324470814
1730865971.283348,-1.6128383874893188,0.9890211224555969,-9.859123229980469,-0.3263069989977474,-0.26389830860450403,-10.637227705313883,1.1703571400844488,4.987638790173118,0.5818982922568123
1730865971.283348,-1.700724482536316,0.9786924719810486,-9.800239562988281,-0.3190556219294516,-0.26539170400237655,-10.641058131728435,1.1703344813816288,4.987552470812966,0.5808301318438296
1730865971.3333108,-1.7688379287719727,1.0146944522857666,-9.755945205688477,-0.3073441343996499,-0.26539760934383033,-10.646281996360027,1.1761002616914555,5.002598995369313,0.8359502281586444
1730865971.3833656,-1.8208271265029907,1.02140212059021,-9.763900756835938,-0.29205876943223774,-0.2638944778226654,-10.652198282843637,1.1786205237284737,4.989371628640581,0.8460767436597971
1730865971.433279,-1.8217395544052124,1.0340009927749634,-9.765320777893066,-0.2745338677386915,-0.2609900064403734,-10.657961145703958,1.1782048405175212,4.980901585536547,0.7904428202047572
1730865971.48329,-1.782911777496338,1.0537012815475464,-9.80487060546875,-0.2563670938992676,-0.25692980782209307,-10.662729599979652,1.1834766039410916,4.971768011761141,0.8412250046063654
1730865971.5332751,-1.7525897026062012,1.0612386465072632,-9.85537052154541,-0.23915583535700843,-0.2520765184886093,-10.665828208594307,1.1840723947724667,4.962049614950788,0.7823214446852864
1730865971.5832372,-1.7406247854232788,1.1116029024124146,-9.87990665435791,-0.22424680116231543,-0.24688070036586132,-10.666876364036952,1.1840889094008062,4.9517313149509725,0.6969502849105523
1730865971.633259,-1.770524501800537,1.115897536277771,-9.90289306640625,-0.21259075180116105,-0.2418572749893108,-10.665848762252642,1.1835569457085389,4.940742745646212,0.5843206690934826
1730865971.683197,-1.7900440692901611,1.1545110940933228,-9.899785995483398,-0.20473134229130419,-0.23756153106488564,-10.663046663368217,1.1877504753676098,4.959450462559295,0.8346184725218885
1730865971.7331789,-1.8505797386169434,1.163799524307251,-9.896068572998047,-0.20088694392229808,-0.23455313769522118,-10.659000052454584,1.1891102534021092,4.948267095058218,0.8450137575522585
1730865971.783353,-1.8653908967971802,1.1624170541763306,-9.862640380859375,-0.20106263015214504,-0.23334810442380594,-10.654337349977695,1.1890706744904431,4.940525602146289,0.7876012762294824
1730865971.8332534,-1.84821355342865,1.119704008102417,-9.858514785766602,-0.20513278535919702,-0.23435310497644585,-10.649655440075527,1.1885245665885729,4.9322562605636975,0.7040198718136926
1730865971.8832345,-1.8270213603973389,1.114829421043396,-9.805334091186523,-0.2128529204388313,-0.23778356330419753,-10.645417124814273,1.1874508842746643,4.923345544447101,0.5932303464719675
1730865971.9334147,-1.793975830078125,1.0453251600265503,-9.822367668151855,-0.22381806845590385,-0.24359575067288408,-10.641890903982727,1.1910071184728328,4.933435937348627,0.83411524339604
1730865971.9832606,-1.7209333181381226,1.0137131214141846,-9.828447341918945,-0.2374168962580959,-0.25145307373066034,-10.639147843301448,1.1903864952452585,4.927994058494082,0.7729225485150196
1730865972.0332992,-1.6012029647827148,0.9719731211662292,-9.870986938476562,-0.25279001785055066,-0.2607290037235059,-10.637124631186055,1.1933036036386784,4.918143371398544,0.8396983828632575
1730865972.0832047,-1.5673483610153198,0.9927900433540344,-9.874567985534668,-0.26879380563802685,-0.27056569521050733,-10.635720721012667,1.1929914105469652,4.909693557629476,0.7801729604506088
1730865972.133241,-1.5617990493774414,1.0194441080093384,-9.915316581726074,-0.28403483002986596,-0.2800045916885592,-10.634876663832076,1.1954248177330649,4.903151481038064,0.8399351818810196
1730865972.1831715,-1.576568603515625,1.0584110021591187,-9.886327743530273,-0.2970311035620623,-0.2881632065929358,-10.634606301670917,1.1950242511004934,4.894195750609664,0.7811296728992474
1730865972.2332606,-1.631142258644104,1.0728533267974854,-9.91388988494873,-0.3064518157926797,-0.294394024986126,-10.634981770804178,1.193861865635953,4.884386364520168,0.6948601019707296
1730865972.283102,-1.7173388004302979,1.079965353012085,-9.86382007598877,-0.31135225013920587,-0.29836662235148925,-10.6360871326552,1.1970012953247682,4.8907488630593745,0.836996793476081
1730865972.3331964,-1.82231605052948,1.1077828407287598,-9.826631546020508,-0.31136335622978495,-0.3000648295902947,-10.637954662416213,1.1959690914905536,4.884292873320328,0.7758054809327556
1730865972.383157,-1.8533849716186523,1.1184059381484985,-9.800682067871094,-0.3067968777918161,-0.29973771888950307,-10.640494254492886,1.1999811707050552,4.875691963209112,0.8401691609123072
1730865972.4330823,-1.8954871892929077,1.0949914455413818,-9.761144638061523,-0.2986101511495297,-0.29783089124502593,-10.643449312093427,1.1995549449515412,4.867068819265771,0.7807590052768799
1730865972.4830406,-1.8989217281341553,1.0262970924377441,-9.779446601867676,-0.2882281750248257,-0.29488097750930464,-10.64640950695357,1.1984029010624653,4.857764512399722,0.6952968003473896
1730865972.5331557,-1.8536771535873413,1.0082930326461792,-9.78778076171875,-0.2772854197370301,-0.29137242364024596,-10.648882380705977,1.1965181301331065,4.847579063065157,0.5816084572972233
1730865972.5831227,-1.783974289894104,1.004658818244934,-9.84261703491211,-0.2673400016636087,-0.28762355449141813,-10.650408380277678,1.2025020353651203,4.8617977306760105,0.8347315868707152
1730865972.6330674,-1.783974289894104,1.004658818244934,-9.84261703491211,-0.2596133574649233,-0.28376720210298145,-10.650679669226282,1.2063952692009612,4.841527589836715,0.845281917587312
1730865972.6330674,-1.7528783082962036,1.0574264526367188,-9.855023384094238,-0.2548401709630965,-0.2798151184746729,-10.649608076711132,1.2064049099730052,4.8414124076798695,0.8449295400326824
1730865972.6830595,-1.7219197750091553,1.080628514289856,-9.910914421081543,-0.2532544341887056,-0.27576071771982724,-10.647326385117823,1.209206490530492,4.827046153804413,0.8562314758392257
1730865972.7331333,-1.7219197750091553,1.080628514289856,-9.910914421081543,-0.25465316110539626,-0.2716702780674683,-10.644161697475946,1.2102531575801965,4.812485417187292,0.80543036698056
1730865972.7331333,-1.704637885093689,1.1132997274398804,-9.919187545776367,-0.2584961194845717,-0.26771540009556294,-10.640595400316494,1.2102588183058927,4.812368746817723,0.804926924001316
1730865972.7830756,-1.6880874633789062,1.1303209066390991,-9.951221466064453,-0.2640266140296371,-0.2641557321963989,-10.637194092466627,1.210645930309007,4.797343423277879,0.7283604428324945
1730865972.8330402,-1.6892642974853516,1.1353075504302979,-9.929433822631836,-0.2703866060735084,-0.26130985212797075,-10.63453154400248,1.2103714252290498,4.781496023297316,0.6244363266580488
1730865972.8830557,-1.6928538084030151,1.1137971878051758,-9.93874454498291,-0.2767176797480102,-0.2595114836448569,-10.63311912546853,1.2094065467107062,4.764933049043191,0.49332650066182593
1730865972.9329422,-1.7044410705566406,1.0738990306854248,-9.894899368286133,-0.28225473939400747,-0.2590349915170308,-10.633336420855082,1.2102116531077398,4.817377810243066,0.8487825284477062
1730865972.9829872,-1.7288248538970947,1.0470776557922363,-9.854463577270508,-0.2864061963265317,-0.260006266257488,-10.63536283437934,1.2093131548309053,4.811939315507115,0.7904829532805214
1730865973.0330038,-1.782965898513794,1.0143132209777832,-9.822835922241211,-0.28881739180966287,-0.2623386781608592,-10.639121838916337,1.2077048290817147,4.8058954445845945,0.7061427286432232
1730865973.082945,-1.8363450765609741,1.0109021663665771,-9.767317771911621,-0.28942359525339495,-0.26572458003880417,-10.644259126155488,1.2127551495905893,4.804564802206879,0.8459049383519687
1730865973.132889,-1.8869452476501465,0.9894759058952332,-9.760782241821289,-0.2884833424022169,-0.2696827623784661,-10.650169229959602,1.2121784556462272,4.797736462288366,0.7862660066254058
1730865973.1829495,-1.8473352193832397,1.0347927808761597,-9.739604949951172,-0.2865532744680923,-0.2736450174612275,-10.656070479153584,1.2108903612605908,4.790278194759329,0.7005257673999108
1730865973.232936,-1.816389560699463,1.0465000867843628,-9.774761199951172,-0.28436477592779064,-0.27706795762562575,-10.661123191268938,1.2149381930519803,4.791117153426671,0.8443849018129653
1730865973.2828844,-1.783855676651001,1.0769073963165283,-9.79489803314209,-0.28262967746612533,-0.27954440867601793,-10.6645730921792,1.2172007325569647,4.778576047607882,0.8538919825280685
1730865973.3328242,-1.7646828889846802,1.053520679473877,-9.82564926147461,-0.2818701767139773,-0.2808676796007354,-10.665885455976941,1.2168247891062074,4.770290035170902,0.7975452388724293
1730865973.3828576,-1.7351040840148926,1.0145779848098755,-9.854711532592773,-0.2823358035919378,-0.2810149021950821,-10.664831942050096,1.2157413842627853,4.761299924862839,0.7144541727587504
1730865973.432912,-1.7351040840148926,1.0145779848098755,-9.854711532592773,-0.28399943788199034,-0.28006555603291167,-10.661510311890687,1.2139496307342332,4.75161460761438,0.604724068105065
1730865973.432912,-1.683071255683899,0.9749651551246643,-9.900102615356445,-0.2866001491409985,-0.2781163128670774,-10.656304461304412,1.2139316435149876,4.751530631995008,0.6036935893307425
1730865973.4828544,-1.6453770399093628,0.9578630328178406,-9.910890579223633,-0.28969464139825224,-0.27523103664809906,-10.649815222924854,1.2114344431982882,4.741214188838117,0.46803777008595904
1730865973.532847,-1.649688720703125,0.9565423130989075,-9.945751190185547,-0.2927018966241093,-0.27142129436898066,-10.642788811971519,1.2082110448042094,4.73020142775643,0.3057502769231185
1730865973.5828483,-1.6442580223083496,0.9954084157943726,-9.940225601196289,-0.2949718366500953,-0.26666544223122235,-10.636041552162236,1.2192606748489472,4.761568905182466,0.8446833688766068
1730865973.632834,-1.6689367294311523,1.0497392416000366,-9.937795639038086,-0.2958913320930928,-0.2609802373822161,-10.63037092885309,1.2181067618675363,4.756716458540872,0.7848105551510312
1730865973.682793,-1.6689367294311523,1.0497392416000366,-9.937795639038086,-0.29499109616446273,-0.2545113318761732,-10.626460190017935,1.222002700210437,4.750559393829729,0.8523602773787718
1730865973.682793,-1.6859419345855713,1.0834542512893677,-9.915569305419922,-0.2920161321693195,-0.24757581279606036,-10.624799577236072,1.2219999819924274,4.750514051015187,0.8519953129383256
1730865973.7328548,-1.71327543258667,1.1262437105178833,-9.893120765686035,-0.28695225278479175,-0.2406406121405481,-10.62563564147481,1.221307609319533,4.744649105834044,0.7939256296790672
1730865973.782775,-1.7269731760025024,1.1472166776657104,-9.872698783874512,-0.28002307315699326,-0.2342809970607574,-10.628945086889516,1.2199055534898713,4.738169891797343,0.7091305890943324
1730865973.8327966,-1.735066294670105,1.1401067972183228,-9.833118438720703,-0.271662501790321,-0.22913076518424438,-10.634435566827252,1.2237959342675186,4.733213430758037,0.8589377712101985
1730865973.8827624,-1.717958927154541,1.1496965885162354,-9.815305709838867,-0.2624520545893334,-0.22580218024110452,-10.641573791770355,1.2229503096576197,4.726501655750419,0.802511978225639
1730865973.9327734,-1.6673269271850586,1.18075430393219,-9.812365531921387,-0.2530192885248267,-0.22479962333547146,-10.649641939708582,1.2258728508891998,4.719482521531744,0.8584629890948156
1730865973.9827108,-1.718985915184021,1.200554609298706,-9.816550254821777,-0.243925763124515,-0.2264766594215521,-10.657829280831908,1.2254112099536498,4.711703476871192,0.8011745751922024
1730865974.032757,-1.777178168296814,1.1863377094268799,-9.796299934387207,-0.2356200171873192,-0.23103279148529848,-10.665340734168899,1.2276371779769184,4.706585958336922,0.8575261300519648
1730865974.0837018,-1.8267006874084473,1.1075407266616821,-9.833602905273438,-0.22849392809801167,-0.23849232291674122,-10.671488118287005,1.2271968594341147,4.698520851850859,0.7974381149710996
1730865974.1328225,-1.8129234313964844,1.0744457244873047,-9.833734512329102,-0.22296003873882603,-0.24863509470536224,-10.675759835936255,1.2262225458795595,4.69021079276273,0.7138185174049579
1730865974.1827915,-1.7848941087722778,1.034195899963379,-9.854951858520508,-0.21944240362353146,-0.26093196637942734,-10.677872709723223,1.2246719217120812,4.68104850221584,0.6014212095633007
1730865974.2327878,-1.7069191932678223,1.0519814491271973,-9.866008758544922,-0.2182674764535305,-0.27456320271906653,-10.677790402316152,1.2294288082960907,4.691045427458427,0.8503464950451876
1730865974.2827125,-1.7330290079116821,1.0380792617797852,-9.891645431518555,-0.21953117656076668,-0.2885319534331374,-10.675707490282665,1.2287433603237683,4.684695980272632,0.7883676260574559
1730865974.333654,-1.723747968673706,1.0607243776321411,-9.90710735321045,-0.22304521060129234,-0.3018192070310991,-10.672015410947555,1.2315093689658836,4.678775439795656,0.8541944805789571
1730865974.383695,-1.6333900690078735,1.1029419898986816,-9.92292594909668,-0.22837832810858125,-0.3135300119946117,-10.667256316062197,1.2310729794605944,4.67156925145346,0.7940892642878654
1730865974.4336932,-1.7185343503952026,1.0912126302719116,-9.885492324829102,-0.2349185709510416,-0.3230098621386381,-10.662056104991315,1.2300602850984834,4.663587305510802,0.7075487924415501
1730865974.4835937,-1.7632367610931396,1.0811116695404053,-9.884361267089844,-0.2419664885960291,-0.32989857312893717,-10.65702909080059,1.2328308331915967,4.662358967961123,0.8516005000816085
1730865974.533778,-1.7660847902297974,1.066494345664978,-9.817702293395996,-0.24889498511852698,-0.33409958763953407,-10.652671502672122,1.2319911526840772,4.655272384719243,0.7898175562049808
1730865974.583637,-1.76335608959198,1.0730304718017578,-9.786660194396973,-0.25527427508372286,-0.33570647081149885,-10.649270069766839,1.2343963532340128,4.6484669178268145,0.8551434082573304
1730865974.6336203,-1.755035638809204,1.0663394927978516,-9.755593299865723,-0.26087841500098885,-0.33494211704761334,-10.646846244713158,1.2337097668134835,4.640274408494101,0.7957925593007165
1730865974.683558,-1.7797462940216064,1.05051851272583,-9.727736473083496,-0.26562986164393587,-0.33211773763732466,-10.64515874135052,1.2355810494520338,4.634599275984804,0.8558008961301354
1730865974.7336075,-1.7905184030532837,1.0506978034973145,-9.733460426330566,-0.2695576132935651,-0.32759333722859246,-10.64376596567676,1.234780820426349,4.62583277880843,0.7961002787895319
1730865974.7834837,-1.7196898460388184,1.0897799730300903,-9.776664733886719,-0.272767516681196,-0.3217482593381506,-10.642135011992895,1.2365668657945696,4.618466722588552,0.8559880037920758
1730865974.8335426,-1.7713710069656372,1.1019127368927002,-9.835098266601562,-0.2753882679130596,-0.3149861639451832,-10.63978954827828,1.235583451534361,4.609856613432815,0.7965594898993842
1730865974.8835092,-1.8028919696807861,1.1387075185775757,-9.852670669555664,-0.2775310303250834,-0.3077607791998992,-10.636458099928841,1.2358356634985326,4.599651958428024,0.8558229971523095
1730865974.9336016,-1.8285831212997437,1.182466745376587,-9.922863006591797,-0.2793207598610381,-0.30059148109961575,-10.63216092825355,1.2342831527550449,4.589555594084265,0.7964561291943691
1730865974.9834633,-1.8077365159988403,1.2220063209533691,-9.935257911682129,-0.28094500886737594,-0.29406614685465315,-10.627218571292778,1.2320419529671025,4.578774790446153,0.7109591257628638
1730865975.0335941,-1.8268399238586426,1.19771409034729,-9.958266258239746,-0.28264319693773177,-0.28882185071435795,-10.622199546891675,1.2290797289609499,4.567192858076019,0.5982705303986465
1730865975.0834959,-1.7553056478500366,1.1827597618103027,-9.942646980285645,-0.2846449273641517,-0.28547139200735483,-10.617815195011396,1.2254286113014485,4.554965454659239,0.4597993166535786
1730865975.1334362,-1.7702215909957886,1.131227731704712,-9.93575382232666,-0.2870938771187629,-0.2844813722395777,-10.61478098264768,1.2349499386307279,4.584239013863031,0.8479775919388647
1730865975.1834197,-1.7350672483444214,1.0756663084030151,-9.8892240524292,-0.289992109292155,-0.28605053386828144,-10.613678740747496,1.2332030876800577,4.5782916588713185,0.7856944162360345
1730865975.2334309,-1.6980245113372803,1.014807939529419,-9.849322319030762,-0.2931880332228577,-0.2900258699997742,-10.614841652079319,1.2363475367268681,4.567148315536696,0.8546627241773725
1730865975.2833824,-1.74787175655365,0.9247363805770874,-9.83838939666748,-0.2964000623514019,-0.29586897258345146,-10.618282176133622,1.2351085141288052,4.557691423004941,0.7952173732487593
1730865975.3333728,-1.7218077182769775,0.9190731048583984,-9.835184097290039,-0.29927873762858764,-0.3026806655908856,-10.623694182594054,1.2375386164429298,4.549452463604005,0.8551916552197736
1730865975.3833628,-1.710154414176941,0.9689270853996277,-9.809120178222656,-0.30148789324803915,-0.30931651948374417,-10.630528855143716,1.236388537021803,4.539018541038833,0.795826770556493
1730865975.4333987,-1.6837084293365479,0.9878154993057251,-9.841340065002441,-0.30274470715682306,-0.3146078210119939,-10.638101095184389,1.2381227602682525,4.535054518484121,0.8549731463184176
1730865975.483403,-1.650559425354004,1.0081390142440796,-9.836055755615234,-0.3028103325057774,-0.31760184807288017,-10.645699735845032,1.2367728632480746,4.5264425674916975,0.7955845375773443
1730865975.5333564,-1.6746716499328613,1.0141290426254272,-9.857386589050293,-0.30147541788301013,-0.3177079085703185,-10.65269122417078,1.2346692535853019,4.517359674679996,0.8548219208533147
1730865975.5833364,-1.6851810216903687,1.004333734512329,-9.852632522583008,-0.2985794726530162,-0.31472490459169605,-10.65859237863814,1.2318273024674475,4.505176522328781,0.8604516247169396
1730865975.6333683,-1.5812643766403198,1.044628381729126,-9.859695434570312,-0.2940449722678594,-0.3087947782009192,-10.66309916522443,1.2282292867318179,4.4942472375597085,0.8035026619888176
1730865975.683324,-1.7228114604949951,1.0327458381652832,-9.875347137451172,-0.28787825237330733,-0.30033464215884226,-10.666083400568372,1.2239286304730073,4.482623241942955,0.7203740399660344
1730865975.7333395,-1.8088876008987427,1.0366780757904053,-9.752493858337402,-0.2802033598026462,-0.2899643195309366,-10.66755556806688,1.2188778646502503,4.470158054369304,0.6097508780985391
1730865975.7832942,-1.8492463827133179,1.0879586935043335,-9.823813438415527,-0.2713876054704476,-0.27842650541332603,-10.667581792417483,1.2131893027368144,4.487771784898728,0.8486816419609834
1730865975.8332365,-1.8476037979125977,1.0733569860458374,-9.768607139587402,-0.2621196125147841,-0.2665219193178477,-10.666212120703623,1.2068329135952736,4.480376881003488,0.7870300050548759
1730865975.8832293,-1.7965223789215088,1.0459142923355103,-9.815152168273926,-0.25331101692675917,-0.25505074975774467,-10.663483613929277,1.2479473365219054,4.470821046450921,0.8538496470483351
1730865975.933179,-1.7969716787338257,1.0425485372543335,-9.871280670166016,-0.2458825802773894,-0.24472371432733617,-10.659476049346239,1.2506872737605599,4.463144028032247,0.8597620156021605
1730865975.9832678,-1.7303887605667114,1.079399585723877,-9.879664421081543,-0.24056081602273616,-0.23607997554019772,-10.65438520472578,1.2506212478944319,4.455189678413486,0.8027192139796512
1730865976.0331671,-1.6776671409606934,1.154143214225769,-9.950304985046387,-0.2377424820752344,-0.22948713768293577,-10.648578370499532,1.249957097288389,4.446669554296026,0.7191495742382534
1730865976.0831647,-1.6643404960632324,1.210000991821289,-9.945380210876465,-0.23742656642830984,-0.2252266497379086,-10.642596908567135,1.2558463637543373,4.446780611841995,0.8505942116937462
1730865976.1330926,-1.6949403285980225,1.204162359237671,-9.977410316467285,-0.23923805820401414,-0.22358319617380537,-10.63710787470319,1.2561361902806014,4.439459298607364,0.7898638375340455
1730865976.1830785,-1.715383529663086,1.1504161357879639,-9.959513664245605,-0.24256138696503615,-0.22484060226331898,-10.632816907385774,1.26111048607283,4.4347551923948325,0.8538168703995554
1730865976.2331274,-1.7309974431991577,1.0735752582550049,-9.935346603393555,-0.24672083658038182,-0.22916025983855523,-10.630358120106703,1.2640572123778193,4.423406241655884,0.8577591614964662
1730865976.2831085,-1.751832365989685,1.0295008420944214,-9.867960929870605,-0.25112230596852997,-0.23641892162540482,-10.630175242028788,1.2650579026421818,4.414058618626457,0.8003756101857844
1730865976.333172,-1.7894331216812134,1.0231446027755737,-9.804779052734375,-0.2553332321536179,-0.24612050878476183,-10.632405921308983,1.2654273914803273,4.404071046995591,0.7161207826180221
1730865976.3830342,-1.7807178497314453,0.9962002635002136,-9.770801544189453,-0.2591177881965504,-0.2574386342291333,-10.636804685420651,1.266455049443262,4.4084821119746485,0.847502986122684
1730865976.4331918,-1.7807178497314453,0.9962002635002136,-9.770801544189453,-0.26242545259393757,-0.2693481752751654,-10.64275519793502,1.2661847915535973,4.401698527829242,0.785958024811118
