Timestamp,IMU_Linear_Acc_X,IMU_Linear_Acc_Y,IMU_Linear_Acc_Z,Filtered_X,Filtered_Y,Filtered_Z,Pose_X,Pose_Y,Pose_Z
1730865946.9839773,-1.6460669040679932,1.1705397367477417,-9.888028144836426,-0.0048175154162881035,-0.0037629848015637924,-0.43432769617113176,0.8944316715969146,3.832438945351326,0.8989883286530224
1730865947.0338826,-1.5448205471038818,1.3515266180038452,-9.916738510131836,-0.00688746634286145,-0.0061243622084166975,-0.6078149867423108,0.8897461472834508,3.833264241273678,0.8989810528627615
1730865947.083904,-1.4505513906478882,1.3764179944992065,-9.885746955871582,-0.00945702051832099,-0.009385038404296584,-0.8183565133612263,0.8889828331552501,3.8336651843477383,0.8989763891611422
1730865947.1338828,-1.483825922012329,1.3574954271316528,-9.83907413482666,-0.012529926789330667,-0.01371850914811963,-1.0668707605339551,0.8603064462741142,3.85232636034333,0.8974838250854379
1730865947.1338828,-1.5220105648040771,1.4168083667755127,-9.791072845458984,-0.014245725229077652,-0.016343723919890363,-1.2054004454360712,0.8601806323542951,3.8524044973048484,0.8974722908369265
1730865947.1838188,-1.466209888458252,1.5062932968139648,-9.781386375427246,-0.016072347137587574,-0.019304013323380408,-1.3533487855931847,0.8292000995561819,3.871608281948902,0.8929363170896445
1730865947.2339377,-1.466209888458252,1.5062932968139648,-9.781386375427246,-0.01800154194824323,-0.022621075908520367,-1.5105747649656185,0.7981783139022205,3.8907588439718928,0.8848212710743452
1730865947.2339377,-1.6475468873977661,1.4503509998321533,-9.745635986328125,-0.020023965174282086,-0.026316518621025346,-1.6768847686267618,0.7980473476135366,3.890839514181708,0.8847790348017202
1730865947.2838902,-1.7597566843032837,1.3032793998718262,-9.741059303283691,-0.022129960294470945,-0.030411376387746936,-1.852034997509762,0.8024289945626746,3.909910094342702,0.8724533052658064
1730865947.3337905,-1.6816997528076172,1.2365984916687012,-9.753911018371582,-0.02431090472537889,-0.034924842027670065,-2.035734145658683,0.804785676139852,3.928783502091497,0.8553946236113469
1730865947.3838024,-1.757475733757019,1.2633165121078491,-9.788309097290039,-0.026560126962745553,-0.039872793759436434,-2.227646425708202,0.7832737670155738,3.947755417008326,0.8328256518269993
1730865947.4338114,-1.9410609006881714,1.2342725992202759,-9.715015411376953,-0.02887320257460533,-0.0452669115881612,-2.427394908199031,0.7903776775850343,3.966605330748725,0.8044205692174041
1730865947.4836771,-1.7980672121047974,1.2204742431640625,-9.816902160644531,-0.03124835718384302,-0.051114489058934044,-2.634564938714547,0.7719407318212256,3.985183792112652,0.7699670267617379
1730865947.5337312,-1.6201061010360718,1.2407430410385132,-9.861479759216309,-0.033686534392748504,-0.057418508658978816,-2.848707721035946,0.7532450424491336,4.003804804665033,0.7283057087695304
1730865947.5837328,-1.6417081356048584,1.2559638023376465,-9.932706832885742,-0.03619023773901666,-0.06417783340405607,-3.0693443281133996,0.7718774860687102,4.022140536729374,0.6795640363449674
1730865947.6336718,-1.4783844947814941,1.2720919847488403,-9.962823867797852,-0.03876181241991089,-0.07138758452522917,-3.2959699398971853,0.7560698218971362,4.040463638344273,0.6223984907989119
1730865947.6836586,-1.4127205610275269,1.249739170074463,-9.95790958404541,-0.041402066680473734,-0.0790395813324758,-3.528057877769988,0.7403107831782354,4.058427336991903,0.5572714717827717
1730865947.7336457,-1.4345476627349854,1.2176520824432373,-9.960887908935547,-0.04410923764820364,-0.08712262325293182,-3.7650632257378414,0.7625815631301754,4.076196155119345,0.48304451332633486
1730865947.7836764,-1.6071974039077759,1.2252144813537598,-9.856568336486816,-0.04687863616441701,-0.0956225580502903,-4.006425990949818,0.7490824674968086,4.093800963550535,0.3988585581080511
1730865947.8337014,-1.532752275466919,1.1856809854507446,-9.923158645629883,-0.049703359272598384,-0.10452228800968957,-4.251573880153658,0.7354450076318951,4.111177722656177,0.30421976283270097
1730865947.8835726,-1.49844229221344,1.2116985321044922,-9.878271102905273,-0.052575288167117186,-0.11380184897325676,-4.499925016854762,0.7596133870899543,4.128203937729276,0.19909950861575076
1730865947.9345996,-1.521494746208191,1.106750726699829,-9.946966171264648,-0.055485438189973625,-0.12343851614708035,-4.750890900847967,0.7477433874814479,4.145311044954338,0.07972376774557334
1730865947.9846032,-1.521235466003418,1.066617727279663,-9.89339542388916,-0.05842392006333058,-0.13340674279801898,-5.003879520818382,0.7695044060573842,4.161889667156392,-0.05072203669424608
1730865948.034629,-1.6524330377578735,0.9745575785636902,-9.893824577331543,-0.061380189129246907,-0.14367782614104835,-5.258298328732453,0.7845080765269575,4.177960098971241,-0.1927309444928527
1730865948.0845356,-1.714928388595581,0.9513433575630188,-9.833707809448242,-0.06434379795749064,-0.15421948736583818,-5.5135568839595255,0.7759926154247273,4.193675773367529,-0.3482835802561609
1730865948.1347377,-1.6118273735046387,0.9223973155021667,-9.884674072265625,-0.06730532051751068,-0.1649956512053233,-5.769069239675758,0.7672993285748048,4.209017116926193,-0.518178459331211
1730865948.1846237,-1.3661701679229736,0.9260615110397339,-9.857068061828613,-0.0702564874324136,-0.17596657407514976,-6.024256337926602,0.7584105641782398,4.223970539923975,-0.7033251041956329
1730865948.2345996,-1.2212275266647339,0.8862243294715881,-9.932165145874023,-0.07318884832408297,-0.18708926568370615,-6.278548540485021,0.7783134435097468,4.238328493484134,-0.9019610053039758
1730865948.2835228,-1.0323896408081055,0.8774198889732361,-9.941996574401855,-0.0760915412762121,-0.19831799767535652,-6.531388238995265,0.770735090780845,4.252030204230353,-1.1133892901083835
1730865948.3344536,-1.2495695352554321,0.9381879568099976,-9.924843788146973,-0.07894952498277087,-0.20960484518917677,-6.782232382286518,0.7876063784803231,4.265745144005453,-1.3500322583577842
1730865948.3844686,-1.4342632293701172,1.0002256631851196,-9.9284086227417,-0.08174356601017042,-0.22090049160464104,-7.030554658078934,0.78079491538762,4.278676184902591,-1.5998724522686973
1730865948.4344435,-1.6491162776947021,1.1198151111602783,-9.88106918334961,-0.08445232287465229,-0.23215546071605747,-7.275847225415982,0.7738021472731,4.290995935837819,-1.8665701126281582
1730865948.4846096,-1.8150001764297485,1.2128596305847168,-9.911548614501953,-0.08705546277844872,-0.2433216614365142,-7.517622143441093,0.7664842497008957,4.302901008682458,-2.1561469221942686
1730865948.5345068,-1.8747748136520386,1.2866096496582031,-9.855307579040527,-0.08953644677953176,-0.25435397568095963,-7.7554126550901135,0.7860325006729546,4.313956490678691,-2.4592176513694493
1730865948.5845046,-1.8972151279449463,1.2438414096832275,-9.890105247497559,-0.09188425885628182,-0.2652114887890617,-7.988774374209295,0.796210035215844,4.324509286305597,-2.7862031220538106
1730865948.6345894,-1.8699368238449097,1.2726092338562012,-9.829380989074707,-0.09409391467762639,-0.2758580067946828,-8.2172863521499,0.7902413810237149,4.334323771038417,-3.1314649890082755
1730865948.6844258,-1.9649289846420288,1.1705948114395142,-9.842905044555664,-0.0961661295925354,-0.28626188048493145,-8.440551986174732,0.7997992661963058,4.34342210628205,-3.4972102680238675
1730865948.7343395,-1.755480170249939,1.117276906967163,-9.814167976379395,-0.09810663765926297,-0.29639534619122787,-8.658199764862275,0.7941332193593589,4.351754798638939,-3.8820460690878766
1730865948.7843802,-1.648979902267456,1.0715574026107788,-9.870731353759766,-0.09992499673475452,-0.3062335685631911,-8.869883957181944,0.8038337512076857,4.359379889428779,-4.290956551710333
1730865948.8343627,-1.619248390197754,1.0923936367034912,-9.766934394836426,-0.10163271682646674,-0.3157537553875012,-9.075285287499415,0.7984992913345813,4.3662223547728924,-4.721353261020963
1730865948.8843756,-1.5719029903411865,1.1600306034088135,-9.814069747924805,-0.10324147386395034,-0.32493477925635367,-9.27411139789396,0.8081342637424452,4.372340022879105,-5.181068076588234
1730865948.9342463,-1.4718180894851685,1.2043366432189941,-9.855443000793457,-0.10476198620326968,-0.33375743062723884,-9.466097120301491,0.8032022889424811,4.377530140713134,-5.655223926269341
1730865948.9843962,-1.5622344017028809,1.2559999227523804,-9.844598770141602,-0.10620332297798485,-0.34220504673006924,-9.651004876917638,0.8140002240513735,4.3819196650869925,-6.157898511176115
1730865949.0343103,-1.6065484285354614,1.3037285804748535,-9.91126537322998,-0.10757269764062263,-0.35026415457143306,-9.828625174820605,0.8095636612410565,4.385430778488303,-6.681750664157611
1730865949.084335,-1.6464300155639648,1.3352413177490234,-9.848318099975586,-0.10887596404847372,-0.35792496045424993,-9.998776907414962,0.8048208420384281,4.388082035122918,-7.234583524237324
1730865949.1342292,-1.7890230417251587,1.2793657779693604,-9.847938537597656,-0.1101185165379818,-0.3651815796326365,-10.161307294226994,0.8157575316224143,4.389820239396819,-7.815791261029896
1730865949.1843033,-1.9112098217010498,1.1769911050796509,-9.826825141906738,-0.11130638937301848,-0.372031742207012,-10.316091423974566,0.8114204078126098,4.390624687486177,-8.411725910467325
1730865949.2342906,-1.7468112707138062,1.169215440750122,-9.872337341308594,-0.11244734471521978,-0.3784758918320011,-10.463031639385989,0.8067662699603486,4.390504435040415,-9.038844951813461
1730865949.2843397,-1.7610691785812378,1.1731765270233154,-9.90518856048584,-0.11355115670722585,-0.3845161647921674,-10.602057078951008,0.8182459839116099,4.389418270181446,-9.693513425986287
1730865949.3341703,-1.772855281829834,1.1963719129562378,-9.869773864746094,-0.114628936803682,-0.3901558315201471,-10.733123352112914,0.8139246811745758,4.387382983197858,-10.372188863942284
1730865949.3842542,-1.7723252773284912,1.1582468748092651,-9.856871604919434,-0.11569243381057977,-0.3953991882925817,-10.85621201024561,0.8092897781935253,4.384351506940939,-11.08184109261769
1730865949.4341888,-1.5951693058013916,1.1924304962158203,-9.84045124053955,-0.11675359385257371,-0.4002515315267048,-10.97132963253684,0.82112145996836,4.380337887473556,-11.813843760035148
1730865949.4842129,-1.4303251504898071,1.1096744537353516,-9.871488571166992,-0.11782363917172178,-0.4047190302704248,-11.078506752043426,0.8167986881414143,4.375296793257818,-12.579089048053785
1730865949.5342839,-1.4494115114212036,1.127644419670105,-9.831385612487793,-0.11891149939242808,-0.4088084662853614,-11.177796857351273,0.8241419422364058,4.369235127165447,-13.370204302475905
1730865949.5842733,-1.374488115310669,1.0864741802215576,-9.847817420959473,-0.12002249980473378,-0.4125268907707348,-11.269275407640649,0.8197750377137772,4.36215837988356,-14.189462519277079
1730865949.634126,-1.4525998830795288,1.0719263553619385,-9.802490234375,-0.12115796533114287,-0.41588133009836414,-11.35303873021224,0.8259218903223768,4.35407460105112,-15.032501450686048
1730865949.684152,-1.5784028768539429,1.0320987701416016,-9.840079307556152,-0.12231569003042825,-0.4188785486286781,-11.429202830793036,0.8214897287817019,4.344935397631058,-15.90708106105383
1730865949.734146,-1.5448294878005981,0.9901504516601562,-9.828018188476562,-0.12349105989899536,-0.4215247805294076,-11.497902246551382,0.828017721232126,4.334732220031675,-16.810134750610175
1730865949.7841535,-1.495914340019226,0.9905200004577637,-9.897010803222656,-0.12467817334353211,-0.4238254467126876,-11.559289047030285,0.823632547653021,4.323477775019228,-17.742970420791526
1730865949.8341901,-1.5989469289779663,0.96947181224823,-9.889765739440918,-0.125870341960713,-0.4257849807907663,-11.613531987739524,0.8294303400165278,4.311028703934571,-18.71345892622991
1730865949.8841543,-1.5671354532241821,0.9694827198982239,-9.91878890991211,-0.12706034114181008,-0.4274068354302005,-11.660815685352276,0.83338176235248,4.297744218220669,-19.695387489164794
1730865949.9341342,-1.4966825246810913,0.9941743016242981,-9.964380264282227,-0.128240734937544,-0.42869363506764024,-11.70133969866399,0.8292259844940302,4.283312407454954,-20.713914631130947
1730865949.984129,-1.4800490140914917,0.969645619392395,-9.981051445007324,-0.1294038736187632,-0.4296474378852262,-11.735317576128738,0.8247228226743002,4.267719988818358,-21.767655049424466
1730865950.0342054,-1.459653377532959,1.016774296760559,-9.992463111877441,-0.13054153254223194,-0.43027004554955744,-11.76297588995118,0.8199053258776546,4.2510895904597366,-22.84807448598714
1730865950.0840492,-1.5144121646881104,1.049118995666504,-9.973414421081543,-0.1316447019566776,-0.4305633593943733,-11.784553107088056,0.8281343584846453,4.23346178140674,-23.951613481768806
1730865950.1340241,-1.6105612516403198,1.0086636543273926,-9.94045639038086,-0.13270386963156694,-0.4305297981136487,-11.800298195859998,0.823527335912552,4.214776057173963,-25.085095253420725
1730865950.1840804,-1.5536221265792847,1.06661057472229,-9.94149398803711,-0.13370972415419213,-0.43017260959222237,-11.810469026249095,0.831158385941036,4.194294245067445,-26.28873392496031
1730865950.2339597,-1.603241205215454,1.065562129020691,-9.964529037475586,-0.13465379088076268,-0.4294960476461819,-11.815330786937789,0.82681644260357,4.1739207661606335,-27.454460672785093
1730865950.2839465,-1.879683494567871,1.0326447486877441,-9.866992950439453,-0.13552894501135096,-0.42850552679823956,-11.815154551553938,0.8220392927525891,4.152008561813264,-28.676956041737437
1730865950.3339956,-2.0737950801849365,0.9914940595626831,-9.809025764465332,-0.136330638393492,-0.4272075891564316,-11.810215735448985,0.8314452911678025,4.128990743361907,-29.929672642669892
1730865950.3840535,-2.0737950801849365,0.9914940595626831,-9.809025764465332,-0.13705891088401756,-0.4256095751988951,-11.800792295229837,0.8268639662676515,4.1047433855229345,-31.22200350602936
1730865950.3840535,-1.8243703842163086,0.9407444000244141,-9.798154830932617,-0.13771958783136484,-0.42371922513060767,-11.787163070779517,0.8268356239631928,4.104595651874058,-31.22979490765009
1730865950.4339852,-1.6435387134552002,1.0102969408035278,-9.805895805358887,-0.13832325026352252,-0.42154442476461174,-11.769606589491366,0.8367014106330419,4.079585404836378,-32.53439043265456
1730865950.4839067,-1.5730770826339722,1.1460793018341064,-9.76155948638916,-0.13888252744129614,-0.41909334638533996,-11.748400154755322,0.8324984335437189,4.053440454505825,-33.87440906264975
1730865950.5338778,-1.402429223060608,1.2469379901885986,-9.80485725402832,-0.1394093734608122,-0.416375273777013,-11.72381898298023,0.8279610157977828,4.026324101987866,-35.240257900628805
1730865950.5837739,-1.2801685333251953,1.27745521068573,-9.844583511352539,-0.139913058805259,-0.41340184233028443,-11.69613547273081,0.8230653745769341,3.998109114409767,-36.638633240630924
1730865950.6338754,-1.3144124746322632,1.2810062170028687,-9.876189231872559,-0.1403987262652953,-0.41018794050810103,-11.665618786300687,0.8177795728001557,3.9686412917986176,-38.077152235789185
1730865950.6837897,-1.3720238208770752,1.2254197597503662,-9.91110610961914,-0.14086679631390459,-0.4067518348321574,-11.63253464034203,0.8121748990571409,3.9383349659016296,-39.53586848589507
1730865950.7338083,-1.4993278980255127,1.1518988609313965,-9.931300163269043,-0.1413135940236447,-0.40311456929006495,-11.59714507272072,0.8295276462031516,1.4987016631616594,-0.3612974311481108
1730865950.78379,-1.6006672382354736,1.0863429307937622,-9.86929702758789,-0.1417328922378013,-0.3992988763970624,-11.559708028298582,0.8245187733618394,1.4488182019949116,-1.0705146105763688
1730865950.8337855,-1.81550133228302,1.01986563205719,-9.81452465057373,-0.14211786499457466,-0.3953279163386166,-11.520476572398579,0.8386715967318829,1.2871042793290464,0.5448020492949881
1730865950.8837059,-1.9375649690628052,0.9927679896354675,-9.77560806274414,-0.14246321289138017,-0.3912241480157623,-11.479697707947242,0.8341307267598945,1.2451953355378786,-0.051160139707852076
1730865950.9336746,-2.0457820892333984,0.9714118242263794,-9.726194381713867,-0.14276718700500113,-0.3870085226129516,-11.437611101368118,0.8292231355419476,1.2022087169779894,-0.6771907508981707
1730865950.9836621,-2.0869340896606445,1.0083929300308228,-9.737180709838867,-0.14303303926531355,-0.38270009616241885,-11.394448023598233,0.8428766839036407,1.1617739571848176,0.15702425299022899
1730865951.0336392,-2.0562994480133057,1.051559329032898,-9.758321762084961,-0.14326957954406933,-0.37831610086603873,-11.350430667006354,0.8383735945177194,1.1257117949772768,-0.395120345386203
1730865951.083622,-1.9736506938934326,1.1039338111877441,-9.822582244873047,-0.14349077683495026,-0.37387241978972885,-11.305771935952627,0.8537580020989922,1.1081880600276484,0.046910785018635916
1730865951.133597,-1.9302725791931152,1.1401413679122925,-9.887577056884766,-0.14371455819365764,-0.3693842643619065,-11.26067568480295,0.8499629552501033,1.0772825772087784,-0.45990925405391764
1730865951.1835477,-1.8705997467041016,1.1601102352142334,-9.892549514770508,-0.1439612588928227,-0.36486680077572703,-11.2153371890068,0.8638845206624581,1.0719999162163396,-0.13722287530112376
1730865951.233644,-1.852792739868164,1.1702474355697632,-9.919771194458008,-0.14425220520531945,-0.3603355579517324,-11.169943510821723,0.8606614677354949,1.0450132864651358,-0.6152570937143441
1730865951.2836158,-1.850260853767395,1.1229956150054932,-9.914119720458984,-0.14460865746419493,-0.3558065361872808,-11.124673569211101,0.871490127740062,1.0470702096774815,-0.33237492432255716
1730865951.3335752,-1.8229795694351196,1.0839333534240723,-9.910886764526367,-0.14505113572486378,-0.35129595948442327,-11.079697980729257,0.8684826800068152,1.0231289707277755,-0.7905715771493281
1730865951.3836124,-1.7985893487930298,1.0479875802993774,-9.888747215270996,-0.14559897514661072,-0.34681972587217974,-11.035178762003389,0.8804240073219587,1.0317096292791645,-0.5191714239953242
1730865951.4335694,-1.7535266876220703,0.9978740811347961,-9.872357368469238,-0.14626990120031969,-0.3423927626957026,-10.99126893264924,0.8914733926910798,1.0339214043179772,-0.37944458854104574
1730865951.4836032,-1.7225205898284912,0.9698752164840698,-9.863229751586914,-0.14707955532564773,-0.3380284455266136,-10.948112093885301,0.8895837277515516,1.015309903427835,-0.7872471771942167
1730865951.533507,-1.668954610824585,0.9353963732719421,-9.8529052734375,-0.14804101355030863,-0.33373813103885086,-10.905842080891244,0.8873191512119408,0.9957955019491052,-1.223739114498705
1730865951.583536,-1.6359572410583496,0.9215210676193237,-9.852986335754395,-0.14916434080893176,-0.32953084375782454,-10.86458274336292,0.8846815173385763,0.9754411562751525,-1.6876961018761085
1730865951.6334298,-1.6144894361495972,0.9229671359062195,-9.850465774536133,-0.15045623570042638,-0.32541315171760143,-10.82444785355467,0.8918586491739269,0.9960147874807247,-1.2136594853717975
1730865951.6834772,-1.6067534685134888,0.9610587358474731,-9.857247352600098,-0.1519198597659126,-0.3213892812766019,-10.785541125313454,0.8889608692898047,0.9777184315686548,-1.6577191017766715
1730865951.7344527,-1.5976148843765259,1.0084751844406128,-9.867647171020508,-0.15355489512180018,-0.3174615300444788,-10.747956333093011,0.8927472401876916,1.001701257772749,-1.2441829526402752
1730865951.7843916,-1.6114647388458252,1.0301212072372437,-9.874835968017578,-0.15535778285931207,-0.3136309194405817,-10.711777520098503,0.8893488617411027,0.9857004787008502,-1.6721497777679541
1730865951.8344188,-1.5975745916366577,1.018343448638916,-9.889068603515625,-0.1573220741697849,-0.3098978350070681,-10.677079269129166,0.8855323714488468,0.9688003651708088,-2.130107024907531
1730865951.8845086,-1.6075562238693237,0.9683912396430969,-9.893061637878418,-0.15943881777611618,-0.30626234892832566,-10.643927002562052,0.8906960172780479,0.9959180833173386,-1.5816055357492647
1730865951.934418,-1.626556634902954,0.905511736869812,-9.897462844848633,-0.161696947793638,-0.3027240828275892,-10.612377280910147,0.8866364682796043,0.9809366098560943,-2.0150594006402605
1730865951.9844997,-1.6508206129074097,0.8503293991088867,-9.890620231628418,-0.1640837297218706,-0.29928170701478246,-10.582478066248635,0.8893254964532069,1.0104686189497156,-1.5334466987630004
1730865952.034278,-1.668717384338379,0.7852784395217896,-9.882685661315918,-0.1665852874025195,-0.2959323083881946,-10.55426892870385,0.8848239508925677,0.9975309792215127,-1.950378132912964
1730865952.0843859,-1.668717384338379,0.7852784395217896,-9.882685661315918,-0.16918711374187909,-0.29267085735313525,-10.527781210967746,0.8869903456510171,1.0252820059943903,-1.5089142670739886
1730865952.0843859,-1.666137456893921,0.7490000128746033,-9.847501754760742,-0.1718744448201053,-0.2894899468621206,-10.503038175664754,0.8869639091050932,1.0252208077373237,-1.5111131791650319
1730865952.134316,-1.6244356632232666,0.7482098340988159,-9.854060173034668,-0.1746324287858378,-0.28637982661957395,-10.480055129587788,0.8820221913669901,1.0139271024619814,-1.9171417465852905
1730865952.1843207,-1.5937052965164185,0.7874472141265869,-9.882034301757812,-0.17744606319388984,-0.2833286580620103,-10.458839598539136,0.8765942837862889,1.0018157583855818,-2.353137043747073
1730865952.2342668,-1.5707736015319824,0.8576775789260864,-9.910017013549805,-0.18029996179371854,-0.2803230532000247,-10.439391722982638,0.8814986878201495,1.0294157207260233,-1.7653461315085344
1730865952.2842512,-1.587791085243225,0.9232023358345032,-9.935588836669922,-0.18317814983702785,-0.2773489757005187,-10.421704889610403,0.8858017245850633,1.0508138038115196,-1.3922522425584525
1730865952.3342435,-1.5839658975601196,0.9715844392776489,-9.951668739318848,-0.18606407766440247,-0.2743928316148657,-10.405766425070848,0.8805683825284526,1.041546017626684,-1.775527465760161
1730865952.3842833,-1.6285433769226074,0.9795622229576111,-9.949352264404297,-0.18894087058191283,-0.27144242129836027,-10.39155819605255,0.883168633955273,1.0582948153781635,-1.4094281875635655
1730865952.4342704,-1.6731714010238647,0.9589577913284302,-9.931402206420898,-0.1917917670363263,-0.2684874849129194,-10.379057030448095,0.8776198168247913,1.0494010900576864,-1.7863601980739798
1730865952.4843504,-1.7608195543289185,0.9085907340049744,-9.892904281616211,-0.19460075996374926,-0.2655197347129,-10.368234914744667,0.8715690582126244,1.0398097058194788,-2.1904997316119244
1730865952.5342863,-1.8198007345199585,0.8613375425338745,-9.845653533935547,-0.19735342615241752,-0.2625324446678189,-10.359058971828023,0.8768323124380974,1.0629245669974685,-1.6935363103109102
1730865952.5842535,-1.8743910789489746,0.8098325729370117,-9.812735557556152,-0.20003778862590973,-0.2595197953879668,-10.351491294602948,0.8706772405466336,1.0541632709412203,-2.085425227164697
1730865952.634168,-1.8814746141433716,0.8248398900032043,-9.78154468536377,-0.2026449683635833,-0.2564762396364249,-10.345488782812623,0.8761280063027531,1.078752750731243,-1.6322540634778457
1730865952.6841817,-1.8178749084472656,0.9012826681137085,-9.799697875976562,-0.20516938373387844,-0.2533962200776987,-10.34100314810802,0.8699066835251017,1.0710692520262957,-2.0145382264361027
1730865952.7341259,-1.7743693590164185,0.9895063042640686,-9.821540832519531,-0.20760835054385832,-0.2502745111198656,-10.337981221268647,0.8744200109867548,1.0928511588754675,-1.5890158701834076
1730865952.7841399,-1.7426655292510986,1.0704177618026733,-9.879551887512207,-0.2099612373905028,-0.24710711079386988,-10.336365612939026,0.8679606157255272,1.0858647370971652,-1.9673094545644707
1730865952.834016,-1.7173658609390259,1.144403100013733,-9.899643898010254,-0.21222858540754486,-0.24389229727137038,-10.336095633460314,0.8725160572911428,1.109537286815556,-1.5599407241758372
1730865952.884022,-1.7238008975982666,1.201750636100769,-9.902915954589844,-0.21441147187013632,-0.24063151767919838,-10.337108230680427,0.86588716423354,1.1035137980013676,-1.9323106090353173
1730865952.9340377,-1.7645459175109863,1.1820310354232788,-9.86949348449707,-0.2165112041318702,-0.23732992160479638,-10.339338668206064,0.8727114218023785,1.1274087567598872,-1.5420927273175082
1730865952.9839852,-1.7645459175109863,1.1820310354232788,-9.86949348449707,-0.21852934895291787,-0.23399638605509637,-10.3427208453198,0.8780306957677118,1.142866294874073,-1.2726120198565485
1730865952.9839852,-1.83077871799469,1.1543887853622437,-9.82955265045166,-0.22046797234125717,-0.23064305124681184,-10.347187398895766,0.8779993612966673,1.1428439713144078,-1.2744164366737705
1730865953.0339887,-1.8594506978988647,1.0799541473388672,-9.79504680633545,-0.22232997340968644,-0.22728455330573805,-10.352669723427077,0.871926748275748,1.1384319912579155,-1.6210662582231279
1730865953.0839276,-1.8404059410095215,1.018115758895874,-9.759230613708496,-0.22411942055764905,-0.22393703018236594,-10.359097918696147,0.8652796658673999,1.13344501225592,-1.9945775616535082
1730865953.1339393,-1.7897979021072388,0.9865586757659912,-9.764646530151367,-0.22584162031398244,-0.22061698891995046,-10.366400736375168,0.8580577869913594,1.1278932670526987,-2.3946971076087835
1730865953.1840162,-1.698754072189331,1.0258070230484009,-9.786855697631836,-0.22750267611640773,-0.21734037731314665,-10.37450571991323,0.8676555692785038,1.1510105769084082,-1.8227129399096214
1730865953.2339149,-1.6195176839828491,1.096706748008728,-9.849236488342285,-0.22910859145194493,-0.21412224239788685,-10.383339687530452,0.8605430510727069,1.1460714165432753,-2.207834415803577
1730865953.2839737,-1.6195176839828491,1.096706748008728,-9.849236488342285,-0.23066424665742402,-0.21097699387592775,-10.39282950893804,0.8528218672032355,1.1405768512077747,-2.6207459806723414
1730865953.2839737,-1.5690386295318604,1.1863417625427246,-9.894932746887207,-0.2321726715663891,-0.20791890395913043,-10.402902927859579,0.8527792334446259,1.1405461972906104,-2.623012872033029
1730865953.3338645,-1.5596836805343628,1.2637195587158203,-9.941064834594727,-0.23363473846425836,-0.20496262989224506,-10.413489270934782,0.86426670334962,1.1681864239005746,-1.943967829642456
1730865953.384044,-1.59630286693573,1.3051685094833374,-9.960204124450684,-0.23504914023476497,-0.2021238231681381,-10.424520099468221,0.856722465871381,1.1637396322685576,-2.337172068150074
1730865953.4338489,-1.6284863948822021,1.3273265361785889,-9.94701862335205,-0.23641267241948044,-0.19941966950406723,-10.435929753369784,0.8486394288299625,1.1588205162946703,-2.7538137490735966
1730865953.4840422,-1.6553434133529663,1.316172480583191,-9.920696258544922,-0.23772082774007391,-0.19686906000081478,-10.447655580991379,0.8613304568569231,1.1837846448578977,-2.0302366043383286
1730865953.5338588,-1.6599690914154053,1.2806527614593506,-9.860176086425781,-0.23896845896370497,-0.19449231671419903,-10.459637780836548,0.8705502157088603,1.2059190663292876,-1.5745239769386254
1730865953.583919,-1.6765570640563965,1.1801283359527588,-9.819402694702148,-0.24015028051893467,-0.19231050090284302,-10.471818947450144,0.8633848547410897,1.2029594397884285,-1.9387153103779011
1730865953.6338382,-1.6720153093338013,1.0732054710388184,-9.787087440490723,-0.24126118088370102,-0.19034429420182944,-10.484143505588504,0.8721029768947107,1.2230850608338164,-1.5193759219673781
1730865953.6838663,-1.6663193702697754,0.9791675806045532,-9.763050079345703,-0.2422963923810757,-0.1886125593256189,-10.496557247812115,0.8650373682761288,1.220729005202642,-1.8770205001712021
1730865953.7339408,-1.6707918643951416,0.9239218235015869,-9.750232696533203,-0.2432515490545598,-0.18713091759211556,-10.509007081520163,0.857268531878765,1.2178692741919037,-2.265764100220642
1730865953.7837968,-1.6994575262069702,0.9047927856445312,-9.781537055969238,-0.24412272147084668,-0.18591072841956763,-10.521441003951875,0.8692450815891128,1.2352524945637395,-1.7322735008644712
1730865953.8338177,-1.7137017250061035,0.9450106620788574,-9.824131965637207,-0.24490655013082696,-0.18495869750464938,-10.533808364864429,0.8617135379034891,1.2325727219990523,-2.110832934784596
1730865953.8838098,-1.7199853658676147,1.0237822532653809,-9.900525093078613,-0.2456004619253902,-0.1842771866612273,-10.546060460084503,0.8742039923430257,1.2500389917992984,-1.6359331031652617
1730865953.933771,-1.7199853658676147,1.0237822532653809,-9.900525093078613,-0.24620283114735314,-0.18386507654737266,-10.55815132397443,0.8843957559455375,1.2632244080909392,-1.3214762705563592
1730865953.933771,-1.7121604681015015,1.109671950340271,-9.941783905029297,-0.24671300426771942,-0.18371878540344172,-10.570038422729427,0.8843696105611956,1.2632174704079797,-1.3229170639892276
1730865953.9838536,-1.7125602960586548,1.1412822008132935,-9.991416931152344,-0.24713121469677696,-0.18383318879693064,-10.581683104371216,0.8780011209761468,1.261379790671331,-1.670069746584739
1730865954.033785,-1.7383090257644653,1.1559922695159912,-9.991555213928223,-0.2474584812949278,-0.18420242233737572,-10.593050923389786,0.8710261354156607,1.2590872237948498,-2.0430962597794315
1730865954.0837812,-1.7700742483139038,1.0934906005859375,-9.966474533081055,-0.24769662051591787,-0.1848203867396373,-10.60411181350446,0.8814045045038863,1.2749283828327225,-1.5746571085874563
1730865954.1337168,-1.7931220531463623,1.0574482679367065,-9.924484252929688,-0.24784842022868475,-0.18568071649489037,-10.614839897595527,0.874411878275299,1.2728194995231183,-1.9416065827469478
1730865954.1838078,-1.7931220531463623,1.0574482679367065,-9.924484252929688,-0.24791785393269955,-0.186776358472296,-10.625212966117966,0.8846097468604653,1.291576974273648,-1.5131093410465102
1730865954.1838078,-1.8051255941390991,0.9757516384124756,-9.861323356628418,-0.24791017236918922,-0.18809912950466678,-10.635211875964355,0.88458113750477,1.291571494050134,-1.5146135676303965
1730865954.233678,-1.8051255941390991,0.9757516384124756,-9.861323356628418,-0.24783184598977415,-0.1896393560047927,-10.644819992394568,0.87765029477257,1.2900670093638194,-1.8760562734057953
1730865954.233678,-1.8243852853775024,0.909440279006958,-9.807530403137207,-0.24769044679032404,-0.1913855356802795,-10.654022674256558,0.877618698577781,1.2900594130624266,-1.8776916334971947
1730865954.2837088,-1.8243852853775024,0.909440279006958,-9.807530403137207,-0.24749454080105013,-0.19332407686612474,-10.662806833577697,0.887167053579049,1.3042692279026875,-1.435577811976055
1730865954.2837088,-1.831785798072815,0.8526820540428162,-9.77783489227295,-0.2472535894882469,-0.19543915790015415,-10.671160603561969,0.8871314164762926,1.304262522596239,-1.4374124202461414
1730865954.3335953,-1.831785798072815,0.8526820540428162,-9.77783489227295,-0.2469778249062944,-0.19771268111574378,-10.679073128530465,0.880223870036843,1.3027752880905088,-1.7904905805697757
1730865954.3335953,-1.7967559099197388,0.8678164482116699,-9.767488479614258,-0.2466780588507805,-0.20012436003964587,-10.686534468420465,0.8801934067768707,1.3027679730414972,-1.7920375306386853
1730865954.3836603,-1.7967559099197388,0.8678164482116699,-9.767488479614258,-0.24636538289414725,-0.20265203215455407,-10.693535592728695,0.8896734757710342,1.3205630974157518,-1.3511502416904284
1730865954.3836603,-1.7605763673782349,0.9291214346885681,-9.799591064453125,-0.24605078876816383,-0.2052721935844895,-10.700068466514384,0.8896517545159479,1.3205606446788116,-1.3522488436665578
1730865954.433618,-1.7605763673782349,0.9291214346885681,-9.799591064453125,-0.2457447998426167,-0.20796067050544595,-10.70612625452142,0.8827728128402922,1.3195585218262023,-1.6980121503127699
1730865954.433618,-1.710945725440979,1.0032237768173218,-9.818702697753906,-0.24545714265036594,-0.2106933460710233,-10.711703593396003,0.8827397587846559,1.3195527149062785,-1.6996641008468303
1730865954.4836576,-1.7012803554534912,1.053971767425537,-9.838756561279297,-0.24519642591471472,-0.21344691156505785,-10.716796835996998,0.8921675322394939,1.3180233931279977,-1.2654303597864018
1730865954.5335536,-1.7012803554534912,1.053971767425537,-9.838756561279297,-0.244969858622458,-0.21619961199151017,-10.721404248837409,0.8854265405701641,1.3159665913126752,-1.6003630296783222
1730865954.5335536,-1.6881037950515747,1.0379717350006104,-9.849413871765137,-0.24478311556415755,-0.21893176117590762,-10.72552614682681,0.8853967287378668,1.3159567513748744,-1.6018366350459008
1730865954.5836434,-1.6881037950515747,1.0379717350006104,-9.849413871765137,-0.244640353597827,-0.22162583147574574,-10.729164930726537,0.894350672769006,1.31334605723164,-1.1952279974111444
1730865954.5836434,-1.7113316059112549,0.9963055849075317,-9.854170799255371,-0.2445443086463415,-0.22426624493006297,-10.732325051369159,0.8943215931534232,1.3133328794955592,-1.196669422897286
1730865954.6335702,-1.7113316059112549,0.9963055849075317,-9.854170799255371,-0.24449648794930703,-0.22683905308703148,-10.73501293436168,0.8876786386252299,1.310178855786452,-1.5242346659793289
1730865954.6335702,-1.745736837387085,0.9328804016113281,-9.85682487487793,-0.24449745470366568,-0.22933156592519585,-10.737236877479562,0.8876495237188119,1.310164457460381,-1.5256634712416293
1730865954.683587,-1.745736837387085,0.9328804016113281,-9.85682487487793,-0.2445471428582723,-0.2317319485493408,-10.739006931745015,0.8803461379682646,1.3064135322008938,-1.8824897374411187
1730865954.683587,-1.7479357719421387,0.8603179454803467,-9.831171989440918,-0.24464513239872965,-0.23402880995680117,-10.74033474880415,0.880311384603054,1.3063950742710908,-1.8841807681206881
1730865954.733575,-1.7479357719421387,0.8603179454803467,-9.831171989440918,-0.2447908100191934,-0.23621081265028993,-10.741233353369353,0.8922110019768444,1.3021171166656964,-1.3231067756927395
1730865954.733575,-1.7491909265518188,0.843873918056488,-9.839099884033203,-0.2449834198200414,-0.2382663747802404,-10.741716885909307,0.8921837071509727,1.3020982737751814,-1.324431107491663
1730865954.7836032,-1.7491909265518188,0.843873918056488,-9.839099884033203,-0.24522207634314536,-0.24018357198918158,-10.741800433570821,0.8851954415541675,1.2971854889391856,-1.6620555858100656
1730865954.7836032,-1.719849944114685,0.8954249024391174,-9.856204986572266,-0.24550574702534295,-0.24195027957886978,-10.74149997093156,0.8851618084720759,1.297161454423978,-1.6636741377216362
1730865954.8335345,-1.719849944114685,0.8954249024391174,-9.856204986572266,-0.24583315573061518,-0.2435545385129068,-10.740832350069494,0.8972621680612215,1.291639848118418,-1.1723366896453622
1730865954.8335345,-1.69038987159729,1.013269066810608,-9.893735885620117,-0.2462026213849435,-0.2449851161328369,-10.739815320027109,0.8972349257700359,1.2916144873270974,-1.1736902230844533
1730865954.8834958,-1.69038987159729,1.013269066810608,-9.893735885620117,-0.24661189852674165,-0.24623222197612418,-10.738467590417617,0.9068372772564288,1.285542162390064,-0.8595562922379658
1730865954.8834958,-1.6407148838043213,1.1782209873199463,-9.94733715057373,-0.24705803110620023,-0.24728832705449624,-10.73680893708056,0.9068136269856499,1.2855133605828666,-0.8608244555614094
1730865954.9335127,-1.6407148838043213,1.1782209873199463,-9.94733715057373,-0.24753718364624,-0.2481490252975122,-10.734860333403946,0.9012304713843368,1.2787804738367397,-1.1570400036629673
1730865954.9335127,-1.5968351364135742,1.3148117065429688,-9.980710983276367,-0.24804446112406428,-0.24881383352005873,-10.732644064306147,0.901206168427143,1.2787514248916325,-1.1583170832266605
1730865954.9834745,-1.5968351364135742,1.3148117065429688,-9.980710983276367,-0.24857376889478247,-0.24928679162121262,-10.730183757809257,0.8950143253504256,1.2714098002336383,-1.4807926285363573
1730865954.9834745,-1.5788203477859497,1.3853707313537598,-9.986942291259766,-0.24911775048197746,-0.2495767816355099,-10.727504306351765,0.8949876893942491,1.2713784493878633,-1.482168574364295
1730865955.0333755,-1.5788203477859497,1.3853707313537598,-9.986942291259766,-0.24966782910402335,-0.24969753369880165,-10.72463168197195,0.9054404866674202,1.2634332871191485,-1.0199830378463544
1730865955.0333755,-1.59587824344635,1.345052719116211,-9.986001014709473,-0.25021436386265217,-0.24966728910658553,-10.72159267440352,0.9054212005698655,1.2634054738502556,-1.0209821706861886
1730865955.0834413,-1.59587824344635,1.345052719116211,-9.986001014709473,-0.25074691863918563,-0.2495080930046884,-10.71841460195887,0.8993458608640982,1.2547843678811317,-1.33287547642137
1730865955.0834413,-1.6471034288406372,1.241713523864746,-9.92891788482666,-0.25125463144048654,-0.24924478155306928,-10.715124976072417,0.8993140101790018,1.2547398354576051,-1.334497142865012
1730865955.1334794,-1.6471034288406372,1.241713523864746,-9.92891788482666,-0.2517266632785241,-0.24890380613206578,-10.711751042087359,0.8926247475335176,1.2455158202093584,-1.6724507758601503
1730865955.1334794,-1.7504501342773438,1.1041513681411743,-9.85863208770752,-0.25215272455305215,-0.24851200108587573,-10.708319214945146,0.8925891013928609,1.2454672909163544,-1.6742389340145634
1730865955.1834555,-1.8304283618927002,0.9711137413978577,-9.74976921081543,-0.25252376476357796,-0.24809525011290884,-10.704854411994095,0.9068226005888199,1.2356289678256893,-1.1037076031619872
1730865955.2333221,-1.9156988859176636,0.9128645658493042,-9.670672416687012,-0.2528328886332178,-0.24767697183548631,-10.701379154010581,0.9006337526891642,1.2251839026134332,-1.42162394038753
1730865955.2834413,-1.9156988859176636,0.9128645658493042,-9.670672416687012,-0.2530762540799094,-0.24727679496197003,-10.697912587220427,0.8937571604900906,1.2140284350921493,-1.7691110772459522
1730865955.2834413,-1.9563443660736084,0.903839647769928,-9.61693286895752,-0.25325356780072894,-0.24690996543717408,-10.694469877735965,0.8937168451131474,1.2139641929141964,-1.7711334500222335
1730865955.3332965,-1.9563443660736084,0.903839647769928,-9.61693286895752,-0.2533681117628772,-0.24658744971991398,-10.691062090670579,0.8863093714422455,1.202354007028078,-2.140234060632505
1730865955.3332965,-1.9662718772888184,0.9583784937858582,-9.625625610351562,-0.25342650154883317,-0.24631637663358122,-10.687696352616518,0.8862660324902644,1.2022871200813188,-2.14238018870902
1730865955.3834836,-1.923431158065796,1.0500279664993286,-9.705564498901367,-0.25343827641524436,-0.24610075187105612,-10.684376295430908,0.9062359712324737,1.189930459816647,-1.3584232008348736
1730865955.4342368,-1.8367159366607666,1.1513241529464722,-9.823517799377441,-0.2534152259619401,-0.24594255943238827,-10.681102954363409,0.8994578505600574,1.176793274532898,-1.7052686341432315
1730865955.4842105,-1.7143102884292603,1.2665013074874878,-9.948857307434082,-0.25337031003417865,-0.24584317012245865,-10.677876167262049,0.9152963646489858,1.1632653480817643,-1.1341594757188176
1730865955.5342638,-1.5934988260269165,1.3747628927230835,-10.055098533630371,-0.25331617666846673,-0.2458048205893969,-10.674696254014517,0.9091057162580941,1.1490363328485622,-1.4619940475536999
1730865955.5842412,-1.4835880994796753,1.4298890829086304,-10.111140251159668,-0.253263519049949,-0.24583192593297226,-10.671565561651287,0.9215737488696771,1.1342317236834822,-1.0080649059430693
1730865955.6342456,-1.443881630897522,1.4316983222961426,-10.103753089904785,-0.2532196419161919,-0.24593194598273793,-10.668489469120201,0.9155923897972603,1.1187765543372294,-1.3290199896783463
1730865955.6842623,-1.4952565431594849,1.3775787353515625,-10.049909591674805,-0.25318764836727947,-0.24611553734270228,-10.665476596862556,0.9258353592772656,1.1027572057084511,-0.9438566611701764
1730865955.7341847,-1.6399167776107788,1.2702287435531616,-9.953142166137695,-0.2531666290566078,-0.2463959027682008,-10.66253819434294,0.9198529523919357,1.086115979434894,-1.2623013964316545
1730865955.7842758,-1.8158236742019653,1.1555479764938354,-9.814238548278809,-0.25315298823815646,-0.24678746033045648,-10.659686865173569,0.9286854690352442,1.068802862298115,-0.9203997597335009
1730865955.8341494,-1.987913966178894,1.0372942686080933,-9.684324264526367,-0.25314260575869973,-0.24730412394745577,-10.656934861568661,0.9342875224579094,1.0509838140433325,-0.7025402464138607
1730865955.8841746,-2.1046435832977295,0.9711049795150757,-9.589987754821777,-0.25313320243657805,-0.24795759338054588,-10.654292273896253,0.9284534396572716,1.0324548872430015,-1.006368467297557
1730865955.9341092,-2.1483964920043945,0.9394667744636536,-9.553539276123047,-0.25312623720491056,-0.24875604599914505,-10.651765551517247,0.9220033422713081,1.0133557504481896,-1.3359661683089163
1730865955.9841945,-2.121264934539795,0.9565346837043762,-9.586009979248047,-0.25312786065435366,-0.24970349173594947,-10.649356742596954,0.9148928385591921,0.9935552481405766,-1.693584501677428
1730865956.0340698,-2.039263963699341,0.9619608521461487,-9.645097732543945,-0.2531487636755684,-0.2507998065675402,-10.64706361916922,0.9250273172480028,0.9732468488129751,-1.232569103458782
1730865956.0840585,-1.9312196969985962,0.9948458671569824,-9.719782829284668,-0.25320307267973796,-0.25204122536923607,-10.644880556002505,0.9178961055269198,0.9522387746766476,-1.583472241629159
1730865956.1340225,-1.8107657432556152,1.0069457292556763,-9.799466133117676,-0.2533066408607202,-0.25342102775843256,-10.642799823024683,0.9101360997258706,0.9306108140400576,-1.960774420044312
1730865956.184022,-1.7375962734222412,1.0039891004562378,-9.883305549621582,-0.25347516393038627,-0.25493021957884904,-10.640812973957939,0.9017499443155056,0.9083654408617329,-2.3643337384924386
1730865956.2339506,-1.6901278495788574,0.9899908900260925,-9.963652610778809,-0.25372255626876317,-0.256558054293222,-10.63891215563486,0.9193739356489296,0.8855174927742635,-1.6683172177552974
1730865956.2840056,-1.6511867046356201,1.0167818069458008,-10.022025108337402,-0.2540598722961037,-0.25829236700641994,-10.63709123726179,0.9114326725826238,0.8618742694720867,-2.05509657050736
1730865956.3338845,-1.626352071762085,1.0566904544830322,-10.058816909790039,-0.254494758816286,-0.2601199067448656,-10.635346652427671,0.9270689655646989,0.8378180270665547,-1.4936093030180166
1730865956.3839247,-1.6089198589324951,1.1275053024291992,-10.08283519744873,-0.2550312639517424,-0.26202687957362714,-10.633677867148728,0.9195221429451237,0.8128865881644368,-1.868753827706918
1730865956.433835,-1.548673152923584,1.161179542541504,-10.08017635345459,-0.25566983277521027,-0.26399970804806655,-10.632087471131385,0.9354769675949745,0.7875055922442858,-1.3912347357832917
1730865956.4838657,-1.5168516635894775,1.1840696334838867,-10.051786422729492,-0.256407315523417,-0.26602578723244696,-10.630580929517624,0.9475821997358291,0.7612790688040653,-1.0853438285612897
1730865956.533793,-1.4813148975372314,1.1318827867507935,-9.987784385681152,-0.25723692588705444,-0.26809393743793636,-10.629165999362149,0.941475922516213,0.7345214220165183,-1.4282220653639255
1730865956.5838237,-1.4938756227493286,1.0512200593948364,-9.905617713928223,-0.25814828825143926,-0.2701943177638277,-10.62785181045589,0.9346943261016815,0.7069573985886788,-1.7994049640062162
1730865956.6337664,-1.5253958702087402,0.9455553293228149,-9.82075309753418,-0.2591277597642624,-0.2723177400999349,-10.626647685790697,0.9272915652292385,0.6788153451502378,-2.195778896467392
1730865956.683823,-1.6069215536117554,0.8572342395782471,-9.72569751739502,-0.26015913479300107,-0.274454576831608,-10.625561863409395,0.941998483135482,0.6498320839788271,-1.6305661486044944
1730865956.7337284,-1.7038275003433228,0.803158164024353,-9.66273307800293,-0.2612247477633125,-0.27659363324237773,-10.624600298865087,0.9347783319169964,0.6203528355038946,-2.0145242067260227
1730865956.7837372,-1.7038275003433228,0.803158164024353,-9.66273307800293,-0.2623067856412461,-0.2787213659141895,-10.623765762424416,0.9485545191655534,0.5901926161942036,-1.5226038793434555
1730865956.7837372,-1.8090814352035522,0.8006678223609924,-9.635173797607422,-0.26338843955124946,-0.2808216726442666,-10.623057443678254,0.9485188017678458,0.5900305018289189,-1.5245316813853276
1730865956.8336544,-1.8090814352035522,0.8006678223609924,-9.635173797607422,-0.2644547411162269,-0.2828761784744501,-10.622471029462002,0.9590147808478056,0.5593550170791081,-1.187742676464446
1730865956.8336544,-1.8927173614501953,0.8072279691696167,-9.634767532348633,-0.26549318858885396,-0.2848647438887828,-10.621999018472774,0.9589830251731254,0.5591915253161617,-1.18950282938296
1730865956.883653,-1.9440635442733765,0.8602471947669983,-9.668485641479492,-0.26649425128867976,-0.28676604853334436,-10.6216311649477,0.9525953780477759,0.5276572908004589,-1.5383876004896884
1730865956.9336395,-1.9440635442733765,0.8602471947669983,-9.668485641479492,-0.2674517726800225,-0.2885582759648985,-10.6213550573674,0.9454994025603943,0.4952043761275985,-1.9160505165063721
1730865956.9336395,-1.9826576709747314,0.9154075980186462,-9.733817100524902,-0.2683631577687707,-0.29021985029517927,-10.621156786497302,0.9454556514689294,0.4950112283370135,-1.918352194913397
1730865956.9837236,-1.9989776611328125,0.9727869033813477,-9.810914993286133,-0.26922929207190555,-0.29173016010017516,-10.62102172329811,0.9587076647713814,0.4620311999136745,-1.4224639019591705
1730865957.033659,-1.9968469142913818,1.0430967807769775,-9.891023635864258,-0.2700543286450843,-0.2930703433457257,-10.62093550205289,0.9518211112248762,0.42831166300114365,-1.7854527609683963
1730865957.083661,-1.9078164100646973,1.1033395528793335,-9.982389450073242,-0.27084529399175683,-0.29422414565881205,-10.620885147957225,0.9442112155041599,0.3936332691782252,-2.17745981708307
1730865957.1336153,-1.811535358428955,1.1505705118179321,-10.037453651428223,-0.271611251513745,-0.2951787085128108,-10.620860149178792,0.9591200621493547,0.358411723738727,-1.598543256767233
1730865957.1835968,-1.684177279472351,1.158101201057434,-10.068291664123535,-0.2723619532381166,-0.29592511897103324,-10.620853272290379,0.9517577118562416,0.32236694997267884,-1.9739835008112334
1730865957.2335598,-1.607757568359375,1.1402833461761475,-10.083259582519531,-0.2731062480084733,-0.2964585763310773,-10.620860964530241,0.9437103221042299,0.2855664672821286,-2.3761378289468853
1730865957.2836456,-1.5794684886932373,1.0847864151000977,-10.054425239562988,-0.2738506912791887,-0.2967780947155687,-10.620883305003826,0.9349951578442024,0.24809178352303465,-2.8040661565262557
1730865957.3335211,-1.6266781091690063,1.0333889722824097,-10.00820255279541,-0.27459878666142695,-0.2968857853133525,-10.620923540669828,0.9557933998934441,0.20991815295471855,-1.9890039535828015
1730865957.3835816,-1.7076492309570312,0.985153317451477,-9.948284149169922,-0.2753510935516412,-0.29678589923664,-10.620987262276646,0.9700617900598638,0.17093984350787889,-1.4985734268587636
1730865957.4335127,-1.7534598112106323,0.9991579055786133,-9.872818946838379,-0.27610606929420645,-0.2964839210663248,-10.62108134445158,0.962778907666712,0.13119960632528524,-1.8659443869225325
1730865957.4836228,-1.761965274810791,1.019677996635437,-9.80775260925293,-0.2768611468739061,-0.2959860118812871,-10.621212804071678,0.9547783906811386,0.0905868147023716,-2.2611676096855757
1730865957.5335631,-1.7332777976989746,1.0601274967193604,-9.740081787109375,-0.2776134954566525,-0.2952989195538982,-10.621387711547762,0.9461129105754148,0.049378589833296134,-2.6815520909001167
1730865957.5835302,-1.7360866069793701,1.0578792095184326,-9.706241607666016,-0.278360268132233,-0.2944301892100513,-10.621610283221418,0.936698344487547,0.007194000945721434,-3.1310650402742355
1730865957.633568,-1.7078824043273926,1.0534155368804932,-9.675688743591309,-0.2790985332370381,-0.29338836168563026,-10.62188226446624,0.959121348526579,-0.035474255434518334,-2.205590368296208
1730865957.683474,-1.7233083248138428,1.0290294885635376,-9.678693771362305,-0.27982514928657837,-0.2921829487908142,-10.62220265879282,0.9503414835607812,-0.07867740902755535,-2.620216640567196
1730865957.733404,-1.7296462059020996,1.0342074632644653,-9.693284034729004,-0.280536724623102,-0.2908242048160334,-10.622567799112216,0.9697706037788689,-0.12268205096501307,-1.910377459642141
1730865957.7834828,-1.7782323360443115,1.0552161931991577,-9.738544464111328,-0.28122974574808063,-0.28932288660646854,-10.62297173441658,0.9614318634208046,-0.16761694626089094,-2.3086120481357852
1730865957.833414,-1.8271551132202148,1.1032934188842773,-9.756502151489258,-0.2819009221009051,-0.2876902066518516,-10.623406860232745,0.9524176075257368,-0.2131288658453706,-2.7320686369956655
1730865957.8834038,-1.8970963954925537,1.1459044218063354,-9.80887222290039,-0.2825477325421706,-0.2859380491655469,-10.62386464756868,0.942641077525425,-0.2596314642460632,-3.184719044704119
1730865957.933347,-1.9201931953430176,1.1988476514816284,-9.833016395568848,-0.2831690604984495,-0.2840793590951394,-10.624336349096449,0.9653744372235792,-0.30643699027661325,-2.2564108716719318
1730865957.983341,-1.93211030960083,1.2210768461227417,-9.855461120605469,-0.2837656909716487,-0.28212854490644357,-10.624813617916566,0.9561605491575286,-0.3542715034727531,-2.678489071549045
1730865958.0332818,-1.8952357769012451,1.1917591094970703,-9.863088607788086,-0.28434044839435507,-0.28010169920837913,-10.62528896010544,0.9758602879966157,-0.40234879146512315,-1.9620544198780627
1730865958.0833924,-1.8952357769012451,1.1917591094970703,-9.863088607788086,-0.2848979355671795,-0.27801646496840055,-10.625755972986829,0.9671005908309965,-0.45185158585707025,-2.3674600031350885
1730865958.0833924,-1.8420480489730835,1.143674373626709,-9.883455276489258,-0.28544402755595794,-0.2758915769032509,-10.626209417472683,0.9670493187249458,-0.4521317880083009,-2.369814570582888
1730865958.1332362,-1.7618697881698608,1.129366159439087,-9.8805570602417,-0.2859852215198399,-0.27374625144978554,-10.626645224977004,0.9831283482250226,-0.5017456248082776,-1.7617786761859446
1730865958.1833367,-1.694387674331665,1.115341305732727,-9.905627250671387,-0.2865277900975047,-0.2715995738380661,-10.627060502293634,0.974759694234011,-0.5520203246507778,-2.147377170202024
1730865958.2332082,-1.6100733280181885,1.094612956047058,-9.931663513183594,-0.28707678903290473,-0.26946999907690605,-10.627453565766807,0.965664300673571,-0.6030555321345316,-2.5600380683820636
1730865958.2832747,-1.5418109893798828,1.0807050466537476,-9.972339630126953,-0.2876351043943238,-0.2673749868988695,-10.627824059000528,0.9835076586826723,-0.6549349544487716,-1.891047139138478
1730865958.3331993,-1.5418109893798828,1.0807050466537476,-9.972339630126953,-0.28820271825345334,-0.26533072562139826,-10.628173138060221,0.9952529725450012,5.702141647005756,-1.4701032382319317
1730865958.3331993,-1.499990701675415,1.0729589462280273,-10.015694618225098,-0.2887763658876525,-0.26335195903653114,-10.62850361019946,0.9952124234984187,5.702274496773466,-1.4719727252471095
1730865958.383289,-1.499990701675415,1.0729589462280273,-10.015694618225098,-0.2893495839453375,-0.2614519200879639,-10.6288199812367,0.9872189800712778,5.726949650262993,-1.8371120839552093
1730865958.383289,-1.4388550519943237,1.0682786703109741,-10.016959190368652,-0.2899129235756808,-0.25964232206013743,-10.62912841873315,0.9871735159766947,5.727082131073356,-1.8391712473374626
1730865958.4332135,-1.4388550519943237,1.0682786703109741,-10.016959190368652,-0.2904541448511252,-0.2579333752069071,-10.62943658605601,0.9997781564184693,6.058008186328326,-1.4048601573501198
1730865958.4332135,-1.4234479665756226,1.0768064260482788,-10.036955833435059,-0.29095841208958934,-0.2563338318262468,-10.629753382334911,0.9997324055074092,6.058130515517454,-1.406978986622499
1730865958.4831707,-1.4234479665756226,1.0768064260482788,-10.036955833435059,-0.29140860617983383,-0.2548510738760012,-10.630088714166067,0.9919515829941371,6.077646124656692,-1.7637549560313948
1730865958.4831707,-1.4432932138442993,1.1116139888763428,-10.005428314208984,-0.2917857830075393,-0.2534912571757235,-10.630453287819847,0.9919064545434995,6.077752510114243,-1.7658053837505707
1730865958.5341525,-1.5085569620132446,1.1484904289245605,-9.962830543518066,-0.29206979144398304,-0.2522595591247121,-10.630858256225354,0.9832596690835871,6.096927560755296,-2.155283930019954
1730865958.5831633,-1.5824558734893799,1.1850098371505737,-9.87814998626709,-0.29224014498547535,-0.251160567686896,-10.63131460545259,0.998042654010878,6.213587877363554,-1.5684928471186341
1730865958.6341417,-1.5824558734893799,1.1850098371505737,-9.87814998626709,-0.2922770736912951,-0.25019870852603276,-10.631832362873247,0.9895818022581434,6.227719299057232,-1.9427392277063429
1730865958.6341417,-1.7026240825653076,1.1562330722808838,-9.797066688537598,-0.2921624915625988,-0.24937848455066217,-10.632419866647954,0.9895301655880705,6.227799913524876,-1.9450057485281476
1730865958.6841717,-1.7026240825653076,1.1562330722808838,-9.797066688537598,-0.2918808070821508,-0.24870439971757424,-10.633083237233311,0.9805446095090665,6.240953273512745,-2.336708728560195
1730865958.6841717,-1.8434793949127197,1.0966352224349976,-9.701960563659668,-0.29141967689998094,-0.24818065280561535,-10.633825986542627,0.9804931216056366,6.241024021695573,-2.3389389221767565
1730865958.7341104,-1.8434793949127197,1.0966352224349976,-9.701960563659668,-0.29077071308173086,-0.2478107349132189,-10.634648680190303,0.9708001149870867,6.253541884308925,-2.7563649956805096
1730865958.7341104,-1.9647480249404907,1.0394996404647827,-9.635427474975586,-0.2899300810141394,-0.24759701138622417,-10.635548673029401,0.9707446875033908,6.25360921254227,-2.758739086808987
1730865958.7841659,-1.9647480249404907,1.0394996404647827,-9.635427474975586,-0.2888989223010089,-0.24754035603821642,-10.636519988545738,0.9926055333164897,6.3053607380680035,-1.880338090513408
1730865958.7841659,-2.0362460613250732,0.9632866978645325,-9.589738845825195,-0.28768355779856414,-0.2476398455909516,-10.637553355142433,0.9925551785303847,6.3054118474811895,-1.882499096485737
1730865958.8331368,-2.0580220222473145,0.9396564364433289,-9.595098495483398,-0.2862954638371915,-0.24789245004612895,-10.638636368097469,0.9837999730623185,6.31365729623718,-2.2562720649452297
1730865958.8841126,-2.0260348320007324,0.9472898840904236,-9.640368461608887,-0.2847510168445404,-0.24829275529333406,-10.639753823886398,1.0003871547127179,6.337877696702463,-1.592433318912601
1730865958.9341154,-1.9630955457687378,1.0134309530258179,-9.721592903137207,-0.2830708688097882,-0.2488329835156346,-10.640888392718018,0.9918540649212991,6.342689836974684,-1.9532398236108712
1730865958.984118,-1.895137906074524,1.0919886827468872,-9.815616607666016,-0.28127883531995884,-0.24950355218090503,-10.64202172316426,1.005643223231417,6.352450136597736,-1.414571394253329
1730865959.0339692,-1.8222602605819702,1.1473636627197266,-9.905097961425781,-0.2794004741171393,-0.25029407279924976,-10.643135827665896,0.9973908279839322,6.354101329631543,-1.7619769265739817
1730865959.0840662,-1.7455374002456665,1.1361726522445679,-9.956357955932617,-0.27746163638438803,-0.25119437471257,-10.644214447976283,1.0103006877498053,6.3550051382199895,-1.3058801065376893
1730865959.1339521,-1.700907826423645,1.1482601165771484,-10.000899314880371,-0.27548716230756065,-0.25219512944654376,-10.645244113244072,1.002337982692657,6.353686917837169,-1.6462072703404336
1730865959.1839936,-1.7207727432250977,1.1174755096435547,-10.020934104919434,-0.27349990284410153,-0.2532879884160142,-10.646214755559772,0.9936334446271244,6.351725316256887,-2.0155132890005345
1730865959.233999,-1.7523990869522095,1.134559988975525,-9.988039016723633,-0.27152029775798214,-0.2544654457909659,-10.647119884417187,1.00724822752131,6.355570422037564,-1.472999374155974
1730865959.2839696,-1.8286563158035278,1.1376848220825195,-9.950651168823242,-0.2695665767217562,-0.25572066729713305,-10.647956311213271,0.9988253061212454,6.35213797847124,-1.8286463709304297
1730865959.3339097,-1.8731988668441772,1.1633003950119019,-9.883402824401855,-0.2676554017075138,-0.2570474345956604,-10.648723455828717,1.011492452081145,6.349704331733343,-1.362594705053299
1730865959.3839538,-1.87714421749115,1.2097761631011963,-9.829784393310547,-0.265802611143404,-0.2584402510484401,-10.649422396372346,1.0199386125539818,6.348987486498885,-1.0660880518867815
1730865959.43391,-1.8527741432189941,1.2444229125976562,-9.779115676879883,-0.26402367993815407,-0.2598946033937945,-10.650054870025201,1.0124191854466973,6.3433337343999225,-1.3907798353914913
1730865959.483997,-1.7791498899459839,1.2536530494689941,-9.761033058166504,-0.26233366540480496,-0.26140728900402754,-10.650622419149983,1.0041203892769472,6.336937352362601,-1.7473449282334876
1730865959.5338774,-1.7433054447174072,1.2289862632751465,-9.7857084274292,-0.2607466862617782,-0.26297658831660786,-10.65112586270212,1.0153194423703842,6.329944870360838,-1.32635782905844
1730865959.583923,-1.7001326084136963,1.2023404836654663,-9.813427925109863,-0.2592752076359438,-0.264602108956297,-10.651565211834546,1.0071205524396543,6.322224650093133,-1.6802522152452175
1730865959.6338441,-1.658395528793335,1.1724835634231567,-9.855494499206543,-0.25792942164114363,-0.26628434207506635,-10.651939983098181,1.0177657363891903,6.313897021092964,-1.2902387657055001
1730865959.6838272,-1.589672565460205,1.1396898031234741,-9.88569164276123,-0.2567167745214878,-0.2680241045521569,-10.652249711678035,1.0254398701822738,6.304897602643196,-1.0329891106280602
1730865959.733828,-1.5081108808517456,1.1046420335769653,-9.922158241271973,-0.2556414992892527,-0.26982199295476117,-10.6524944775596,1.0179105741619627,6.295177144307243,-1.3661392759569098
1730865959.7838185,-1.4295170307159424,1.1049782037734985,-9.95274543762207,-0.2547040633052531,-0.2716779162226705,-10.65267535384789,1.0097512395322472,6.284790536093331,-1.7255658256714341
1730865959.833836,-1.4276865720748901,1.1359474658966064,-9.951932907104492,-0.2539006576823414,-0.2735908357868242,-10.652794730122693,1.0009668182396845,6.273736038005191,-2.1111529885649163
1730865959.8838398,-1.4848183393478394,1.1582427024841309,-9.916403770446777,-0.25322309066477455,-0.275558838640223,-10.652856406472285,1.0138619502344184,6.262009167527034,-1.5919408970024997
1730865959.9337692,-1.4848183393478394,1.1582427024841309,-9.916403770446777,-0.2526593268310226,-0.2775794493532997,-10.652865377168123,1.0231274563297057,6.249614469882051,-1.2550540098797818
1730865959.9337692,-1.5948827266693115,1.1681678295135498,-9.850994110107422,-0.25219448662951205,-0.27964992626224,-10.652827394090746,1.0231031245176267,6.24957366783789,-1.2561362842709558
1730865959.9839382,-1.7093874216079712,1.1369863748550415,-9.79179573059082,-0.2518121087451537,-0.2817673918082173,-10.652748393455111,1.0151493628294597,6.236412987623527,-1.609227967618863
1730865960.0338023,-1.8193243741989136,1.1080282926559448,-9.737626075744629,-0.25149570174618524,-0.2839287656364017,-10.652633774966022,1.0248223188763506,6.222643692668619,-1.2548661765161144
1730865960.083812,-1.884267807006836,1.1029753684997559,-9.714607238769531,-0.25123038110822105,-0.28613053495813157,-10.652487670402664,1.0169445612388042,6.208045569716586,-1.6076649836408805
1730865960.1337838,-1.9105286598205566,1.1115912199020386,-9.716594696044922,-0.2510041405376311,-0.2883685377691369,-10.652312461482502,1.0084808877204228,6.19280643148564,-1.9852209934854808
1730865960.1837988,-1.9257912635803223,1.116139531135559,-9.744019508361816,-0.25080849839339814,-0.29063793407957916,-10.652108695315583,1.0207000128473356,6.176825071881101,-1.5129012138479294
1730865960.2337227,-1.9447674751281738,1.1083884239196777,-9.78177261352539,-0.2506385974226214,-0.2929333280282037,-10.651875386992725,1.0124323145236407,6.160113978686046,-1.883622611585879
1730865960.28374,-1.942165493965149,1.0875669717788696,-9.824285507202148,-0.2504930031000298,-0.2952488737495472,-10.65161059232178,1.0238809305931642,6.142667069099269,-1.4539389149354494
1730865960.3336928,-1.9253342151641846,1.0885087251663208,-9.844911575317383,-0.25037334686914514,-0.2975782777256076,-10.651312074060547,1.0157855105836862,6.1244887999780575,-1.8200851132603186
1730865960.383695,-1.8715403079986572,1.0781447887420654,-9.8873929977417,-0.2502837876779674,-0.29991475942299994,-10.650977899208712,1.0070449992350305,6.105521404172022,-2.2137281522022687
1730865960.4336674,-1.8378441333770752,1.0401469469070435,-9.917705535888672,-0.25023025583033,-0.3022510214915721,-10.65060691980191,0.9977136727811992,6.085875073931421,-2.632434295135692
1730865960.48365,-1.8378441333770752,1.0401469469070435,-9.917705535888672,-0.2502196185990798,-0.3045791753564261,-10.650199145033708,1.0156944650327187,6.065495256974715,-1.9384936808235202
1730865960.48365,-1.7672381401062012,1.032460331916809,-9.951805114746094,-0.25025897659416213,-0.30689064957543205,-10.649755958482896,1.0156621838302322,6.065416499542081,-1.9399594349942175
1730865960.5337403,-1.7021394968032837,1.0370874404907227,-9.975760459899902,-0.25035503086722677,-0.3091762044089865,-10.649280211397537,1.0068052714973854,6.0441868404805,-2.3412126338445742
1730865960.5838394,-1.65043306350708,1.073177456855774,-10.0149564743042,-0.25051333634289386,-0.3114261008731472,-10.648776324038293,1.0241182172737633,6.022089299932432,-1.746615735622724
1730865960.6337297,-1.6014059782028198,1.14634108543396,-10.020565032958984,-0.25073753483336086,-0.3136304757249156,-10.648250415689741,1.0158815961219931,5.99937312294507,-2.1318474241845498
1730865960.6836996,-1.5850491523742676,1.22859787940979,-9.987622261047363,-0.2510287918822651,-0.315780015946574,-10.647710312107623,1.0311335594398705,5.975862539618272,-1.6202766944799292
1730865960.733647,-1.6096011400222778,1.2526041269302368,-9.945744514465332,-0.2513855689896811,-0.31786683497171253,-10.647165244786464,1.0232773625832197,5.951435434141316,-1.9982481417235751
1730865960.7837098,-1.665219783782959,1.2559261322021484,-9.857342720031738,-0.2518038358171143,-0.319885187003451,-10.646625184644428,1.0148251610853156,5.926313149293842,-2.4012517743119313
1730865960.8336103,-1.7471556663513184,1.2027697563171387,-9.769553184509277,-0.2522777576111857,-0.3218316783993279,-10.6460998782066,1.0057491954678461,5.900404018316321,-2.8305804551858156
1730865960.8836133,-1.8258168697357178,1.1118991374969482,-9.667461395263672,-0.2528007385130335,-0.3237048719655462,-10.645597698370905,1.0252018922233477,5.873579861938463,-2.064744614290176
1730865960.9335773,-1.8258168697357178,1.1118991374969482,-9.667461395263672,-0.25336652707809204,-0.32550444429086406,-10.645124549062508,1.0166559421873143,5.846110309938046,-2.4706326867591457
1730865960.9335773,-1.8815194368362427,1.0185134410858154,-9.608986854553223,-0.2539700254100469,-0.32723027623013295,-10.644683159536743,1.0166081370341071,5.84595993767116,-2.47289383906522
1730865960.9835758,-1.8734042644500732,0.954424262046814,-9.58102798461914,-0.25460769486531415,-0.32888167406741436,-10.644272838805215,1.033978427922919,5.817698562669346,-1.8311795928819474
1730865961.033538,-1.8734042644500732,0.954424262046814,-9.58102798461914,-0.255277675546413,-0.33045666921212064,-10.643889482328845,1.0258840572558534,5.788534224518075,-2.2204533375818967
1730865961.033538,-1.824157476425171,0.9195178747177124,-9.613903045654297,-0.25597963834904874,-0.33195154459449905,-10.643525797221368,1.025840878090845,5.78838243516347,-2.2225194122544516
1730865961.0836797,-1.7324042320251465,0.9404146075248718,-9.695297241210938,-0.25671428983229994,-0.3333607488900066,-10.643171905603726,1.0170988224120527,5.758364754745027,-2.638760294613686
1730865961.133535,-1.6441199779510498,0.9858413338661194,-9.814929962158203,-0.2574824953174813,-0.3346771415294184,-10.642816407427343,1.0347198163406828,5.727621712771028,-1.9156842721753091
1730865961.1836119,-1.5686087608337402,1.074684739112854,-9.920032501220703,-0.2582841569712113,-0.33589258551526624,-10.642447836686555,1.0263655751740588,5.695829892520233,-2.310330878284722
1730865961.2334654,-1.542607307434082,1.151999592781067,-10.003628730773926,-0.2591171851349755,-0.3369989158552557,-10.642056243282514,1.0403526477695875,5.663373051312466,-1.7213211940880362
1730865961.283573,-1.5542049407958984,1.2301385402679443,-10.041191101074219,-0.25997690522690187,-0.33798909966411445,-10.641634507102685,1.032187842840769,5.629906427985045,-2.1014030831424177
1730865961.3333614,-1.6225168704986572,1.2406723499298096,-10.066964149475098,-0.2608560901814846,-0.3388582707583839,-10.641179113503522,1.0234367176534116,5.5958460383804836,-2.505102208380145
1730865961.3834236,-1.7253564596176147,1.2138913869857788,-10.027120590209961,-0.2617456498369396,-0.33960431138104696,-10.640690330302407,1.0139673485067167,5.560685021701019,-2.938400800214289
1730865961.4334004,-1.7253564596176147,1.2138913869857788,-10.027120590209961,-0.26263576072217987,-0.3402278335917209,-10.640171864052148,1.0329583110728977,5.5247792850766935,-2.110699305291783
1730865961.4334004,-1.8377536535263062,1.1672279834747314,-9.96264362335205,-0.2635169944971364,-0.3407317426925681,-10.639630172713165,1.032931313606713,5.524666140319112,-2.111922792707357
1730865961.4834306,-1.8377536535263062,1.1672279834747314,-9.96264362335205,-0.2643811999405271,-0.3411206627173634,-10.639073640185384,1.0239282347073408,5.48789505470114,-2.5182490567031275
1730865961.4834306,-1.8791604042053223,1.118408203125,-9.90227222442627,-0.26522214147118317,-0.3414003620353928,-10.63851176194204,1.0238907382790285,5.487745627877454,-2.5199348323205224
1730865961.5334456,-1.8703622817993164,1.049418330192566,-9.87574577331543,-0.26603583102938966,-0.3415771646026779,-10.637954400145968,1.040598549386128,5.45028550241382,-1.8199663282042127
1730865961.5833516,-1.7904411554336548,0.9940613508224487,-9.860814094543457,-0.2668204610679501,-0.3416572437799464,-10.63741112169992,1.0507723690536648,5.411846534559308,-1.3905168316940724
1730865961.6333067,-1.6464136838912964,0.9628157019615173,-9.86606502532959,-0.2675757866729315,-0.34164585110940193,-10.636890717564885,1.0428963926950798,5.372515025365919,-1.742108269134886
1730865961.683353,-1.5627888441085815,0.9482263922691345,-9.848698616027832,-0.268301880091499,-0.3415467300845576,-10.636400980946743,1.0343436506840047,5.332295288522842,-2.1205997412761812
1730865961.7333167,-1.562458872795105,0.9341247081756592,-9.841981887817383,-0.26899771601958694,-0.3413618572310761,-10.635948635360151,1.0251109537984597,5.291186910127617,-2.5260446241235126
1730865961.783527,-1.5797141790390015,0.9555282592773438,-9.840194702148438,-0.2696603319738009,-0.34109146626757914,-10.63553928583388,1.0407266102905384,5.2490219797431505,-1.8459273728504828
1730865961.8334281,-1.656130313873291,1.0449622869491577,-9.828990936279297,-0.2702848664053772,-0.34073436372829297,-10.635177390704325,1.0318283551750829,5.20635178013377,-2.2313189609120685
1730865961.883437,-1.7408385276794434,1.130565881729126,-9.812065124511719,-0.27086528596606246,-0.3402886652248825,-10.634866253854407,1.0222067448601502,5.1626119980074385,-2.645322507380553
1730865961.933372,-1.8037424087524414,1.1793253421783447,-9.80042552947998,-0.2713954881858759,-0.33975287887977607,-10.634607990183715,1.0119804653953606,5.118342377303665,-3.0827794387633936
1730865961.9834905,-1.8700915575027466,1.1633671522140503,-9.820185661315918,-0.27187044013182854,-0.33912688726855844,-10.634403495689892,1.0329172552052248,5.072778226850647,-2.18327799575179
1730865962.0333447,-1.9134926795959473,1.100498914718628,-9.80792236328125,-0.27228709255188244,-0.3384123393371432,-10.6342525191225,1.0232896066628754,5.026906270495378,-2.591008364283404
1730865962.083408,-1.9134926795959473,1.100498914718628,-9.80792236328125,-0.27264496031713625,-0.3376123649949771,-10.634153815140351,1.039519592108989,4.979795888074785,-1.8960323483727937
1730865962.083408,-1.9817607402801514,0.9967160820960999,-9.799867630004883,-0.27294635941462475,-0.33673092847933306,-10.634105268109451,1.0394803613743377,4.979589469395877,-1.897681878781832
1730865962.1332574,-2.009242534637451,0.8998187184333801,-9.762540817260742,-0.27319646887999666,-0.33577201375888055,-10.634103932207974,1.030210312447549,4.932171691788179,-2.2864072301953664
1730865962.1833553,-2.009242534637451,0.8998187184333801,-9.762540817260742,-0.2734033664826357,-0.33473866797278634,-10.634145976783682,1.0436838703955087,4.883280762337488,-1.6935874040016419
1730865962.1833553,-2.0146119594573975,0.8520634174346924,-9.732019424438477,-0.273577912283451,-0.33363222634592504,-10.634226583327113,1.0436468993481893,4.883074556450941,-1.6951192557021555
1730865962.2332752,-1.9653370380401611,0.8578269481658936,-9.763777732849121,-0.2737333470030596,-0.3324520058484883,-10.63433990734104,1.0527290674602452,4.833890695765052,-1.30078124568558
1730865962.2832632,-1.8760980367660522,0.9307280778884888,-9.811843872070312,-0.2738845761183033,-0.3311954208464013,-10.634479243165229,1.0442714187465258,4.783558409639246,-1.6483943298099268
1730865962.3331802,-1.7786275148391724,1.0387083292007446,-9.875558853149414,-0.2740470825436412,-0.3298585836805872,-10.634637510085097,1.0351430565912076,4.732474640774304,-2.0220147992474278
1730865962.3832405,-1.7020138502120972,1.1243410110473633,-9.926508903503418,-0.2742355699296638,-0.3284374508735533,-10.634808002323533,1.025293844794433,4.680375116225067,-2.423672113294508
1730865962.4332123,-1.6601722240447998,1.1989141702651978,-9.964488983154297,-0.2744626810296048,-0.3269291894413857,-10.634985166036364,1.040786547744448,4.62760605102917,-1.7727608322615749
1730865962.4832904,-1.6342209577560425,1.2611186504364014,-9.975395202636719,-0.27473811342897675,-0.3253333395647054,-10.635165178943964,1.0313017586822666,4.573865471544759,-2.156936855654095
1730865962.5331616,-1.622498869895935,1.2675787210464478,-9.962905883789062,-0.27506822348385707,-0.323652570957657,-10.635346203302298,1.0445619470985676,4.519609600612928,-1.613465396594809
1730865962.5832772,-1.639206886291504,1.2061913013458252,-9.937066078186035,-0.2754560323399358,-0.32189289857576775,-10.635528277429609,1.035300669243999,4.464180635391416,-1.9872770329360943
1730865962.6331246,-1.6860491037368774,1.1449236869812012,-9.880510330200195,-0.275901563224637,-0.32006322405969595,-10.63571289020401,1.0254150557031845,4.40832484435617,-2.3850644528433995
1730865962.6834114,-1.7109571695327759,1.0855287313461304,-9.83228588104248,-0.27640247046169464,-0.31817433231257536,-10.635902318211595,1.040740070900232,4.351025803260849,-1.7684454239786134
1730865962.7330935,-1.709753394126892,1.0741137266159058,-9.788422584533691,-0.27695477765945326,-0.3162377683106187,-10.636098851597364,1.031105523086548,4.293074611054049,-2.155264339141074
1730865962.7832174,-1.6724727153778076,1.0828081369400024,-9.795247077941895,-0.277553414811026,-0.3142650088145157,-10.636304119296575,1.044859583633023,4.235249030307454,-1.6221213124887943
1730865962.8330767,-1.6206578016281128,1.0981696844100952,-9.837224006652832,-0.2781923543748476,-0.3122670979299616,-10.636518763010454,1.0354721775282711,4.1756481741160005,-1.9998060549869814
1730865962.8830912,-1.5427521467208862,1.13316011428833,-9.84755802154541,-0.27886435758367956,-0.31025466115478795,-10.636742566343234,1.0475318437172854,4.116220838950158,-1.5278981276568262
1730865962.933006,-1.5629488229751587,1.1618047952651978,-9.863628387451172,-0.27956054051875323,-0.3082381325555102,-10.636974841810392,1.0383564013700175,4.055571482099427,-1.8964087466918416
1730865962.9830446,-1.629149079322815,1.215698003768921,-9.845447540283203,-0.28027019929913777,-0.30622809156073744,-10.637214756367396,1.0284451298814337,3.9939228186927305,-2.292956788253708
1730865963.0340078,-1.6967530250549316,1.2590280771255493,-9.838217735290527,-0.2809812785057633,-0.3042356642983215,-10.637461445308874,1.0175297432445054,3.9297921240273457,-2.7281359294312266
1730865963.084012,-1.7413307428359985,1.2730633020401,-9.82457160949707,-0.28168135356459234,-0.30227291743467416,-10.637713950842054,1.036028684619676,3.867247116070684,-1.9965643721804276
1730865963.1339903,-1.7413307428359985,1.2730633020401,-9.82457160949707,-0.28235861447575905,-0.300353083693658,-10.637971101861504,1.0258987567482443,3.803575593885751,-2.398776808293385
1730865963.1339903,-1.7646113634109497,1.2583575248718262,-9.81188678741455,-0.28300248327648536,-0.29849049388013965,-10.638231426775317,1.0258514257592664,3.8032864146490386,-2.4006528676349785
1730865963.1839724,-1.7786732912063599,1.2127102613449097,-9.802888870239258,-0.28360388327294933,-0.29670022560337717,-10.638493102060409,1.0417700414164124,3.738810502702055,-1.783322432814922
1730865963.233917,-1.8130278587341309,1.14822256565094,-9.807696342468262,-0.2841553848955193,-0.2949975021335022,-10.638753914473089,1.0320431764433635,3.6738443096559434,-2.168792380844124
1730865963.2838762,-1.809478998184204,1.100132703781128,-9.810400009155273,-0.2846513473264331,-0.29339688514855594,-10.639011269288044,1.021566065903707,3.607864278201781,-2.5824208408320453
1730865963.333905,-1.797210454940796,1.1131501197814941,-9.829365730285645,-0.2850879741894633,-0.29191147565516296,-10.63926228680864,1.0391901522126699,3.5410899050757236,-1.903757247654079
1730865963.383851,-1.7991148233413696,1.125964879989624,-9.836786270141602,-0.28546318320458697,-0.29055245667038243,-10.639503979148358,1.029131193546196,3.473504595366318,-2.2999956234150645
1730865963.4338167,-1.7826963663101196,1.1695894002914429,-9.845488548278809,-0.28577634636006294,-0.2893291184752306,-10.639733455598565,1.0440626349663438,5.802665173070803,-1.7355836653834142
1730865963.4838102,-1.7767739295959473,1.2048052549362183,-9.856528282165527,-0.28602800763839076,-0.2882492320686717,-10.63994809859954,1.0343010563055348,5.7747004129288,-2.1199366003800626
1730865963.5337822,-1.8129676580429077,1.1983704566955566,-9.851751327514648,-0.28621964972648556,-0.28731953052801784,-10.6401456857056,1.0472602404377607,5.886095764681716,-1.6338149159611304
1730865963.5838563,-1.865580439567566,1.1427628993988037,-9.82577133178711,-0.2863536542466436,-0.28654599532148634,-10.64032442076648,1.0378099603497744,5.863003030773915,-2.005573559742811
1730865963.633715,-1.881205439567566,1.0834192037582397,-9.824111938476562,-0.28643353062329335,-0.28593369549113146,-10.640482826468066,1.0272082549261974,5.8381673154144975,-2.4210072380699974
1730865963.68373,-1.863053321838379,1.0553536415100098,-9.826824188232422,-0.2864641813640815,-0.2854862493301722,-10.640619572719581,1.0432139882117648,5.890411372827149,-1.814586913731592
1730865963.7337158,-1.8265241384506226,1.0528087615966797,-9.850543975830078,-0.2864518676590363,-0.28520528176114773,-10.64073340561465,1.0329700800010921,5.868965982912251,-2.215096326064671
1730865963.7837036,-1.8265241384506226,1.0528087615966797,-9.850543975830078,-0.2864038271758354,-0.28509018975069367,-10.640823233398711,1.022526784288149,5.847869373062678,-2.622042230877765
1730865963.7837036,-1.7715882062911987,1.0776413679122925,-9.877630233764648,-0.2863277624114924,-0.2851382463420974,-10.640888288333809,1.0224788596478855,5.847774115903464,-2.6239069652331004
1730865963.8336518,-1.7715882062911987,1.0776413679122925,-9.877630233764648,-0.28623134925424976,-0.2853449144244779,-10.640928285488956,1.0407639801159276,5.879532867671282,-1.935613753762741
1730865963.8336518,-1.7354477643966675,1.0973707437515259,-9.941924095153809,-0.2861217996910952,-0.28570422973827214,-10.640943592219056,1.0407227182491763,5.879452728132106,-1.937223869637556
1730865963.8837056,-1.689695954322815,1.1317925453186035,-9.966397285461426,-0.28600548536796,-0.28620918624693154,-10.64093548950898,1.0305260419195184,5.859986211096789,-2.3344659376947865
1730865963.9335935,-1.689695954322815,1.1317925453186035,-9.966397285461426,-0.2858875845478246,-0.2868521390794024,-10.640906490733967,1.0196654128538445,5.839895560982031,-2.7563364386085656
1730865963.9335935,-1.6389662027359009,1.1293141841888428,-9.971222877502441,-0.2857717805240874,-0.2876251585390619,-10.640860504470172,1.0196149416874472,5.839803550095747,-2.758294345459811
1730865963.9836588,-1.6623183488845825,1.1505361795425415,-9.938908576965332,-0.2856600855383666,-0.288520234064082,-10.640802720379323,1.040042661127559,5.866547432185719,-1.9779901213135807
1730865964.0335605,-1.685981035232544,1.114296793937683,-9.907242774963379,-0.2855528592457406,-0.2895293608780526,-10.640739263359494,1.0295211021947832,5.8477865366620625,-2.385629640212058
1730865964.0836053,-1.685981035232544,1.114296793937683,-9.907242774963379,-0.2854490821722493,-0.2906445304569554,-10.640676711152498,1.0461928174647102,5.861442025064488,-1.7502802024493986
1730865964.0836053,-1.7127622365951538,1.098321795463562,-9.828071594238281,-0.2853467663971494,-0.29185761470278204,-10.640621592686589,1.0461432528984034,5.861352280447915,-1.7521982975644668
1730865964.1335196,-1.7381293773651123,1.0863145589828491,-9.812661170959473,-0.285243352022,-0.29316022873934294,-10.640579871489216,1.0363155076132593,5.843838692946481,-2.132020342874914
1730865964.1835907,-1.7394286394119263,1.1070185899734497,-9.751754760742188,-0.285136084950708,-0.29454365735087296,-10.640556386380196,1.0507552577222812,5.853327852066489,-1.5803326038755598
1730865964.2335656,-1.7783422470092773,1.099996566772461,-9.74980354309082,-0.28502235613889115,-0.29599888967906746,-10.640554364533479,1.041258609725711,5.836387359454553,-1.9462445397992956
1730865964.2834716,-1.775434136390686,1.1180026531219482,-9.734968185424805,-0.28489997616102947,-0.29751675556809853,-10.640575138704369,1.0310572944659053,5.818718895122516,-2.3384596286775277
1730865964.3334875,-1.775434136390686,1.1180026531219482,-9.734968185424805,-0.2847673718210275,-0.299088093072333,-10.640618107785546,1.0471131936753209,5.835182800589785,-1.7162237893066856
1730865964.3334875,-1.7961090803146362,1.0978853702545166,-9.74190616607666,-0.2846236637048983,-0.30070387695310674,-10.640680887929324,1.0470679535084193,5.835105688316801,-1.7179563747795479
1730865964.3834748,-1.8024729490280151,1.096219539642334,-9.761283874511719,-0.284468684858358,-0.3023552429291333,-10.640759586272019,1.037264642832149,5.81862381297548,-2.09308186001558
1730865964.4334664,-1.8024729490280151,1.096219539642334,-9.761283874511719,-0.2843030154323058,-0.3040334280946825,-10.640849159995222,1.0516009041921839,5.8296002060725565,-1.5458612423324876
1730865964.4334664,-1.8615046739578247,1.0873790979385376,-9.789366722106934,-0.2841280327677504,-0.3057297328925134,-10.640943798661985,1.0515572636063568,5.829526067804183,-1.547529767056755
1730865964.4834557,-1.8906596899032593,1.113863468170166,-9.796687126159668,-0.2839460617028121,-0.3074355500767393,-10.641037290031443,1.0420393877794145,5.813576617854128,-1.9111593562197324
1730865964.533443,-1.8906596899032593,1.113863468170166,-9.796687126159668,-0.28376063830004655,-0.3091424711201128,-10.64112335071859,1.0318450466503692,5.796910309293103,-2.3001265413419487
1730865964.533443,-1.8843986988067627,1.1354656219482422,-9.818350791931152,-0.2835766518944797,-0.31084246336808957,-10.6411958761571,1.0317883098780722,5.796818592745179,-2.302290095971997
1730865964.5834439,-1.8843986988067627,1.1354656219482422,-9.818350791931152,-0.2834002179531769,-0.31252805505375353,-10.641249123835413,1.0209177578601603,5.779426945796303,-2.716613102891094
1730865964.5834439,-1.8520234823226929,1.1645499467849731,-9.829914093017578,-0.28323837967249554,-0.31419249155938067,-10.641277872371429,1.0208611603735998,5.779337278579,-2.7187692699343065
1730865964.6334517,-1.8520234823226929,1.1645499467849731,-9.829914093017578,-0.28309873698195764,-0.31582987933751283,-10.641277539233506,1.0433419415572243,5.802033994855017,-1.8634028085633056
1730865964.6334517,-1.8085271120071411,1.176212191581726,-9.861815452575684,-0.28298903984437485,-0.31743530592983615,-10.641244267021717,1.043292260767454,5.801953072282431,-1.86529682487972
1730865964.6834452,-1.7181299924850464,1.1627516746520996,-9.876137733459473,-0.2829167017163941,-0.31900488089955653,-10.64117504922176,1.0332513184841587,5.7857748820890995,-2.2479143072097
1730865964.7333987,-1.6924563646316528,1.1392431259155273,-9.905946731567383,-0.28288812828911153,-0.3205356461063274,-10.641067920406586,1.0509332373571658,5.798405380108423,-1.5873581494935989
1730865964.7834475,-1.6710063219070435,1.1597439050674438,-9.915834426879883,-0.28290801208284366,-0.3220253743181541,-10.640922153947592,1.0415931431018766,5.782786496583651,-1.944480862963537
1730865964.8333828,-1.6623401641845703,1.1732234954833984,-9.910504341125488,-0.28297891916788925,-0.32347240922255294,-10.64073837943613,1.0311682183567283,5.765739703743808,-2.3426263181031612
1730865964.8834436,-1.6623401641845703,1.1732234954833984,-9.910504341125488,-0.28310122901636153,-0.32487566554122166,-10.640518548613574,1.0205310085512296,5.748683996874544,-2.748466873851214
1730865964.8834436,-1.664509892463684,1.188157320022583,-9.918722152709961,-0.283273284376823,-0.3262346997228694,-10.640265776619987,1.0204748898778275,5.7485948059176835,-2.7506069815964733
1730865964.933397,-1.664509892463684,1.188157320022583,-9.918722152709961,-0.2834916457203276,-0.32754974493272226,-10.639984170119863,1.043986490470132,5.77146050685681,-1.8648491158165845
1730865964.933397,-1.6572636365890503,1.1673773527145386,-9.908549308776855,-0.28375137013683854,-0.3288216864408109,-10.639678678556441,1.0439359418076295,5.771377319057647,-1.8667800889185857
1730865964.9834638,-1.6591688394546509,1.130024790763855,-9.90406608581543,-0.2840462545905391,-0.3300519044097865,-10.639354913736977,1.0339070613522174,5.755045017048499,-2.2496214193535073
1730865965.0333724,-1.6591688394546509,1.130024790763855,-9.90406608581543,-0.2843690470028805,-0.33124195600510276,-10.639018933178285,1.0524539470303216,5.766523492832365,-1.5704229067917035
1730865965.0333724,-1.6374982595443726,1.1253414154052734,-9.897210121154785,-0.2847116369498736,-0.33239325576301304,-10.638677044178369,1.0524035880407177,5.766435798296872,-1.5723585103805282
1730865965.0834715,-1.6374982595443726,1.1253414154052734,-9.897210121154785,-0.2850651900360146,-0.3335069163366015,-10.638335647932273,1.0640741168253027,5.767951217303584,-1.1502217304153752
1730865965.0834715,-1.6542800664901733,1.1127800941467285,-9.890379905700684,-0.28542025320946485,-0.3345837165653532,-10.638001105143175,1.0640367293789808,5.767880166559726,-1.1516681764959713
1730865965.1333466,-1.6624219417572021,1.1077226400375366,-9.87459659576416,-0.28576694690585713,-0.33562408208016115,-10.63767960242483,1.0555664235485709,5.752039728725591,-1.478850737115486
1730865965.183495,-1.6624219417572021,1.1077226400375366,-9.87459659576416,-0.28609524966564426,-0.33662804982583616,-10.637377000915624,1.0462849428739047,5.73517936801823,-1.836347448454899
1730865965.183495,-1.6803877353668213,1.1172305345535278,-9.872438430786133,-0.28639526756640254,-0.3375952694089074,-10.63709869620993,1.0462372472607693,5.735093871287075,-1.8381821590983054
1730865965.2333581,-1.6642932891845703,1.1443051099777222,-9.851571083068848,-0.2866574415816616,-0.3385251025743567,-10.636849523860288,1.0609166200097833,5.746370984620454,-1.2920316815979849
1730865965.2835011,-1.676072597503662,1.1518168449401855,-9.866317749023438,-0.2868726880544834,-0.33941683375084986,-10.636633684550702,1.0520520287547888,5.730186942595278,-1.632976976363866
1730865965.3333554,-1.676072597503662,1.1518168449401855,-9.866317749023438,-0.28703248133273224,-0.3402699069718201,-10.636454705685491,1.0645070177405755,5.734251002796413,-1.1770832369739497
1730865965.3333554,-1.688549518585205,1.173169493675232,-9.839729309082031,-0.2871289357624701,-0.34108408426290393,-10.636315460301873,1.0644660626100406,5.734171956430718,-1.178661840946968
1730865965.3832452,-1.7406500577926636,1.1670211553573608,-9.839791297912598,-0.2871549595247083,-0.34185953389388846,-10.636218148885051,1.0558506723922343,5.717807359150319,-1.5102030625321703
1730865965.4331973,-1.7592371702194214,1.1434805393218994,-9.807424545288086,-0.28710454295805227,-0.3425968568680579,-10.636164192518148,1.067328636246472,5.724719629771243,-1.096979886803676
1730865965.4832108,-1.7919294834136963,1.1425443887710571,-9.786770820617676,-0.2869731347847626,-0.34329698388558866,-10.636154079058151,1.0588946877300973,5.708622107680991,-1.4223515193938043
1730865965.5332005,-1.7919294834136963,1.1425443887710571,-9.786770820617676,-0.28675794175153946,-0.34396099257094676,-10.636187200738604,1.049697905022362,5.69157507593152,-1.7760824124533543
1730865965.5332005,-1.8289555311203003,1.1339582204818726,-9.734051704406738,-0.2864580713644429,-0.34458998078072145,-10.63626172679517,1.0496507299132858,5.691488791951044,-1.7778944533910355
1730865965.5832748,-1.8289555311203003,1.1339582204818726,-9.734051704406738,-0.2860745758264635,-0.34518500623134324,-10.63637449289184,1.063622476391197,5.700155424301612,-1.2608780067704608
1730865965.5832748,-1.906752586364746,1.1017496585845947,-9.722082138061523,-0.28561049792817933,-0.3457470149343233,-10.636520904031922,1.0635741622688268,5.700062471340825,-1.2627373520211735
1730865965.6332035,-1.9440362453460693,1.0649313926696777,-9.711519241333008,-0.28507103250995924,-0.34627667812034885,-10.63669494326486,1.0547512587458534,5.683337038380773,-1.6018704821521739
1730865965.6832056,-1.954621434211731,1.0486096143722534,-9.747272491455078,-0.28446378541910067,-0.34677410862632985,-10.636889323684398,1.065438775588594,5.685918389673271,-1.1472756945998261
1730865965.733109,-1.9300211668014526,1.0519165992736816,-9.785317420959473,-0.2837988608952343,-0.34723858581399414,-10.637095817223086,1.0563831548323053,5.668266957889998,-1.4876918235618024
1730865965.7832572,-1.8917458057403564,1.0662336349487305,-9.863221168518066,-0.2830885419705825,-0.3476684785803201,-10.637305837733319,1.04693677997035,5.650358726493952,-1.8427523493189844
1730865965.8331983,-1.8261340856552124,1.0515388250350952,-9.917787551879883,-0.28234659058041955,-0.34806138136393977,-10.637511247424275,1.0366684303286977,5.631356365339711,-2.2287355680650576
1730865965.8832433,-1.7325536012649536,1.0188775062561035,-9.973783493041992,-0.2815872806127576,-0.3484142687905956,-10.637705222679504,1.0539555950907935,5.6114382294871215,-1.5424172893799217
1730865965.9331484,-1.7325536012649536,1.0188775062561035,-9.973783493041992,-0.28082431854233425,-0.34872350233882987,-10.63788295127748,1.0441303566098044,5.590651917433508,-1.9094260163580807
1730865965.9331484,-1.6438817977905273,1.0134690999984741,-9.997303009033203,-0.2800699218130233,-0.3489847674783484,-10.638041982190703,1.0440765846460238,5.590539783596574,-1.9114355789371993
1730865965.9832146,-1.6068297624588013,1.0392526388168335,-10.010113716125488,-0.27933415471334055,-0.34919312576162875,-10.638182252666589,1.0574871891656292,5.568933234148462,-1.3488388341986195
1730865966.0331244,-1.5930547714233398,1.1113393306732178,-9.983500480651855,-0.2786244244189103,-0.34934329602651887,-10.638305935458147,1.0479102608081563,5.546412857207692,-1.7019941136876007
1730865966.0831685,-1.6152253150939941,1.2080261707305908,-9.939994812011719,-0.2779452405295731,-0.3494302676627642,-10.638417100659744,1.0588212979866696,5.522994710974876,-1.2342751151899123
1730865966.1329873,-1.6628810167312622,1.2549554109573364,-9.904179573059082,-0.27729842652633363,-0.34945022211594223,-10.638521119854786,1.0493728876471362,5.498807243137593,-1.5790535271142643
1730865966.183079,-1.7237470149993896,1.2498868703842163,-9.840123176574707,-0.2766837575424775,-0.3494014050715185,-10.63862390157027,1.0391574891149549,5.473557847778848,-1.9531509367896807
1730865966.232996,-1.7540323734283447,1.1959750652313232,-9.810408592224121,-0.27609983355880596,-0.3492844745319245,-10.638731107258453,1.0525709319869214,5.447590729547354,-1.4052938829022639
1730865966.282932,-1.7761001586914062,1.1373709440231323,-9.77637004852295,-0.2755449128071311,-0.34910215071186657,-10.638847465398356,1.0616503513715594,5.420754465978364,-1.063925607210462
1730865966.3329697,-1.7739691734313965,1.080772876739502,-9.734260559082031,-0.2750174779468983,-0.3488583833327434,-10.638976265657044,1.0524686732055952,5.392885459320753,-1.4014183894057144
1730865966.3838212,-1.7863746881484985,1.0190056562423706,-9.72805404663086,-0.2745164980204586,-0.34855738369747996,-10.63911902300616,1.0612504798793359,5.363789923747032,-1.0785590462168542
1730865966.4338863,-1.7863746881484985,1.0190056562423706,-9.72805404663086,-0.2740414986905113,-0.34820278552928907,-10.639275319569204,1.0521123046788763,5.33417780987854,-1.4185737336731834
1730865966.4338863,-1.763444423675537,0.9958710074424744,-9.702902793884277,-0.27359253381573706,-0.3477971148839642,-10.639442854286248,1.0518646587268996,5.333393466979597,-1.4278030833763191
1730865966.4838243,-1.7485802173614502,0.980993390083313,-9.72205638885498,-0.27317004297812275,-0.3473415935215013,-10.639617613741686,1.0423247976097771,5.303807502665465,-1.7838944275781108
1730865966.5338418,-1.7739217281341553,0.9647471904754639,-9.749009132385254,-0.2727746352442355,-0.34683610895687295,-10.639794125346427,1.0549170463531952,5.2724785094567865,-1.3212330676508686
1730865966.5839176,-1.776928424835205,1.0090956687927246,-9.792386054992676,-0.2724069772303876,-0.3462792724085915,-10.639965889862612,1.0453804870074443,5.24022938689289,-1.6806546462605767
1730865966.6337254,-1.7719019651412964,1.0469619035720825,-9.85647201538086,-0.27206783427801495,-0.3456686984655868,-10.640126021050495,1.0569929428965057,5.207349034363947,-1.2643973137638038
1730865966.6840096,-1.742720127105713,1.0767850875854492,-9.918389320373535,-0.2717580841043705,-0.3450015552937343,-10.640268026181037,1.0476398073836868,5.173240578224504,-1.6210721460185078
1730865966.733826,-1.7308605909347534,1.0838773250579834,-9.983128547668457,-0.27147856738682546,-0.3442751716676126,-10.640386640035176,1.058621277965993,5.138715700572222,-1.2351616682935767
1730865966.7839155,-1.7244657278060913,1.1198302507400513,-10.016728401184082,-0.27122984850712656,-0.34348748455648226,-10.640478580769809,1.0494660007589864,5.10300318480156,-1.5887204676789268
1730865966.8337839,-1.7244657278060913,1.1198302507400513,-10.016728401184082,-0.2710120398475318,-0.34263732778100137,-10.640543053469612,1.0597520232771533,5.066752331299789,-1.2235118714098001
1730865966.8337839,-1.6922295093536377,1.1217204332351685,-10.01152515411377,-0.2708247217010463,-0.34172460680232275,-10.640581863016685,1.059715260723932,5.06659643392898,-1.224943624242056
1730865966.8839517,-1.6949405670166016,1.091368556022644,-10.003122329711914,-0.27066686579520244,-0.3407503022982143,-10.640599165553404,1.0506476172214911,5.029163350215846,-1.5782170084487384
1730865966.9338105,-1.6541407108306885,1.079060673713684,-9.937772750854492,-0.2705367185721107,-0.33971626770953645,-10.640600987492764,1.0612332702668474,4.991255779424692,-1.2067635541470703
1730865966.9837117,-1.6971153020858765,1.0559735298156738,-9.882655143737793,-0.2704317087520394,-0.33862490247543825,-10.640594529779412,1.0523387932962767,4.952223874473729,-1.5568034515338853
1730865967.0336804,-1.7184339761734009,1.0200108289718628,-9.829143524169922,-0.2703485236498816,-0.33747880034244016,-10.640587274231242,1.063194005735957,4.9124808655366525,-1.2027797209709044
1730865967.0837424,-1.7796587944030762,0.9819168448448181,-9.78043270111084,-0.2702834692176786,-0.33628037743245426,-10.64058607516646,1.0544395854211415,4.871526683966459,-1.554267125540176
1730865967.1336548,-1.7767276763916016,0.9837790727615356,-9.749464988708496,-0.27023301310073655,-0.33503149443710983,-10.640596419587116,1.0451095048377022,4.830191822575661,-1.9283437118256754
1730865967.1838517,-1.7815088033676147,1.03798508644104,-9.75819206237793,-0.2701942342671262,-0.33373326558940064,-10.640621952904988,1.0581660555773755,4.78762712514997,-1.459709610753953
1730865967.2337184,-1.7815088033676147,1.03798508644104,-9.75819206237793,-0.2701650001876431,-0.3323862412712015,-10.640664345660399,1.0490379859455536,4.744497599450214,-1.8278548195580617
1730865967.2337184,-1.7619465589523315,1.1153185367584229,-9.77953052520752,-0.2701439208216976,-0.33099086872359185,-10.64072347304975,1.0489685855017916,4.744178371977445,-1.8306514674422913
1730865967.283684,-1.7306779623031616,1.2181533575057983,-9.794438362121582,-0.2701301647327864,-0.3295481173163326,-10.640797771346701,1.0392334103871217,4.700528364189463,-2.2226495570511258
1730865967.3336196,-1.73723566532135,1.2622041702270508,-9.825244903564453,-0.27012317285668885,-0.32806031085368464,-10.640884669005606,1.0287576387509718,4.655748843702175,-2.643882283319082
1730865967.3837023,-1.7728885412216187,1.2536513805389404,-9.841352462768555,-0.270122436919847,-0.32653192486614313,-10.640981044136787,1.0490546522684907,4.609946075836948,-1.892531000580462
1730865967.4336104,-1.7957485914230347,1.2329119443893433,-9.852080345153809,-0.27012754834757846,-0.3249698792533489,-10.641083645170605,1.03923598584796,4.563586663800603,-2.289637619155679
1730865967.4835632,-1.8130037784576416,1.187165379524231,-9.869086265563965,-0.270138469974762,-0.3233832151962942,-10.641189409621713,1.0559563318565612,4.516331317138052,-1.6850368099094106
1730865967.5335834,-1.8403993844985962,1.1168467998504639,-9.861696243286133,-0.2701558205947358,-0.32178237082225125,-10.641295667124703,1.0465501244397974,4.468231774761339,-2.0683923881198294
1730865967.5836523,-1.8365612030029297,1.1099493503570557,-9.855596542358398,-0.2701810663335379,-0.3201782865317632,-10.641400223299218,1.0620705532758576,4.4193055469442,-1.5549788540067186
1730865967.6335382,-1.8015090227127075,1.1125519275665283,-9.858222961425781,-0.2702165545230332,-0.31858163656772953,-10.64150132513413,1.0725146555558422,4.369831257904341,-1.221999281739988
1730865967.683565,-1.7416749000549316,1.0947171449661255,-9.853496551513672,-0.2702652588180784,-0.31700242075367346,-10.641597577005083,1.0642716955947742,4.319321347706061,-1.5715539143136577
1730865967.7336876,-1.707353949546814,1.0896289348602295,-9.870576858520508,-0.2703302158353412,-0.31544981522995685,-10.641687888885478,1.055277050418872,4.267599099738861,-1.950906346501637
1730865967.7836096,-1.6856294870376587,1.0882185697555542,-9.87708854675293,-0.27041387350977053,-0.31393208011807316,-10.641771491172467,1.0457218461728919,4.215746921180705,-2.35200137266606
1730865967.833548,-1.6856732368469238,1.1131680011749268,-9.89499282836914,-0.2705176288428201,-0.3124565276655278,-10.641848015151249,1.0619064148973958,4.162956687928229,-1.7527070567187977
1730865967.8835711,-1.6620116233825684,1.1451038122177124,-9.884458541870117,-0.27064164157100096,-0.31102965013121514,-10.641917586910363,1.0526433006095628,4.109297006096749,-2.1420539745135168
1730865967.9334772,-1.6606212854385376,1.1801331043243408,-9.870457649230957,-0.2707848110398884,-0.30965742842753197,-10.641980838762308,1.067332965348588,4.054907448696655,-1.6265469743269911
1730865967.9834714,-1.653437852859497,1.1797866821289062,-9.851520538330078,-0.2709448088336807,-0.3083457109864776,-10.642038773759408,1.058374699803211,3.999786100664253,-2.006562140494578
1730865968.0334425,-1.6758476495742798,1.1824043989181519,-9.821070671081543,-0.27111818266993426,-0.3071004735690523,-10.642092506977932,1.0487371799716492,3.9438793407155104,-2.4132571912881753
1730865968.0835173,-1.7237505912780762,1.1566532850265503,-9.81063461303711,-0.27130061679149187,-0.3059278455932154,-10.64214295601868,1.038412351561307,3.887152138361745,-2.8469495417626938
1730865968.1334534,-1.7237505912780762,1.1566532850265503,-9.81063461303711,-0.27148737309294635,-0.3048339387927458,-10.642190578673011,1.0586741238479127,3.829715584890451,-2.0743668691918407
1730865968.1334534,-1.7996176481246948,1.1426687240600586,-9.782665252685547,-0.27167380785484685,-0.3038246032600637,-10.642235230128087,1.058621055009306,3.8293908448689358,-2.076600981914152
1730865968.1835039,-1.8628112077713013,1.1092867851257324,-9.77823543548584,-0.2718559330340879,-0.3029051908225121,-10.642276087710007,1.0488800390011488,3.7714747667239776,-2.485684667421109
1730865968.2334023,-1.8774480819702148,1.0935637950897217,-9.79169750213623,-0.2720310575456176,-0.30208029370744893,-10.642311601166554,1.0660762330935898,3.71238376244885,-1.8367432939594344
1730865968.2834685,-1.8534674644470215,1.108945369720459,-9.822172164916992,-0.27219826945331754,-0.30135348768353787,-10.642339575632027,1.0777836208265898,3.65274970391838,-1.4270935395680937
1730865968.3333826,-1.7973651885986328,1.1064001321792603,-9.855999946594238,-0.2723584173982403,-0.3007272315392986,-10.64235747131561,1.0692222339891588,3.592185372372787,-1.7913410244668282
1730865968.3833833,-1.749116063117981,1.0848197937011719,-9.900351524353027,-0.2725135706170707,-0.30020292464578213,-10.642362862287264,1.0600001216541615,3.5310084568668545,-2.1813311994157654
1730865968.4334073,-1.749116063117981,1.0848197937011719,-9.900351524353027,-0.2726662607862773,-0.2997809483645282,-10.64235391926365,1.0500697012043205,3.4689099240981895,-2.5990582677422753
1730865968.4334073,-1.6887575387954712,1.0780417919158936,-9.944061279296875,-0.27281884300073367,-0.2994606442132909,-10.64232977725799,1.050012845835762,3.4685641915625918,-2.601444137928552
1730865968.4834383,-1.660573959350586,1.0784896612167358,-9.943114280700684,-0.2729730257520318,-0.2992403208294115,-10.642290755281012,1.0681129348818272,3.4063201833999988,-1.9013413451805625
1730865968.5333052,-1.660573959350586,1.0784896612167358,-9.943114280700684,-0.2731294749446417,-0.2991173214427145,-10.642238454483152,1.0795897206610616,3.343053693956903,-1.4672168706014572
1730865968.5333052,-1.6808581352233887,1.0688133239746094,-9.9386625289917,-0.2732876095036254,-0.2990881166739826,-10.642175701038646,1.0795438919661313,3.3427018445455863,-1.4691495878460552
1730865968.5834394,-1.6925055980682373,1.0484857559204102,-9.91047477722168,-0.2734457218596198,-0.2991483676959735,-10.642106327876379,1.070901427899462,3.2786017845453057,-1.8325118768612587
1730865968.6333168,-1.6925055980682373,1.0484857559204102,-9.91047477722168,-0.2736012928952681,-0.29929292359729676,-10.642034854412358,1.0826454340163307,3.21377471755609,-1.4080365094720466
1730865968.6333168,-1.7340891361236572,1.0040960311889648,-9.874168395996094,-0.2737513177120379,-0.29951577136503044,-10.64196612942693,1.082601640421276,3.2134233184418903,-1.4098915233361817
1730865968.6832635,-1.7513102293014526,0.9668171405792236,-9.831408500671387,-0.27389264174227673,-0.2998099157487852,-10.641904947532769,1.0741703326863243,3.1481238237093168,-1.7658359279999625
1730865968.7332773,-1.7513102293014526,0.9668171405792236,-9.831408500671387,-0.2740223212630727,-0.3001671755266845,-10.641855620958214,1.0649798328182205,3.081497518091625,-2.1515223739806033
1730865968.7332773,-1.7555934190750122,0.9132131338119507,-9.825553894042969,-0.2741378782434722,-0.30057801175913323,-10.641821627817578,1.064927864048627,3.0811323689573777,-2.15369738496903
1730865968.783267,-1.7511773109436035,0.8991687297821045,-9.808719635009766,-0.2742373771397689,-0.30103143285303074,-10.64180546531417,1.0799370864981428,3.01433418602538,-1.5788393943522736
1730865968.833155,-1.7669599056243896,0.9138646125793457,-9.811017036437988,-0.27431941103139457,-0.30151495681769463,-10.641808629408954,1.0711517552332042,2.9463664889850296,-1.9469087150273758
1730865968.8833268,-1.7647291421890259,0.9623916149139404,-9.817171096801758,-0.27438309394622185,-0.30201479196266934,-10.641831638976601,1.0616718690669658,2.8775800313460635,-2.341944804379565
1730865968.9331322,-1.7647291421890259,0.9623916149139404,-9.817171096801758,-0.27442806754662236,-0.302516340865891,-10.641874134317993,1.0783594438689823,2.808190478309499,-1.7036657003883573
1730865968.9331322,-1.774051547050476,0.9942019581794739,-9.836055755615234,-0.27445448494086505,-0.3030048216780681,-10.641935045877077,1.078311746733503,2.8078072131276217,-1.705658739704284
1730865968.9830694,-1.7563841342926025,1.0308074951171875,-9.850176811218262,-0.27446296560770617,-0.3034658108199467,-10.64201280784274,1.0693753159140853,2.7383366193955503,-2.0780546072545834
1730865969.0331802,-1.7418923377990723,1.052126407623291,-9.863423347473145,-0.2744544993276551,-0.30388573893226484,-10.642105611341576,1.0595816219969711,2.6668007447604487,-2.484175833722691
1730865969.0830772,-1.7634446620941162,1.1164103746414185,-9.859697341918945,-0.27443029364355137,-0.304252390096839,-10.642211641342362,1.049220133527127,2.595354658719594,-2.912002529119128
1730865969.1331055,-1.7613576650619507,1.1499154567718506,-9.857751846313477,-0.274391678098758,-0.3045554070896249,-10.642329214360467,1.0721020763618991,2.522629293828794,-2.0231461970931894
1730865969.1830616,-1.7668864727020264,1.152148723602295,-9.854114532470703,-0.27434012428747917,-0.30478674679658646,-10.642456800486181,1.0870668106120989,2.4496073364029205,-1.4970627839736614
1730865969.2330203,-1.7597706317901611,1.146106243133545,-9.849930763244629,-0.2742772814386588,-0.3049408992329609,-10.642592982205333,1.0784487740265447,2.3752906556415456,-1.8598650205584308
1730865969.2830868,-1.7832831144332886,1.1196283102035522,-9.831854820251465,-0.27420497421385454,-0.3050147582816949,-10.642736386379035,1.091112054084153,2.3006744675731383,-1.4013231332083294
1730865969.3329446,-1.7911642789840698,1.0579688549041748,-9.824539184570312,-0.27412523177875253,-0.3050071960968333,-10.642885578997275,1.082712940467579,2.2252482964045766,-1.7562815173369337
1730865969.3830001,-1.793712854385376,1.0126854181289673,-9.833224296569824,-0.27404037445796514,-0.3049184000548973,-10.64303895203607,1.0953138068817643,2.148844727483661,-1.3442307033822478
1730865969.432937,-1.7517714500427246,1.0202561616897583,-9.849518775939941,-0.27395303776364605,-0.30474913102525847,-10.643194702370511,1.087091859393071,2.071632403034442,-1.6977087340339911
1730865969.4829564,-1.7155946493148804,1.0792349576950073,-9.881749153137207,-0.2738659753377354,-0.30450026735075686,-10.643350971380574,1.0988730985327921,4.875343747124977,-1.3122262542896888
1730865969.532836,-1.6973638534545898,1.1483683586120605,-9.885079383850098,-0.27378165248458997,-0.3041729231546819,-10.643506104666065,1.0908062463720556,4.845196330632839,-1.6633947948027892
1730865969.5827827,-1.6990910768508911,1.1914793252944946,-9.90003490447998,-0.2737018521012578,-0.3037690412679936,-10.643658905145726,1.0820356694305033,4.814214559906493,-2.0420191395276577
1730865969.6338701,-1.7048535346984863,1.1952179670333862,-9.894710540771484,-0.27362750030483274,-0.30329204436416995,-10.643808774880046,1.0723246971474742,4.781634555948351,-2.458198450893911
1730865969.6838133,-1.7279154062271118,1.140415906906128,-9.889106750488281,-0.27355873555816457,-0.30274711688337796,-10.643955728525313,1.0622150352406625,4.749263982099298,-2.888743414170636
1730865969.7338028,-1.7279154062271118,1.140415906906128,-9.889106750488281,-0.27349512778047236,-0.3021409630327504,-10.644100307868804,1.0835821074423937,4.981371054511384,-2.071873141871033
1730865969.7338028,-1.727390170097351,1.0967813730239868,-9.850716590881348,-0.27343591368882497,-0.3014812572463908,-10.644243424330323,1.0835336248838328,4.981243498769099,-2.0739435339065175
1730865969.7837937,-1.7448590993881226,1.0502889156341553,-9.854978561401367,-0.2733801566772404,-0.30077605266960566,-10.64438613165506,1.0740353759494392,4.95677058912492,-2.478283777465779
1730865969.8337355,-1.7205950021743774,1.0371060371398926,-9.837763786315918,-0.2733268420847515,-0.30003319937086576,-10.644529377618491,1.0928191540538192,5.021553839585663,-1.8111134191607907
1730865969.8838043,-1.7205950021743774,1.0371060371398926,-9.837763786315918,-0.27327490575084146,-0.29925985765759255,-10.644673829337124,1.0837656749622495,4.999640532402289,-2.201756872362287
1730865969.8838043,-1.7044275999069214,1.004769206047058,-9.838481903076172,-0.27322317134428686,-0.2984622381449902,-10.644819793564755,1.0837165043528274,4.999523910448988,-2.2038709339048634
1730865969.9337204,-1.6762114763259888,1.0011883974075317,-9.852025985717773,-0.27317022728406715,-0.2976454872715182,-10.64496722127528,1.0740677936383953,4.97707318618284,-2.6173490521424716
1730865969.9836867,-1.6579885482788086,0.9812003374099731,-9.872231483459473,-0.2731142542213338,-0.29681359192429135,-10.645115814400324,1.063693846939974,4.953774950413745,-3.059274178264404
1730865970.0337353,-1.6579885482788086,0.9812003374099731,-9.872231483459473,-0.2730528357309263,-0.29596932011053934,-10.64526521255899,1.0879917779813804,5.005726912878082,-2.1423456537753136
1730865970.0337353,-1.6788157224655151,1.0039273500442505,-9.869159698486328,-0.2729828866534954,-0.29511426206486085,-10.645415159737952,1.087945250993854,5.005625484822129,-2.1443437980891358
1730865970.0836577,-1.7302862405776978,0.9892690777778625,-9.866273880004883,-0.2729008280376081,-0.29424900136172427,-10.645565560269834,1.0784047239371386,4.985200334551877,-2.552737462732722
1730865970.1336935,-1.7561147212982178,1.0005706548690796,-9.84821891784668,-0.2728030176806644,-0.29337334071151067,-10.645716428284924,1.097555023469367,5.0092918022515205,-1.8347837679996628
1730865970.1836424,-1.7561147212982178,1.0005706548690796,-9.84821891784668,-0.27268625964322835,-0.2924864845413447,-10.645867776984456,1.106861895324898,5.012412212025858,-1.3969295698979975
1730865970.1836424,-1.7367112636566162,1.0267400741577148,-9.844929695129395,-0.2725481136721012,-0.2915872107112691,-10.646019502745435,1.106816505966018,5.012309697318099,-1.3988188288031151
1730865970.2335315,-1.7292639017105103,1.0034098625183105,-9.847564697265625,-0.2723868874702321,-0.2906740706508204,-10.646171324733928,1.0982744434006901,4.993421042353906,-1.7535072591714147
1730865970.283596,-1.7082710266113281,1.0320013761520386,-9.856908798217773,-0.2722014327129578,-0.28974555551415415,-10.646322796822727,1.0890416794225624,4.973779585593935,-2.135236220851574
1730865970.3336132,-1.7297741174697876,1.0265306234359741,-9.872505187988281,-0.271990927387637,-0.28880021205249207,-10.646473386042484,1.0790457353776917,4.95324343478217,-2.547000096411556
1730865970.3835676,-1.73284912109375,1.026072382926941,-9.879054069519043,-0.2717547766610131,-0.28783674895885253,-10.646622609374601,1.0960577230347825,4.97779090741492,-1.8249216205504843
1730865970.4335475,-1.7507237195968628,1.0402652025222778,-9.899032592773438,-0.2714926649394337,-0.28685411583710435,-10.646770192213667,1.086532334532762,4.95908485326584,-2.211421954160261
1730865970.4835615,-1.7441734075546265,1.067531943321228,-9.886956214904785,-0.27120466967109114,-0.2858515838339235,-10.646916199675367,1.0763189257821155,4.9396429689885215,-2.624932377401906
1730865970.5335526,-1.7646288871765137,1.0706843137741089,-9.89332103729248,-0.27089134169028045,-0.2848289025829056,-10.647061090746563,1.0958867102642769,4.962651256146379,-1.8886856413900746
1730865970.583584,-1.8092890977859497,1.0768513679504395,-9.85693645477295,-0.27055379145719993,-0.2837864716928934,-10.647205654402182,1.0864101426138388,4.944859898943237,-2.2758593628139487
1730865970.6335008,-1.8451093435287476,1.0780317783355713,-9.835271835327148,-0.2701939052972219,-0.28272541493657594,-10.64735080680208,1.076154179028694,4.926162250332843,-2.6938853549726125
1730865970.6835158,-1.8778879642486572,1.068177342414856,-9.794242858886719,-0.26981468979378326,-0.2816475475263678,-10.647497259636697,1.0963635450580946,4.946704875023326,-1.9347389553923846
1730865970.7335863,-1.8792659044265747,1.0619271993637085,-9.761591911315918,-0.2694205734120839,-0.2805552650052965,-10.647645120964091,1.0867184053235652,4.929013431711552,-2.331302784810649
1730865970.7835293,-1.8781741857528687,1.0342954397201538,-9.767451286315918,-0.269017501332242,-0.2794513597751071,-10.64779353855077,1.1046708274780697,4.9377939628432,-1.7219399279997143
1730865970.8334446,-1.8452465534210205,1.0448501110076904,-9.792409896850586,-0.2686127685470438,-0.27833879189037153,-10.647940553727436,1.119044190139516,4.939942952521018,-1.337631360795775
1730865970.8834481,-1.7909832000732422,1.0523160696029663,-9.833215713500977,-0.268214595142484,-0.277220513165485,-10.648083295161774,1.1111563079607254,4.922728209503858,-1.6921934742807936
1730865970.9334626,-1.7380390167236328,1.0403714179992676,-9.891928672790527,-0.26783146557865867,-0.27609942009298094,-10.648218478032183,1.1025784710242876,4.904779439942249,-2.074265620185526
1730865970.9834626,-1.6841381788253784,1.027842402458191,-9.939653396606445,-0.26747133188664096,-0.2749783440063498,-10.648343077804153,1.0933152963432424,4.886111347407952,-2.4836650709225947
1730865971.0333781,-1.598343849182129,1.0370818376541138,-9.97574520111084,-0.2671408087611996,-0.2738599778982376,-10.648455021432806,1.1120633728017544,4.904912089561389,-1.8371443512939585
1730865971.083417,-1.5712602138519287,1.0332560539245605,-9.993497848510742,-0.266844421034677,-0.2727468051998622,-10.648553724807448,1.1033357302338014,4.887454495404158,-2.2291121929709665
1730865971.133399,-1.550557255744934,1.039259433746338,-9.944525718688965,-0.2665840298900556,-0.27164110005293296,-10.64864031929444,1.118410110472827,4.89739955890591,-1.6861167427224724
1730865971.1834455,-1.5575945377349854,1.0153611898422241,-9.915091514587402,-0.2663586255624769,-0.2705449443811119,-10.648717449875816,1.10990788247073,4.880204956690032,-2.0688863200958445
1730865971.233443,-1.6128383874893188,0.9890211224555969,-9.859123229980469,-0.2661645461081237,-0.26946015928902645,-10.648788694395535,1.1007064632384227,4.862271674207766,-2.479766960914693
1730865971.283348,-1.6128383874893188,0.9890211224555969,-9.859123229980469,-0.26599604574965,-0.26838812606902,-10.648857861406238,1.0909351232688231,4.843847449611287,-2.913036330669554
1730865971.283348,-1.700724482536316,0.9786924719810486,-9.800239562988281,-0.2658460511441541,-0.26732961224998353,-10.648928404826778,1.0908776370754922,4.843740705504835,-2.915577218147181
1730865971.3333108,-1.700724482536316,0.9786924719810486,-9.800239562988281,-0.26570696034010943,-0.266284709309342,-10.649002994708967,1.1116845323661757,4.868774644186345,-2.0963730825273372
1730865971.3333108,-1.7688379287719727,1.0146944522857666,-9.755945205688477,-0.2655713953255191,-0.26525289402932267,-10.649083192600251,1.1116361687082232,4.868683870061029,-2.098517939107762
1730865971.3833656,-1.7688379287719727,1.0146944522857666,-9.755945205688477,-0.26543281817535236,-0.2642332274045217,-10.649169225233944,1.125905095634876,4.876364141863278,-1.5829201692325656
1730865971.3833656,-1.8208271265029907,1.02140212059021,-9.763900756835938,-0.26528597976769497,-0.26322462740560765,-10.649259894742293,1.1258667803585658,4.876287139102756,-1.5846447923867295
1730865971.433279,-1.8217395544052124,1.0340009927749634,-9.765320777893066,-0.26512722768047753,-0.2622260766276794,-10.649352675605297,1.1176200586090326,4.86004975582841,-1.954245392923004
1730865971.48329,-1.782911777496338,1.0537012815475464,-9.80487060546875,-0.2649546277878054,-0.2612367648282682,-10.649443987520165,1.1307486273263605,4.866436237832091,-1.4800850927688838
1730865971.5332751,-1.7525897026062012,1.0612386465072632,-9.85537052154541,-0.2647677630356531,-0.2602562458177373,-10.649529621885437,1.1227195303677677,4.850207021313235,-1.8422056936104168
1730865971.5832372,-1.7406247854232788,1.1116029024124146,-9.87990665435791,-0.2645672407048403,-0.2592846265555078,-10.649605319096281,1.114049191235711,4.833367750257006,-2.230037901186089
1730865971.633259,-1.770524501800537,1.115897536277771,-9.90289306640625,-0.26435422243722456,-0.2583227984777374,-10.649667357148761,1.1046679105693729,4.815787433645521,-2.646709045503458
1730865971.683197,-1.7900440692901611,1.1545110940933228,-9.899785995483398,-0.2641302531703787,-0.25737268242046163,-10.649712951578605,1.1234495007382987,4.836668780422949,-1.9151270862969878
1730865971.7331789,-1.8505797386169434,1.163799524307251,-9.896068572998047,-0.2638974094372447,-0.2564374142961533,-10.649740399162049,1.1355726223662082,4.842741719075529,-1.4678744903087502
1730865971.783353,-1.8653908967971802,1.1624170541763306,-9.862640380859375,-0.2636586349943557,-0.2555214288034124,-10.649748989536153,1.1274946159299977,4.827102798300712,-1.830433455479256
1730865971.8332534,-1.84821355342865,1.119704008102417,-9.858514785766602,-0.2634180418184209,-0.25463036020995194,-10.649738739930845,1.1188191028059853,4.810944013070079,-2.2168679620390215
1730865971.8832345,-1.8270213603973389,1.114829421043396,-9.805334091186523,-0.26318092198658893,-0.25377069333639557,-10.649710036937307,1.109471045421902,4.794121649509712,-2.6305701848786303
1730865971.9334147,-1.793975830078125,1.0453251600265503,-9.822367668151855,-0.2629534152972747,-0.2529492432547787,-10.649663265512704,1.1274991496956357,4.812856342388117,-1.927048150789439
1730865971.9832606,-1.7209333181381226,1.0137131214141846,-9.828447341918945,-0.26274195699460184,-0.2521725528787665,-10.64959855089441,1.118635481929048,4.7971300486460935,-2.319798260249614
1730865972.0332992,-1.6012029647827148,0.9719731211662292,-9.870986938476562,-0.26255250879663017,-0.2514462581511795,-10.649515764872783,1.134564077264635,4.805830269412226,-1.739059357556864
1730865972.0832047,-1.5673483610153198,0.9927900433540344,-9.874567985534668,-0.2623895558677505,-0.2507745821650693,-10.649414779774096,1.1260757423578038,4.7901760797586075,-2.119951059364637
1730865972.133241,-1.5673483610153198,0.9927900433540344,-9.874567985534668,-0.26225520357449555,-0.25016014942745757,-10.649295761347707,1.139912581521556,4.79681608125537,-1.619571719349643
1730865972.133241,-1.5617990493774414,1.0194441080093384,-9.915316581726074,-0.2621488141709677,-0.24960412931212048,-10.649159348812427,1.1398675792809356,4.796729166104127,-1.6216191612430395
1730865972.1831715,-1.576568603515625,1.0584110021591187,-9.886327743530273,-0.26206717926162776,-0.24910658428041135,-10.649006758997462,1.1316795313239685,4.78123176581972,-1.9925768206148013
1730865972.2332606,-1.631142258644104,1.0728533267974854,-9.91388988494873,-0.2620049765525327,-0.24866692521714398,-10.648839839202886,1.1226771581130544,4.764815488998548,-2.397347579134733
1730865972.283102,-1.7173388004302979,1.079965353012085,-9.86382007598877,-0.26195547738071306,-0.24828435396633994,-10.648661004305623,1.138278171362072,4.7792017395358055,-1.7744454931817308
1730865972.3331964,-1.82231605052948,1.1077828407287598,-9.826631546020508,-0.26191158104247764,-0.2479581692776265,-10.648472998676693,1.1295767925716047,4.763584958852292,-2.163951308230325
1730865972.383157,-1.8533849716186523,1.1184059381484985,-9.800682067871094,-0.2618670339316373,-0.24768796721288897,-10.648278467156306,1.1450189360993965,4.76995723262948,-1.6346850844044416
1730865972.4330823,-1.8954871892929077,1.0949914455413818,-9.761144638061523,-0.2618174523764234,-0.2474737778898995,-10.648079460192065,1.1368194062302293,4.754504704691173,-2.0105805368129115
1730865972.4830406,-1.8989217281341553,1.0262970924377441,-9.779446601867676,-0.26176087290235556,-0.2473159875498867,-10.647877060266667,1.1280145307277856,4.738522281553058,-2.410865719758079
1730865972.5331557,-1.8536771535873413,1.0082930326461792,-9.78778076171875,-0.26169781906763406,-0.24721492319594432,-10.647671253692648,1.1184236628961863,4.7216894137823,-2.843719357225868
1730865972.5831227,-1.783974289894104,1.004658818244934,-9.84261703491211,-0.26163089565751185,-0.24717031305907539,-10.647461114208518,1.138150286370654,4.740976980624143,-2.064107836186329
1730865972.6330674,-1.7528783082962036,1.0574264526367188,-9.855023384094238,-0.26156397292540057,-0.24718101765739076,-10.647245241375705,1.1532993123534843,4.735351463220307,-1.5878114696341632
1730865972.6830595,-1.7219197750091553,1.080628514289856,-9.910914421081543,-0.26150127409405377,-0.24724520708430014,-10.647022292648078,1.1633729508559103,4.7318449312117465,-1.2679649117856289
1730865972.7331333,-1.7219197750091553,1.080628514289856,-9.910914421081543,-0.2614466990396177,-0.24736079426561897,-10.646791470543315,1.156225559046432,4.71520749141615,-1.6170176241775982
1730865972.7331333,-1.704637885093689,1.1132997274398804,-9.919187545776367,-0.2614034651834156,-0.24752580839954968,-10.646552860277332,1.1561872843397185,4.715120716809973,-1.6188731985722578
1730865972.7830756,-1.704637885093689,1.1132997274398804,-9.919187545776367,-0.2613739645028083,-0.24773861827249882,-10.646307544773487,1.1484470354481007,4.697998268930396,-1.9916226505456331
1730865972.7830756,-1.6880874633789062,1.1303209066390991,-9.951221466064453,-0.2613597160805012,-0.24799808195067535,-10.646057571463778,1.1484118569853425,4.6979222287634235,-1.9933063008332073
1730865972.8330402,-1.6892642974853516,1.1353075504302979,-9.929433822631836,-0.26136135064254673,-0.24830363866519728,-10.645805912974632,1.1399400496595748,4.6800084864006015,-2.396424375475984
1730865972.8830557,-1.6928538084030151,1.1137971878051758,-9.93874454498291,-0.2613786308591721,-0.24865531603229912,-10.645556405733753,1.1308763645533741,4.661598000942307,-2.8232615213852124
1730865972.9329422,-1.7044410705566406,1.0738990306854248,-9.894899368286133,-0.2614105464859125,-0.24905358355361837,-10.645313566678812,1.1499101018630355,4.687103728901489,-2.020176640346728
1730865972.9829872,-1.7288248538970947,1.0470776557922363,-9.854463577270508,-0.26145550694064046,-0.24949899686132906,-10.645082241760342,1.1413138540856418,4.670316471416332,-2.4214303737733243
1730865973.0330038,-1.782965898513794,1.0143132209777832,-9.822835922241211,-0.26151165293773937,-0.249991730282119,-10.64486709770873,1.1320204539538863,4.652822965634203,-2.851306701797431
1730865973.082945,-1.8363450765609741,1.0109021663665771,-9.767317771911621,-0.26157733126863486,-0.25053116965440947,-10.644672055462216,1.151599512207416,4.6737627283977545,-2.0421009079579373
1730865973.132889,-1.8869452476501465,0.9894759058952332,-9.760782241821289,-0.2616517043664382,-0.25111566380984623,-10.644499785997601,1.1429306860641768,4.6574226688861255,-2.4423989210784263
1730865973.1829495,-1.8473352193832397,1.0347927808761597,-9.739604949951172,-0.2617352813193188,-0.25174247044268017,-10.644351364607472,1.133529289442405,4.640308054490039,-2.872915315188884
1730865973.232936,-1.816389560699463,1.0465000867843628,-9.774761199951172,-0.2618300442884971,-0.2524079371163443,-10.644226180032422,1.1529936814238093,4.661746220649101,-2.0638109419392823
1730865973.2828844,-1.783855676651001,1.0769073963165283,-9.79489803314209,-0.26193906931596744,-0.2531078849202147,-10.64412214244764,1.1658150536152085,4.66899976715434,-1.5670407258718746
1730865973.3328242,-1.7646828889846802,1.053520679473877,-9.82564926147461,-0.2620659155858105,-0.2538380037252481,-10.644036129441172,1.1578205260428431,4.653707491818506,-1.9359371599343707
1730865973.3828576,-1.7351040840148926,1.0145779848098755,-9.854711532592773,-0.262214079178115,-0.2545940239303929,-10.643964523507627,1.1491108179899994,4.637668354440049,-2.334185995723474
1730865973.432912,-1.7351040840148926,1.0145779848098755,-9.854711532592773,-0.2623865912513643,-0.25537158991751296,-10.64390369772677,1.1397460831476594,4.620997430266158,-2.7589858972925074
1730865973.432912,-1.683071255683899,0.9749651551246643,-9.900102615356445,-0.2625857306482414,-0.2561659999196141,-10.643850381846672,1.1396965485395452,4.620910618421431,-2.7612247337957663
1730865973.4828544,-1.6453770399093628,0.9578630328178406,-9.910890579223633,-0.2628127473841262,-0.256971975540194,-10.643801949235206,1.12982564276176,4.603861251118069,-3.2058491266566604
