Timestamp,IMU_Linear_Acc_X,IMU_Linear_Acc_Y,IMU_Linear_Acc_Z,Filtered_X,Filtered_Y,Filtered_Z,Pose_X,Pose_Y,Pose_Z
1730865946.7340324,-1.6857694387435913,1.1897996664047241,-9.920260429382324,-0.00011983655214074022,-6.472938810125614e-05,-0.01803673848965484,0.9051121914820319,3.8331374603622463,0.8989999215822381
1730865946.8840554,-1.6525182723999023,1.072100281715393,-9.886634826660156,-0.0004941178176420211,-0.000393936991067901,-0.06090279618859634,0.8827060648827095,3.8324076692398856,0.898999575557135
1730865946.9339588,-1.6460669040679932,1.1705397367477417,-9.888028144836426,-0.000715198438992586,-0.0006340396150118331,-0.08425857540921607,0.898857222392714,3.832727110927874,0.8989990572035942
1730865946.9839773,-1.5448205471038818,1.3515266180038452,-9.916738510131836,-0.001000188129101328,-0.0009704040792964995,-0.11317902620634604,0.8990723714105009,3.832794961621029,0.898998910010759
1730865947.0338826,-1.4505513906478882,1.3764179944992065,-9.885746955871582,-0.0013582744280504814,-0.0014238356481908196,-0.14825067490781463,0.8925921251957334,3.832999003211274,0.8989982325128503
1730865947.083904,-1.4505513906478882,1.3764179944992065,-9.885746955871582,-0.001797211312439513,-0.0020175576347838276,-0.19002765889815676,0.8673755349979879,3.834751915658086,0.8989820211076186
1730865947.083904,-1.483825922012329,1.3574954271316528,-9.83907413482666,-0.0023225407813822446,-0.0027773291604247996,-0.23902529210233542,0.8667272212754611,3.834796979670522,0.8989813361451796
1730865947.1338828,-1.5220105648040771,1.4168083667755127,-9.791072845458984,-0.002937526790797156,-0.0037308781699439443,-0.29571447970574194,0.857888624553118,3.8431924937858564,0.8984891062878467
1730865947.1838188,-1.466209888458252,1.5062932968139648,-9.781386375427246,-0.003643581288619815,-0.0049073540318083555,-0.3605169680617162,0.8277782328086254,3.851694879865982,0.8971702245989321
1730865947.2339377,-1.6475468873977661,1.4503509998321533,-9.745635986328125,-0.004440752110007332,-0.006337134747189978,-0.4338015149912824,0.7977180226007546,3.860166140042233,0.8948583064777973
1730865947.2838902,-1.7597566843032837,1.3032793998718262,-9.741059303283691,-0.005328483222609887,-0.008051449379549073,-0.5158810401113835,0.8662038100152,3.868605819616439,0.8913476168695992
1730865947.3337905,-1.6816997528076172,1.2365984916687012,-9.753911018371582,-0.006306791818090299,-0.010081164492937948,-0.6070106989343335,0.8727839650816024,3.8769177702985385,0.8864808256867525
1730865947.3838024,-1.757475733757019,1.2633165121078491,-9.788309097290039,-0.007377108438064027,-0.012455122254892344,-0.707386861340075,0.8685451900789505,3.8853398070134078,0.8799118568755617
1730865947.4338114,-1.9410609006881714,1.2342725992202759,-9.715015411376953,-0.008542559208503544,-0.015198993783474262,-0.817146873767036,0.8720941870540319,3.893620225376142,0.8714436450392711
1730865947.4836771,-1.7980672121047974,1.2204742431640625,-9.816902160644531,-0.009808358984370658,-0.018334848169548522,-0.9363693356805982,0.8687146865213586,3.90187063984614,0.8608718182327121
1730865947.5337312,-1.6201061010360718,1.2407430410385132,-9.861479759216309,-0.01118187310957288,-0.021881004655690234,-1.0650749556941368,0.8652735259740327,3.910156882220674,0.8476794973021667
1730865947.5837328,-1.6417081356048584,1.2559638023376465,-9.932706832885742,-0.012671456638882937,-0.02585201971342648,-1.203228226687644,0.8735105647965632,3.9182626301868413,0.8317530148231532
1730865947.6336718,-1.4783844947814941,1.2720919847488403,-9.962823867797852,-0.014284736520674812,-0.030258878148389786,-1.350739696907132,0.8723719455026937,3.92640759260229,0.8125304942656759
1730865947.6836586,-1.4127205610275269,1.249739170074463,-9.95790958404541,-0.016027236403705722,-0.03510926353131658,-1.5074683851381878,0.8712028526544887,3.93441923995448,0.7898723886540929
1730865947.7336457,-1.4345476627349854,1.2176520824432373,-9.960887908935547,-0.017901348623177618,-0.04040768718279153,-1.673224108897037,0.8711510923128593,3.942266190558794,0.7632382696469795
1730865947.7836764,-1.6071974039077759,1.2252144813537598,-9.856568336486816,-0.01990598769482632,-0.046155418957711934,-1.8477696574487499,0.8698077742480173,3.9501094888520734,0.7321101890026367
1730865947.8337014,-1.532752275466919,1.1856809854507446,-9.923158645629883,-0.022037313761816574,-0.05235037086327456,-2.030822865972184,0.868400480416647,3.957891028354938,0.6958152628031994
1730865947.8835726,-1.49844229221344,1.2116985321044922,-9.878271102905273,-0.024289743588461424,-0.05898706765581352,-2.222058895842565,0.8680410211945091,3.9652841510729937,0.6549816630155109
1730865947.9345996,-1.521494746208191,1.106750726699829,-9.946966171264648,-0.026656315485434456,-0.06605665760879595,-2.4211130034130064,0.8667192577698696,3.972844842853639,0.6069363584143138
1730865947.9846032,-1.521494746208191,1.106750726699829,-9.946966171264648,-0.029128667390749183,-0.07354680491289473,-2.627583737360308,0.8693366932445766,3.979985405233376,0.5533296936848394
1730865947.9846032,-1.521235466003418,1.066617727279663,-9.89339542388916,-0.031697187003711956,-0.08144147015885425,-2.841036294937109,0.8693357420208889,3.9800257704553315,0.5530086804952027
1730865948.034629,-1.6524330377578735,0.9745575785636902,-9.893824577331543,-0.034351393700021146,-0.08972073562824659,-3.061005721545246,0.8704470722870236,3.9868817557688447,0.4928243230032333
1730865948.0845356,-1.6524330377578735,0.9745575785636902,-9.893824577331543,-0.037080599886666094,-0.09836064943057717,-3.2869999291614427,0.8705106496361691,3.993664183728283,0.4244180521617499
1730865948.0845356,-1.714928388595581,0.9513433575630188,-9.833707809448242,-0.03987475152886188,-0.107333131102096,-3.518502768571281,0.8705107413353216,3.9936998424099945,0.4240297007289121
1730865948.1347377,-1.6118273735046387,0.9223973155021667,-9.884674072265625,-0.04272497938758795,-0.11660613821648856,-3.7549771775189438,0.8704737995388077,4.000254379334193,0.3462737384118576
1730865948.1846237,-1.3661701679229736,0.9260615110397339,-9.857068061828613,-0.04562331704164631,-0.12614403796050755,-3.9958683991439803,0.8703277649894622,4.006431892869212,0.2598121366230254
1730865948.2345996,-1.2212275266647339,0.8862243294715881,-9.932165145874023,-0.048561246776107285,-0.13590802947319156,-4.240607380077274,0.868667359562765,0.9207061557428958,0.8907135144162568
1730865948.2835228,-1.0323896408081055,0.8774198889732361,-9.941996574401855,-0.05152749179697058,-0.14585656592656157,-4.488614336093523,0.8680843540479598,0.9194734979747772,0.8719028706812233
1730865948.3344536,-1.2495695352554321,0.9381879568099976,-9.924843788146973,-0.05450627131074512,-0.1559458191594157,-4.739302311453114,0.8688788320332141,0.8680693635743323,0.8741507701403834
1730865948.3844686,-1.4342632293701172,1.0002256631851196,-9.9284086227417,-0.05747731079178883,-0.1661304166000118,-4.992080458351753,0.8685646772199818,0.8690639671044655,0.8496752112884519
1730865948.4344435,-1.6491162776947021,1.1198151111602783,-9.88106918334961,-0.060417949039495614,-0.1763646141962298,-5.246356922502702,0.8681021006430752,0.8696353324563321,0.8123218786584842
1730865948.4846096,-1.6491162776947021,1.1198151111602783,-9.88106918334961,-0.06330612873102084,-0.18660370634430848,-5.501541443271737,0.8674824321076728,0.8697524565191266,0.7613316939618084
1730865948.4846096,-1.8150001764297485,1.2128596305847168,-9.911548614501953,-0.06612272787504506,-0.19680526683065014,-5.757047845262483,0.8674786673399788,0.8697518156105457,0.7610199141129066
1730865948.5345068,-1.8747748136520386,1.2866096496582031,-9.855307579040527,-0.06885293653765537,-0.2069300798148014,-6.012296562786869,0.8665739083540139,0.8563612797344134,0.8625752878874862
1730865948.5845046,-1.8972151279449463,1.2438414096832275,-9.890105247497559,-0.07148711693369056,-0.21694286432143953,-6.266717102432309,0.861937834367699,0.859009083508639,0.8640711601114496
1730865948.6345894,-1.8699368238449097,1.2726092338562012,-9.829380989074707,-0.07402112977198766,-0.22681263190792889,-6.519750293228361,0.8597871343204992,0.8601673274202477,0.8319580442836081
1730865948.6844258,-1.9649289846420288,1.1705948114395142,-9.842905044555664,-0.07645604591975087,-0.23651248392281315,-6.770850334687067,0.8582562787022032,0.8638054422464555,0.8584081839388232
1730865948.7343395,-1.755480170249939,1.117276906967163,-9.814167976379395,-0.07879750767302401,-0.24601893125850363,-7.0194866818106325,0.856255131172078,0.8650448529019203,0.8219902758845756
1730865948.7843802,-1.648979902267456,1.0715574026107788,-9.870731353759766,-0.08105457462051818,-0.25531092144777934,-7.265145867941447,0.8580339207021677,0.8707858275245006,0.8553378686890026
1730865948.8343627,-1.619248390197754,1.0923936367034912,-9.766934394836426,-0.08323789127475492,-0.2643689427769898,-7.507333302327641,0.8569596126343103,0.8724043287285423,0.815520708140149
1730865948.8843756,-1.5719029903411865,1.1600306034088135,-9.814069747924805,-0.08535793860437771,-0.27317463984341095,-7.745574838806074,0.8597752635337895,0.8783873450598665,0.8529740244579409
1730865948.9342463,-1.4718180894851685,1.2043366432189941,-9.855443000793457,-0.08742394676190324,-0.28171106473357066,-7.979418133534974,0.8595296122528528,0.8804313141866593,0.8105729760110659
1730865948.9843962,-1.5622344017028809,1.2559999227523804,-9.844598770141602,-0.08944323810642145,-0.2899633079260314,-8.208434106019029,0.8643779771257467,0.8833531935655212,0.8507253832406302
1730865949.0343103,-1.6065484285354614,1.3037285804748535,-9.91126537322998,-0.09142105385542618,-0.2979191468283672,-8.432218465576561,0.8655333090140072,0.8849918772728294,0.8057853864680922
1730865949.084335,-1.6464300155639648,1.3352413177490234,-9.848318099975586,-0.0933610817142157,-0.3055695440391535,-8.650393012411353,0.8664643016883941,0.8858841554938424,0.7391303035022861
1730865949.1342292,-1.7890230417251587,1.2793657779693604,-9.847938537597656,-0.09526638592594648,-0.31290888863997374,-8.86260654174276,0.867466650475728,0.8889123618266653,0.8486715001791033
1730865949.1843033,-1.9112098217010498,1.1769911050796509,-9.826825141906738,-0.09714053513052473,-0.31993471632037096,-9.06853531319097,0.8679476077862529,0.8893040671639802,0.7997894344868136
1730865949.2342906,-1.7468112707138062,1.169215440750122,-9.872337341308594,-0.09898871718733028,-0.3266468246189234,-9.267883321505266,0.8681870273705016,0.8888902826300611,0.7276017972027825
1730865949.2843397,-1.7610691785812378,1.1731765270233154,-9.90518856048584,-0.10081804856320514,-0.3330462705588312,-9.460382681759935,0.8688715351388114,0.8960103359185743,0.8497933416202841
1730865949.3341703,-1.772855281829834,1.1963719129562378,-9.869773864746094,-0.1026369234347663,-0.3391348324886417,-9.64579410378425,0.869009777770067,0.8967473978466222,0.7977108425887992
1730865949.3842542,-1.7723252773284912,1.1582468748092651,-9.856871604919434,-0.10445433598326884,-0.3449149236122387,-9.823907116731212,0.8688893894108026,0.8966301565275574,0.7213156724597438
1730865949.4341888,-1.5951693058013916,1.1924304962158203,-9.84045124053955,-0.10627946112257548,-0.35038958939227616,-9.994539861758085,0.8702253298749008,0.9039981024977295,0.8507983759932303
1730865949.4842129,-1.4303251504898071,1.1096744537353516,-9.871488571166992,-0.10812075258769778,-0.35556240419373836,-10.15753867721412,0.8702171168311187,0.9047906203684629,0.7954753928138174
1730865949.5342839,-1.4494115114212036,1.127644419670105,-9.831385612487793,-0.109984392045623,-0.36043723635332825,-10.312777711162441,0.866895092475591,0.9129436279013867,0.8554526775192647
1730865949.5842733,-1.374488115310669,1.0864741802215576,-9.847817420959473,-0.1118729938102423,-0.3650179305211015,-10.460158498682182,0.8654569476880506,0.9149556056771282,0.8000228290952038
1730865949.634126,-1.374488115310669,1.0864741802215576,-9.847817420959473,-0.11378515367644423,-0.36930805252626464,-10.599609413615523,0.8638646071682644,0.9212458867056968,0.8578029071629736
1730865949.634126,-1.4525998830795288,1.0719263553619385,-9.802490234375,-0.11571562006896005,-0.37331075136925923,-10.731085025452781,0.8638565684654627,0.9212584652838991,0.8575867751102494
1730865949.684152,-1.5784028768539429,1.0320987701416016,-9.840079307556152,-0.11765604362936398,-0.3770286743687633,-10.854565339215831,0.8621018081444044,0.9233063679766199,0.8008420589061832
1730865949.734146,-1.5448294878005981,0.9901504516601562,-9.828018188476562,-0.11959628969468028,-0.38046382743692797,-10.970054969226801,0.863839364605777,0.9274901492976971,0.8634447361044141
1730865949.7841535,-1.495914340019226,0.9905200004577637,-9.897010803222656,-0.12152559815601749,-0.38361734601806025,-11.077582415319231,0.8628610755254404,0.9285632478006649,0.807318121676625
1730865949.8341901,-1.5989469289779663,0.96947181224823,-9.889765739440918,-0.1234330454682622,-0.38648933215162384,-11.17719946911827,0.8635520308168484,0.934832776373381,0.8580223041027898
1730865949.8841543,-1.5671354532241821,0.9694827198982239,-9.91878890991211,-0.1253077576502292,-0.3890788724808087,-11.268980602755299,0.8632597592383102,0.9352591806235082,0.8570452329846109
1730865949.9341342,-1.4966825246810913,0.9941743016242981,-9.964380264282227,-0.12713919870111354,-0.39138420302838073,-11.353022225121993,0.8623081412500054,0.9352304273554958,0.796174133798921
1730865949.984129,-1.4800490140914917,0.969645619392395,-9.981051445007324,-0.12891713286011808,-0.393402983506221,-11.429441867543595,0.8610321231546527,0.9342138163082401,0.7064925081205562
1730865950.0342054,-1.459653377532959,1.016774296760559,-9.992463111877441,-0.13063122931042503,-0.3951326195404547,-11.498377320020724,0.859434585317368,0.9322114400221873,0.5883364414881727
1730865950.0840492,-1.5144121646881104,1.049118995666504,-9.973414421081543,-0.13227081895498255,-0.3965706313795779,-11.559985569660524,0.8650371476610793,0.9418648432709952,0.8391101726619622
1730865950.1340241,-1.6105612516403198,1.0086636543273926,-9.94045639038086,-0.13382514513917682,-0.3977150840486231,-11.614441441349715,0.864623278133482,0.941705241207714,0.7717748681809234
1730865950.1840804,-1.5536221265792847,1.06661057472229,-9.94149398803711,-0.1352840361586962,-0.3985649114816392,-11.661936000171782,0.8670971599897775,0.9497570190342138,0.8400361203627775
1730865950.2339597,-1.603241205215454,1.065562129020691,-9.964529037475586,-0.1366385115309984,-0.3991201053184157,-11.702674940115209,0.8670453575131514,0.9508239520099965,0.77409736852476
1730865950.2839465,-1.879683494567871,1.0326447486877441,-9.866992950439453,-0.1378812664928018,-0.3993818814126602,-11.736877093084122,0.866649728362627,0.9509022603281092,0.6782232108301639
1730865950.3339956,-2.0737950801849365,0.9914940595626831,-9.809025764465332,-0.1390078713207094,-0.3993526580499266,-11.764772801130286,0.8705393918018519,0.9592185382431805,0.8338934547996085
1730865950.3840535,-1.8243703842163086,0.9407444000244141,-9.798154830932617,-0.14001853219184926,-0.39903569201783085,-11.786601995988224,0.8706103468784324,0.9597311503001291,0.765373381841375
1730865950.4339852,-1.6435387134552002,1.0102969408035278,-9.805895805358887,-0.14091846535110653,-0.3984346235196215,-11.80261238609628,0.8746511136854184,0.9708451852066994,0.8340007728882085
1730865950.4839067,-1.5730770826339722,1.1460793018341064,-9.76155948638916,-0.14171601489985178,-0.39755346921172385,-11.813058070858196,0.8754630306013631,0.9733802584924097,0.7670454964579796
1730865950.5338778,-1.402429223060608,1.2469379901885986,-9.80485725402832,-0.142420022698729,-0.39639742670314937,-11.818198415729714,0.8759191385808744,0.9749197644104196,0.6711712644544132
1730865950.5837739,-1.2801685333251953,1.27745521068573,-9.844583511352539,-0.14303771314640878,-0.3949741358697798,-11.818297098958325,0.8760225265532435,0.9754822769146911,0.545681713507788
1730865950.6338754,-1.3144124746322632,1.2810062170028687,-9.876189231872559,-0.1435731476631807,-0.3932945997176564,-11.813621450891223,0.8757661833333122,0.9750577747095309,0.38940366461812015
1730865950.6837897,-1.3720238208770752,1.2254197597503662,-9.91110610961914,-0.14402653384056635,-0.3913733269871128,-11.804441984428585,0.8751482610349084,0.9736461491087534,0.20373255756202888
1730865950.7338083,-1.4993278980255127,1.1518988609313965,-9.931300163269043,-0.14439476121958633,-0.38922774743320104,-11.791031885725138,0.8793785081546741,0.9838033733431476,0.8244909837537049
1730865950.78379,-1.6006672382354736,1.0863429307937622,-9.86929702758789,-0.14467285828312967,-0.38687713705605675,-11.7736663097462,0.8795130412753728,0.9842761000642871,0.7546496436960966
1730865950.8337855,-1.81550133228302,1.01986563205719,-9.81452465057373,-0.14485586453473678,-0.38434136975149286,-11.75262129130336,0.8832475436427991,0.9905554649675967,0.834126861353518
1730865950.8837059,-1.9375649690628052,0.9927679896354675,-9.77560806274414,-0.14494087922330393,-0.38163979925135993,-11.728172249391715,0.8838511158801622,0.9913191243294627,0.7686804557224961
1730865950.9336746,-2.0457820892333984,0.9714118242263794,-9.726194381713867,-0.1449290132011402,-0.3787904620245236,-11.700592391683548,0.8840963590836938,0.9911369373000176,0.6734588800555471
1730865950.9836621,-2.0869340896606445,1.0083929300308228,-9.737180709838867,-0.14482677168408833,-0.3758096976665752,-11.67015132727974,0.8874409056112338,1.005631343551023,0.8312577859526643
1730865951.0336392,-2.0562994480133057,1.051559329032898,-9.758321762084961,-0.14464654804553384,-0.37271222659604986,-11.637114050170979,0.8879773925860512,1.007872998563041,0.7645061951330058
1730865951.083622,-1.9736506938934326,1.1039338111877441,-9.822582244873047,-0.14440616589026406,-0.3695116297313401,-11.601740392761569,0.896946014849743,1.0170210736430183,0.8350517009853446
1730865951.133597,-1.9302725791931152,1.1401413679122925,-9.887577056884766,-0.1441276229461759,-0.36622102964096503,-11.564284924818702,0.8997134781420832,1.0201291960288446,0.7706174423416674
1730865951.1835477,-1.8705997467041016,1.1601102352142334,-9.892549514770508,-0.14383549009742855,-0.3628537193297583,-11.524997084938905,0.9062798413462965,1.0279254390051935,0.8358330782773891
1730865951.233644,-1.852792739868164,1.1702474355697632,-9.919771194458008,-0.14355544684110672,-0.359423571381817,-11.48412120752813,0.9098506495835595,1.0315461147722567,0.7712308450800349
1730865951.2836158,-1.850260853767395,1.1229956150054932,-9.914119720458984,-0.1433131806838827,-0.35594514665186794,-11.441896256164089,0.912287042050612,1.0393480619837236,0.8365484245085787
1730865951.3335752,-1.8229795694351196,1.0839333534240723,-9.910886764526367,-0.14313367267250418,-0.35243344556278355,-11.39855533142292,0.9147992180032354,1.042762339528013,0.7726707429468115
1730865951.3836124,-1.7985893487930298,1.0479875802993774,-9.888747215270996,-0.14304071604337076,-0.34890335639177184,-11.35432504497294,0.9209677916400104,1.052269208212762,0.8370540164085942
1730865951.4335694,-1.7535266876220703,0.9978740811347961,-9.872357368469238,-0.14305645796651334,-0.3453690075845303,-11.309424799889412,0.929112201956231,1.0564667898794327,0.84342547058419
1730865951.4836032,-1.7535266876220703,0.9978740811347961,-9.872357368469238,-0.1432009227344599,-0.3418432079750262,-11.264066061696177,0.933572107728718,1.0593375752529548,0.7830105994877994
1730865951.4836032,-1.7225205898284912,0.9698752164840698,-9.863229751586914,-0.14349163019101913,-0.33833707732704343,-11.218451735273739,0.9335949839872548,1.059350616839165,0.7826116693934839
1730865951.533507,-1.668954610824585,0.9353963732719421,-9.8529052734375,-0.14394332953799788,-0.3348598621434132,-11.172775683467751,0.937662702385138,1.0613555052976433,0.6946771560937243
1730865951.583536,-1.6359572410583496,0.9215210676193237,-9.852986335754395,-0.14456770978237715,-0.3314188079478736,-11.127222336024495,0.9414075175952804,1.0625443932165872,0.5779555099805652
1730865951.6334298,-1.6144894361495972,0.9229671359062195,-9.850465774536133,-0.1453730735796505,-0.32801906772122746,-11.081966373386843,0.9280861787287022,1.0693545982256936,0.8398009423831262
1730865951.6834772,-1.6067534685134888,0.9610587358474731,-9.857247352600098,-0.14636414983336118,-0.32466379660933087,-11.03717251309724,0.9281608735455679,1.071257565571019,0.7787425487294087
1730865951.7344527,-1.5976148843765259,1.0084751844406128,-9.867647171020508,-0.14754213650556122,-0.32135454495003657,-10.992995405681498,0.9227124080087421,1.0844489920605211,0.8405299080703992
1730865951.7843916,-1.6114647388458252,1.0301212072372437,-9.874835968017578,-0.14890492595654295,-0.3180918911712562,-10.949579629631506,0.9208983183038717,1.0890923900912624,0.7796037440983982
1730865951.8344188,-1.5975745916366577,1.018343448638916,-9.889068603515625,-0.15044744468146032,-0.31487606271434443,-10.907059759459543,0.9186961938898751,1.0929684842468574,0.6907949557515561
1730865951.8845086,-1.6075562238693237,0.9683912396430969,-9.893061637878418,-0.15216203093384667,-0.3117072394648217,-10.865560473611275,0.9189223472765421,1.0978751298356477,0.836196053011747
1730865951.934418,-1.626556634902954,0.905511736869812,-9.897462844848633,-0.15403881427040506,-0.30858539779073774,-10.825196671955172,0.9171964019287797,1.1006000094580513,0.7739303509805538
1730865951.9844997,-1.6508206129074097,0.8503293991088867,-9.890620231628418,-0.15606615463118723,-0.3055097913910511,-10.786073569368911,0.9143259219895183,1.1142251991259133,0.8391975807007014
1730865952.034278,-1.668717384338379,0.7852784395217896,-9.882685661315918,-0.1582311637048585,-0.30247830118377783,-10.748286743788071,0.9117202078254757,1.1195625958887354,0.7795108605317413
1730865952.0843859,-1.668717384338379,0.7852784395217896,-9.882685661315918,-0.1605202112933115,-0.29948688462288264,-10.711922153796936,0.9100152298319153,1.1300811865341716,0.8397340798674632
1730865952.0843859,-1.666137456893921,0.7490000128746033,-9.847501754760742,-0.16291929621605072,-0.29652929757288204,-10.677056150653542,0.9099896463780789,1.130142571861605,0.8392893275364459
1730865952.134316,-1.6244356632232666,0.7482098340988159,-9.854060173034668,-0.16541421307273585,-0.2935971118070505,-10.643755478781426,0.9071196359620748,1.1361711203773717,0.7797443662607485
1730865952.1843207,-1.5937052965164185,0.7874472141265869,-9.882034301757812,-0.1679904884435377,-0.2906799537615268,-10.612077338432409,0.903807808104421,1.1415254507978811,0.6931491945309673
1730865952.2342668,-1.5707736015319824,0.8576775789260864,-9.910017013549805,-0.1706331474590601,-0.28776602765132,-10.582069680650585,0.9078261572087043,1.1378745711048774,0.8459413910671482
1730865952.2842512,-1.587791085243225,0.9232023358345032,-9.935588836669922,-0.1733265097343953,-0.28484300134462304,-10.553771749522163,0.9094563789536344,1.145260731366557,0.8502871277049244
1730865952.3342435,-1.5839658975601196,0.9715844392776489,-9.951668739318848,-0.17605420435566607,-0.2818990824173647,-10.527214697799604,0.9084216651281963,1.1486413773910022,0.795212565398792
1730865952.3842833,-1.6285433769226074,0.9795622229576111,-9.949352264404297,-0.17879942186074455,-0.27892395594778985,-10.502422119898839,0.9074201361765108,1.1479001676504788,0.8429172432536299
1730865952.4342704,-1.6731714010238647,0.9589577913284302,-9.931402206420898,-0.18154535515588294,-0.2759093164556852,-10.47941041676331,0.9055401551141175,1.149030227835536,0.7848708520569266
1730865952.4843504,-1.7608195543289185,0.9085907340049744,-9.892904281616211,-0.18427584417857124,-0.27284888719694145,-10.458188947478995,0.9032019828259228,1.1494761968533544,0.7006406558154209
1730865952.5342863,-1.8198007345199585,0.8613375425338745,-9.845653533935547,-0.18697620908526327,-0.26973799737624876,-10.438759971534898,0.9060707359385278,1.1598072544349511,0.8377047927306276
1730865952.5842535,-1.8743910789489746,0.8098325729370117,-9.812735557556152,-0.18963411691063134,-0.2665729152511155,-10.42111845681288,0.9044874844433901,1.1618456967148374,0.7779558506510927
1730865952.634168,-1.8814746141433716,0.8248398900032043,-9.78154468536377,-0.19224023795802536,-0.26335020241611434,-10.405251900345636,0.906418969441213,1.1742537793846586,0.8408900265977577
1730865952.6841817,-1.8178749084472656,0.9012826681137085,-9.799697875976562,-0.1947884502421653,-0.2600664209211908,-10.39114032652829,0.9052198825573053,1.1785979327434148,0.7829406388284668
1730865952.7341259,-1.7743693590164185,0.9895063042640686,-9.821540832519531,-0.1972754448353399,-0.25671846508280277,-10.378756596299915,0.9051090768905717,1.184962690723126,0.8412571774699533
1730865952.7841399,-1.7426655292510986,1.0704177618026733,-9.879551887512207,-0.19969988675306138,-0.2533044439316854,-10.368067078257232,0.9034804595422338,1.1891168527302771,0.7830778125152204
1730865952.834016,-1.7173658609390259,1.144403100013733,-9.899643898010254,-0.20206154042592556,-0.24982472889713814,-10.35903258686328,0.9038219895464888,1.201671532348555,0.8414141379221859
1730865952.884022,-1.7238008975982666,1.201750636100769,-9.902915954589844,-0.20436063917544695,-0.2462828343827669,-10.35160934620544,0.902149267131002,1.2073934037965335,0.7838783456048017
1730865952.9340377,-1.7645459175109863,1.1820310354232788,-9.86949348449707,-0.20659758512638998,-0.242685943623359,-10.345749701327206,0.9071434591776254,1.219335747690631,0.8422101748312995
1730865952.9839852,-1.83077871799469,1.1543887853622437,-9.82955265045166,-0.2087730440840942,-0.23904490174297585,-10.341402442023934,0.9102486310951243,1.2238972515151134,0.8482693740343542
1730865953.0339887,-1.8594506978988647,1.0799541473388672,-9.79504680633545,-0.2108883859624596,-0.23537360774739793,-10.33851281798588,0.910545730988333,1.2283167591149122,0.7930494423637104
1730865953.0839276,-1.8404059410095215,1.018115758895874,-9.759230613708496,-0.21294616139365846,-0.23168796238524947,-10.337022441805853,0.9103142730146314,1.2320963778990592,0.7130218376961304
1730865953.1339393,-1.7897979021072388,0.9865586757659912,-9.764646530151367,-0.21495021126351446,-0.22800466450024004,-10.336869269986831,0.9095406546609551,1.2353582726407382,0.6056954806704711
1730865953.1840162,-1.698754072189331,1.0258070230484009,-9.786855697631836,-0.21690522344024848,-0.2243402352759959,-10.33798781803809,0.9114213160993683,1.239429150719277,0.8377502375708947
1730865953.2339149,-1.6195176839828491,1.096706748008728,-9.849236488342285,-0.21881583421886364,-0.22071063188156384,-10.34030972356106,0.9106937453657883,1.2426889038344167,0.7781774283527636
1730865953.2839737,-1.5690386295318604,1.1863417625427246,-9.894932746887207,-0.22068555838390191,-0.21713154910228707,-10.343764648476487,0.9094090484123761,1.2454223406755798,0.6922028530340466
1730865953.3338645,-1.5596836805343628,1.2637195587158203,-9.941064834594727,-0.2225159237238789,-0.21361917722154977,-10.348281347716354,0.9111756541418368,1.2561178348567554,0.8402462271507884
1730865953.384044,-1.59630286693573,1.3051685094833374,-9.960204124450684,-0.22430611063831393,-0.21019103074927542,-10.353788660198717,0.910072131808906,1.2608351178017172,0.7807961651548287
1730865953.4338489,-1.6284863948822021,1.3273265361785889,-9.94701862335205,-0.22605317276097506,-0.20686650738618426,-10.360216228399981,0.9084286293502143,1.2649595681005537,0.6966497727038926
1730865953.4840422,-1.6553434133529663,1.316172480583191,-9.920696258544922,-0.22775265306447445,-0.2036670065147607,-10.36749484009615,0.9111045501449101,1.2682936095363881,0.8401229818665401
1730865953.5338588,-1.6599690914154053,1.2806527614593506,-9.860176086425781,-0.22939926741980277,-0.20061560543088428,-10.375556383772429,0.9133715225378908,1.2801049616233895,0.8488229906566598
1730865953.583919,-1.6765570640563965,1.1801283359527588,-9.819402694702148,-0.23098742601275246,-0.197736321490925,-10.384333509496877,0.9129257806614202,1.2854720726525506,0.7932944572659845
1730865953.6338382,-1.6765570640563965,1.1801283359527588,-9.819402694702148,-0.23251156871656803,-0.1950530464017568,-10.393759207900171,0.9157891992166588,1.2950118798019499,0.8443461452239498
1730865953.6338382,-1.6720153093338013,1.0732054710388184,-9.787087440490723,-0.2339663695845313,-0.19258842395295755,-10.403766567794955,0.9157892404694841,1.2950360224178779,0.8441657114325186
1730865953.6838663,-1.6663193702697754,0.9791675806045532,-9.763050079345703,-0.23534682786866618,-0.19036281020432927,-10.414288751325689,0.9155081416033565,1.3007420197034454,0.7868718599209394
1730865953.7339408,-1.6707918643951416,0.9239218235015869,-9.750232696533203,-0.23664827692993454,-0.18839321121677002,-10.425259033480001,0.9146342332740097,1.3060289445733582,0.702976150590437
1730865953.7837968,-1.6707918643951416,0.9239218235015869,-9.750232696533203,-0.23786638668057852,-0.18669237326320637,-10.436610883687138,0.9201676426198278,1.303707097278862,0.8492376680065756
1730865953.7837968,-1.6994575262069702,0.9047927856445312,-9.781537055969238,-0.23899722156731373,-0.1852683919334297,-10.44827820141491,0.9201698124564185,1.3037261697135143,0.8489969515527123
1730865953.8338177,-1.7137017250061035,0.9450106620788574,-9.824131965637207,-0.24003738999902438,-0.18412486155385577,-10.460195784400508,0.9202565302153994,1.306886353534876,0.7931925178988752
1730865953.8838098,-1.7199853658676147,1.0237822532653809,-9.900525093078613,-0.24098425644059968,-0.18326142867393166,-10.472300045357073,0.9259195161841732,1.3133515881408862,0.85403473327743
1730865953.933771,-1.7121604681015015,1.109671950340271,-9.941783905029297,-0.24183609506526682,-0.18267475158596125,-10.484529909742367,0.9313169164978387,1.3188841356951002,0.8536358236365971
1730865953.9838536,-1.7125602960586548,1.1412822008132935,-9.991416931152344,-0.24259209916824231,-0.1823597295128887,-10.496827713059423,0.9332532750962546,1.3225960733398578,0.800344714982626
1730865954.033785,-1.7383090257644653,1.1559922695159912,-9.991555213928223,-0.2432523145610871,-0.18231058604892839,-10.509139881385652,0.9346118773825942,1.3258959193703705,0.7207656844470154
1730865954.0837812,-1.7700742483139038,1.0934906005859375,-9.966474533081055,-0.2438176570493501,-0.18252143375813534,-10.52141723895415,0.9329228462637817,1.333018594504928,0.8420417161931714
1730865954.1337168,-1.7931220531463623,1.0574482679367065,-9.924484252929688,-0.24429008486472814,-0.18298622080096721,-10.533614870854812,0.9327633599780362,1.3364731402929106,0.7823086494435517
1730865954.1838078,-1.8051255941390991,0.9757516384124756,-9.861323356628418,-0.24467282220308895,-0.183698215842024,-10.545691596073436,0.934611130404706,1.3494095736719585,0.8432735839820903
1730865954.233678,-1.8243852853775024,0.909440279006958,-9.807530403137207,-0.2449704971888042,-0.18464927928743943,-10.557609206859368,0.9344617329714655,1.3553575032410894,0.7849131381448889
1730865954.2837088,-1.831785798072815,0.8526820540428162,-9.77783489227295,-0.24518917039489557,-0.185829106764512,-10.569331669545555,0.9348938720012108,1.3568869294880068,0.8432609627012408
1730865954.3335953,-1.7967559099197388,0.8678164482116699,-9.767488479614258,-0.24533625011293994,-0.18722465772151958,-10.580824507058445,0.9341561966938442,1.3607299230350247,0.7845754866194647
1730865954.3836603,-1.7605763673782349,0.9291214346885681,-9.799591064453125,-0.24542019950897123,-0.188820073901473,-10.592054531702022,0.9353108373068939,1.3722059116735146,0.8429079097444194
1730865954.433618,-1.710945725440979,1.0032237768173218,-9.818702697753906,-0.24544999024338576,-0.19059726388291703,-10.602989966121417,0.9343807885397405,1.3776477510409004,0.7839553329301067
1730865954.4836576,-1.7012803554534912,1.053971767425537,-9.838756561279297,-0.24543444643297802,-0.19253697500239064,-10.613600825794416,0.936011680769925,1.3826238036071272,0.8427659309310256
1730865954.5335536,-1.6881037950515747,1.0379717350006104,-9.849413871765137,-0.24538171097021272,-0.19461988153568446,-10.623859338855777,0.9350834984085735,1.3871124485450312,0.78358264422946
1730865954.5836434,-1.7113316059112549,0.9963055849075317,-9.854170799255371,-0.24529898287906265,-0.1968272168071514,-10.633740254219148,0.9368626907592534,1.3911336868274484,0.8425944324952621
1730865954.6335702,-1.745736837387085,0.9328804016113281,-9.85682487487793,-0.24519255562728176,-0.19914076788313134,-10.643221010572116,0.93599733176765,1.3946376329277566,0.7833217082712106
1730865954.683587,-1.7479357719421387,0.8603179454803467,-9.831171989440918,-0.24506808806939073,-0.20154238780071082,-10.652281768332733,0.9345216232537291,1.3976381288941375,0.6975609759864962
1730865954.733575,-1.7491909265518188,0.843873918056488,-9.839099884033203,-0.24493091035656514,-0.2040133382521096,-10.660905308808173,0.9373915559668352,1.4001784008755747,0.8388569488174789
1730865954.7836032,-1.719849944114685,0.8954249024391174,-9.856204986572266,-0.24478615295629455,-0.20653386118309908,-10.669076896629264,0.9362715568604395,1.4021590251163083,0.7781237447206169
1730865954.8335345,-1.69038987159729,1.013269066810608,-9.893735885620117,-0.24463863481129494,-0.2090833925294974,-10.676784276724065,0.9405477574229388,1.4037011058399131,0.84219667888771
1730865954.8834958,-1.6407148838043213,1.1782209873199463,-9.94733715057373,-0.24449255358366054,-0.21164160555373554,-10.684017888054484,0.9443351461631571,1.4047878411646022,0.8481339203708973
1730865954.9335127,-1.5968351364135742,1.3148117065429688,-9.980710983276367,-0.24435104898322701,-0.21419010102027744,-10.690771237535383,0.9453456277991275,1.4052204289468953,0.7909765388645779
1730865954.9834745,-1.5788203477859497,1.3853707313537598,-9.986942291259766,-0.24421575033787948,-0.21671422093365236,-10.697041261999994,0.9457405758549662,1.4051122323999783,0.7073361602180261
1730865955.0333755,-1.59587824344635,1.345052719116211,-9.986001014709473,-0.24408649292006482,-0.21920429014315765,-10.702828465539046,0.9459550675439371,1.4045469904863497,0.8392955021243057
1730865955.0834413,-1.59587824344635,1.345052719116211,-9.986001014709473,-0.24396135183386325,-0.22165583775624348,-10.708136769894322,0.9455477020399562,1.4033452865150564,0.7783057615154977
1730865955.0834413,-1.6471034288406372,1.241713523864746,-9.92891788482666,-0.24383696514750888,-0.22406891656630795,-10.71297314834549,0.9455438092114842,1.4033372185603183,0.7779000092729849
1730865955.1334794,-1.7504501342773438,1.1041513681411743,-9.85863208770752,-0.24370911573668544,-0.22644682857877996,-10.717347018628969,0.9445290720666043,1.401581505917978,0.6904377168595366
1730865955.1834555,-1.8304283618927002,0.9711137413978577,-9.74976921081543,-0.24357365058016112,-0.22879437196214936,-10.721269306390441,0.9501311523223014,1.3993518090890138,0.8443761856875565
1730865955.2333221,-1.9156988859176636,0.9128645658493042,-9.670672416687012,-0.2434276331148418,-0.23111589676690314,-10.724751244913765,0.9502092253503476,1.396459498527625,0.7869072019874339
1730865955.2834413,-1.9156988859176636,0.9128645658493042,-9.670672416687012,-0.2432703579544443,-0.23341378803644186,-10.727803224010318,0.9496801781646824,1.3929724055769004,0.7023634177174928
1730865955.2834413,-1.9563443660736084,0.903839647769928,-9.61693286895752,-0.24310390687567535,-0.2356877913572064,-10.730434069536813,0.9496756668042257,1.3929519819078917,0.7018338007455941
1730865955.3332965,-1.9563443660736084,0.903839647769928,-9.61693286895752,-0.24293323360107177,-0.23793503560689433,-10.732650805775114,0.9485496955787566,1.38891682939208,0.5915721111964494
1730865955.3332965,-1.9662718772888184,0.9583784937858582,-9.625625610351562,-0.2427659783245245,-0.2401503953905297,-10.734458699767877,0.9485419568703757,1.3888933295230022,0.590901660812445
1730865955.3834836,-1.923431158065796,1.0500279664993286,-9.705564498901367,-0.2426121118399568,-0.24232712729296468,-10.735861585955924,0.9568011488680326,1.384366168742079,0.8438127822080782
1730865955.4342368,-1.8367159366607666,1.1513241529464722,-9.823517799377441,-0.24248331417289914,-0.24445789427625855,-10.73686264454303,0.957224074196326,1.3790005773789862,0.7865421478378976
1730865955.4842105,-1.7143102884292603,1.2665013074874878,-9.948857307434082,-0.2423919443439575,-0.24653609840129223,-10.737465680706908,0.9614387233019004,1.373326219562413,0.8458810806776484
1730865955.5342638,-1.5934988260269165,1.3747628927230835,-10.055098533630371,-0.24234960608297865,-0.24855728540805927,-10.73767668418463,0.962272680079995,1.3667954912771672,0.7875837382114407
1730865955.5842412,-1.4835880994796753,1.4298890829086304,-10.111140251159668,-0.24236555047299882,-0.2505203842384645,-10.737505255017439,0.9648794955481076,1.3598681913990085,0.8438014763377683
1730865955.6342456,-1.443881630897522,1.4316983222961426,-10.103753089904785,-0.24244528597253728,-0.25242850165641084,-10.736965489809602,0.9655001163175013,1.3520857404862074,0.7842681784857832
1730865955.6842623,-1.4952565431594849,1.3775787353515625,-10.049909591674805,-0.24258980679254663,-0.2542890041168078,-10.73607607396202,0.9676093951983825,1.343950753396454,0.8380934878954766
1730865955.7341847,-1.6399167776107788,1.2702287435531616,-9.953142166137695,-0.24279582162146193,-0.2561127985033973,-10.734859553348283,0.9676932350084352,1.334933929960458,0.7773493117633411
1730865955.7842758,-1.8158236742019653,1.1555479764938354,-9.814238548278809,-0.24305711719581838,-0.25791293424399175,-10.733340945373389,0.9689497683632051,6.506014741494051,0.8311604964212561
1730865955.8341494,-1.987913966178894,1.0372942686080933,-9.684324264526367,-0.2433667558292075,-0.25970281843331344,-10.731545921433526,0.9693468443509471,6.593112598353285,0.8327750993223529
1730865955.8841746,-2.1046435832977295,0.9711049795150757,-9.589987754821777,-0.24371947436806496,-0.26149444211243966,-10.729498886810184,0.9687922094107451,6.590506097570379,0.7728257415697591
1730865955.9341092,-2.1483964920043945,0.9394667744636536,-9.553539276123047,-0.24411361298155884,-0.2632970100545132,-10.727221394436596,0.9676248055271457,6.587236294637829,0.6858518739697385
1730865955.9841945,-2.121264934539795,0.9565346837043762,-9.586009979248047,-0.24455209845252016,-0.2651162355236932,-10.724731280452252,0.9658450274661519,6.5833052024511245,0.5720112827473558
1730865956.0340698,-2.039263963699341,0.9619608521461487,-9.645097732543945,-0.245042320703783,-0.26695431538385195,-10.722042688037892,0.9695672525989212,6.62302296522517,0.8169516434423282
1730865956.0840585,-2.039263963699341,0.9619608521461487,-9.645097732543945,-0.2455951511510448,-0.2688103368974741,-10.719166781170962,0.9684685436560176,6.619795283403252,0.7536254416294259
1730865956.0840585,-1.9312196969985962,0.9948458671569824,-9.719782829284668,-0.24622364174954453,-0.2706808142963567,-10.71611268055293,0.96846093687985,6.619775993793862,0.7532102159067424
1730865956.1340225,-1.9312196969985962,0.9948458671569824,-9.719782829284668,-0.24694177585062158,-0.27256023844552235,-10.712888320184703,0.9667540776177354,6.615886073866637,0.6634687179248386
1730865956.1340225,-1.8107657432556152,1.0069457292556763,-9.799466133117676,-0.24776333051666038,-0.2744416109015053,-10.709501203794817,0.966743177145138,6.615863179971894,0.6629108477721108
1730865956.184022,-1.7375962734222412,1.0039891004562378,-9.883305549621582,-0.24870078152040453,-0.2763168852037666,-10.70595915270933,0.964416694180881,6.611283133138155,0.5463612495090904
1730865956.2339506,-1.6901278495788574,0.9899908900260925,-9.963652610778809,-0.24976421592196707,-0.2781772713879904,-10.702271174327526,0.9758808126110253,6.623280811800024,0.8230640685969571
1730865956.2840056,-1.6511867046356201,1.0167818069458008,-10.022025108337402,-0.2509604497242538,-0.280013438481535,-10.698448390909567,0.9759341320218066,6.620038474488158,0.7652683185121864
1730865956.3338845,-1.626352071762085,1.0566904544830322,-10.058816909790039,-0.2522925565411739,-0.2818157543021414,-10.69450476683476,0.9816495922150806,6.628514181900435,0.8246688213142397
1730865956.3839247,-1.6089198589324951,1.1275053024291992,-10.08283519744873,-0.2537597474771002,-0.28357474029331387,-10.690457468513054,0.9822080767580417,6.627487147604893,0.7663831368678493
1730865956.433835,-1.6089198589324951,1.1275053024291992,-10.08283519744873,-0.2553574866311888,-0.2852817166042499,-10.686326856477343,0.9900292220291101,6.6335426171356096,0.8233828751319013
1730865956.433835,-1.548673152923584,1.161179542541504,-10.08017635345459,-0.2570777421249968,-0.28692937175326105,-10.682136174367143,0.9900418464752817,6.633544280228551,0.8231284996459958
1730865956.4838657,-1.548673152923584,1.161179542541504,-10.08017635345459,-0.25890921531466954,-0.28851206640640115,-10.677911035394517,0.9965114963482525,6.638328713265632,0.8408690307294111
1730865956.4838657,-1.5168516635894775,1.1840696334838867,-10.051786422729492,-0.2608375123655163,-0.29002592942841254,-10.67367881530412,0.9965296907246405,6.638336744336316,0.8406677434737365
1730865956.533793,-1.4813148975372314,1.1318827867507935,-9.987784385681152,-0.2628453406214498,-0.29146881185402224,-10.669467949183783,0.9994459492889154,6.639407121278354,0.7916215407948444
1730865956.5838237,-1.4938756227493286,1.0512200593948364,-9.905617713928223,-0.26491274005769005,-0.29283996643272997,-10.665307014833228,1.0017319027362266,6.639759145530225,0.7155089432437378
1730865956.6337664,-1.4938756227493286,1.0512200593948364,-9.905617713928223,-0.26701740414182196,-0.29413937757489506,-10.661223652750401,1.0033477656459384,6.639378044653285,0.6130184978163222
1730865956.6337664,-1.5253958702087402,0.9455553293228149,-9.82075309753418,-0.2691351935716875,-0.29536697712889726,-10.6572436114463,1.0033548788564106,6.639373884422308,0.6123754719916432
1730865956.683823,-1.6069215536117554,0.8572342395782471,-9.72569751739502,-0.2712408683582035,-0.2965218815135342,-10.653389975310517,1.000958988373184,6.643933484497363,0.8400414101127953
1730865956.7337284,-1.7038275003433228,0.803158164024353,-9.66273307800293,-0.2733090988209088,-0.2976015436191783,-10.649682340144127,1.0014501248108416,6.644121304209413,0.7864262257210874
1730865956.7837372,-1.8090814352035522,0.8006678223609924,-9.635173797607422,-0.2753157742236141,-0.29860101154207563,-10.646136003383276,1.0046071836126458,6.649787161260756,0.84185508563461
1730865956.8336544,-1.8927173614501953,0.8072279691696167,-9.634767532348633,-0.2772394149143735,-0.2995126783308632,-10.642761529633862,1.0081637049929641,6.647720324692815,0.8482724750953546
1730865956.883653,-1.9440635442733765,0.8602471947669983,-9.668485641479492,-0.27906239090833784,-0.3003265985668574,-10.639564856083013,1.0089606388276628,6.64667297043871,0.7943811281567309
1730865956.9336395,-1.9826576709747314,0.9154075980186462,-9.733817100524902,-0.2807717207223487,-0.3010312264291968,-10.636547885573414,1.0090563503024412,6.644870173590357,0.7137425999489859
1730865956.9837236,-1.9826576709747314,0.9154075980186462,-9.733817100524902,-0.2823593772663274,-0.3016143571751334,-10.63370940339096,1.0124884223850403,6.64393365065126,0.8419389541343716
1730865956.9837236,-1.9989776611328125,0.9727869033813477,-9.810914993286133,-0.28382216547190975,-0.30206398285611447,-10.631046043114063,1.0124910779315892,6.643923386913973,0.8416898429345155
1730865957.033659,-1.9968469142913818,1.0430967807769775,-9.891023635864258,-0.28516132266202726,-0.3023689948856133,-10.628553203614342,1.012622186668021,6.6416823873338915,0.7832362936412416
1730865957.083661,-1.9968469142913818,1.0430967807769775,-9.891023635864258,-0.2863820001409859,-0.30251987416090054,-10.626225990474756,1.0120408126140854,6.638660115759354,0.6975623847146517
1730865957.083661,-1.9078164100646973,1.1033395528793335,-9.982389450073242,-0.28749262668118125,-0.3025092929557894,-10.624060047669694,1.0120357798848312,6.638641948579266,0.69703356960949
1730865957.1336153,-1.811535358428955,1.1505705118179321,-10.037453651428223,-0.2885039586604882,-0.30233252947808203,-10.622052200962418,1.016493327984669,6.641309218121339,0.8503994003455854
1730865957.1835968,-1.684177279472351,1.158101201057434,-10.068291664123535,-0.28942769810717894,-0.3019877944288365,-10.620201044215978,1.0164686055358747,6.639059145860739,0.7962665436239303
1730865957.2335598,-1.607757568359375,1.1402833461761475,-10.083259582519531,-0.29027487992859835,-0.30147639372057455,-10.618507373388077,1.0157168463705897,6.636044583077559,0.7153139258797524
1730865957.2836456,-1.5794684886932373,1.0847864151000977,-10.054425239562988,-0.2910544588722415,-0.3008024990207984,-10.616974249985859,1.0142445896257601,6.632295356862465,0.6083244441260351
1730865957.3335211,-1.5794684886932373,1.0847864151000977,-10.054425239562988,-0.2917724862667619,-0.29997254160168485,-10.615606686575546,1.0221351930273868,6.627803020853876,0.8419650830944508
1730865957.3335211,-1.6266781091690063,1.0333889722824097,-10.00820255279541,-0.2924320027244366,-0.2989944924412885,-10.6144110981052,1.0221367938148598,6.627776698124592,0.8417114966988558
1730865957.3835816,-1.6266781091690063,1.0333889722824097,-10.00820255279541,-0.2930334811909789,-0.29787723259545973,-10.613394672262682,1.0265742297654512,6.6225195268259505,0.8554147401128641
1730865957.3835816,-1.7076492309570312,0.985153317451477,-9.948284149169922,-0.2935755371094151,-0.29663003460220666,-10.612564746422006,1.0265796978221837,6.622490488308926,0.8552142013043196
1730865957.4335127,-1.7076492309570312,0.985153317451477,-9.948284149169922,-0.29405571406969455,-0.29526212633953924,-10.611928217630854,1.0272675784192566,6.616550867815128,0.8036386677478856
1730865957.4335127,-1.7534598112106323,0.9991579055786133,-9.872818946838379,-0.29447122521479285,-0.29378238227338194,-10.611490989606235,1.027269435775877,6.6165149098253755,0.8032698696633549
1730865957.4836228,-1.7534598112106323,0.9991579055786133,-9.872818946838379,-0.29481952449021864,-0.29219923279002974,-10.61125745501124,1.027228904893882,6.609800802378794,0.7248909814152132
1730865957.4836228,-1.761965274810791,1.019677996635437,-9.80775260925293,-0.2950986626190454,-0.29052076283670775,-10.611230036418137,1.0272266586551109,6.609761917924034,0.724387631656464
1730865957.5335631,-1.7332777976989746,1.0601274967193604,-9.740081787109375,-0.2953074261364056,-0.28875490629664413,-10.611408769576192,1.026452454230377,6.602347494400178,0.6198768210582198
1730865957.5835302,-1.7332777976989746,1.0601274967193604,-9.740081787109375,-0.29544526263777504,-0.28690971754360706,-10.611790879852435,1.0249368926026747,6.5941679511232225,0.4882404634555809
1730865957.5835302,-1.7360866069793701,1.0578792095184326,-9.706241607666016,-0.29551210519812854,-0.2849936180611733,-10.612370488329756,1.024926477198319,6.5941208139805765,0.4874402646311291
1730865957.633568,-1.7078824043273926,1.0534155368804932,-9.675688743591309,-0.2955082294055983,-0.2830154592976377,-10.613138578988355,1.0305904389003755,6.585256390086857,0.8546491520892903
1730865957.683474,-1.7233083248138428,1.0290294885635376,-9.678693771362305,-0.29543414131470386,-0.2809844010650733,-10.61408311186987,1.0301762787882456,6.5756886323090935,0.8016711820944527
1730865957.733404,-1.7296462059020996,1.0342074632644653,-9.693284034729004,-0.2952904976065713,-0.27890969862678355,-10.61518924819632,1.0350590260108348,6.5653963852671975,0.850228914578943
1730865957.7834828,-1.7782323360443115,1.0552161931991577,-9.738544464111328,-0.29507816819831406,-0.27680051919305293,-10.61643981319663,1.0354564032611167,6.554424502310514,0.793563814979851
1730865957.833414,-1.8271551132202148,1.1032934188842773,-9.756502151489258,-0.29479851935039425,-0.27466594942650974,-10.61781599683443,1.0351170614612815,6.542737711396126,0.7102147507396334
1730865957.8834038,-1.8970963954925537,1.1459044218063354,-9.80887222290039,-0.2944539024385486,-0.2725152639179446,-10.619298147344033,1.0340355785915047,6.530326896803725,0.5999002216363731
1730865957.933347,-1.9201931953430176,1.1988476514816284,-9.833016395568848,-0.29404823525180057,-0.2703583645645453,-10.620866536507151,1.0385880131220404,6.517379049343056,0.8397735148050417
1730865957.983341,-1.93211030960083,1.2210768461227417,-9.855461120605469,-0.29358744892091665,-0.26820623168522273,-10.622502032205682,1.0379826490627697,6.503634962724089,0.7786051578963625
1730865958.0332818,-1.8952357769012451,1.1917591094970703,-9.863088607788086,-0.2930795793568397,-0.26607119093638365,-10.624186599643965,1.0430447569078274,6.48921458707002,0.8433550698108268
1730865958.0833924,-1.8420480489730835,1.143674373626709,-9.883455276489258,-0.2925344155419154,-0.2639667805735165,-10.62590360167351,1.0433230365929045,6.474134045919616,0.7839432045406302
1730865958.1332362,-1.7618697881698608,1.129366159439087,-9.8805570602417,-0.2919627464625098,-0.2619071996795399,-10.627637959450203,1.0458362842007303,6.458592843379212,0.8431745979738589
1730865958.1833367,-1.694387674331665,1.115341305732727,-9.905627250671387,-0.2913753451065919,-0.25990663063239716,-10.629376233813542,1.0458056315529614,6.442128654931333,0.7835362163463888
1730865958.2332082,-1.6100733280181885,1.094612956047058,-9.931663513183594,-0.29078188299978663,-0.2579787185826062,-10.631106690667059,1.0450492704650853,6.425193415224685,0.6980164139503704
1730865958.2832747,-1.5418109893798828,1.0807050466537476,-9.972339630126953,-0.29018992765052143,-0.2561362153678032,-10.632819437961391,1.0497618875743842,6.407577520574946,0.838693677772191
1730865958.3331993,-1.5418109893798828,1.0807050466537476,-9.972339630126953,-0.2896041625780977,-0.2543907117631145,-10.634506626497224,1.0520065234825668,6.389378771363384,0.8470352335675534
1730865958.3331993,-1.499990701675415,1.0729589462280273,-10.015694618225098,-0.289026002837077,-0.2527524721676423,-10.636162600767936,1.0520080563809646,6.389282170408716,0.8468079728065261
1730865958.383289,-1.4388550519943237,1.0682786703109741,-10.016959190368652,-0.2884535503977215,-0.25123037127125675,-10.637783956289047,1.0519398488144684,6.370333408736763,0.7895565185352211
1730865958.4332135,-1.4234479665756226,1.0768064260482788,-10.036955833435059,-0.2878816034778133,-0.24983188756700675,-10.639369529666887,1.0555208724741785,6.350816112292446,0.8496029540714504
1730865958.4831707,-1.4432932138442993,1.1116139888763428,-10.005428314208984,-0.2873017104969944,-0.2485631809120409,-10.640920277564481,1.0559113783109306,6.330720712121348,0.7944101543947725
1730865958.5341525,-1.5085569620132446,1.1484904289245605,-9.962830543518066,-0.28670256736162547,-0.2474293404514594,-10.642438941762588,1.0555738921912055,6.309548007732031,0.7106955068124614
1730865958.5831633,-1.5824558734893799,1.1850098371505737,-9.87814998626709,-0.286070904086498,-0.24643480208940197,-10.64392941629396,1.0568940618751526,6.2886249842811885,0.8417685629228531
1730865958.6341417,-1.7026240825653076,1.1562330722808838,-9.797066688537598,-0.28539275443807427,-0.24558376358990272,-10.645395818540727,1.0561891547795916,6.266167914360038,0.7808432124091429
1730865958.6841717,-1.8434793949127197,1.0966352224349976,-9.701960563659668,-0.28465497689326996,-0.244880301950613,-10.646841383627681,1.0547789511867005,6.243541000826735,0.6942661074326526
1730865958.7341104,-1.9647480249404907,1.0394996404647827,-9.635427474975586,-0.2838469218009015,-0.24432800997905194,-10.648267368847817,1.0526651471845119,6.220365634942743,0.5814232517443101
1730865958.7841659,-2.0362460613250732,0.9632866978645325,-9.589738845825195,-0.28296199350916895,-0.24392928007587972,-10.649672168490783,1.058483843583441,6.449473823655484,0.8355902743902306
1730865958.8331368,-2.0580220222473145,0.9396564364433289,-9.595098495483398,-0.2819987184675106,-0.24368452996483184,-10.651050826352307,1.0575132921556447,6.444519647664601,0.7750587607481141
1730865958.8841126,-2.0580220222473145,0.9396564364433289,-9.595098495483398,-0.28096107303205364,-0.24359165570546376,-10.652395047099176,1.0594979733961296,6.433349457236892,0.8402511633908784
1730865958.8841126,-2.0260348320007324,0.9472898840904236,-9.640368461608887,-0.2798581227337528,-0.24364590608512773,-10.653693648955226,1.059494145921288,6.433316364156997,0.8400013009407712
1730865958.9341154,-1.9630955457687378,1.0134309530258179,-9.721592903137207,-0.2787031665030329,-0.24384018803841886,-10.654933358331583,1.0584302384220663,6.426844722063635,0.7800410575921771
1730865958.984118,-1.895137906074524,1.0919886827468872,-9.815616607666016,-0.27751254099836087,-0.2441657511015019,-10.656099929452457,1.060962251768761,6.416498412186411,0.8494123914004096
1730865959.0339692,-1.8222602605819702,1.1473636627197266,-9.905097961425781,-0.27630423629752304,-0.24461317940648566,-10.657179509205067,1.0601245210418349,6.408314657555089,0.7942947829803529
1730865959.0840662,-1.7455374002456665,1.1361726522445679,-9.956357955932617,-0.27509650276325015,-0.24517338620055495,-10.658159988084561,1.0636896695374227,6.398730131025328,0.8455016192392037
1730865959.1339521,-1.700907826423645,1.1482601165771484,-10.000899314880371,-0.2739065977258046,-0.2458382113348384,-10.659032044294772,1.0634867643079866,6.388234756474319,0.7876621920035083
1730865959.1839936,-1.7207727432250977,1.1174755096435547,-10.020934104919434,-0.27274985406715324,-0.24660053440931806,-10.659789745861238,1.0626005039497286,6.377094189940173,0.7030294603553042
1730865959.233999,-1.7523990869522095,1.134559988975525,-9.988039016723633,-0.2716393009202232,-0.24745411527765587,-10.660430712235648,1.0644101203199465,6.3870160488953935,0.8423310661805257
1730865959.2839696,-1.8286563158035278,1.1376848220825195,-9.950651168823242,-0.27058590343908706,-0.24839340258413897,-10.660955826539963,1.0634291604478139,6.38033429170277,0.7827286973158715
1730865959.3339097,-1.8731988668441772,1.1633003950119019,-9.883402824401855,-0.2695992400171117,-0.24941345987687252,-10.661368530513997,1.0664764088258465,6.373214701021994,0.8476908281698431
1730865959.3839538,-1.87714421749115,1.2097761631011963,-9.829784393310547,-0.26868827758516656,-0.2505100550051759,-10.66167386326757,1.0682048995075097,6.368113218359452,0.8554490942457184
1730865959.43391,-1.87714421749115,1.2097761631011963,-9.829784393310547,-0.26786188114387904,-0.2516798760992671,-10.66187749731318,1.067759441039409,6.36165229999447,0.8003313421265041
1730865959.43391,-1.8527741432189941,1.2444229125976562,-9.779115676879883,-0.2671289121680469,-0.25292074939649517,-10.661985020354617,1.0677551461967327,6.361614835559505,0.7999535504321618
1730865959.483997,-1.7791498899459839,1.2536530494689941,-9.761033058166504,-0.2664979781318012,-0.2542317568302539,-10.662001483381701,1.0666394042040337,6.354476089672495,0.717820367256009
1730865959.5338774,-1.7433054447174072,1.2289862632751465,-9.7857084274292,-0.26597689145620984,-0.25561323679015313,-10.661931109405192,1.0701090589068953,6.346767038773376,0.8565062499798238
1730865959.583923,-1.7433054447174072,1.2289862632751465,-9.7857084274292,-0.26557202523561174,-0.25706661439320055,-10.661777228375943,1.069416777525457,6.33832365715552,0.8004893409833694
1730865959.583923,-1.7001326084136963,1.2023404836654663,-9.813427925109863,-0.2652878733977454,-0.2585940641679418,-10.661542470369504,1.0694116831645728,6.338280187617953,0.8001448900134275
1730865959.6338441,-1.658395528793335,1.1724835634231567,-9.855494499206543,-0.265126826805798,-0.260198102065198,-10.66122910007213,1.071851218938129,6.3292279776637566,0.8630903868049294
1730865959.6838272,-1.589672565460205,1.1396898031234741,-9.88569164276123,-0.2650889165601362,-0.2618811329159421,-10.66083944492036,1.0734776794468335,6.3195606036105,0.8653879747875944
1730865959.733828,-1.5081108808517456,1.1046420335769653,-9.922158241271973,-0.26517139928142447,-0.2636449617421046,-10.660376375149813,1.0731649092976137,6.30915864234572,0.8111535375192733
1730865959.7838185,-1.5081108808517456,1.1046420335769653,-9.922158241271973,-0.2653682867633269,-0.2654903562147301,-10.659843706187406,1.0721880647973554,6.2981107781335055,0.730300430356876
1730865959.7838185,-1.4295170307159424,1.1049782037734985,-9.95274543762207,-0.26567004567798946,-0.26741678701141786,-10.659246427864794,1.0721813853356996,6.298052774240136,0.7298200486656294
1730865959.833836,-1.4295170307159424,1.1049782037734985,-9.95274543762207,-0.2660635472824338,-0.2694224014812503,-10.658590780413913,1.0705474450133732,6.286401839445451,0.622848788031342
1730865959.833836,-1.4276865720748901,1.1359474658966064,-9.951932907104492,-0.26653221342032124,-0.2715041696600818,-10.657884229790136,1.0705363449414185,6.286334129913278,0.6221695985106287
1730865959.8838398,-1.4848183393478394,1.1582427024841309,-9.916403770446777,-0.2670564517643496,-0.2736581575235583,-10.657135306396363,1.0738879292568675,6.273960205108943,0.8562988250362564
1730865959.9337692,-1.4848183393478394,1.1582427024841309,-9.916403770446777,-0.2676144348969443,-0.27587988592354523,-10.656353271276062,1.0754442820515326,6.260971561180906,0.863237543871845
1730865959.9337692,-1.5948827266693115,1.1681678295135498,-9.850994110107422,-0.26818307622893006,-0.2781646364470979,-10.655547670432052,1.0754424273546768,6.260900790282649,0.8630193029470657
1730865959.9839382,-1.7093874216079712,1.1369863748550415,-9.79179573059082,-0.2687391885363021,-0.2805075909005342,-10.654727784491294,1.0747534327773798,6.247133712406891,0.808272666858945
1730865960.0338023,-1.8193243741989136,1.1080282926559448,-9.737626075744629,-0.26926093482032765,-0.28290377270093603,-10.653901930446889,1.0773906487559997,6.232659693364149,0.8641567897969186
1730865960.083812,-1.884267807006836,1.1029753684997559,-9.714607238769531,-0.2697293676215332,-0.2853478247082982,-10.653076752462843,1.076825181887382,6.217514603266383,0.8096869314364459
1730865960.1337838,-1.9105286598205566,1.1115912199020386,-9.716594696044922,-0.2701296057394932,-0.28783379912139956,-10.65225676157786,1.075580278621007,6.201572246032922,0.7282356619477364
1730865960.1837988,-1.9257912635803223,1.116139531135559,-9.744019508361816,-0.27045138918326256,-0.29035513462365425,-10.651444272604614,1.0788079879085721,6.18494107919704,0.8547366307396111
1730865960.2337227,-1.9257912635803223,1.116139531135559,-9.744019508361816,-0.2706890735391527,-0.29290479064624264,-10.65063969383252,1.0779627308207973,6.167588786207754,0.7949993266148536
1730865960.2337227,-1.9447674751281738,1.1083884239196777,-9.78177261352539,-0.27084129715026123,-0.2954753961770856,-10.649841985984189,1.0779567375283758,6.167499181389533,0.7946296148007568
1730865960.28374,-1.942165493965149,1.0875669717788696,-9.824285507202148,-0.2709105410102091,-0.2980593175837182,-10.649049175738645,1.0805784795409705,6.149512181640589,0.8594352743428112
1730865960.3336928,-1.9253342151641846,1.0885087251663208,-9.844911575317383,-0.27090265566082505,-0.30064863440567635,-10.648258929154863,1.080024464641051,6.130783871139209,0.804710741844988
1730865960.383695,-1.8715403079986572,1.0781447887420654,-9.8873929977417,-0.2708262703627548,-0.3032350924884426,-10.647469121631666,1.0787842223322508,6.111093491439027,0.7226516009620473
1730865960.4336674,-1.8715403079986572,1.0781447887420654,-9.8873929977417,-0.270692032262828,-0.3058101051844956,-10.646678293658686,1.0768850994600312,6.090862151155076,0.6150473216832995
1730865960.4336674,-1.8378441333770752,1.0401469469070435,-9.917705535888672,-0.2705118241908501,-0.30836477221077524,-10.645885948339679,1.0768737212816848,6.09075722808872,0.6144322731154703
1730865960.48365,-1.8378441333770752,1.0401469469070435,-9.917705535888672,-0.2702981331990357,-0.31088983731105974,-10.645092704064476,1.0843199602975588,6.069706303541309,0.8487104848035856
1730865960.48365,-1.7672381401062012,1.032460331916809,-9.951805114746094,-0.2700635367313613,-0.3133756143758539,-10.64430036225002,1.084318557542013,6.06959809267086,0.8484838203266634
1730865960.5337403,-1.7021394968032837,1.0370874404907227,-9.975760459899902,-0.2698201185552601,-0.31581199721240233,-10.64351197020306,1.0837020818716683,6.047719500142692,0.790151870481853
1730865960.5838394,-1.65043306350708,1.073177456855774,-10.0149564743042,-0.26957871423635127,-0.31818861304446683,-10.642731936869799,1.0894131353825953,6.024758494330208,0.8548303940633706
1730865960.6337297,-1.6014059782028198,1.14634108543396,-10.020565032958984,-0.26934813642566857,-0.3204951821931656,-10.641966177069701,1.089890165996717,6.001233047662729,0.7986773381100959
1730865960.6836996,-1.5850491523742676,1.22859787940979,-9.987622261047363,-0.2691346042540646,-0.32272217753297117,-10.641222132952263,1.0937238802319151,5.976625541076762,0.8465948209646296
1730865960.733647,-1.6096011400222778,1.2526041269302368,-9.945744514465332,-0.2689415084297085,-0.32486168599108395,-10.640508487033506,1.094353673372472,5.951545206377562,0.7872778386643507
1730865960.7837098,-1.665219783782959,1.2559261322021484,-9.857342720031738,-0.26876961667694527,-0.32690810846462515,-10.63983450938276,1.0943124250561789,5.925480093412587,0.7008451728574622
1730865960.8336103,-1.7471556663513184,1.2027697563171387,-9.769553184509277,-0.2686177547900991,-0.3288583571523936,-10.63920910701626,1.0936047937587927,5.89886508745404,0.5888838064454541
1730865960.8836133,-1.8258168697357178,1.1118991374969482,-9.667461395263672,-0.2684838439997337,-0.33071144616446524,-10.638639687558523,1.0963444115346257,5.870813929814906,0.8336491205913569
1730865960.9335773,-1.8815194368362427,1.0185134410858154,-9.608986854553223,-0.26836605105024025,-0.33246755165306097,-10.638131023917321,1.0958964007086314,5.84243879324846,0.7711117832764426
1730865960.9835758,-1.8734042644500732,0.954424262046814,-9.58102798461914,-0.2682637269546616,-0.33412679387805766,-10.637684386678606,1.0997421592070364,5.812741875242065,0.8351103875325248
1730865961.033538,-1.8734042644500732,0.954424262046814,-9.58102798461914,-0.26817785541095207,-0.3356881687486213,-10.637297167832951,1.099592942486965,5.782679775955632,0.7746153660898752
1730865961.033538,-1.824157476425171,0.9195178747177124,-9.613903045654297,-0.26811096811644,-0.3371489707909251,-10.636963047647033,1.0995899477529245,5.782491530396577,0.7741595401431934
1730865961.0836797,-1.7324042320251465,0.9404146075248718,-9.695297241210938,-0.26806663095730465,-0.33850470038681907,-10.636672645549925,1.0987642975112213,5.751446109074211,0.6865862072862748
1730865961.133535,-1.7324042320251465,0.9404146075248718,-9.695297241210938,-0.2680486290737717,-0.3397492612196846,-10.636414520797079,1.1009701396099834,1.3134845887336573,0.8421716434637747
1730865961.133535,-1.6441199779510498,0.9858413338661194,-9.814929962158203,-0.2680601216819217,-0.3408753510200183,-10.636176272591321,1.1009677402466285,1.3118832727889047,0.841948465612595
1730865961.1836119,-1.5686087608337402,1.074684739112854,-9.920032501220703,-0.26810292202846114,-0.34187507253734895,-10.635945674214685,1.100166780265785,1.0022970146627812,0.7854628106149325
1730865961.2334654,-1.542607307434082,1.151999592781067,-10.003628730773926,-0.268176807235586,-0.34274083123326915,-10.635711964766433,1.1011361322209177,1.4971704618257142,0.8535918203637162
1730865961.283573,-1.5542049407958984,1.2301385402679443,-10.041191101074219,-0.26827900277897265,-0.3434664375561345,-10.635467093649812,1.1000740661416801,1.4336927000589719,0.8007124387156731
1730865961.3333614,-1.6225168704986572,1.2406723499298096,-10.066964149475098,-0.26840419678092714,-0.3440481077840982,-10.635206511854921,1.0983534764949618,1.3697362780974909,0.7217967617821257
1730865961.3834236,-1.7253564596176147,1.2138913869857788,-10.027120590209961,-0.26854521264784875,-0.3444850139063342,-10.634929363963732,1.095941754970457,1.3042577133032698,0.6153925821038739
1730865961.4334004,-1.7253564596176147,1.2138913869857788,-10.027120590209961,-0.26869412346913346,-0.34477923503606295,-10.634638158655587,1.1010116020175527,1.5832358078866418,0.845043853145848
1730865961.4334004,-1.8377536535263062,1.1672279834747314,-9.96264362335205,-0.2688433663943619,-0.3449352926821009,-10.634338094834849,1.1010063076853396,1.5831762490561114,0.8448132875609057
1730865961.4834306,-1.8377536535263062,1.1672279834747314,-9.96264362335205,-0.26898661184414857,-0.34495954986166616,-10.634036248850704,1.0996051522765249,1.5707590360014043,0.7851413987717241
1730865961.4834306,-1.8791604042053223,1.118408203125,-9.90227222442627,-0.2691193905003836,-0.34485961206024146,-10.633740772060722,1.0995939713541754,1.5706763455575004,0.7846718362850833
1730865961.5334456,-1.8703622817993164,1.049418330192566,-9.87574577331543,-0.26923941486046277,-0.3446437155239987,-10.63346015712945,1.1025086765761174,1.6212178644661102,0.8613838632618397
1730865961.5833516,-1.8703622817993164,1.049418330192566,-9.87574577331543,-0.2693465748700836,-0.3443200494936808,-10.633202599941514,1.1028881024291781,1.6276913596258011,0.8656936309793913
1730865961.5833516,-1.7904411554336548,0.9940613508224487,-9.860814094543457,-0.26944264503594867,-0.34389613436869665,-10.632975561971946,1.1028848822448125,1.6276815300505374,0.8655003713328685
1730865961.6333067,-1.6464136838912964,0.9628157019615173,-9.86606502532959,-0.2695305715229235,-0.34337837749227307,-10.63278557791834,1.1019114542720794,1.625312341274956,0.8140434762702481
1730865961.683353,-1.5627888441085815,0.9482263922691345,-9.848698616027832,-0.26961323093885275,-0.34277174034499197,-10.632638196828136,1.1002725560793238,1.6221010219348087,0.7363938462576756
1730865961.7333167,-1.5627888441085815,0.9482263922691345,-9.848698616027832,-0.2696920436360545,-0.34207953805483093,-10.632537953542078,1.0979542531196453,1.6180222280622942,0.6319004663899777
1730865961.7333167,-1.562458872795105,0.9341247081756592,-9.841981887817383,-0.26976613758466644,-0.3413034550146219,-10.632488347014785,1.0979409607959487,1.6179996737093036,0.6313109100760432
1730865961.783527,-1.5797141790390015,0.9555282592773438,-9.840194702148438,-0.26983229217565585,-0.34044371953872765,-10.63249184247659,1.102769024083758,1.6316388785678957,0.8587320702206517
1730865961.8334281,-1.656130313873291,1.0449622869491577,-9.828990936279297,-0.26988539041286497,-0.3394994509106243,-10.632549898747644,1.1014649643113263,1.629932748793227,0.8036677319565694
1730865961.883437,-1.7408385276794434,1.130565881729126,-9.812065124511719,-0.26991921762587934,-0.33846936394635607,-10.632662981045543,1.0994695781258792,1.6273577040612697,0.7213340460977764
1730865961.933372,-1.8037424087524414,1.1793253421783447,-9.80042552947998,-0.2699275484880731,-0.33735280855677136,-10.63283052794857,1.0968280359746934,1.6239746642083672,0.6135917924838513
1730865961.9834905,-1.8700915575027466,1.1633671522140503,-9.820185661315918,-0.26990527139411064,-0.3361507109765707,-10.63305092231262,1.1028932520375956,1.632645231950253,0.8500298926129785
1730865962.0333447,-1.9134926795959473,1.100498914718628,-9.80792236328125,-0.2698492896410527,-0.3348659280088678,-10.633321563133444,1.1014700749305788,1.6308823434324566,0.7896539979732514
1730865962.083408,-1.9134926795959473,1.100498914718628,-9.80792236328125,-0.26975909016614025,-0.333502926869946,-10.63363901831607,1.1031379563387405,1.6335170421312577,0.852041748126944
1730865962.083408,-1.9817607402801514,0.9967160820960999,-9.799867630004883,-0.26963697003408293,-0.3320671066132831,-10.633999147519958,1.1031320213370939,1.633510452147352,0.851784265440167
1730865962.1332574,-2.009242534637451,0.8998187184333801,-9.762540817260742,-0.2694880890040279,-0.33056395428577023,-10.63439714077802,1.101749606802156,1.631936893816728,0.793111100391885
1730865962.1833553,-2.0146119594573975,0.8520634174346924,-9.732019424438477,-0.26932050175462785,-0.3289980187905021,-10.634827434443697,1.102754416404465,1.6344422876653446,0.8590184521980724
1730865962.2332752,-1.9653370380401611,0.8578269481658936,-9.763777732849121,-0.26914500358911486,-0.3273719950986046,-10.635283556475123,1.1028050835046361,1.6350975782279442,0.8606667865354193
1730865962.2832632,-1.8760980367660522,0.9307280778884888,-9.811843872070312,-0.2689745233252564,-0.3256864180221078,-10.635758172305575,1.1013724048616678,1.633770391993545,0.8058438207184652
1730865962.3331802,-1.7786275148391724,1.0387083292007446,-9.875558853149414,-0.2688230129052024,-0.32394017323881685,-10.636243544816526,1.0992618057843384,1.6316260823297402,0.724214469976174
1730865962.3832405,-1.7786275148391724,1.0387083292007446,-9.875558853149414,-0.26870411063582283,-0.3221315799402996,-10.636732250745647,1.096467907133123,1.628661816510911,0.6155494860583361
1730865962.3832405,-1.7020138502120972,1.1243410110473633,-9.926508903503418,-0.2686300466205091,-0.3202594856172216,-10.63721780479155,1.0964519433798667,1.628644640420546,0.6149273980970114
1730865962.4332123,-1.6601722240447998,1.1989141702651978,-9.964488983154297,-0.2686109391253337,-0.3183240923257624,-10.637695080519364,1.1027476670280365,1.6348967946049893,0.8484201235569293
1730865962.4832904,-1.6342209577560425,1.2611186504364014,-9.975395202636719,-0.26865428557261234,-0.3163276963997459,-10.638160642945913,1.1013158266310976,1.633244954758946,0.7901535542034841
1730865962.5331616,-1.6342209577560425,1.2611186504364014,-9.975395202636719,-0.26876463725719324,-0.3142753410430731,-10.638612961250452,1.103523922355011,1.635142259757767,0.8528304564220835
1730865962.5331616,-1.622498869895935,1.2675787210464478,-9.962905883789062,-0.2689435799830322,-0.3121750873852931,-10.639052370045993,1.1035189230257916,1.635135694715117,0.8525954068694627
1730865962.5832772,-1.639206886291504,1.2061913013458252,-9.937066078186035,-0.26918996336873857,-0.3100377763868418,-10.639480789242395,1.1022291774104673,1.6334964582199818,0.7944834622785291
1730865962.6331246,-1.6860491037368774,1.1449236869812012,-9.880510330200195,-0.269500301928473,-0.30787634370506367,-10.639901259709063,1.1002736236783277,1.6310938843657228,0.7100883338801017
1730865962.6834114,-1.7109571695327759,1.0855287313461304,-9.83228588104248,-0.26986936790231486,-0.30570480938673555,-10.640317304436719,1.1045788769854497,1.6357068434376638,0.8570275772407967
1730865962.7330935,-1.709753394126892,1.0741137266159058,-9.788422584533691,-0.27029086945358005,-0.3035372118257787,-10.640732187677722,1.1033891543109748,1.6341799289592804,0.7996255897332395
1730865962.7832174,-1.6724727153778076,1.0828081369400024,-9.795247077941895,-0.27075793132409387,-0.30138683477003314,-10.64114827127976,1.105908404845282,1.631881308835407,0.8583195150948711
1730865962.8330767,-1.6206578016281128,1.0981696844100952,-9.837224006652832,-0.27126317789210475,-0.2992658963093996,-10.64156671766074,1.1049658007770282,1.6288822487970243,0.8017231854160742
1730865962.8830912,-1.5427521467208862,1.13316011428833,-9.84755802154541,-0.2717984297586399,-0.29718561446981195,-10.641987645924914,1.1067297871072201,1.625172327099007,0.8607011743325892
1730865962.933006,-1.5629488229751587,1.1618047952651978,-9.863628387451172,-0.27235422327835557,-0.29515648404592976,-10.64241054391183,1.1056978686539838,1.6206643983067688,0.8035166874417927
1730865962.9830446,-1.629149079322815,1.215698003768921,-9.845447540283203,-0.27291959226598966,-0.2931886611531902,-10.64283461690814,1.10398859076995,1.6154352929359357,0.7199390999247464
1730865963.0340078,-1.6967530250549316,1.2590280771255493,-9.838217735290527,-0.27348249588055584,-0.29129241042244736,-10.643258922951581,1.101541031934591,1.6093450179606916,0.607243653395835
1730865963.084012,-1.7413307428359985,1.2730633020401,-9.82457160949707,-0.2740307632962059,-0.28947854279514573,-10.64368233110906,1.1072187008756036,1.6026403000861777,0.8523318773460732
1730865963.1339903,-1.7646113634109497,1.2583575248718262,-9.81188678741455,-0.27455306335008045,-0.28775866988618737,-10.644103407935638,1.1058936729803137,1.5952500833517078,0.7910528030904591
1730865963.1839724,-1.7786732912063599,1.2127102613449097,-9.802888870239258,-0.27503956156060994,-0.28614509768829244,-10.644520306429435,1.108092880585279,1.587138161205575,0.8563740532536751
1730865963.233917,-1.8130278587341309,1.14822256565094,-9.807696342468262,-0.2754822545331222,-0.284650321398067,-10.644930695574931,1.1068987021910353,1.578275128031379,0.7966031692271577
1730865963.2838762,-1.809478998184204,1.100132703781128,-9.810400009155273,-0.2758751287520829,-0.28328623605996756,-10.645331773173444,1.1050232436613356,1.568741247993175,0.7105804487442117
1730865963.333905,-1.797210454940796,1.1131501197814941,-9.829365730285645,-0.27621418847831775,-0.28206334046216286,-10.645720379803922,1.1091916359408047,1.5585707880583923,0.8526891248664752
1730865963.383851,-1.7991148233413696,1.125964879989624,-9.836786270141602,-0.27649729975412496,-0.2809902827058366,-10.646093191540059,1.1079700471463885,1.5476530983638834,0.7920542918042641
1730865963.4338167,-1.7826963663101196,1.1695894002914429,-9.845488548278809,-0.2767239069699512,-0.2800738882338593,-10.646446939812652,1.1101645365393558,1.5360738369110891,0.851731803317633
1730865963.4838102,-1.7767739295959473,1.2048052549362183,-9.856528282165527,-0.2768947289325113,-0.27931953592552466,-10.646778600506346,1.109034250257237,1.5236489798294242,0.7905204590286863
1730865963.5337822,-1.8129676580429077,1.1983704566955566,-9.851751327514648,-0.27701150577025413,-0.2787316419435742,-10.647085527752262,1.1110025075194252,1.5105266683741165,0.8472941449550946
1730865963.5838563,-1.865580439567566,1.1427628993988037,-9.82577133178711,-0.2770769411204963,-0.27831394836187173,-10.647365495707659,1.1099075441763142,1.49696814587544,0.7869271919653957
1730865963.633715,-1.881205439567566,1.0834192037582397,-9.824111938476562,-0.2770949146231729,-0.2780693644768045,-10.647616600533166,1.1080444502003104,1.4820743337375266,0.6962153962601546
1730865963.68373,-1.881205439567566,1.0834192037582397,-9.824111938476562,-0.2770707487213541,-0.2779994556299823,-10.647837094683497,1.1120511064312557,1.4675236359536983,0.8463613821198577
1730865963.68373,-1.863053321838379,1.0553536415100098,-9.826824188232422,-0.27701124003948685,-0.2781039761009341,-10.64802529495439,1.1120458797006585,1.4674301226060256,0.8460760465378688
1730865963.7337158,-1.863053321838379,1.0553536415100098,-9.826824188232422,-0.27692441332615225,-0.27838067900824887,-10.648179589733353,1.1108001043694826,1.4512598508649084,0.7839152251466095
1730865963.7337158,-1.8265241384506226,1.0528087615966797,-9.850543975830078,-0.276819138643793,-0.2788253353165567,-10.648298499712453,1.1107916459349063,1.4511728698076214,0.78351497428987
1730865963.7837036,-1.8265241384506226,1.0528087615966797,-9.850543975830078,-0.27670471148512166,-0.2794318709593146,-10.648380789725675,1.1089318165995963,1.435092423685317,0.698409855944362
1730865963.7837036,-1.7715882062911987,1.0776413679122925,-9.877630233764648,-0.2765904199533745,-0.280192600184643,-10.648425621583634,1.10892012759444,1.4350047498825333,0.697887732280509
1730865963.8336518,-1.7354477643966675,1.0973707437515259,-9.941924095153809,-0.27648507356258045,-0.28109855983446286,-10.648432765689696,1.1134282118478676,1.418068500225589,0.8601969550186543
1730865963.8837056,-1.7354477643966675,1.0973707437515259,-9.941924095153809,-0.27639650626708506,-0.28213991630083657,-10.64840293193887,1.1124459112321357,1.4001493966055922,0.8077125606243082
1730865963.8837056,-1.689695954322815,1.1317925453186035,-9.966397285461426,-0.27633118726830075,-0.28330634924542736,-10.648338106760864,1.1124379043545836,1.4000393136350344,0.8073158902646365
1730865963.9335935,-1.689695954322815,1.1317925453186035,-9.966397285461426,-0.2762939929117499,-0.2845873777283046,-10.648241700398719,1.1107743700898833,1.3815241190109273,0.72867038079526
1730865963.9335935,-1.6389662027359009,1.1293141841888428,-9.971222877502441,-0.27628804818551084,-0.28597262749800656,-10.648118503748261,1.1107633173808935,1.3814201524042042,0.728164330042855
1730865963.9836588,-1.6389662027359009,1.1293141841888428,-9.971222877502441,-0.27631458914603213,-0.28745197479886986,-10.647974543835797,1.1138972143690342,1.3623396782862376,0.8634772805802775
1730865963.9836588,-1.6623183488845825,1.1505361795425415,-9.938908576965332,-0.2763729210524407,-0.2890155917444867,-10.64781685663906,1.1138925283777632,1.3622258080455334,0.8632516163029579
1730865964.0335605,-1.685981035232544,1.114296793937683,-9.907242774963379,-0.27646062268798033,-0.29065398391957065,-10.647653131951506,1.1127027733788837,1.3417253730895085,0.8094448869176399
1730865964.0836053,-1.685981035232544,1.114296793937683,-9.907242774963379,-0.2765739841601212,-0.29235796983839774,-10.647491243269517,1.1143556658783744,1.321792089805444,0.8716981954855334
1730865964.0836053,-1.7127622365951538,1.098321795463562,-9.828071594238281,-0.2767084660293541,-0.2941185487470273,-10.647338767722934,1.114351244360182,1.3216767708108124,0.8714908440141366
1730865964.1335196,-1.7127622365951538,1.098321795463562,-9.828071594238281,-0.27685906803632954,-0.2959267555481379,-10.647202508351636,1.1131884393838096,1.3000893459680323,0.8199086893088611
1730865964.1335196,-1.7381293773651123,1.0863145589828491,-9.812661170959473,-0.277020636417177,-0.2977735809278302,-10.647088052194343,1.1131800266487353,1.2999671781072444,0.819546975758844
1730865964.1835907,-1.7381293773651123,1.0863145589828491,-9.812661170959473,-0.2771881283791637,-0.29964993771742565,-10.646999535664818,1.1147886316081348,5.825235949679993,0.8821652281149909
1730865964.1835907,-1.7394286394119263,1.1070185899734497,-9.751754760742188,-0.2773568125968439,-0.3015466782557719,-10.646939591261845,1.1147843269718876,5.8252094610951755,0.8819730230812847
1730865964.2335656,-1.7394286394119263,1.1070185899734497,-9.751754760742188,-0.2775223721634889,-0.3034547066357537,-10.646909253305614,1.1136660122118744,5.820088790036061,0.8342271197352964
1730865964.2335656,-1.7783422470092773,1.099996566772461,-9.74980354309082,-0.2776809584080816,-0.305365141727621,-10.64690782664909,1.1136578803470882,5.820058281287723,0.8338882909365678
1730865964.2834716,-1.7783422470092773,1.099996566772461,-9.74980354309082,-0.27782931298949404,-0.3072694127095651,-10.646932914279086,1.1118612205481704,5.814224098397969,0.7601731423758722
1730865964.2834716,-1.775434136390686,1.1180026531219482,-9.734968185424805,-0.27796493019725654,-0.3091592892068594,-10.646980609737788,1.111850164273439,5.814191986037438,0.7597243063426966
1730865964.3334875,-1.775434136390686,1.1180026531219482,-9.734968185424805,-0.2780861082533149,-0.31102695029454036,-10.647045698912333,1.1146335969298702,5.895729106326219,0.8877902566217102
1730865964.3334875,-1.7961090803146362,1.0978853702545166,-9.74190616607666,-0.2781918927510834,-0.3128650761725369,-10.64712183475582,1.1146284793932442,5.895707572312829,0.8875997548721473
1730865964.3834748,-1.7961090803146362,1.0978853702545166,-9.74190616607666,-0.2782820463615353,-0.31466684429883107,-10.647201749949863,1.1133182020514325,5.891260776152118,0.8384654400526848
1730865964.3834748,-1.8024729490280151,1.096219539642334,-9.761283874511719,-0.27835706549896233,-0.3164258383958138,-10.647277522576918,1.1133096158427727,5.891235701159652,0.8381420970162036
1730865964.4334664,-1.8024729490280151,1.096219539642334,-9.761283874511719,-0.27841816810260844,-0.3181359861473234,-10.647340867274472,1.1151027389123855,5.893973390026073,0.8958325587738829
1730865964.4334664,-1.8615046739578247,1.0873790979385376,-9.789366722106934,-0.27846728275066224,-0.3197915496909335,-10.647383433069068,1.115097939141953,5.893941843228302,0.8956313914701707
1730865964.4834557,-1.8906596899032593,1.113863468170166,-9.796687126159668,-0.2785071851493249,-0.3213871386592333,-10.647397103289586,1.1139233560808306,5.888100150904211,0.8476786266014985
1730865964.533443,-1.8906596899032593,1.113863468170166,-9.796687126159668,-0.27854176969772726,-0.32291778102807855,-10.647374270331767,1.1120480299048359,5.881424804342664,0.7729222296217747
1730865964.533443,-1.8843986988067627,1.1354656219482422,-9.818350791931152,-0.27857619912706383,-0.32437906637716596,-10.647308032341554,1.1120346151880647,5.881382122258915,0.7723909352536745
1730865964.5834439,-1.8843986988067627,1.1354656219482422,-9.818350791931152,-0.27861678469561313,-0.3257672986755883,-10.647192325741905,1.1094862361677946,5.873965846741875,0.6719397531747745
1730865964.5834439,-1.8520234823226929,1.1645499467849731,-9.829914093017578,-0.27867069485796225,-0.3270796219733419,-10.647022036121193,1.1094704668963133,5.873923217100802,0.6713204196465689
1730865964.6334517,-1.8085271120071411,1.176212191581726,-9.861815452575684,-0.2787455519899267,-0.32831414588187585,-10.6467930989052,1.115399497228944,5.882784755357901,0.893714144761459
1730865964.6834452,-1.8085271120071411,1.176212191581726,-9.861815452575684,-0.27884892138865663,-0.32947006802863527,-10.646502623633703,1.114143849796711,5.877294191021526,0.8421135082803425
1730865964.6834452,-1.7181299924850464,1.1627516746520996,-9.876137733459473,-0.27898777795082574,-0.3305477035536113,-10.646149017692295,1.114135013968139,5.877261667972174,0.8417559851730477
1730865964.7333987,-1.7181299924850464,1.1627516746520996,-9.876137733459473,-0.2791679779699059,-0.3315483618873091,-10.645732027506703,1.1160489050244764,5.86961079050313,0.8929454657065506
1730865964.7333987,-1.6924563646316528,1.1392431259155273,-9.905946731567383,-0.27939378131081827,-0.33247412759201644,-10.645252714452752,1.116044746857697,5.869573687491933,0.8927365249118038
1730865964.7834475,-1.6924563646316528,1.1392431259155273,-9.905946731567383,-0.2796675944969073,-0.3333276151930453,-10.644713444686706,1.1149382529117413,5.862280035036313,0.8412030347817766
1730865964.7834475,-1.6710063219070435,1.1597439050674438,-9.915834426879883,-0.27998995135143306,-0.33411176668109577,-10.644117888011639,1.114930578630856,5.8622390491145255,0.8408607488821098
1730865964.8333828,-1.6710063219070435,1.1597439050674438,-9.915834426879883,-0.2803595878202734,-0.3348297845865884,-10.64347095998477,1.1130588497603895,5.85375903182046,0.7598058480369074
1730865964.8333828,-1.6623401641845703,1.1732234954833984,-9.910504341125488,-0.28077355020471295,-0.3354851834279615,-10.642778688179032,1.1130457152176363,5.853706691596639,0.7592485333356462
1730865964.8834436,-1.6623401641845703,1.1732234954833984,-9.910504341125488,-0.28122734684205847,-0.33608184904976324,-10.642048023424747,1.1105858035729637,5.844830489852032,0.6563953726593728
1730865964.8834436,-1.664509892463684,1.188157320022583,-9.918722152709961,-0.28171514171659445,-0.3366240654281206,-10.641286636087084,1.1105703108519582,5.844779031073591,0.6557549074774547
1730865964.933397,-1.664509892463684,1.188157320022583,-9.918722152709961,-0.2822299786693046,-0.3371165284815122,-10.640502753278477,1.116664629911935,5.852667971570647,0.8927287918510526
1730865964.933397,-1.6572636365890503,1.1673773527145386,-9.908549308776855,-0.2827640096591841,-0.33756432259955116,-10.63970502948787,1.1166599619179587,5.852638670976688,0.8925200623562595
1730865964.9834638,-1.6591688394546509,1.130024790763855,-9.90406608581543,-0.2833086896459179,-0.33797276517031943,-10.638902385341112,1.115432713617636,5.846738634256256,0.8401841035230885
1730865965.0333724,-1.6591688394546509,1.130024790763855,-9.90406608581543,-0.28385494151221946,-0.3383470910134322,-10.638103809903045,1.1176391170375777,5.836938505591206,0.890373133560082
1730865965.0333724,-1.6374982595443726,1.1253414154052734,-9.897210121154785,-0.2843933027621002,-0.3386921356362902,-10.637318183468022,1.117635202296221,5.836891961566197,0.8901384320940025
1730865965.0834715,-1.6542800664901733,1.1127800941467285,-9.890379905700684,-0.284914033085689,-0.3390121681274473,-10.636554134001251,1.1183408753070392,5.822580285331417,0.8916698642216546
1730865965.1333466,-1.6624219417572021,1.1077226400375366,-9.87459659576416,-0.28540722992354367,-0.3393108266332231,-10.635819889352675,1.1174009233395643,5.812092254119096,0.8399105874527827
1730865965.183495,-1.6624219417572021,1.1077226400375366,-9.87459659576416,-0.2858630240021627,-0.3395910752183495,-10.635123113009953,1.1157491999190847,5.80077373395915,0.7616763811862918
1730865965.183495,-1.6803877353668213,1.1172305345535278,-9.872438430786133,-0.2862718101758983,-0.3398552086247971,-10.634470767016648,1.1157379924920654,5.800708260047557,0.7611658565269657
1730865965.2333581,-1.6642932891845703,1.1443051099777222,-9.851571083068848,-0.2866244399538833,-0.3401049604326234,-10.63386902782778,1.11856194175242,5.8074974234987575,0.8777037307501824
1730865965.2835011,-1.676072597503662,1.1518168449401855,-9.866317749023438,-0.28691234793442666,-0.34034172257584033,-10.633323221914262,1.1172913493500045,5.800309903019947,0.8214721187817583
1730865965.3333554,-1.676072597503662,1.1518168449401855,-9.866317749023438,-0.28712762117381696,-0.3405667914923119,-10.632837797831483,1.1191302692254947,5.791213449632963,0.876452607021688
1730865965.3333554,-1.688549518585205,1.173169493675232,-9.839729309082031,-0.2872630686660009,-0.3407815359692835,-10.632416355631905,1.119125503939546,5.791165539948582,0.876215564744989
1730865965.3832452,-1.688549518585205,1.173169493675232,-9.839729309082031,-0.28731231658680056,-0.34098750057761,-10.63206163911704,1.1178755258257607,5.781758204371169,0.818576533097514
1730865965.3832452,-1.7406500577926636,1.1670211553573608,-9.839791297912598,-0.28726993609864065,-0.34118647880622915,-10.631775468368815,1.1178671746523239,5.781707096496653,0.8182083134186355
1730865965.4331973,-1.7592371702194214,1.1434805393218994,-9.807424545288086,-0.28713166894947223,-0.34138048831225937,-10.631558697273906,1.1202475709716802,5.782763432678888,0.8847088115728187
1730865965.4832108,-1.7919294834136963,1.1425443887710571,-9.786770820617676,-0.2868947480325245,-0.341571613196618,-10.631411153686761,1.1192578144358851,5.775387305239891,0.8324645810554969
1730865965.5332005,-1.8289555311203003,1.1339582204818726,-9.734051704406738,-0.286558204294883,-0.341761807509298,-10.631331462785525,1.1175499722345026,5.7671554526328785,0.7535947374819961
1730865965.5832748,-1.8289555311203003,1.1339582204818726,-9.734051704406738,-0.28612309206261327,-0.34195276301257094,-10.631316790376697,1.1205404047586667,5.763892179059163,0.8749792493942448
1730865965.5832748,-1.906752586364746,1.1017496585845947,-9.722082138061523,-0.2855926372693204,-0.34214582544631555,-10.631362662311915,1.12053530781403,5.763850243515233,0.8747385482847466
1730865965.6332035,-1.906752586364746,1.1017496585845947,-9.722082138061523,-0.28497237472058246,-0.3423418791439469,-10.63146298011326,1.1192149294734173,5.7554793457093085,0.8159027166007203
1730865965.6332035,-1.9440362453460693,1.0649313926696777,-9.711519241333008,-0.2842702787422987,-0.34254118718805876,-10.631610186374113,1.11920434054911,5.75542374646373,0.815447152095353
1730865965.6832056,-1.954621434211731,1.0486096143722534,-9.747272491455078,-0.28349677791058264,-0.34274321479624115,-10.631795499074387,1.1181554271128973,5.74373265887779,0.8843678037528506
1730865965.733109,-1.9300211668014526,1.0519165992736816,-9.785317420959473,-0.28266459644540354,-0.3429464690392631,-10.6320092736794,1.1159389552326604,5.732385954933944,0.8309647679489973
1730865965.7832572,-1.8917458057403564,1.0662336349487305,-9.863221168518066,-0.28178836661828854,-0.3431484628592212,-10.632241592609526,1.113096965920519,5.720554440980761,0.7530394780758202
1730865965.8331983,-1.8917458057403564,1.0662336349487305,-9.863221168518066,-0.28088400191325735,-0.3433458711727222,-10.632483016845658,1.1095215125227875,5.7077182164355955,0.6477816675047111
1730865965.8331983,-1.8261340856552124,1.0515388250350952,-9.917787551879883,-0.2799679951403865,-0.3435347591632592,-10.63272525704871,1.1094947531066075,5.70762782836542,0.6469737054037278
1730865965.8832433,-1.7325536012649536,1.0188775062561035,-9.973783493041992,-0.2790566710077444,-0.34371069688425915,-10.632961656646573,1.1160665253330013,5.694007877647111,0.8732714732745459
1730865965.9331484,-1.6438817977905273,1.0134690999984741,-9.997303009033203,-0.2781652197942832,-0.3438687044186409,-10.633187611869038,1.114133057743439,5.67948747869566,0.8164620830415987
1730865965.9832146,-1.6068297624588013,1.0392526388168335,-10.010113716125488,-0.2773065938135898,-0.3440031786179099,-10.633400913579854,1.1143339301024804,5.663978724767373,0.8744400523486069
1730865966.0331244,-1.5930547714233398,1.1113393306732178,-9.983500480651855,-0.2764906635528559,-0.3441080649536862,-10.633601814935766,1.1120520090054444,5.647731984456001,0.816363065099956
1730865966.0831685,-1.6152253150939941,1.2080261707305908,-9.939994812011719,-0.275723919372203,-0.3441774512466649,-10.633792728925727,1.1123473638272587,5.630496415199176,0.8723130830366997
1730865966.1329873,-1.6628810167312622,1.2549554109573364,-9.904179573059082,-0.27500972239514354,-0.3442065036207293,-10.633977610248879,1.109946019657257,5.612670751358516,0.8138297056497694
1730865966.183079,-1.7237470149993896,1.2498868703842163,-9.840123176574707,-0.27434897993051255,-0.3441923525375773,-10.634161169767907,1.106814518372368,5.593679061919383,0.7276627083288324
1730865966.232996,-1.7540323734283447,1.1959750652313232,-9.810408592224121,-0.2737410545692247,-0.3441344541218283,-10.634348070710118,1.110649460377531,5.573997199325617,0.8680164736088918
1730865966.282932,-1.7761001586914062,1.1373709440231323,-9.77637004852295,-0.2731846317739394,-0.34403425270016014,-10.63454222416205,1.1116892839148236,5.553521827212755,0.8764608203308012
1730865966.3329697,-1.7739691734313965,1.080772876739502,-9.734260559082031,-0.2726783185609941,-0.34389436013496055,-10.63474626575189,1.1101223380950782,5.532033348895205,0.8195257985837661
1730865966.3838212,-1.7863746881484985,1.0190056562423706,-9.72805404663086,-0.2722209363151849,-0.34371759933467966,-10.63496120337048,1.1123971370392187,5.509317527956867,0.8700994035374698
1730865966.4338863,-1.7863746881484985,1.0190056562423706,-9.72805404663086,-0.27181162027653916,-0.3435061759265106,-10.635186243662869,1.1110668381018103,5.486091590853364,0.8101443109763492
1730865966.4338863,-1.763444423675537,0.9958710074424744,-9.702902793884277,-0.27144981879129654,-0.3432611584043569,-10.635418827334533,1.111020792334898,5.485443094148379,0.8081260889357944
1730865966.4838243,-1.7485802173614502,0.980993390083313,-9.72205638885498,-0.27113517697735734,-0.34298229114243733,-10.635654786576408,1.1090659030089034,5.462113111322423,0.7239515615319628
1730865966.5338418,-1.7739217281341553,0.9647471904754639,-9.749009132385254,-0.2708673451237695,-0.3426679735000806,-10.63588858575963,1.1134094155247816,5.437184145467514,0.8722385839034867
1730865966.5839176,-1.776928424835205,1.0090956687927246,-9.792386054992676,-0.27064588993204497,-0.34231532624321503,-10.636113742348584,1.112168509506784,5.4113201422169634,0.814557692349999
1730865966.6337254,-1.7719019651412964,1.0469619035720825,-9.85647201538086,-0.27047035744399717,-0.34192047911104834,-10.636323455773386,1.1143579198852902,5.384796624969118,0.8725969043672157
1730865966.6840096,-1.742720127105713,1.0767850875854492,-9.918389320373535,-0.2703403070600571,-0.34147912835830085,-10.636511377967876,1.1132383731865716,5.357243756668938,0.8140076230429224
1730865966.733826,-1.7308605909347534,1.0838773250579834,-9.983128547668457,-0.2702551811456809,-0.3409871505686099,-10.636672438157387,1.1154718167177577,5.328996239450464,0.8708836881886931
1730865966.7839155,-1.7244657278060913,1.1198302507400513,-10.016728401184082,-0.2702140834919398,-0.3404410564790997,-10.636803590240756,1.1144717283304013,5.29974131599893,0.811599466362384
1730865966.8337839,-1.6922295093536377,1.1217204332351685,-10.01152515411377,-0.2702155910985451,-0.3398382870428482,-10.636904303875923,1.1163931161791802,5.269822101054143,0.8699939514023415
1730865966.8839517,-1.6949405670166016,1.091368556022644,-10.003122329711914,-0.27025760960916967,-0.33917737095240497,-10.636976649409931,1.1153081894917627,5.238891639601391,0.8105968764648953
1730865966.9338105,-1.6541407108306885,1.079060673713684,-9.937772750854492,-0.2703372418245104,-0.3384578468111003,-10.637024956366387,1.1174575044619413,5.207292287180622,0.8702566674015618
1730865966.9837117,-1.6971153020858765,1.0559735298156738,-9.882655143737793,-0.2704507063479593,-0.3376799708108424,-10.63705511390965,1.116447393623736,5.174823790684557,0.8113710431911703
1730865967.0336804,-1.7184339761734009,1.0200108289718628,-9.829143524169922,-0.27059343043894424,-0.3368443611474513,-10.637073640010213,1.1196089003810932,5.548351433894863,0.8706718909329484
1730865967.0837424,-1.7796587944030762,0.9819168448448181,-9.78043270111084,-0.2707604253219239,-0.3359516219454173,-10.637086738022221,1.1191407623610379,5.5378772830982035,0.8112686961286214
1730865967.1336548,-1.7767276763916016,0.9837790727615356,-9.749464988708496,-0.2709468432845814,-0.3350019610781587,-10.63709952387418,1.118003843980368,5.526677347747753,0.7260260032494029
1730865967.1838517,-1.7815088033676147,1.03798508644104,-9.75819206237793,-0.2711484401710056,-0.3339949945537265,-10.637115520789608,1.120874657544361,5.514534833113929,0.8669754838397491
1730865967.2337184,-1.7815088033676147,1.03798508644104,-9.75819206237793,-0.2713617642928799,-0.33292992434359664,-10.637136496919963,1.1199189804598542,5.501616343159074,0.806229934853332
1730865967.2337184,-1.7619465589523315,1.1153185367584229,-9.77953052520752,-0.27158412105996654,-0.3318059941406587,-10.637162617638253,1.1199118075110497,5.501542542550215,0.8058199130907608
1730865967.283684,-1.7306779623031616,1.2181533575057983,-9.794438362121582,-0.2718133986991898,-0.33062310952192697,-10.637192776511709,1.118291486381251,5.487913106857796,0.7192428298444912
1730865967.3336196,-1.7306779623031616,1.2181533575057983,-9.794438362121582,-0.27204778473886637,-0.32938262543323915,-10.63722497499718,1.115975651031498,5.473313356945075,0.6052079908131033
1730865967.3336196,-1.73723566532135,1.2622041702270508,-9.825244903564453,-0.2722855033423651,-0.3280880335678914,-10.637256664876608,1.1159613369596493,5.473232517314337,0.6045218628904261
1730865967.3837023,-1.7728885412216187,1.2536513805389404,-9.841352462768555,-0.272524751592118,-0.32674523627448726,-10.637285060199735,1.1223893300485395,5.457850727360571,0.8724977602194804
1730865967.4336104,-1.7957485914230347,1.2329119443893433,-9.852080345153809,-0.27276387706516514,-0.3253624377855488,-10.637307455600578,1.1214188014038446,5.44167016209917,0.8165658478887053
1730865967.4835632,-1.8130037784576416,1.187165379524231,-9.869086265563965,-0.2730016851551441,-0.32394973585231734,-10.637321501481377,1.123943119110843,5.424635405684445,0.8742988813493225
1730865967.5335834,-1.8403993844985962,1.1168467998504639,-9.861696243286133,-0.2732377254742203,-0.3225184196657563,-10.637325381189719,1.123046568407551,5.406810978259231,0.8165634681832022
1730865967.5836523,-1.8365612030029297,1.1099493503570557,-9.855596542358398,-0.2734724844703824,-0.32108009612974653,-10.637317870887927,1.127380921207264,5.388243721350749,0.8720728822897513
1730865967.6335382,-1.8365612030029297,1.1099493503570557,-9.855596542358398,-0.2737074514667169,-0.31964593877043324,-10.637298280371374,1.129389878310037,5.368887639958766,0.876412123746721
1730865967.6335382,-1.8015090227127075,1.1125519275665283,-9.858222961425781,-0.27394500698982416,-0.318226307320816,-10.637266346152215,1.1293910539318766,5.3687880304348425,0.8761940546670665
1730865967.683565,-1.7416749000549316,1.0947171449661255,-9.853496551513672,-0.27418808507968384,-0.3168306625676654,-10.637222154322522,1.1292831595249937,5.34866384142852,0.8197795187899943
1730865967.7336876,-1.707353949546814,1.0896289348602295,-9.870576858520508,-0.27443960886017926,-0.31546753294194657,-10.637166101391445,1.1284762941805933,5.327370752874412,0.7353118738636526
1730865967.7836096,-1.6856294870376587,1.0882185697555542,-9.87708854675293,-0.2747018567813031,-0.3141444465285287,-10.63709890138395,1.1270037199273362,5.305734015820966,0.6261501397230917
1730865967.833548,-1.6856732368469238,1.1131680011749268,-9.89499282836914,-0.2749760129887477,-0.31286791504801137,-10.637021653501296,1.131025625072344,5.283092740786369,0.8738058601100333
1730865967.8835711,-1.6620116233825684,1.1451038122177124,-9.884458541870117,-0.2752619924704893,-0.31164357641571117,-10.636935924548622,1.1301715358009834,5.259731652427999,0.8152778323505923
1730865967.9334772,-1.6606212854385376,1.1801331043243408,-9.870457649230957,-0.2755584283215075,-0.31047651693586964,-10.636843750119215,1.1330263866802586,5.235546779248935,0.8724446121308679
1730865967.9834714,-1.653437852859497,1.1797866821289062,-9.851520538330078,-0.275862713731703,-0.3093716626401029,-10.63674749006175,1.1324951126764211,5.210746323843206,0.8140741194640894
1730865968.0334425,-1.653437852859497,1.1797866821289062,-9.851520538330078,-0.276171094125636,-0.3083340481790888,-10.636649589199735,1.1312696158934183,5.184994194081601,0.7286770531947048
1730865968.0334425,-1.6758476495742798,1.1824043989181519,-9.821070671081543,-0.2764788348694767,-0.30736887005544633,-10.636552347934064,1.1312605295691343,5.1848432985428605,0.7281066099006794
1730865968.0835173,-1.7237505912780762,1.1566532850265503,-9.81063461303711,-0.27678051960196853,-0.3064813871861814,-10.636457717767547,1.1293520858494244,5.15849391970419,0.6166894150320759
1730865968.1334534,-1.7996176481246948,1.1426687240600586,-9.782665252685547,-0.2770705730701678,-0.3056767237710212,-10.636367086499458,1.134645256459846,5.131266417137445,0.8679100934879236
1730865968.1835039,-1.8628112077713013,1.1092867851257324,-9.77823543548584,-0.2773440236716497,-0.304959581115328,-10.636281075532002,1.1336571173214145,5.103272716033603,0.8094381053515138
1730865968.2334023,-1.8774480819702148,1.0935637950897217,-9.79169750213623,-0.27759731966165774,-0.3043339042078215,-10.636199427467718,1.1356220307311384,5.074473483865411,0.8701586724104641
1730865968.2834685,-1.8534674644470215,1.108945369720459,-9.822172164916992,-0.277828852762876,-0.3038026079952955,-10.636121082935432,1.1371911468589109,5.045044661165634,0.8745848164752535
1730865968.3333826,-1.7973651885986328,1.1064001321792603,-9.855999946594238,-0.278038930311434,-0.3033674862895574,-10.636044485537116,1.1365958252316537,5.014733626636371,0.817922860666522
1730865968.3833833,-1.749116063117981,1.0848197937011719,-9.900351524353027,-0.27822922604048966,-0.30302927783181305,-10.635968046197693,1.1353111192618852,4.983807069027448,0.7350538325758116
1730865968.4334073,-1.749116063117981,1.0848197937011719,-9.900351524353027,-0.2784020127623673,-0.30278771531980575,-10.635890631779969,1.1333197893429974,4.951912579377397,0.6249534883782208
1730865968.4334073,-1.6887575387954712,1.0780417919158936,-9.944061279296875,-0.2785595142821773,-0.302641510353753,-10.635811938789846,1.1333066394142113,4.951731467116311,0.6242602007751724
1730865968.4834383,-1.660573959350586,1.0784896612167358,-9.943114280700684,-0.278703426430902,-0.3025883663838745,-10.635732719321624,1.1383462250413785,4.919557421257411,0.8643896943966581
1730865968.5333052,-1.6808581352233887,1.0688133239746094,-9.9386625289917,-0.27883453050253076,-0.30262504271956114,-10.635654881598061,1.1391104281433362,5.3123341796598,0.8740348663654373
1730865968.5834394,-1.6925055980682373,1.0484857559204102,-9.91047477722168,-0.2789525423669822,-0.30274740892698576,-10.63558140270219,1.1380892028535126,5.300326302040994,0.8182583951144616
1730865968.6333168,-1.7340891361236572,1.0040960311889648,-9.874168395996094,-0.27905631626106064,-0.3029504083622575,-10.635516007042494,1.1408083075240683,5.30481394910497,0.8688042481871949
1730865968.6832635,-1.7513102293014526,0.9668171405792236,-9.831408500671387,-0.2791442712821527,-0.3032278728526958,-10.635462666502296,1.1400236203622598,5.296391603529972,0.8104127087457406
1730865968.7332773,-1.7513102293014526,0.9668171405792236,-9.831408500671387,-0.27921483058145863,-0.30357226341390764,-10.635425053799779,1.138534579285969,5.287142652929823,0.724958375621195
1730865968.7332773,-1.7555934190750122,0.9132131338119507,-9.825553894042969,-0.27926670561416594,-0.30397449840255614,-10.635406143016324,1.1385246729523317,5.287090834197017,0.7244264435454754
1730865968.783267,-1.7511773109436035,0.8991687297821045,-9.808719635009766,-0.27929898894366373,-0.30442387867465986,-10.635408046215977,1.141989972448093,5.277162754072574,0.8677485907199431
1730865968.833155,-1.7511773109436035,0.8991687297821045,-9.808719635009766,-0.27931114119053563,-0.3049080554523352,-10.635431975717081,1.1410143276819849,5.266413168514206,0.810843560988194
1730865968.833155,-1.7669599056243896,0.9138646125793457,-9.811017036437988,-0.2793029591716474,-0.305413147560565,-10.635478242723492,1.141006424847647,5.266346854561775,0.8104249689779057
1730865968.8833268,-1.7647291421890259,0.9623916149139404,-9.817171096801758,-0.27927458212370404,-0.3059241202354326,-10.635546324346894,1.139330937414905,5.254842931773056,0.7268922595030478
1730865968.9331322,-1.7647291421890259,0.9623916149139404,-9.817171096801758,-0.27922652344188864,-0.30642537247484436,-10.635635001942957,1.1436039798903614,5.242631855773554,0.8720791529680296
1730865968.9331322,-1.774051547050476,0.9942019581794739,-9.836055755615234,-0.27915967303012446,-0.3069013535418644,-10.635742526376788,1.1436006120261628,5.242562006177653,0.8718413838828885
1730865968.9830694,-1.7563841342926025,1.0308074951171875,-9.850176811218262,-0.2790752651998887,-0.307337086745776,-10.63586681178474,1.1426489710567047,5.229611360343808,0.8158828677230203
1730865969.0331802,-1.7418923377990723,1.052126407623291,-9.863423347473145,-0.2789747947264954,-0.3077186472286247,-10.63600567030092,1.1409800662081957,5.215690029422125,0.7322855606608157
1730865969.0830772,-1.7634446620941162,1.1164103746414185,-9.859697341918945,-0.27885987562379,-0.30803364377189646,-10.636157031808349,1.1386369489197288,5.201173599451893,0.6232245881981203
1730865969.1331055,-1.7613576650619507,1.1499154567718506,-9.857751846313477,-0.27873215592271916,-0.3082717073794349,-10.636319065743695,1.145237196349392,5.185834239913999,0.8738139291692474
1730865969.1830616,-1.7668864727020264,1.152148723602295,-9.854114532470703,-0.2785933475243226,-0.30842493076175564,-10.636490188421716,1.147703152665452,5.169703606846452,0.8774270345188286
1730865969.2330203,-1.7597706317901611,1.146106243133545,-9.849930763244629,-0.27844527088353743,-0.3084880721557379,-10.63666900829143,1.1472661839900011,5.152752295545448,0.8216318417128509
1730865969.2830868,-1.7832831144332886,1.1196283102035522,-9.831854820251465,-0.27828986123806787,-0.3084584115879433,-10.636854245435986,1.1494813559819237,5.135138202843432,0.8695132250503175
1730865969.3329446,-1.7911642789840698,1.0579688549041748,-9.824539184570312,-0.27812920547478304,-0.308335311518917,-10.637044614877553,1.1488635995040413,5.116798793565322,0.8111352342566893
1730865969.3830001,-1.793712854385376,1.0126854181289673,-9.833224296569824,-0.2779656359750481,-0.3081195407421985,-10.63723870296497,1.1532973561220696,5.09757898273025,0.8642090251723566
1730865969.432937,-1.7517714500427246,1.0202561616897583,-9.849518775939941,-0.27780176126026973,-0.30781252029887735,-10.637434936745986,1.153217649662887,5.077622094778615,0.804070363430923
1730865969.4829564,-1.7155946493148804,1.0792349576950073,-9.881749153137207,-0.2776402750072212,-0.3074158557879366,-10.637631714911889,1.1564442922490352,5.056858415689882,0.8599150740503696
1730865969.532836,-1.6973638534545898,1.1483683586120605,-9.885079383850098,-0.2774835551386763,-0.3069314446766883,-10.637827659683198,1.1564183917388289,5.035408404413692,0.7993314694137275
1730865969.5827827,-1.6990910768508911,1.1914793252944946,-9.90003490447998,-0.2773332748244321,-0.3063620588925866,-10.638021862865264,1.155700430015018,5.013142045117587,0.712066190962181
1730865969.6338701,-1.6990910768508911,1.1914793252944946,-9.90003490447998,-0.277190227541549,-0.30571198291135343,-10.638214026152294,1.1542465237258464,4.989534359242992,0.5950925715839293
1730865969.6338701,-1.7048535346984863,1.1952179670333862,-9.894710540771484,-0.2770543649727947,-0.3049873263403257,-10.638404487577326,1.1542370239397148,4.989408977654291,0.5944085323007696
1730865969.6838133,-1.7279154062271118,1.140415906906128,-9.889106750488281,-0.27692495409797013,-0.30419590855881395,-10.638594151866997,1.1521315482616206,4.965766959142979,0.45431360563497913
1730865969.7338028,-1.727390170097351,1.0967813730239868,-9.850716590881348,-0.2768008029067062,-0.3033467779606817,-10.638784321482147,1.1586853554051444,4.941087572466978,0.8490412737769256
1730865969.7837937,-1.7448590993881226,1.0502889156341553,-9.854978561401367,-0.27668050193144966,-0.302449481326561,-10.638976434064467,1.1578213468142606,4.915957222855322,0.7888240113297847
1730865969.8337355,-1.7205950021743774,1.0371060371398926,-9.837763786315918,-0.27656259997485966,-0.30151330574945295,-10.639171788594794,1.1614812464695665,4.889891582419536,0.8492053570825627
1730865969.8838043,-1.7044275999069214,1.004769206047058,-9.838481903076172,-0.27644563960880386,-0.3005467082924439,-10.639371364677954,1.1611345383371716,4.862982090696782,0.78796962489316
1730865969.9337204,-1.6762114763259888,1.0011883974075317,-9.852025985717773,-0.27632802498096054,-0.29955697392666764,-10.639575756464398,1.1600991507385765,4.835435070916664,0.7004220372195212
1730865969.9836867,-1.6579885482788086,0.9812003374099731,-9.872231483459473,-0.2762077877673049,-0.2985500380699697,-10.639785230731658,1.1583685368456105,4.807048129561108,0.5859421651662453
1730865970.0337353,-1.6788157224655151,1.0039273500442505,-9.869159698486328,-0.27608239192447737,-0.2975304446834129,-10.639999897236416,1.1645933043229728,4.778061612143632,0.8377332381668124
1730865970.0836577,-1.7302862405776978,0.9892690777778625,-9.866273880004883,-0.2759487621740318,-0.2965014427408064,-10.64021986966343,1.163853651653858,4.74824283587289,0.774720036010906
1730865970.1336935,-1.7302862405776978,0.9892690777778625,-9.866273880004883,-0.27580361611769905,-0.2954651579935653,-10.64044531524949,1.1660464139054454,4.717628942972143,0.8401566932928278
1730865970.1336935,-1.7561147212982178,1.0005706548690796,-9.84821891784668,-0.27564390339163075,-0.2944227512836375,-10.640676413545965,1.1660441631617449,4.717457811319629,0.8398926657223111
1730865970.1836424,-1.7561147212982178,1.0005706548690796,-9.84821891784668,-0.27546711484961145,-0.2933745775015214,-10.640913267735941,1.163267310732667,5.073503205484316,0.850156388607546
1730865970.1836424,-1.7367112636566162,1.0267400741577148,-9.844929695129395,-0.2752714115946855,-0.2923203930377123,-10.641155805304454,1.163256851505546,5.073428433307843,0.8499422420343156
1730865970.2335315,-1.7292639017105103,1.0034098625183105,-9.847564697265625,-0.275055576031106,-0.29125958174518946,-10.641403724382595,1.160921600654311,5.058827968487103,0.7958665543486106
1730865970.283596,-1.7082710266113281,1.0320013761520386,-9.856908798217773,-0.27481882036777483,-0.29019133102207645,-10.641656509352757,1.1579099931641799,5.043539229294829,0.7155316981546621
1730865970.3336132,-1.7297741174697876,1.0265306234359741,-9.872505187988281,-0.27456058068127653,-0.28911475724018865,-10.641913512982297,1.154168712248609,5.02733249482139,0.6073741289180541
1730865970.3835676,-1.7297741174697876,1.0265306234359741,-9.872505187988281,-0.2742804260094703,-0.28802902169213457,-10.642174090993748,1.1610991401148443,5.064729935003147,0.8466379755616377
1730865970.3835676,-1.73284912109375,1.026072382926941,-9.879054069519043,-0.2739780968002642,-0.28693340680692275,-10.642437729515798,1.1610898608884155,5.0646938252223155,0.84639778741045
1730865970.4335475,-1.7507237195968628,1.0402652025222778,-9.899032592773438,-0.2736535849129865,-0.2858273451563468,-10.642704131928383,1.1590376187407343,5.0576817805071865,0.7888259515671348
1730865970.4835615,-1.7441734075546265,1.067531943321228,-9.886956214904785,-0.2733072074990398,-0.28471049371664825,-10.642973294387044,1.1563043139059666,5.0499580075508925,0.7047556761267009
1730865970.5335526,-1.7646288871765137,1.0706843137741089,-9.89332103729248,-0.2729396738735197,-0.2835829020879183,-10.643245549606839,1.1646533886653765,5.053490300983552,0.8476151852000406
1730865970.583584,-1.8092890977859497,1.0768513679504395,-9.85693645477295,-0.2725521804759264,-0.28244518936626717,-10.643521508904577,1.163748414933857,5.047710187013616,0.7915826838340005
1730865970.6335008,-1.8451093435287476,1.0780317783355713,-9.835271835327148,-0.27214663527783256,-0.2812986236109053,-10.643801865092835,1.1621464063658864,5.0411253233695,0.7079536299834914
1730865970.6835158,-1.8451093435287476,1.0780317783355713,-9.835271835327148,-0.2717259803623048,-0.2801451031409232,-10.644087103153769,1.1669949642560917,5.038011180268221,0.8405694049624968
1730865970.6835158,-1.8778879642486572,1.068177342414856,-9.794242858886719,-0.27129441591947934,-0.278987081199632,-10.644377240179859,1.1669925395746108,5.037977854528336,0.8403332980420882
1730865970.7335863,-1.8792659044265747,1.0619271993637085,-9.761591911315918,-0.2708574592266348,-0.2778274401745361,-10.644671601652314,1.1661759694127207,5.031070753135103,0.7805273386089363
1730865970.7835293,-1.8781741857528687,1.0342954397201538,-9.767451286315918,-0.27042190053242093,-0.2766693098965285,-10.644968574939131,1.1710360320999973,5.019393178995051,0.8489410909846716
1730865970.8334446,-1.8781741857528687,1.0342954397201538,-9.767451286315918,-0.26999565464376685,-0.27551583954301706,-10.64526546272356,1.1773400329042227,5.0062529060199905,0.850680797444321
1730865970.8334446,-1.8452465534210205,1.0448501110076904,-9.792409896850586,-0.26958749421808437,-0.2743699995695832,-10.645558575583646,1.1773514512006653,5.00619488037278,0.8504573496937695
1730865970.8834481,-1.7909832000732422,1.0523160696029663,-9.833215713500977,-0.2692066389480692,-0.2732345244762415,-10.645843543076925,1.1791230536768484,4.995154337725824,0.7960319922545618
1730865970.9334626,-1.7380390167236328,1.0403714179992676,-9.891928672790527,-0.26886214446814893,-0.2721119738146096,-10.646115809778083,1.1802397301414151,4.983292675770726,0.714163958938653
1730865970.9834626,-1.6841381788253784,1.027842402458191,-9.939653396606445,-0.2685621514961513,-0.27100476022268366,-10.646371285629598,1.1806757236723768,4.970838760390376,0.6062561729166711
1730865971.0333781,-1.598343849182129,1.0370818376541138,-9.97574520111084,-0.2683131231532726,-0.26991508456865915,-10.646607020753358,1.1836197694286625,4.9935869493390745,0.8461158628255752
1730865971.083417,-1.598343849182129,1.0370818376541138,-9.97574520111084,-0.2681191565141494,-0.26884487619730923,-10.646821711360069,1.18402465769946,4.9874647988025576,0.7882312291958231
1730865971.083417,-1.5712602138519287,1.0332560539245605,-9.993497848510742,-0.26798153376158795,-0.26779580528291214,-10.647015910257801,1.1840250364139073,4.987429501257062,0.7878420505846505
1730865971.133399,-1.5712602138519287,1.0332560539245605,-9.993497848510742,-0.267898647935089,-0.2667693127660671,-10.647191984529485,1.1847483841471,4.979572792717712,0.8484646883839815
1730865971.133399,-1.550557255744934,1.039259433746338,-9.944525718688965,-0.2678661875424524,-0.26576662224467107,-10.647353904223797,1.1847491012043698,4.979529685046005,0.8482440042618262
1730865971.1834455,-1.5575945377349854,1.0153611898422241,-9.915091514587402,-0.2678774040890495,-0.2647887449280888,-10.647506818709292,1.1845488734443053,4.971186016494881,0.7939603358034922
1730865971.233443,-1.6128383874893188,0.9890211224555969,-9.859123229980469,-0.26792347637224595,-0.2638364184885944,-10.647656414526042,1.1836793540355388,4.962142982823394,0.7128539650723915
1730865971.283348,-1.6128383874893188,0.9890211224555969,-9.859123229980469,-0.2679940724879104,-0.2629099364010262,-10.647808228998564,1.1821443131849554,4.95246571539899,0.6054152671918737
1730865971.283348,-1.700724482536316,0.9786924719810486,-9.800239562988281,-0.2680780721217809,-0.2620089781246585,-10.647967097761677,1.1821338448414054,4.952409710994647,0.604739369944986
1730865971.3333108,-1.7688379287719727,1.0146944522857666,-9.755945205688477,-0.2681643937668432,-0.26113258313474647,-10.64813671694321,1.1857843293960677,4.967926838991685,0.8474495268741321
1730865971.3833656,-1.8208271265029907,1.02140212059021,-9.763900756835938,-0.26824293563028573,-0.2602793138378723,-10.648319242414821,1.1875178396439778,4.954940685369431,0.851045312610471
1730865971.433279,-1.8217395544052124,1.0340009927749634,-9.765320777893066,-0.2683054239511371,-0.2594475364302114,-10.64851506620146,1.1870559663664773,4.946823501533233,0.7965552708036161
1730865971.48329,-1.782911777496338,1.0537012815475464,-9.80487060546875,-0.2683458174281337,-0.25863568910567314,-10.64872293970545,1.1895020638300395,4.937986849310521,0.8430416274864752
1730865971.5332751,-1.7525897026062012,1.0612386465072632,-9.85537052154541,-0.2683601409074569,-0.25784249209465837,-10.64894041126345,1.1890816536222866,4.928599007861998,0.7843087225189189
1730865971.5832372,-1.7406247854232788,1.1116029024124146,-9.87990665435791,-0.2683459566548965,-0.25706715085197124,-10.649164458364622,1.1879971627656936,4.918641622533963,0.6995393623619502
1730865971.633259,-1.770524501800537,1.115897536277771,-9.90289306640625,-0.2683018596063324,-0.25630960056329904,-10.649392128208222,1.1862318485408638,4.907963722957599,0.5874255726112364
1730865971.683197,-1.7900440692901611,1.1545110940933228,-9.899785995483398,-0.2682272727376087,-0.25557076335830536,-10.649620986707347,1.1918159664756718,4.9256654465026175,0.8349732060983192
1730865971.7331789,-1.8505797386169434,1.163799524307251,-9.896068572998047,-0.26812256300522497,-0.2548527454129149,-10.649849308447841,1.193356216311599,4.9145235984067295,0.8448762546468433
1730865971.783353,-1.8653908967971802,1.1624170541763306,-9.862640380859375,-0.267989345815452,-0.25415893124566,-10.650076031841229,1.1927370534069486,4.9066452535280956,0.7861211230994423
1730865971.8332534,-1.84821355342865,1.119704008102417,-9.858514785766602,-0.2678307560547296,-0.2534938942739049,-10.650300534745485,1.1914917146239197,4.898501800094475,0.7040104447562487
1730865971.8832345,-1.8270213603973389,1.114829421043396,-9.805334091186523,-0.2676514311887275,-0.25286305678354604,-10.650522314559872,1.1895515910528427,4.889524292727443,0.593433998343803
1730865971.9334147,-1.793975830078125,1.0453251600265503,-9.822367668151855,-0.2674571512779996,-0.2522721778525537,-10.650740653075307,1.1958043892187762,4.899280515570918,0.8338459417234952
1730865971.9832606,-1.7209333181381226,1.0137131214141846,-9.828447341918945,-0.2672542602632802,-0.2517267584321672,-10.650954391834972,1.1949586528231715,4.893740171764219,0.7726430275951985
1730865972.0332992,-1.6012029647827148,0.9719731211662292,-9.870986938476562,-0.2670488717095142,-0.25123141331841276,-10.651161969535469,1.1986884455827316,4.883599724363101,0.8396012441081196
1730865972.0832047,-1.5673483610153198,0.9927900433540344,-9.874567985534668,-0.2668458416368519,-0.2507893713774838,-10.651361704901257,1.1984035292665747,4.87511921686329,0.7805784903823799
1730865972.133241,-1.5673483610153198,0.9927900433540344,-9.874567985534668,-0.26664784226460614,-0.2504022952615603,-10.651552116307329,1.2013033482190083,4.868332252362419,0.8403084753331618
1730865972.133241,-1.5617990493774414,1.0194441080093384,-9.915316581726074,-0.26645497680003344,-0.2500704296890205,-10.651732126485587,1.2013041792518564,4.868280026105389,0.8400336589072616
1730865972.1831715,-1.576568603515625,1.0584110021591187,-9.886327743530273,-0.26626493110425425,-0.24979295389566006,-10.65190118933043,1.2011144673762921,4.8592897425628845,0.7812285734766365
1730865972.2332606,-1.631142258644104,1.0728533267974854,-9.91388988494873,-0.26607341072988994,-0.24956844063156533,-10.652059363508105,1.2002557197116268,4.8495406488463395,0.6948862948388654
1730865972.283102,-1.7173388004302979,1.079965353012085,-9.86382007598877,-0.2658748298025349,-0.24939530181600328,-10.652207268474953,1.2025566560096355,4.855773212219467,0.8461234140655263
1730865972.3331964,-1.7173388004302979,1.079965353012085,-9.86382007598877,-0.26566323342762876,-0.24927207209493962,-10.652345896962071,1.2017209479420579,4.849598186521895,0.7887099270598525
1730865972.3331964,-1.82231605052948,1.1077828407287598,-9.826631546020508,-0.2654332048635213,-0.24919753094305433,-10.652476319493811,1.2017146360998756,4.849563218668516,0.7883280479199979
1730865972.383157,-1.8533849716186523,1.1184059381484985,-9.800682067871094,-0.26518062781666996,-0.24917080112126194,-10.652599350376992,1.2070517222115134,4.839436536578684,0.8486411640742906
1730865972.4330823,-1.8954871892929077,1.0949914455413818,-9.761144638061523,-0.2649033490805438,-0.2491914533201635,-10.652715204914493,1.2074647525302669,4.830655728477501,0.794093640896544
1730865972.4830406,-1.8989217281341553,1.0262970924377441,-9.779446601867676,-0.2646016249282682,-0.24925942696889183,-10.65282319083282,1.207217444833088,4.821351946737007,0.7137418876831613
1730865972.5331557,-1.8536771535873413,1.0082930326461792,-9.78778076171875,-0.2642781763407821,-0.24937462043354794,-10.65292159061272,1.2062941588860854,4.811231022854729,0.6047630159411069
1730865972.5831227,-1.8536771535873413,1.0082930326461792,-9.78778076171875,-0.2639378351872057,-0.24953635963270135,-10.653007804978158,1.2095112741695422,4.825352701041698,0.8391117312436231
1730865972.5831227,-1.783974289894104,1.004658818244934,-9.84261703491211,-0.2635869243006748,-0.24974309518917479,-10.653078648288727,1.2095099309284945,4.8253206779199465,0.8388454229799737
1730865972.6330674,-1.7528783082962036,1.0574264526367188,-9.855023384094238,-0.26323252820909593,-0.24999243249132708,-10.653130738561298,1.213612063989331,4.803734778551073,0.853014656280786
1730865972.6830595,-1.7219197750091553,1.080628514289856,-9.910914421081543,-0.26288174296667605,-0.25028143504036476,-10.653160976338675,1.2160901718937882,4.789450412035536,0.8562016149135204
1730865972.7331333,-1.704637885093689,1.1132997274398804,-9.919187545776367,-0.2625410463151934,-0.25060709899855765,-10.653167024082418,1.2172315994071203,4.774292963794496,0.8035920298727057
1730865972.7830756,-1.704637885093689,1.1132997274398804,-9.919187545776367,-0.2622159083544333,-0.25096680264335425,-10.653147658063322,1.2177075471129997,4.758678384594211,0.7250523381091346
1730865972.7830756,-1.6880874633789062,1.1303209066390991,-9.951221466064453,-0.2619106261365527,-0.2513585774995869,-10.65310291502928,1.217708485867698,4.758578352178723,0.7244757496471906
1730865972.8330402,-1.6892642974853516,1.1353075504302979,-9.929433822631836,-0.26162829363875306,-0.2517812128716625,-10.653034091816187,1.2175304152396635,4.742278844311421,0.6189865665771717
1730865972.8830557,-1.6928538084030151,1.1137971878051758,-9.93874454498291,-0.2613708398004151,-0.2522342514040564,-10.65294366400387,1.2167041252170907,4.725403759956062,0.4873893381929959
1730865972.9329422,-1.7044410705566406,1.0738990306854248,-9.894899368286133,-0.26113914092137336,-0.252717831195154,-10.652835083009462,1.2174976516478413,4.780547973836809,0.8473944574086851
1730865972.9829872,-1.7288248538970947,1.0470776557922363,-9.854463577270508,-0.26093323001615265,-0.2532323189411605,-10.652712405340832,1.2167820506656928,4.7751827777129785,0.7889555978245267
1730865973.0330038,-1.782965898513794,1.0143132209777832,-9.822835922241211,-0.26075262474458416,-0.2537778316951817,-10.652579765508367,1.2154126560732146,4.769181159131032,0.7038098687146633
1730865973.082945,-1.8363450765609741,1.0109021663665771,-9.767317771911621,-0.2605968180071784,-0.2543538191861181,-10.652440791018751,1.2189931327098817,4.769116166493995,0.8495227758577067
1730865973.132889,-1.8869452476501465,0.9894759058952332,-9.760782241821289,-0.260465902842241,-0.2549588051177486,-10.652298080217214,1.218298695274825,4.762605512690877,0.7904707481264504
