Timestamp,IMU_Linear_Acc_X,IMU_Linear_Acc_Y,IMU_Linear_Acc_Z,Filtered_X,Filtered_Y,Filtered_Z,Pose_X,Pose_Y,Pose_Z
1730865946.8840554,-1.6525182723999023,1.072100281715393,-9.886634826660156,-0.0004941178176420211,-0.000393936991067901,-0.06090279618859634,0.8822662820147315,3.8324170252179552,0.8989995676463967
1730865946.9339588,-1.6460669040679932,1.1705397367477417,-9.888028144836426,-0.000715198438992586,-0.0006340396150118331,-0.08425857540921607,0.8987881321374747,3.8327535317889203,0.8989990100606073
1730865946.9839773,-1.5448205471038818,1.3515266180038452,-9.916738510131836,-0.001000188129101328,-0.0009704040792964995,-0.11317902620634604,0.8989554470165484,3.8328098564490998,0.8989988857345567
1730865947.0338826,-1.4505513906478882,1.3764179944992065,-9.885746955871582,-0.0013582744280504814,-0.0014238356481908196,-0.14825067490781463,0.8925465441283151,3.8330147993895154,0.8989982010732777
1730865947.083904,-1.4505513906478882,1.3764179944992065,-9.885746955871582,-0.001797211312439513,-0.0020175576347838276,-0.19002765889815676,0.8679717404543275,3.8347143439030464,0.8989827514718876
1730865947.083904,-1.483825922012329,1.3574954271316528,-9.83907413482666,-0.0023225407813822446,-0.0027773291604247996,-0.23902529210233542,0.8673764525822522,3.8347555101495945,0.8989821402728896
1730865947.1338828,-1.5220105648040771,1.4168083667755127,-9.791072845458984,-0.002937526790797156,-0.0037308781699439443,-0.29571447970574194,0.8577866886682515,3.8431594323703475,0.898492363982219
1730865947.1838188,-1.466209888458252,1.5062932968139648,-9.781386375427246,-0.003643581288619815,-0.0049073540318083555,-0.3605169680617162,0.8275099742241914,3.851664104399602,0.8971760683723298
1730865947.2339377,-1.6475468873977661,1.4503509998321533,-9.745635986328125,-0.004440752110007332,-0.006337134747189978,-0.4338015149912824,0.797286783578035,3.8601368034970305,0.8948670249774165
1730865947.2838902,-1.7597566843032837,1.3032793998718262,-9.741059303283691,-0.005328483222609887,-0.008051449379549073,-0.5158810401113835,0.8661207741232495,3.86857564935096,0.8913605909674787
1730865947.3337905,-1.6816997528076172,1.2365984916687012,-9.753911018371582,-0.006306791818090299,-0.010081164492937948,-0.6070106989343335,0.8727470981826742,3.876889395602812,0.886497315123429
1730865947.3838024,-1.757475733757019,1.2633165121078491,-9.788309097290039,-0.007377108438064027,-0.012455122254892344,-0.707386861340075,0.8685005151957409,3.885305558245897,0.8799389179942214
1730865947.4338114,-1.9410609006881714,1.2342725992202759,-9.715015411376953,-0.008542559208503544,-0.015198993783474262,-0.817146873767036,0.8720899891558908,3.8935618607024627,0.8715058424965926
1730865947.4836771,-1.7980672121047974,1.2204742431640625,-9.816902160644531,-0.009808358984370658,-0.018334848169548522,-0.9363693356805982,0.8686905964898818,3.9018523994209877,0.860891816116979
1730865947.5337312,-1.6201061010360718,1.2407430410385132,-9.861479759216309,-0.01118187310957288,-0.021881004655690234,-1.0650749556941368,0.8652585786162766,3.9101083230925107,0.847757695840168
1730865947.5837328,-1.6417081356048584,1.2559638023376465,-9.932706832885742,-0.012671456638882937,-0.02585201971342648,-1.203228226687644,0.8735026502507954,3.918242847256608,0.8317863488468418
1730865947.6336718,-1.4783844947814941,1.2720919847488403,-9.962823867797852,-0.014284736520674812,-0.030258878148389786,-1.350739696907132,0.8723673616258483,3.926356527087368,0.812652134529442
1730865947.6836586,-1.4127205610275269,1.249739170074463,-9.95790958404541,-0.016027236403705722,-0.03510926353131658,-1.5074683851381878,0.8711913186133404,3.9344085529471804,0.7898934525136211
1730865947.7336457,-1.4345476627349854,1.2176520824432373,-9.960887908935547,-0.017901348623177618,-0.04040768718279153,-1.673224108897037,0.871150512286219,3.94225953533152,0.7632505421520328
1730865947.7836764,-1.6071974039077759,1.2252144813537598,-9.856568336486816,-0.01990598769482632,-0.046155418957711934,-1.8477696574487499,0.8698085342963314,3.950104731222526,0.7321205530206959
1730865947.8337014,-1.532752275466919,1.1856809854507446,-9.923158645629883,-0.022037313761816574,-0.05235037086327456,-2.030822865972184,0.868413350435112,3.9578302997006025,0.696115554006894
1730865947.8835726,-1.49844229221344,1.2116985321044922,-9.878271102905273,-0.024289743588461424,-0.05898706765581352,-2.222058895842565,0.8680345569222262,3.965278068220191,0.6550152004400945
1730865947.9345996,-1.521494746208191,1.106750726699829,-9.946966171264648,-0.026656315485434456,-0.06605665760879595,-2.4211130034130064,0.8667114283071999,3.972847434767067,0.6069230333149704
1730865947.9846032,-1.521494746208191,1.106750726699829,-9.946966171264648,-0.029128667390749183,-0.07354680491289473,-2.627583737360308,0.869336126422526,3.979984839076674,0.5533496966849503
1730865947.9846032,-1.521235466003418,1.066617727279663,-9.89339542388916,-0.031697187003711956,-0.08144147015885425,-2.841036294937109,0.869335148004384,3.9800264966825836,0.5530184824067246
1730865948.034629,-1.521235466003418,1.066617727279663,-9.89339542388916,-0.03435127582082048,-0.08972081834301485,-3.0610057211596575,0.8704465410012876,3.9868850285520967,0.49282563434144827
1730865948.034629,-1.6524330377578735,0.9745575785636902,-9.893824577331543,-0.037079676205814815,-0.09836129756907086,-3.286999926140039,0.8704470908687553,3.986919801033057,0.4925017071564263
1730865948.0845356,-1.6524330377578735,0.9745575785636902,-9.893824577331543,-0.039871095813597095,-0.10733567774127403,-3.518502810811021,0.8705063629223033,3.993661052588664,0.42410069339425654
1730865948.0845356,-1.714928388595581,0.9513433575630188,-9.833707809448242,-0.042715036159421904,-0.11661306099755277,-3.754977523582846,0.8705064168093284,3.9936974642140095,0.42369972220223906
1730865948.1347377,-1.6118273735046387,0.9223973155021667,-9.884674072265625,-0.045602331736654414,-0.12615906163764581,-3.9958696483703338,0.8704591072353234,4.000180902225759,0.3455555354708531
1730865948.1846237,-1.3661701679229736,0.9260615110397339,-9.857068061828613,-0.04852485607938109,-0.13593614901348527,-4.240610386197078,0.870293497517675,4.006363214166275,0.2567432744346135
1730865948.2345996,-1.2212275266647339,0.8862243294715881,-9.932165145874023,-0.05147405612836203,-0.14590404171596305,-4.488619898215795,0.8686344413971647,4.01198879285287,0.1575997270411988
1730865948.2835228,-1.0323896408081055,0.8774198889732361,-9.941996574401855,-0.054438733361548024,-0.1560201020747287,-4.739310799728546,0.8680366793199895,4.017293460068114,0.04944170859975494
1730865948.3344536,-1.2495695352554321,0.9381879568099976,-9.924843788146973,-0.05740328822856411,-0.1662397738190783,-4.992091632967709,0.8688646317463063,4.022226772754058,-0.07567194654314037
1730865948.3844686,-1.4342632293701172,1.0002256631851196,-9.9284086227417,-0.060347720211994846,-0.17651729266978752,-5.24637004662446,0.868534296619922,4.026824240317547,-0.21153504467929446
1730865948.4344435,-1.6491162776947021,1.1198151111602783,-9.88106918334961,-0.06324972511684686,-0.1868068336121163,-5.501555569657883,0.8680511446439848,4.030956347393832,-0.36037629352116624
1730865948.4846096,-1.8150001764297485,1.2128596305847168,-9.911548614501953,-0.06608782533684733,-0.19706397946946425,-5.757062116637417,0.8673952317991368,4.034668077365343,-0.5260286931904248
1730865948.5345068,-1.8747748136520386,1.2866096496582031,-9.855307579040527,-0.06884416878274417,-0.2072472409565689,-6.012310375259789,0.8665745123040741,4.037548087292708,-0.7021916075410709
1730865948.5845046,-1.8972151279449463,1.2438414096832275,-9.890105247497559,-0.07150627184948771,-0.21731922711295493,-6.266730117053422,0.8619411595108549,4.0399144411501275,-0.8954268771121597
1730865948.6345894,-1.8699368238449097,1.2726092338562012,-9.829380989074707,-0.07406754215354772,-0.2272471099745671,-6.519762400255856,0.8597908239737212,4.041980298459273,-1.105381992964407
1730865948.6844258,-1.9649289846420288,1.1705948114395142,-9.842905044555664,-0.0765269604800508,-0.23700240298889294,-6.770861620561766,0.8582583638293877,4.043170208845118,-1.3304182615302045
1730865948.7343395,-1.755480170249939,1.117276906967163,-9.814167976379395,-0.07888841369095836,-0.2465602626898177,-7.019497398713284,0.8562512074711384,4.04403958622922,-1.5729591568364814
1730865948.7843802,-1.755480170249939,1.117276906967163,-9.814167976379395,-0.08115960923950219,-0.2558985395468104,-7.265156354989161,0.8580359566318491,0.923841518699445,0.9069166387031911
1730865948.7843802,-1.648979902267456,1.0715574026107788,-9.870731353759766,-0.0833505151264525,-0.26499696326112704,-7.507343858251268,0.8580310872010567,0.9238412458765095,0.9067884369471894
1730865948.8343627,-1.619248390197754,1.0923936367034912,-9.766934394836426,-0.08547183508384995,-0.2738366843405311,-7.745585750011692,0.8569624801709165,0.9234481956240285,0.871849150159334
1730865948.8843756,-1.5719029903411865,1.1600306034088135,-9.814069747924805,-0.0875338656675278,-0.2824001527276265,-7.979429821831399,0.860014475317111,0.888886964823453,0.8709246636506048
1730865948.9342463,-1.4718180894851685,1.2043366432189941,-9.855443000793457,-0.08954563481832836,-0.2906714028770328,-8.20844703153941,0.8598558062108033,0.8906133528755028,0.8319442724866387
1730865948.9843962,-1.5622344017028809,1.2559999227523804,-9.844598770141602,-0.09151424860987942,-0.2986366631269135,-8.432232794377267,0.8645046940805731,0.8860147323020453,0.856757088864073
1730865949.0343103,-1.6065484285354614,1.3037285804748535,-9.91126537322998,-0.09344472130707618,-0.3062849837287228,-8.650408342346754,0.8656882409506645,0.887542948041313,0.8118923502955666
1730865949.084335,-1.6464300155639648,1.3352413177490234,-9.848318099975586,-0.09534050610008515,-0.3136087156226862,-8.862621861567025,0.8666419586523287,0.8883026134452834,0.7447965110765479
1730865949.1342292,-1.7890230417251587,1.2793657779693604,-9.847938537597656,-0.09720442797281077,-0.32060373325852964,-9.068549236682564,0.8675006832929438,0.8894127419766943,0.8495903890388019
1730865949.1843033,-1.9112098217010498,1.1769911050796509,-9.826825141906738,-0.0990398141093636,-0.32726913725679585,-9.267894365052282,0.8679756698406298,0.8897399554437223,0.7998987786955922
1730865949.2342906,-1.7468112707138062,1.169215440750122,-9.872337341308594,-0.10085161100838388,-0.3336063531842998,-9.460389277288014,0.8682054027668662,0.8892489523281019,0.7266707057232036
1730865949.2843397,-1.7610691785812378,1.1731765270233154,-9.90518856048584,-0.10264669592102997,-0.3396181137105333,-9.6457943776958,0.8688766059749948,0.8960926157700954,0.8492189506657409
1730865949.3341703,-1.772855281829834,1.1963719129562378,-9.869773864746094,-0.10443322777559556,-0.34530790594219496,-9.823898779765049,0.8690067229177204,0.8967924186296561,0.7960101905457716
1730865949.3842542,-1.7723252773284912,1.1582468748092651,-9.856871604919434,-0.10621997108042297,-0.35067987140474133,-9.994520397940516,0.8688738695295019,0.8966230120466652,0.7181502121432297
1730865949.4341888,-1.5951693058013916,1.1924304962158203,-9.84045124053955,-0.10801587805865541,-0.3557387908382143,-10.157505613933456,0.8702193899868785,0.9039872969433893,0.849953866239595
1730865949.4842129,-1.4303251504898071,1.1096744537353516,-9.871488571166992,-0.10982918795483482,-0.3604899691555065,-10.312728742205623,0.8702004262836549,0.9047418499101584,0.7936702361956374
1730865949.5342839,-1.4494115114212036,1.127644419670105,-9.831385612487793,-0.11166587718716257,-0.3649389897287435,-10.460091529648057,0.8668866841252577,0.9129235579378513,0.8546649139832987
1730865949.5842733,-1.374488115310669,1.0864741802215576,-9.847817420959473,-0.11352836493891127,-0.3690913868287744,-10.599522627054114,0.8654401519869183,0.9149043294096236,0.7984064223418144
1730865949.634126,-1.4525998830795288,1.0719263553619385,-9.802490234375,-0.11541513289764299,-0.37295236837594636,-10.730976901439357,0.8638567599059628,0.9212267055513892,0.8571310818681708
1730865949.684152,-1.5784028768539429,1.0320987701416016,-9.840079307556152,-0.11732120904109364,-0.37652659687073153,-10.854434619710954,0.8620852940172788,0.9232722823779252,0.799511083754318
1730865949.734146,-1.5448294878005981,0.9901504516601562,-9.828018188476562,-0.11923930327747892,-0.37981794023521587,-10.96990063397438,0.8636321398409064,0.9273087735314656,0.8553249035766208
1730865949.7841535,-1.495914340019226,0.9905200004577637,-9.897010803222656,-0.1211609393627102,-0.38282920850107005,-11.077403674208053,0.8625496994999495,0.9283200009487829,0.7947831766436134
1730865949.8341901,-1.5989469289779663,0.96947181224823,-9.889765739440918,-0.12307696578044797,-0.3855620000745372,-11.176995753719778,0.8634537228206121,0.9347198608429053,0.8537672145748568
1730865949.8841543,-1.5671354532241821,0.9694827198982239,-9.91878890991211,-0.1249778151542219,-0.3880167287989496,-11.268751557143894,0.8632182408971268,0.9352108499354761,0.8551898003980944
1730865949.9341342,-1.4966825246810913,0.9941743016242981,-9.964380264282227,-0.12685383667936587,-0.3901927976286488,-11.352767696079024,0.8622599099501259,0.9351765317145293,0.7939963373420091
1730865949.984129,-1.4800490140914917,0.969645619392395,-9.981051445007324,-0.12869530006362861,-0.39208888167308,-11.429161894241231,0.8609779727510379,0.9341602035499862,0.7040257913196597
1730865950.0342054,-1.459653377532959,1.016774296760559,-9.992463111877441,-0.13049203963969977,-0.39370325898554065,-11.498072123276842,0.8593766931420153,0.9321652206418936,0.5857210706497609
1730865950.0840492,-1.5144121646881104,1.049118995666504,-9.973414421081543,-0.13223324833926708,-0.3950341876568335,-11.559655540850805,0.8650257835987747,0.9418584360683437,0.8384095659578019
1730865950.1340241,-1.6105612516403198,1.0086636543273926,-9.94045639038086,-0.13390776346588706,-0.3960803441699917,-11.614087131058298,0.8646113675147905,0.9417048999982628,0.7711241782487679
1730865950.1840804,-1.5536221265792847,1.06661057472229,-9.94149398803711,-0.1355047721672356,-0.3968411555417992,-11.661558106656955,0.8670942470014323,0.9497622734167825,0.8398593757394437
1730865950.2339597,-1.603241205215454,1.065562129020691,-9.964529037475586,-0.13701444864743906,-0.39731699593082953,-11.702274297661955,0.8670422653274044,0.9508398148748709,0.7740784383380422
1730865950.2839465,-1.879683494567871,1.0326447486877441,-9.866992950439453,-0.1384284676442015,-0.3975093607533767,-11.7364546603106,0.8666425288271327,0.9509347215029615,0.6776658659554486
1730865950.3339956,-2.0737950801849365,0.9914940595626831,-9.809025764465332,-0.13974123083010612,-0.3974208523001353,-11.764329649310804,0.8705382252682695,0.9592298355810185,0.833864561848948
1730865950.3840535,-2.0737950801849365,0.9914940595626831,-9.809025764465332,-0.14095187702182077,-0.39705486858901334,-11.786139307218162,0.8706064280343471,0.95975511830824,0.7655989920620784
1730865950.3840535,-1.8243703842163086,0.9407444000244141,-9.798154830932617,-0.1420654778130266,-0.39641522206042484,-11.802131472328673,0.8706058108451515,0.959755232681157,0.7651360203978599
1730865950.4339852,-1.6435387134552002,1.0102969408035278,-9.805895805358887,-0.1430920052691137,-0.3955059020155871,-11.812560426483406,0.8747915839191355,0.9712247993830736,0.8393832042049341
1730865950.4839067,-1.5730770826339722,1.1460793018341064,-9.76155948638916,-0.1440436213953824,-0.39433123121069363,-11.817685806506763,0.8757057291870616,0.9740850593196201,0.7767405334359975
1730865950.5338778,-1.402429223060608,1.2469379901885986,-9.80485725402832,-0.1449319511137852,-0.3928967057521336,-11.81777154524929,0.8762557184723594,0.975951890545309,0.6848276704579076
1730865950.5837739,-1.2801685333251953,1.27745521068573,-9.844583511352539,-0.1457660696982723,-0.3912102491747836,-11.813084927497513,0.8764434547896869,0.9768390890627575,0.564359007165222
1730865950.6338754,-1.3144124746322632,1.2810062170028687,-9.876189231872559,-0.14655105413708205,-0.3892831269595261,-11.803895942745923,0.8762678331206479,0.976760367678036,0.4130488083534572
1730865950.6837897,-1.3720238208770752,1.2254197597503662,-9.91110610961914,-0.14728738355541648,-0.3871300836325906,-11.790476833108952,0.8757222303286295,0.9757043962942332,0.23190430444040444
1730865950.7338083,-1.4993278980255127,1.1518988609313965,-9.931300163269043,-0.14797156083277366,-0.38476875333377236,-11.773101605176635,0.8794365914522495,0.9840067146365775,0.8277994121215804
1730865950.78379,-1.6006672382354736,1.0863429307937622,-9.86929702758789,-0.1485976501713532,-0.38221858107969187,-11.752045350122224,0.8795661905428178,0.9845431656063348,0.7586149956378596
1730865950.8337855,-1.81550133228302,1.01986563205719,-9.81452465057373,-0.14915922465807777,-0.3794995711458774,-11.727583182391147,0.8832524089778406,0.9906292171983522,0.8354856069834239
1730865950.8837059,-1.9375649690628052,0.9927679896354675,-9.77560806274414,-0.14965148554917118,-0.3766311663917292,-11.699988774500872,0.8838412246894279,0.9914350833158575,0.7699239969832217
1730865950.9336746,-2.0457820892333984,0.9714118242263794,-9.726194381713867,-0.15007327993327538,-0.3736314491548177,-11.669532794518485,0.8840537635859451,0.9913033524511595,0.6757421766548275
1730865950.9836621,-2.0869340896606445,1.0083929300308228,-9.737180709838867,-0.15042854470940673,-0.3705167601993676,-11.636481554034427,0.8874289480593681,1.0056822718233442,0.8315268990822902
1730865951.0336392,-2.0562994480133057,1.051559329032898,-9.758321762084961,-0.1507268571781108,-0.36730177549460796,-11.601096028807559,0.88793441345163,1.0079491714165947,0.7651919858279499
1730865951.083622,-1.9736506938934326,1.1039338111877441,-9.822582244873047,-0.15098302965715613,-0.3639999854563047,-11.56363135116435,0.8969164381595673,1.017041714479536,0.8351692569149222
1730865951.133597,-1.9302725791931152,1.1401413679122925,-9.887577056884766,-0.15121590182388925,-0.36062437610450887,-11.524336749252509,0.8996517613549269,1.020180873530718,0.7704778433728734
1730865951.1835477,-1.8705997467041016,1.1601102352142334,-9.892549514770508,-0.15144678427059755,-0.3571880582617495,-11.483455719986317,0.9062600196049388,1.027961843197388,0.8359552615567752
1730865951.233644,-1.852792739868164,1.1702474355697632,-9.919771194458008,-0.15169803471621413,-0.35370467747548606,-11.441226098434527,0.9097830191156819,1.0316092102439596,0.7718673322311648
1730865951.2836158,-1.850260853767395,1.1229956150054932,-9.914119720458984,-0.15199199455051382,-0.35018852382079385,-11.39787983428282,0.9122678135275571,1.0393932366630836,0.8365208194025994
1730865951.3335752,-1.8229795694351196,1.0839333534240723,-9.910886764526367,-0.1523503080625598,-0.3466542846066861,-11.353642543226208,0.9147256360096546,1.0428278659793369,0.7730261740920853
1730865951.3836124,-1.7985893487930298,1.0479875802993774,-9.888747215270996,-0.152793471494741,-0.34311649433564845,-11.308732924877337,0.9209424972920218,1.0523110278223913,0.8369519849537482
1730865951.4335694,-1.7535266876220703,0.9978740811347961,-9.872357368469238,-0.1533404020518062,-0.3395888889241121,-11.263362086938267,0.9290503312422466,1.0564710323436195,0.8436887584180717
1730865951.4836032,-1.7225205898284912,0.9698752164840698,-9.863229751586914,-0.15400795750880872,-0.33608382287477556,-11.217732851744847,0.9334654958933236,1.0593773509852613,0.7832826285141998
1730865951.533507,-1.668954610824585,0.9353963732719421,-9.8529052734375,-0.15481044894954826,-0.3326117997828678,-11.172039144007412,0.9374414464485975,1.0614168162940196,0.6958489908441249
1730865951.583536,-1.6359572410583496,0.9215210676193237,-9.852986335754395,-0.15575918939015132,-0.3291811561228247,-11.126465514911725,0.9410611182609487,1.0626464581047186,0.57989914016234
1730865951.6334298,-1.6144894361495972,0.9229671359062195,-9.850465774536133,-0.15686213304217622,-0.3257979333894614,-11.081186802516438,0.9284155207436008,1.0692865269369292,0.8321666105901736
1730865951.6834772,-1.6067534685134888,0.9610587358474731,-9.857247352600098,-0.15812369931107956,-0.3224659888839708,-11.036367912531745,0.9285141397050127,1.0711423969936822,0.7672979361534509
1730865951.7344527,-1.5976148843765259,1.0084751844406128,-9.867647171020508,-0.15954482537675282,-0.31918740413755137,-10.992163708983005,0.9228025252933423,1.0843920079890144,0.8372861123388541
1730865951.7843916,-1.6114647388458252,1.0301212072372437,-9.874835968017578,-0.16112319977795403,-0.31596313253329095,-10.948719004361639,0.9209385031056112,1.089045836103958,0.7750615763906685
1730865951.8344188,-1.5975745916366577,1.018343448638916,-9.889068603515625,-0.16285360896893478,-0.3127936342895164,-10.906168623220536,0.9186822947365243,1.0928876769519922,0.6859899327659387
1730865951.8845086,-1.6075562238693237,0.9683912396430969,-9.893061637878418,-0.16472832043609512,-0.309679193296161,-10.864637505985657,0.918898558312215,1.0978706605268966,0.8348997794970698
1730865951.934418,-1.626556634902954,0.905511736869812,-9.897462844848633,-0.1667374665039503,-0.3066197739145168,-10.824240822686532,0.9171146732582184,1.1005871180477291,0.772672448059584
1730865951.9844997,-1.6508206129074097,0.8503293991088867,-9.890620231628418,-0.1688694865364666,-0.3036145139533271,-10.785084063111238,0.914281126700799,1.1142269627110073,0.8388028998714654
1730865952.034278,-1.668717384338379,0.7852784395217896,-9.882685661315918,-0.1711116503723886,-0.3006610860620567,-10.74726308173652,0.9115838499972407,1.1196128019884368,0.7784937253044247
1730865952.0843859,-1.668717384338379,0.7852784395217896,-9.882685661315918,-0.17345056579469098,-0.29775515794189156,-10.710864112498383,0.9099702195119307,1.1300638233316191,0.8397106610993671
1730865952.0843859,-1.666137456893921,0.7490000128746033,-9.847501754760742,-0.17587254965736476,-0.29489012451549074,-10.675963778281062,0.9099530020586727,1.1301043706285598,0.8394175966217666
1730865952.134316,-1.6244356632232666,0.7482098340988159,-9.854060173034668,-0.17836379406759803,-0.2920571351338953,-10.642629089142838,0.90700098845534,1.1361662245791402,0.7796607507331184
1730865952.1843207,-1.5937052965164185,0.7874472141265869,-9.882034301757812,-0.180910301279549,-0.2892453414658469,-10.61091750296928,0.9036038438438538,1.141504336100442,0.6935339530558048
1730865952.2342668,-1.5707736015319824,0.8576775789260864,-9.910017013549805,-0.18349764830486695,-0.28644242918888935,-10.580877218670599,0.907778779606787,1.1378743526068855,0.8459577138608589
1730865952.2842512,-1.587791085243225,0.9232023358345032,-9.935588836669922,-0.18611078030478026,-0.28363551189243297,-10.552547716894576,0.9094097932398925,1.1452708853058264,0.8501982444174785
1730865952.3342435,-1.5839658975601196,0.9715844392776489,-9.951668739318848,-0.18873402251921031,-0.2808122146288592,-10.525960374330506,0.9083067155680656,1.1486566391919737,0.7950394749586251
1730865952.3842833,-1.6285433769226074,0.9795622229576111,-9.949352264404297,-0.191351328738567,-0.2779616186869491,-10.501138995590328,0.9073701050132518,1.147902210785119,0.8430283349596853
1730865952.4342704,-1.6731714010238647,0.9589577913284302,-9.931402206420898,-0.19394671832079793,-0.2750748000070665,-10.478100177148264,0.905420787467813,1.149040609532967,0.7850414651513424
1730865952.4843504,-1.7608195543289185,0.9085907340049744,-9.892904281616211,-0.1965049166217374,-0.27214485446389663,-10.45685345821111,0.9029768619582897,1.1494967664603801,0.7006668876612904
1730865952.5342863,-1.8198007345199585,0.8613375425338745,-9.845653533935547,-0.1990121836720442,-0.2691664805949075,-10.43740126240184,0.9060153544341261,1.1598113057256534,0.8378692730409318
1730865952.5842535,-1.8743910789489746,0.8098325729370117,-9.812735557556152,-0.20145717609898472,-0.2661353177633289,-10.419738705328971,0.9043641802710933,1.1618595820546362,0.7782258741171769
1730865952.634168,-1.8814746141433716,0.8248398900032043,-9.78154468536377,-0.20383159860131908,-0.26304730506036234,-10.403853415069342,0.9063658820356745,1.1742582629233815,0.840944192608643
1730865952.6841817,-1.8178749084472656,0.9012826681137085,-9.799697875976562,-0.20613040334392624,-0.25989839261643444,-10.389725530238957,0.9050966314844552,1.1786195022450436,0.7827740285732124
1730865952.7341259,-1.7743693590164185,0.9895063042640686,-9.821540832519531,-0.20835139016612414,-0.2566848771963807,-10.377328009157747,0.9050587049402035,1.1849495375839165,0.8412294416025489
1730865952.7841399,-1.7426655292510986,1.0704177618026733,-9.879551887512207,-0.21049436227943932,-0.25340428803857773,-10.366627301060316,0.9033694428845471,1.18908614790292,0.783053699134878
1730865952.834016,-1.7173658609390259,1.144403100013733,-9.899643898010254,-0.21256024653856556,-0.2500564375542186,-10.357584284505684,0.9037786522578778,1.201634949083458,0.8415416625892445
1730865952.884022,-1.7238008975982666,1.201750636100769,-9.902915954589844,-0.21455045773750903,-0.24664430455800282,-10.350155231430927,0.9020238284151372,1.207415312367767,0.7831827386348708
1730865952.9340377,-1.7645459175109863,1.1820310354232788,-9.86949348449707,-0.2164665933949778,-0.24317456243626642,-10.344292518864012,0.907099537861954,1.2192980018762976,0.8424900835388952
1730865952.9839852,-1.83077871799469,1.1543887853622437,-9.82955265045166,-0.21831052358642467,-0.2396575741889598,-10.33994495317726,0.9102115327441882,1.2238874164124742,0.848424473239203
1730865953.0339887,-1.8594506978988647,1.0799541473388672,-9.79504680633545,-0.22008482643476457,-0.23610678609487495,-10.337057785756354,0.910461186970405,1.2282888727097265,0.7936936199252703
1730865953.0839276,-1.8404059410095215,1.018115758895874,-9.759230613708496,-0.2217932599147127,-0.2325376769506304,-10.33557261659416,0.9101574986396105,1.2321137921876013,0.7129099514031493
1730865953.1339393,-1.7897979021072388,0.9865586757659912,-9.764646530151367,-0.22344086673615987,-0.2289665555219118,-10.33542737593698,0.9093020036591937,1.2353411183712293,0.6069195212194924
1730865953.1840162,-1.698754072189331,1.0258070230484009,-9.786855697631836,-0.22503352659344156,-0.2254095856243551,-10.336556540064471,0.9113735146927632,1.239449604992778,0.8374962614448074
1730865953.2339149,-1.6195176839828491,1.096706748008728,-9.849236488342285,-0.22657705331969202,-0.2218824003578898,-10.338891695097391,0.9105984144098532,1.2426902118908014,0.7780537656085512
1730865953.2839737,-1.5690386295318604,1.1863417625427246,-9.894932746887207,-0.22807612086378096,-0.21840040409477285,-10.342362439978144,0.9092381352768675,1.245424810890126,0.6916259052596962
1730865953.3338645,-1.5596836805343628,1.2637195587158203,-9.941064834594727,-0.22953339393583974,-0.21497953050210572,-10.346897455941285,0.9111374494071925,1.2561081372226466,0.8402729050997417
1730865953.384044,-1.59630286693573,1.3051685094833374,-9.960204124450684,-0.2309491639730143,-0.21163707120975772,-10.352425498286161,0.9099897581496573,1.2608262995664308,0.7807162637875585
1730865953.4338489,-1.6284863948822021,1.3273265361785889,-9.94701862335205,-0.23232156635789647,-0.2083922345274537,-10.358876116760621,0.9082897311590903,1.2649362078125646,0.6966197179109029
1730865953.4840422,-1.6553434133529663,1.316172480583191,-9.920696258544922,-0.23364719336180112,-0.20526626351642374,-10.366179998122094,0.9110669523546499,1.2682983570637236,0.8399503020419156
1730865953.5338588,-1.6599690914154053,1.2806527614593506,-9.860176086425781,-0.23492177479180135,-0.2022821116436834,-10.374268922370433,0.9133446334606958,1.2800545265519376,0.8490499449843808
1730865953.583919,-1.6765570640563965,1.1801283359527588,-9.819402694702148,-0.23614069674717691,-0.19946370420751064,-10.383075424443694,0.9128695275110763,1.2854109120344928,0.7936057565942862
1730865953.6338382,-1.6720153093338013,1.0732054710388184,-9.787087440490723,-0.23729933050608956,-0.1968347757062563,-10.39253234497977,0.9157654860489932,1.2950095092181402,0.8443530229512514
1730865953.6838663,-1.6663193702697754,0.9791675806045532,-9.763050079345703,-0.2383932181784572,-0.19441738967433606,-10.40257248480816,0.9154559577976188,1.3007580894515853,0.7865342159423787
1730865953.7339408,-1.6707918643951416,0.9239218235015869,-9.750232696533203,-0.23941814579802334,-0.19223047819587,-10.413128468734216,0.9145508141054026,1.3060046372315293,0.7029157169618029
1730865953.7837968,-1.6994575262069702,0.9047927856445312,-9.781537055969238,-0.24037019270376342,-0.1902887861645019,-10.424132836705159,0.9199014104720898,1.3039748975802916,0.8403260509243545
1730865953.8338177,-1.7137017250061035,0.9450106620788574,-9.824131965637207,-0.24124587889457794,-0.1886024469130152,-10.43551842165429,0.9198784835104363,1.3071836990861994,0.7808240618471884
1730865953.8838098,-1.7199853658676147,1.0237822532653809,-9.900525093078613,-0.24204239479795012,-0.18717726210610958,-10.447219056829825,0.9254993062198177,1.3132890360342901,0.8429114657084598
1730865953.933771,-1.7121604681015015,1.109671950340271,-9.941783905029297,-0.24275776793838946,-0.18601561420722657,-10.459170517352417,0.9310121378311662,1.3186968945455337,0.8491524443042537
1730865953.9838536,-1.7125602960586548,1.1412822008132935,-9.991416931152344,-0.243390880202748,-0.18511770745642214,-10.471311473153115,0.9329067466480812,1.322426136490757,0.7933908377080465
1730865954.033785,-1.7383090257644653,1.1559922695159912,-9.991555213928223,-0.24394140866938144,-0.18448266342037742,-10.483584223355694,0.9341841158813313,1.3256738659440832,0.711889636693777
1730865954.0837812,-1.7700742483139038,1.0934906005859375,-9.966474533081055,-0.24440985011540398,-0.18410909799138586,-10.495935055872435,0.9328317007400027,1.3329645542959678,0.8401595173315886
1730865954.1337168,-1.7931220531463623,1.0574482679367065,-9.924484252929688,-0.24479770008470234,-0.18399508067629985,-10.508314160232324,0.932652943967806,1.336380465450027,0.7804505748092855
1730865954.1838078,-1.8051255941390991,0.9757516384124756,-9.861323356628418,-0.24510768267929472,-0.18413763239888295,-10.520675148817421,0.934582177841405,1.3493929326434517,0.8428211483925385
1730865954.233678,-1.8243852853775024,0.909440279006958,-9.807530403137207,-0.2453438944055487,-0.18453200983377394,-10.53297434246174,0.9344275976108595,1.3553733953216984,0.7842593359788343
1730865954.2837088,-1.831785798072815,0.8526820540428162,-9.77783489227295,-0.24551183821568354,-0.18517096215399403,-10.545170015506452,0.9348837049783428,1.3569038513781,0.8430534748951473
1730865954.3335953,-1.7967559099197388,0.8678164482116699,-9.767488479614258,-0.24561834394929655,-0.18604417303903664,-10.557221820524934,0.9341399853106082,1.360761911962396,0.7842514891316441
1730865954.3836603,-1.7605763673782349,0.9291214346885681,-9.799591064453125,-0.24567128032183644,-0.18713819266628035,-10.569090561284124,0.9353051425985458,1.372235889851777,0.8427764265296377
1730865954.433618,-1.710945725440979,1.0032237768173218,-9.818702697753906,-0.24567901304862375,-0.18843703584784435,-10.580738351835752,0.9343771663270306,1.3776652829527831,0.7841812876859545
1730865954.4836576,-1.7012803554534912,1.053971767425537,-9.838756561279297,-0.24564975299305516,-0.18992326759666373,-10.592129035079761,0.9360055364290822,1.3826821097615938,0.8426313903513127
1730865954.5335536,-1.6881037950515747,1.0379717350006104,-9.849413871765137,-0.24559102636453903,-0.19157910496837105,-10.603228636604571,0.9350804676397255,1.3871675656087632,0.7839239732858514
1730865954.5836434,-1.7113316059112549,0.9963055849075317,-9.854170799255371,-0.24550941565586704,-0.19338706281809276,-10.614005704774275,0.9368585324442296,1.3912312389797206,0.8426008983804351
1730865954.6335702,-1.745736837387085,0.9328804016113281,-9.85682487487793,-0.24541060125021164,-0.19532996209859377,-10.624431509649018,0.9359923127695896,1.3947731088932813,0.7835375114741047
1730865954.683587,-1.7479357719421387,0.8603179454803467,-9.831171989440918,-0.24529963538229008,-0.19739045562199425,-10.634480102842783,0.9345106899910881,1.397833665854312,0.6977561774110967
1730865954.733575,-1.7491909265518188,0.843873918056488,-9.839099884033203,-0.24518125080009817,-0.1995503841770865,-10.64412824258024,0.9373927741758445,1.4004296989960212,0.8391105701057658
1730865954.7836032,-1.719849944114685,0.8954249024391174,-9.856204986572266,-0.2450599922802401,-0.20179036143322485,-10.653355280052047,0.9362678712871851,1.4024951737682485,0.7782752413085396
1730865954.8335345,-1.69038987159729,1.013269066810608,-9.893735885620117,-0.24494010703644223,-0.2040900008283209,-10.662143178362152,0.9405471065246364,1.404125304379637,0.8422777491270279
1730865954.8834958,-1.6407148838043213,1.1782209873199463,-9.94733715057373,-0.244825236977283,-0.2064289718774322,-10.670476746325631,0.9443396996138518,1.4053163020723376,0.8479896325463692
1730865954.9335127,-1.5968351364135742,1.3148117065429688,-9.980710983276367,-0.24471798382209686,-0.20878870311629733,-10.678344030575252,0.9453397734538849,1.405858766483948,0.7912753593050279
1730865954.9834745,-1.5788203477859497,1.3853707313537598,-9.986942291259766,-0.24461945824270104,-0.21115420838029686,-10.685736693883108,0.9457326285070401,1.40587942037888,0.7078278740592133
1730865955.0333755,-1.59587824344635,1.345052719116211,-9.986001014709473,-0.24452899755504912,-0.21351534070082495,-10.692650167070761,0.9459525674168875,1.4054549144626394,0.8392635510761897
1730865955.0834413,-1.6471034288406372,1.241713523864746,-9.92891788482666,-0.24444424680004562,-0.21586693289144038,-10.699083460949662,0.9455413097525421,1.4044087295716066,0.7782442877141973
1730865955.1334794,-1.7504501342773438,1.1041513681411743,-9.85863208770752,-0.24436170623263637,-0.218207741806902,-10.705038602764034,0.9445162893386818,1.4028169894089442,0.6903167524140477
1730865955.1834555,-1.8304283618927002,0.9711137413978577,-9.74976921081543,-0.2442777116032499,-0.2205385892718224,-10.710519692142986,0.9499692861663018,1.4007850176347052,0.8384829881808838
1730865955.2333221,-1.9156988859176636,0.9128645658493042,-9.670672416687012,-0.24418962619615844,-0.22286033201256877,-10.715531688013598,0.9499456295444557,1.3981082642522995,0.7775271172161904
1730865955.2834413,-1.9563443660736084,0.903839647769928,-9.61693286895752,-0.24409691243916262,-0.22517229602363784,-10.72007919655675,0.9493053019624578,1.394831574030117,0.6887303400048701
1730865955.3332965,-1.9563443660736084,0.903839647769928,-9.61693286895752,-0.24400181061252307,-0.22747154085399995,-10.724165600367051,0.9480702564801728,1.3910468249994168,0.5747873186146322
1730865955.3332965,-1.9662718772888184,0.9583784937858582,-9.625625610351562,-0.24390950009218537,-0.22975288436127966,-10.727792748960198,0.9480603461295414,1.3910206062417871,0.5739670576125571
1730865955.3834836,-1.923431158065796,1.0500279664993286,-9.705564498901367,-0.24382781097912487,-0.23200947630631932,-10.73096122311225,0.9566241962909292,1.3867928763913833,0.8376462657884284
1730865955.4342368,-1.8367159366607666,1.1513241529464722,-9.823517799377441,-0.24376658079908636,-0.23423382238826296,-10.733671133806741,0.9569657899892029,1.3817437091805407,0.7775411274353977
1730865955.4842105,-1.7143102884292603,1.2665013074874878,-9.948857307434082,-0.24373660317875973,-0.23641911716521655,-10.735923419279034,0.9613653538199768,1.3763688284302604,0.843054762153929
1730865955.5342638,-1.5934988260269165,1.3747628927230835,-10.055098533630371,-0.2437481733060078,-0.2385606493397886,-10.73772141980928,0.9621675187185664,1.3701965617970546,0.7838038739744239
1730865955.5842412,-1.4835880994796753,1.4298890829086304,-10.111140251159668,-0.24380947114175186,-0.2406570424407114,-10.739072316173331,0.9648401064048859,1.3636472789311107,0.8427617760144969
1730865955.6342456,-1.443881630897522,1.4316983222961426,-10.103753089904785,-0.24392515282028304,-0.24271105100518206,-10.739988026231469,0.9654408128324966,1.3562905307424944,0.7831290592605125
1730865955.6842623,-1.4952565431594849,1.3775787353515625,-10.049909591674805,-0.24409556120219292,-0.24472964436587535,-10.740485305241162,0.9675933341343654,1.3485574623613057,0.837637782817025
1730865955.7341847,-1.6399167776107788,1.2702287435531616,-9.953142166137695,-0.24431693756090847,-0.24672328961727258,-10.740585023487192,0.9676668403768872,1.3399954870976654,0.7767475371303524
1730865955.7842758,-1.8158236742019653,1.1555479764938354,-9.814238548278809,-0.24458276888749486,-0.24870455622705223,-10.740310781294454,0.9689402219569373,1.3310294449295248,0.8310022214530052
1730865955.8341494,-1.987913966178894,1.0372942686080933,-9.684324264526367,-0.24488596991333103,-0.25068633388224204,-10.739687093566467,0.9693410993564981,1.3215426332156741,0.8327206667607071
1730865955.8841746,-2.1046435832977295,0.9711049795150757,-9.589987754821777,-0.24522126730562316,-0.25268006168097645,-10.738737470006141,0.968779619967741,1.311106535160845,0.7727308088920649
1730865955.9341092,-2.1483964920043945,0.9394667744636536,-9.553539276123047,-0.24558711442912834,-0.25469436098364034,-10.737482827578935,0.9676065017627916,1.300050894228747,0.6860233436715193
1730865955.9841945,-2.121264934539795,0.9565346837043762,-9.586009979248047,-0.245986661326764,-0.25673433335673623,-10.735940623254496,0.9658116339246438,1.28830693121663,0.572006557706214
1730865956.0340698,-2.039263963699341,0.9619608521461487,-9.645097732543945,-0.24642761863883955,-0.2588015389545356,-10.734124873637604,0.9695618952670977,1.276353914116444,0.8169958740696407
1730865956.0840585,-1.9312196969985962,0.9948458671569824,-9.719782829284668,-0.24692116696074606,-0.2608944361964016,-10.73204693034809,0.9684504569655825,1.2633540269180388,0.7533317395931403
1730865956.1340225,-1.8107657432556152,1.0069457292556763,-9.799466133117676,-0.2474802611260113,-0.26300901636164453,-10.729716671195993,0.9667241619896805,1.2497236706524388,0.6630043835573137
1730865956.184022,-1.7375962734222412,1.0039891004562378,-9.883305549621582,-0.24811775787133017,-0.26513943576027366,-10.727143790071867,0.9643765817215386,1.2354156483279748,0.5457579861723172
1730865956.2339506,-1.6901278495788574,0.9899908900260925,-9.963652610778809,-0.2488448028518785,-0.2672784897512032,-10.72433901027076,0.9755145627208324,1.2209374283885834,0.8132124915928912
1730865956.2840056,-1.6511867046356201,1.0167818069458008,-10.022025108337402,-0.24966976184224754,-0.2694179013317806,-10.721315120742137,0.9753859253795871,1.2052453482562047,0.7495093010045203
1730865956.3338845,-1.626352071762085,1.0566904544830322,-10.058816909790039,-0.2505976819020358,-0.27154860992410823,-10.718087728269214,0.9814841254318819,1.1895414589067248,0.8201685283578982
1730865956.3839247,-1.6089198589324951,1.1275053024291992,-10.08283519744873,-0.2516301081572291,-0.2736612729366451,-10.714675639052285,0.9820021693608151,1.172528108690701,0.7600142167469248
1730865956.433835,-1.548673152923584,1.161179542541504,-10.08017635345459,-0.25276508633478345,-0.2757469855925188,-10.711100867041859,0.9899577789078309,6.554510036942801,0.82161135989755
1730865956.4838657,-1.5168516635894775,1.1840696334838867,-10.051786422729492,-0.2539971769687085,-0.27779799924880244,-10.707388306428976,0.9960435570014268,6.612576595703541,0.8327724296010867
1730865956.533793,-1.4813148975372314,1.1318827867507935,-9.987784385681152,-0.2553174188061449,-0.2798081383482923,-10.703565072664931,0.9987600122350042,6.615110121065457,0.7781714260220315
1730865956.5838237,-1.4938756227493286,1.0512200593948364,-9.905617713928223,-0.256713380322795,-0.28177268007389006,-10.699659511728301,1.0008561469660486,6.616959207438295,0.6960995710994675
1730865956.6337664,-1.5253958702087402,0.9455553293228149,-9.82075309753418,-0.25816948525978245,-0.2836876363469945,-10.695699953018208,1.002290330802845,6.618085436962363,0.5880581630988833
1730865956.683823,-1.6069215536117554,0.8572342395782471,-9.72569751739502,-0.25966771978077474,-0.28554863139194475,-10.691713367683452,1.001010023777485,6.63997275126002,0.8261535183729861
1730865956.7337284,-1.7038275003433228,0.803158164024353,-9.66273307800293,-0.26118873727741654,-0.2873497458392903,-10.68772411165876,1.0015013496191572,6.640373458482016,0.765953137863813
1730865956.7837372,-1.8090814352035522,0.8006678223609924,-9.635173797607422,-0.2627132666921925,-0.28908270640527034,-10.683752942811187,1.0046325438346666,6.648825775189153,0.83567623349335
1730865956.8336544,-1.8090814352035522,0.8006678223609924,-9.635173797607422,-0.26422353293136813,-0.2907366447685646,-10.67981650417683,1.0082005834244252,6.647397169990763,0.84527314154654
1730865956.8336544,-1.8927173614501953,0.8072279691696167,-9.634767532348633,-0.265704296665278,-0.29229836352073385,-10.67592732090046,1.0082077967405094,6.6473933587787055,0.8450196018570378
1730865956.883653,-1.9440635442733765,0.8602471947669983,-9.668485641479492,-0.26714346318147064,-0.29375289403200355,-10.672094173462387,1.0090510188821014,6.646410875965362,0.7906110364270971
1730865956.9336395,-1.9826576709747314,0.9154075980186462,-9.733817100524902,-0.26853252112362036,-0.295084261153237,-10.668322733600979,1.0092352345587814,6.644682694794407,0.7089678399263064
1730865956.9837236,-1.9989776611328125,0.9727869033813477,-9.810914993286133,-0.26986684309423253,-0.2962764413695056,-10.664616468902569,1.012683909849956,6.643946412496088,0.850128898613737
1730865957.033659,-1.9968469142913818,1.0430967807769775,-9.891023635864258,-0.2711456908188693,-0.2973143917823857,-10.660977771873597,1.0129536055680597,6.64177915446771,0.7947017514026198
1730865957.083661,-1.9078164100646973,1.1033395528793335,-9.982389450073242,-0.2723718342612969,-0.29818502117985546,-10.657409157341998,1.012545813177729,6.638860204476034,0.7124494050419334
1730865957.1336153,-1.811535358428955,1.1505705118179321,-10.037453651428223,-0.27355067519523857,-0.2988780321401519,-10.653914369324772,1.016422475530295,6.641128547775038,0.843434922777981
1730865957.1835968,-1.684177279472351,1.158101201057434,-10.068291664123535,-0.27468886033025,-0.2993865220281554,-10.650499231954438,1.0163489147632974,6.638743458485472,0.7836784555374611
1730865957.2335598,-1.607757568359375,1.1402833461761475,-10.083259582519531,-0.27579265217479454,-0.29970719830108833,-10.647172087895072,1.015588702745578,6.635613921359273,0.6974261372099794
1730865957.2836456,-1.5794684886932373,1.0847864151000977,-10.054425239562988,-0.2768665027696513,-0.2998401272423946,-10.643943786329894,1.014136992352667,6.631731055160531,0.58445577596619
1730865957.3335211,-1.6266781091690063,1.0333889722824097,-10.00820255279541,-0.2779122604346139,-0.2997880599002457,-10.640827256323176,1.022111512154388,6.617320453136026,0.8380103060696263
1730865957.3835816,-1.7076492309570312,0.985153317451477,-9.948284149169922,-0.27892924385274837,-0.29955551626771126,-10.637836720675178,1.0261755369611942,6.59587902144676,0.8477884352876405
1730865957.4335127,-1.7534598112106323,0.9991579055786133,-9.872818946838379,-0.27991505193678645,-0.2991479178475467,-10.634986674418629,1.0267476408026914,6.58499257436837,0.7907034763106273
1730865957.4836228,-1.761965274810791,1.019677996635437,-9.80775260925293,-0.2808666104655682,-0.29857106746739925,-10.63229078202614,1.0266171897825795,6.573356054618371,0.7069660732003819
1730865957.5335631,-1.7332777976989746,1.0601274967193604,-9.740081787109375,-0.28178090280030993,-0.29783109419691894,-10.62976082789584,1.02578816601264,6.561041254736643,0.5972563387956379
1730865957.5835302,-1.7360866069793701,1.0578792095184326,-9.706241607666016,-0.28265518902502185,-0.29693469633368696,-10.627405848246463,1.0242496173727793,6.54791844639063,0.46041128066309156
1730865957.633568,-1.7078824043273926,1.0534155368804932,-9.675688743591309,-0.2834869098786452,-0.29588937035781115,-10.625231553941376,1.0303355410651809,6.5660248278404465,0.8349560318116507
1730865957.683474,-1.7233083248138428,1.0290294885635376,-9.678693771362305,-0.28427353549736206,-0.2947034147338841,-10.623240099466345,1.0297951748850467,6.557931396001252,0.7726303061085348
1730865957.733404,-1.7296462059020996,1.0342074632644653,-9.693284034729004,-0.285012500060028,-0.29338572806079494,-10.621430194139183,1.0349595243503877,6.5387901587622785,0.842234550005105
1730865957.7834828,-1.7782323360443115,1.0552161931991577,-9.738544464111328,-0.2857013062930992,-0.291945593962349,-10.61979752873177,1.0353635998922508,6.52540566477797,0.7827050064624583
1730865957.833414,-1.8271551132202148,1.1032934188842773,-9.756502151489258,-0.2863378475819346,-0.29039265723089724,-10.618335445781321,1.0350515371674922,6.511364136961195,0.6969762769929194
1730865957.8834038,-1.8970963954925537,1.1459044218063354,-9.80887222290039,-0.2869209329313199,-0.28873716126278187,-10.617035708231526,1.0340246425709716,6.496589041684763,0.5847061757194865
1730865957.933347,-1.9201931953430176,1.1988476514816284,-9.833016395568848,-0.28745090171549437,-0.28699035679202295,-10.615889245068185,1.038583537096212,6.511223097279636,0.8369413706999663
1730865957.983341,-1.93211030960083,1.2210768461227417,-9.855461120605469,-0.2879301014030784,-0.2851649228277124,-10.614886809215996,1.0380100942377357,6.502356663651758,0.7754753924937532
1730865958.0332818,-1.8952357769012451,1.1917591094970703,-9.863088607788086,-0.28836300721953434,-0.2832752039254566,-10.614019468821063,1.0430598827405038,6.50380937186606,0.8428182587506873
1730865958.0833924,-1.8952357769012451,1.1917591094970703,-9.863088607788086,-0.28875594396334214,-0.2813370916047584,-10.613278883784632,1.0433729787233592,6.496524280354445,0.7831502176249502
1730865958.0833924,-1.8420480489730835,1.143674373626709,-9.883455276489258,-0.28911656383287776,-0.279367579558606,-10.612657415820035,1.0433726607099656,6.496480186152512,0.7827279444338152
1730865958.1332362,-1.7618697881698608,1.129366159439087,-9.8805570602417,-0.2894531812131545,-0.2773841661207652,-10.61214817246536,1.04594402649542,6.496093186402559,0.8478450692854085
1730865958.1833367,-1.694387674331665,1.115341305732727,-9.905627250671387,-0.28977391202681435,-0.275404252572952,-10.611745048374544,1.0460190791231225,6.489597168220731,0.7924980721624375
1730865958.2332082,-1.6100733280181885,1.094612956047058,-9.931663513183594,-0.29008566830698784,-0.27344465416123487,-10.611442795150301,1.0453721116087784,6.482485648683291,0.7113254933843739
1730865958.2832747,-1.5418109893798828,1.0807050466537476,-9.972339630126953,-0.2903931933211358,-0.2715212439269842,-10.611237173902996,1.049839424036833,6.486741847385722,0.8418094727509277
1730865958.3331993,-1.499990701675415,1.0729589462280273,-10.015694618225098,-0.2906982785121126,-0.2696486774067117,-10.611125213384112,1.0520404551712075,6.478771824692139,0.8484261655500016
1730865958.383289,-1.4388550519943237,1.0682786703109741,-10.016959190368652,-0.29099924895768087,-0.2678402023474562,-10.611105493367212,1.051976699424484,6.47234883400381,0.7913370704854358
1730865958.4332135,-1.4234479665756226,1.0768064260482788,-10.036955833435059,-0.2912907266284149,-0.266107580263918,-10.611178299281002,1.0552835184421085,6.471616432843449,0.8419393913026435
1730865958.4831707,-1.4432932138442993,1.1116139888763428,-10.005428314208984,-0.29156367904716785,-0.26446114583828406,-10.611345548136965,1.0555178260628737,6.4657804670378685,0.782624751906537
1730865958.5341525,-1.5085569620132446,1.1484904289245605,-9.962830543518066,-0.2918058788141474,-0.2629100514336006,-10.611610460401167,1.0550117114260988,6.45920328524312,0.695567351893082
1730865958.5831633,-1.5824558734893799,1.1850098371505737,-9.87814998626709,-0.2920028479012394,-0.26146268122310784,-10.611976936607308,1.0567647516951861,6.459606219356069,0.8378036823898404
1730865958.6341417,-1.7026240825653076,1.1562330722808838,-9.797066688537598,-0.29213918057571897,-0.26012706305849637,-10.612448640357231,1.0559941775321733,6.454030745824469,0.7759373132295837
1730865958.6841717,-1.8434793949127197,1.0966352224349976,-9.701960563659668,-0.2922001134217862,-0.25891098275675034,-10.613027906805016,1.0544922119064375,6.447877054869378,0.6879988308188132
1730865958.7341104,-1.9647480249404907,1.0394996404647827,-9.635427474975586,-0.29217323752024005,-0.257821617768041,-10.613714663132054,1.052282906118189,6.441153285167841,0.5747501762713029
1730865958.7841659,-2.0362460613250732,0.9632866978645325,-9.589738845825195,-0.2920501017214043,-0.2568648182583167,-10.614505561162332,1.0584177099663414,6.4464671572237275,0.8345415195918705
1730865958.8331368,-2.0580220222473145,0.9396564364433289,-9.595098495483398,-0.29182731818974955,-0.2560443303718427,-10.615393509182697,1.057401262500652,6.441469172060415,0.7744283942901723
1730865958.8841126,-2.0260348320007324,0.9472898840904236,-9.640368461608887,-0.29150689537766156,-0.25536125389059344,-10.616367744611996,1.059446451705118,6.4325676001522325,0.8398509771673233
1730865958.9341154,-1.9630955457687378,1.0134309530258179,-9.721592903137207,-0.29109576978195584,-0.2548139935652242,-10.61741449676354,1.0583262324982996,6.426035260734515,0.7801738340178829
1730865958.984118,-1.895137906074524,1.0919886827468872,-9.815616607666016,-0.2906047170817314,-0.2543988113008476,-10.618518150787576,1.0606838239246104,6.416430158734849,0.8410380196346305
1730865959.0339692,-1.8222602605819702,1.1473636627197266,-9.905097961425781,-0.2900469492486289,-0.2541108198079623,-10.61966269105449,1.059661088169837,6.408242215188014,0.7820189914441632
1730865959.0840662,-1.7455374002456665,1.1361726522445679,-9.956357955932617,-0.2894366800736138,-0.2539450029103514,-10.620833122973792,1.0635067578206137,6.398678093111323,0.8412042462528837
1730865959.1339521,-1.700907826423645,1.1482601165771484,-10.000899314880371,-0.28878783089187965,-0.253896837964535,-10.622016585888257,1.0631850019523439,6.388169666723523,0.7823024189225788
1730865959.1839936,-1.7207727432250977,1.1174755096435547,-10.020934104919434,-0.2881130586690067,-0.25396243310489236,-10.623203021812348,1.06212787891215,6.376857384670538,0.6955992634186315
1730865959.233999,-1.7523990869522095,1.134559988975525,-9.988039016723633,-0.28742333673705556,-0.25413839104382313,-10.624385401415843,1.064301418955818,6.387000971968492,0.8411697204541986
1730865959.2839696,-1.8286563158035278,1.1376848220825195,-9.950651168823242,-0.28672815520814265,-0.25442164012250407,-10.625559498331775,1.063218536178048,6.380243105243545,0.7811546326237836
1730865959.3339097,-1.8731988668441772,1.1633003950119019,-9.883402824401855,-0.286036159510626,-0.2548093821777592,-10.626723243792284,1.066396252272642,6.37323493384193,0.8476806649154691
1730865959.3839538,-1.87714421749115,1.2097761631011963,-9.829784393310547,-0.2853558877443581,-0.2552992029525887,-10.627875822642228,1.0681366370392884,6.368104591456666,0.8554962575947247
1730865959.43391,-1.87714421749115,1.2097761631011963,-9.829784393310547,-0.28469624306953384,-0.2558893083663992,-10.62901676416391,1.0676064269220165,6.361638141868298,0.800775331218399
1730865959.43391,-1.8527741432189941,1.2444229125976562,-9.779115676879883,-0.2840665558238599,-0.2565787619256799,-10.630145276154483,1.0676014621322774,6.361599881341578,0.8003929027391046
1730865959.483997,-1.7791498899459839,1.2536530494689941,-9.761033058166504,-0.28347629766927385,-0.2573676212064198,-10.631259842780592,1.0663558653513348,6.354420707027107,0.7185155960281201
1730865959.5338774,-1.7433054447174072,1.2289862632751465,-9.7857084274292,-0.2829345061184904,-0.25825695683083294,-10.632357980527084,1.0700386318340953,6.336489823797327,0.856514522901946
1730865959.583923,-1.7001326084136963,1.2023404836654663,-9.813427925109863,-0.282449068051974,-0.2592486763502393,-10.633436242680034,1.0692537910626,6.325489702768172,0.8005724758411605
1730865959.6338441,-1.658395528793335,1.1724835634231567,-9.855494499206543,-0.28202609999877193,-0.2603451091116944,-10.634490563036671,1.0716746997082631,6.304399790041818,0.8589924857565533
1730865959.6838272,-1.589672565460205,1.1396898031234741,-9.88569164276123,-0.2816694722147045,-0.26154847650437263,-10.635516798051361,1.0733391862009942,6.284607491888144,0.8625861248373347
1730865959.733828,-1.5081108808517456,1.1046420335769653,-9.922158241271973,-0.2813803357040258,-0.26286037345143387,-10.636511280312625,1.0728886984254489,6.2686463700919965,0.8066350349912829
1730865959.7838185,-1.4295170307159424,1.1049782037734985,-9.95274543762207,-0.28115656184308924,-0.2642813280772627,-10.637471292578358,1.071735247552645,6.252075372583625,0.7242216967675958
1730865959.833836,-1.4295170307159424,1.1049782037734985,-9.95274543762207,-0.28099222333611756,-0.2658105404025404,-10.63839541599184,1.0698798189015164,6.234848088746703,0.6152544994460635
1730865959.833836,-1.4276865720748901,1.1359474658966064,-9.951932907104492,-0.2808774288970982,-0.26744588226597216,-10.639283680666496,1.0698673266243208,6.23474875199439,0.6145625144331709
1730865959.8838398,-1.4276865720748901,1.1359474658966064,-9.951932907104492,-0.2807986540095321,-0.26918411989489177,-10.640137493803014,1.0737335771539587,6.256026158271794,0.851292546710847
1730865959.8838398,-1.4848183393478394,1.1582427024841309,-9.916403770446777,-0.2807394062182043,-0.271021222856759,-10.640959413065433,1.073729009121048,6.2559677466985,0.8510430419159887
1730865959.9337692,-1.4848183393478394,1.1582427024841309,-9.916403770446777,-0.2806810629163293,-0.2729526409601408,-10.641752817496986,1.075606152550219,6.231341773191412,0.8669033205217748
1730865959.9337692,-1.5948827266693115,1.1681678295135498,-9.850994110107422,-0.2806038254386186,-0.2749735123302651,-10.642521496322637,1.0756047604962338,6.231268171575823,0.8667084046137199
1730865959.9839382,-1.7093874216079712,1.1369863748550415,-9.79179573059082,-0.280487853287106,-0.27707877615164583,-10.643269128270521,1.074973433875898,6.216394532922933,0.8147178807569192
1730865960.0338023,-1.8193243741989136,1.1080282926559448,-9.737626075744629,-0.2803146904285417,-0.27926312016154975,-10.643998609234934,1.0774469199096086,6.226515637168191,0.8667453975730255
1730865960.083812,-1.884267807006836,1.1029753684997559,-9.714607238769531,-0.28006878170611615,-0.2815207646132062,-10.64471136622019,1.0768617868612576,6.219372514335322,0.8132889774718235
1730865960.1337838,-1.9105286598205566,1.1115912199020386,-9.716594696044922,-0.27973862828845575,-0.28384525830982044,-10.645406917498189,1.0755776532507497,6.211527296964978,0.7332670832106865
1730865960.1837988,-1.9257912635803223,1.116139531135559,-9.744019508361816,-0.27931732294889866,-0.28622946187446596,-10.646082827375617,1.0787982987867473,6.210119686133867,0.8557728809916348
1730865960.2337227,-1.9447674751281738,1.1083884239196777,-9.78177261352539,-0.2788025433770937,-0.2886656811385873,-10.646735045201156,1.0779095398437633,6.202153700520996,0.796308846155064
1730865960.28374,-1.942165493965149,1.0875669717788696,-9.824285507202148,-0.2781962487931672,-0.29114578352960746,-10.647358511715797,1.080431260108932,6.192371665995307,0.8549393069101706
1730865960.3336928,-1.9253342151641846,1.0885087251663208,-9.844911575317383,-0.2775042261350069,-0.2936612102016934,-10.647947856185265,1.0797182271368422,6.182383987393579,0.7960966750304469
1730865960.383695,-1.9253342151641846,1.0885087251663208,-9.844911575317383,-0.2767355075106152,-0.2962029550362706,-10.648497983800077,1.0783094930689,6.171595954627129,0.7103177090018152
1730865960.383695,-1.8715403079986572,1.0781447887420654,-9.8873929977417,-0.2759016935694127,-0.2987616037266274,-10.649004446741449,1.0782992629338772,6.171530968204769,0.7097402240685717
1730865960.4336674,-1.8378441333770752,1.0401469469070435,-9.917705535888672,-0.27501618728466265,-0.3013273764634694,-10.649463710589302,1.0762156584257085,6.160085421826841,0.5981597316195205
1730865960.48365,-1.7672381401062012,1.032460331916809,-9.951805114746094,-0.274093311607409,-0.30389006241046057,-10.649873466930652,1.084285349695342,6.177346675237946,0.8486740155000508
1730865960.5337403,-1.7021394968032837,1.0370874404907227,-9.975760459899902,-0.27314734419910736,-0.3064389082679344,-10.650232958846818,1.0836215965770712,6.171268323424136,0.7893419437709907
1730865960.5838394,-1.65043306350708,1.073177456855774,-10.0149564743042,-0.27219154764655196,-0.3089626640685138,-10.65054323153376,1.0890483398934665,6.164406932124263,0.847327477354561
1730865960.6337297,-1.6014059782028198,1.14634108543396,-10.020565032958984,-0.27123731689936037,-0.31144993186258585,-10.65080729578705,1.089338169841958,6.15682039722881,0.787345871122713
1730865960.6836996,-1.6014059782028198,1.14634108543396,-10.020565032958984,-0.2702935843193547,-0.31388977917288824,-10.651030165143244,1.0935407581796885,6.148429982686179,0.8426545087561947
1730865960.6836996,-1.5850491523742676,1.22859787940979,-9.987622261047363,-0.2693665683759971,-0.31627239591725687,-10.651218675602387,1.0935456623073172,6.148382300889781,0.8423959956811083
1730865960.733647,-1.6096011400222778,1.2526041269302368,-9.945744514465332,-0.268459853393435,-0.3185896551510975,-10.651381043371751,1.0941108562557667,6.139230556971488,0.7816371839895188
1730865960.7837098,-1.665219783782959,1.2559261322021484,-9.857342720031738,-0.2675747521639054,-0.3208355600175856,-10.651526166584674,1.0940090201358872,6.129250504243175,0.6940931841657504
1730865960.8336103,-1.7471556663513184,1.2027697563171387,-9.769553184509277,-0.26671098122719616,-0.3230063924727605,-10.651662681297651,1.0932419111523146,6.118491637775518,0.5802169791507271
1730865960.8836133,-1.8258168697357178,1.1118991374969482,-9.667461395263672,-0.265867644554596,-0.32510033127116683,-10.651797835549381,1.0963935025983587,6.106852973017204,0.8423639621363109
1730865960.9335773,-1.8258168697357178,1.1118991374969482,-9.667461395263672,-0.2650442837577425,-0.32711662191709545,-10.65193641496346,1.0960006705173597,6.094472866994446,0.7828498360948865
1730865960.9335773,-1.8815194368362427,1.0185134410858154,-9.608986854553223,-0.26424163610617135,-0.3290546787346319,-10.652080055767932,1.0959967212400563,6.094403133508593,0.782452696848675
1730865960.9835758,-1.8815194368362427,1.0185134410858154,-9.608986854553223,-0.26346200047778723,-0.33091337421260303,-10.652227040938913,1.0999475920952961,6.081159191162585,0.8426152225200124
1730865960.9835758,-1.8734042644500732,0.954424262046814,-9.58102798461914,-0.26270933442826194,-0.33269051164999347,-10.652372392718823,1.099949304803569,6.08108851260692,0.842394182944061
1730865961.033538,-1.8734042644500732,0.954424262046814,-9.58102798461914,-0.26198912109323474,-0.33438246979988184,-10.652508115055308,1.0999529995076742,6.067106199820318,0.786746069711558
1730865961.033538,-1.824157476425171,0.9195178747177124,-9.613903045654297,-0.26130802509873013,-0.3359840271383079,-10.652623577659277,1.0999511054867837,6.0670214054569245,0.7863404319958373
1730865961.0836797,-1.7324042320251465,0.9404146075248718,-9.695297241210938,-0.2606733311503352,-0.33748836026663503,-10.652706144876987,1.0993014022007497,6.052134893365408,0.7038014458629497
1730865961.133535,-1.6441199779510498,0.9858413338661194,-9.814929962158203,-0.2600920619448825,-0.3388872745343151,-10.65274220281777,1.101141213111238,6.0363326740508425,0.8512825463766357
1730865961.1836119,-1.5686087608337402,1.074684739112854,-9.920032501220703,-0.2595698530797441,-0.34017178279809074,-10.65271858061421,1.1004410509971179,6.019684806678739,0.798107128519691
1730865961.2334654,-1.542607307434082,1.151999592781067,-10.003628730773926,-0.25910992312048203,-0.34133306014211107,-10.65262409811626,1.1011192312790243,6.002183691538782,0.8499672841923421
1730865961.283573,-1.5542049407958984,1.2301385402679443,-10.041191101074219,-0.2587124810500573,-0.34236359062323307,-10.652450846620166,1.1000463418224844,5.98383248779472,0.7939933191155429
1730865961.3333614,-1.5542049407958984,1.2301385402679443,-10.041191101074219,-0.25837469958485615,-0.34325817941334275,-10.65219490869749,1.0983393494090428,5.964762931919451,0.711978682782293
1730865961.3333614,-1.6225168704986572,1.2406723499298096,-10.066964149475098,-0.2580911419630593,-0.34401451913801884,-10.651856473706102,1.098328085019522,5.9646546573237815,0.7114496382117282
1730865961.3834236,-1.7253564596176147,1.2138913869857788,-10.027120590209961,-0.25785455177337874,-0.34463321444116296,-10.651439533465924,1.0959734117408366,5.944686385109832,0.6026820440056885
1730865961.4334004,-1.8377536535263062,1.1672279834747314,-9.96264362335205,-0.2576570418466899,-0.34511739385360396,-10.650951281315738,1.1010845410273402,5.923676870493673,0.8463438914324187
1730865961.4834306,-1.8791604042053223,1.118408203125,-9.90227222442627,-0.25749150657910735,-0.345472043025463,-10.65040118046681,1.0997946808987058,5.901869990723885,0.7887402772201467
1730865961.5334456,-1.8703622817993164,1.049418330192566,-9.87574577331543,-0.2573527513176834,-0.3457031576586304,-10.649799840980137,1.102265580204898,5.879127913554007,0.852050020632231
1730865961.5833516,-1.7904411554336548,0.9940613508224487,-9.860814094543457,-0.2572378684993371,-0.3458168338971149,-10.649158054152641,1.1027678404795591,5.855531249713344,0.8602397179939913
1730865961.6333067,-1.6464136838912964,0.9628157019615173,-9.86606502532959,-0.25714570002041437,-0.3458184296963076,-10.648486200110202,1.1017841119687495,5.831201407763744,0.8062355536280247
1730865961.683353,-1.5627888441085815,0.9482263922691345,-9.848698616027832,-0.2570755563909525,-0.34571196132644455,-10.64779398452923,1.1001424146838616,5.805792591093332,0.7248699318435106
1730865961.7333167,-1.562458872795105,0.9341247081756592,-9.841981887817383,-0.2570257698758192,-0.3454998279167444,-10.647090327210535,1.097881858332601,5.779847838281083,0.6180407720817084
1730865961.783527,-1.5797141790390015,0.9555282592773438,-9.840194702148438,-0.25699282578807775,-0.3451828198058447,-10.64638327575262,1.102566634388548,5.752465805967453,0.8468447951826101
1730865961.8334281,-1.5797141790390015,0.9555282592773438,-9.840194702148438,-0.2569713057770462,-0.34476033872082124,-10.645679951817588,1.1011967660215345,5.72484077846502,0.7858166711915258
1730865961.8334281,-1.656130313873291,1.0449622869491577,-9.828990936279297,-0.25695432087115194,-0.3442308148801821,-10.64498655344564,1.1011876066326713,5.724688595764121,0.7854140131795936
1730865961.883437,-1.656130313873291,1.0449622869491577,-9.828990936279297,-0.2569341517293259,-0.3435923288936102,-10.644308371187485,1.0991724493563824,5.696107052072645,0.6976376809461766
1730865961.883437,-1.7408385276794434,1.130565881729126,-9.812065124511719,-0.2569029737657026,-0.3428433390083506,-10.643649785010936,1.099159759913547,5.695949457301404,0.6970886646489854
1730865961.933372,-1.8037424087524414,1.1793253421783447,-9.80042552947998,-0.2568536104822281,-0.34198339073396145,-10.643014235545092,1.0965185378025961,5.666666027807435,0.5833952333993772
1730865961.9834905,-1.8700915575027466,1.1633671522140503,-9.820185661315918,-0.25678034470835587,-0.3410137375198298,-10.642404194902332,1.1030719845622214,5.635916371791294,0.8547463002018739
1730865962.0333447,-1.9134926795959473,1.100498914718628,-9.80792236328125,-0.2566797029521871,-0.33993760149469665,-10.641821213671074,1.1018315252431048,5.604817012836682,0.7987176077963192
1730865962.083408,-1.9134926795959473,1.100498914718628,-9.80792236328125,-0.2565509910134386,-0.338759853989007,-10.641266039670974,1.1032661946650446,5.572371238208381,0.8548782211046532
1730865962.083408,-1.9817607402801514,0.9967160820960999,-9.799867630004883,-0.25639649000595466,-0.3374863371638741,-10.640738709426614,1.103260792743602,5.572190478379225,0.8546294528417601
1730865962.1332574,-1.9817607402801514,0.9967160820960999,-9.799867630004883,-0.25622145629858234,-0.3361231070005003,-10.640238591517438,1.1019848291701206,5.539619308171266,0.7972939351806286
1730865962.1332574,-2.009242534637451,0.8998187184333801,-9.762540817260742,-0.2560340533641132,-0.3346756963384156,-10.639764398733007,1.1019759676042986,5.539435578356295,0.7969017172192493
1730865962.1833553,-2.0146119594573975,0.8520634174346924,-9.732019424438477,-0.25584517132334184,-0.33314843274296735,-10.63931410417872,1.102876767414272,5.505362929353201,0.8627535036338401
1730865962.2332752,-1.9653370380401611,0.8578269481658936,-9.763777732849121,-0.25566806997581415,-0.3315438550011286,-10.638884780801192,1.102900791255246,5.470533370659751,0.8630187221649843
1730865962.2832632,-1.8760980367660522,0.9307280778884888,-9.811843872070312,-0.2555177251650522,-0.32986250190930744,-10.638472625800034,1.101560800731094,5.435090443494301,0.8092942116558859
1730865962.3331802,-1.7786275148391724,1.0387083292007446,-9.875558853149414,-0.25540974380599657,-0.32810340897823953,-10.638073393274325,1.0995886683303397,5.398930118455891,0.7292394784288272
1730865962.3832405,-1.7020138502120972,1.1243410110473633,-9.926508903503418,-0.25535898331231793,-0.32626525425793035,-10.637683131644796,1.0969667855880068,5.3617663665790545,0.6221304325639271
1730865962.4332123,-1.6601722240447998,1.1989141702651978,-9.964488983154297,-0.2553782488069864,-0.32434772510956283,-10.637298949401586,1.1027818073263256,5.32353500379917,0.8475604489249517
1730865962.4832904,-1.6342209577560425,1.2611186504364014,-9.975395202636719,-0.2554773902493386,-0.3223526821260179,-10.636919584761696,1.101347847941389,5.284741944492602,0.7863145775968424
1730865962.5331616,-1.622498869895935,1.2675787210464478,-9.962905883789062,-0.25566289016681837,-0.32028491748858956,-10.636545649890085,1.103541970328756,5.244963399422036,0.8513290036794476
1730865962.5832772,-1.639206886291504,1.2061913013458252,-9.937066078186035,-0.25593785571073857,-0.3181523733497804,-10.636179514850749,1.102291794061351,5.204499499246337,0.7918841902271418
1730865962.6331246,-1.6860491037368774,1.1449236869812012,-9.880510330200195,-0.2563023440802545,-0.3159656865888617,-10.635824875652457,1.1004143114262575,5.163568989255402,0.7064488583046763
1730865962.6834114,-1.7109571695327759,1.0855287313461304,-9.83228588104248,-0.2567539816204903,-0.31373718928829886,-10.635486086017838,1.1043768388086481,1.689939858028054,0.8471401748082844
1730865962.7330935,-1.709753394126892,1.0741137266159058,-9.788422584533691,-0.25728869390736714,-0.3114797899819136,-10.635167378876867,1.103164617304281,1.6850032295555404,0.7860905930956611
1730865962.7832174,-1.6724727153778076,1.0828081369400024,-9.795247077941895,-0.2579012364232923,-0.30920615029443466,-10.63487218821095,1.1058622428015117,1.679360408628795,0.8549198825901164
1730865962.8330767,-1.6206578016281128,1.0981696844100952,-9.837224006652832,-0.25858532576303606,-0.3069283258738822,-10.634602820560099,1.1049486399350315,1.6728296369282105,0.796329222731524
1730865962.8830912,-1.5427521467208862,1.13316011428833,-9.84755802154541,-0.2593333824934221,-0.30465778620844386,-10.634360582558854,1.1067461621282286,1.665692700087029,0.8592595219374051
1730865962.933006,-1.5629488229751587,1.1618047952651978,-9.863628387451172,-0.2601360950838677,-0.30240564792599733,-10.634146167159678,1.1057798972842976,1.6577219668387093,0.8020416383452939
1730865962.9830446,-1.629149079322815,1.215698003768921,-9.845447540283203,-0.2609822441429904,-0.30018301802029024,-10.633959979142372,1.1041560089648923,1.6489585488281782,0.7179009418351899
1730865963.0340078,-1.629149079322815,1.215698003768921,-9.845447540283203,-0.2618591102293965,-0.2980013629570471,-10.63380225620505,1.1018328459254478,1.639282876632504,0.6050220602200309
1730865963.0340078,-1.6967530250549316,1.2590280771255493,-9.838217735290527,-0.26275324503427766,-0.29587278642727777,-10.633673039580954,1.1018175992610502,1.6392252933475733,0.6042968487131974
1730865963.084012,-1.7413307428359985,1.2730633020401,-9.82457160949707,-0.2636512610863365,-0.2938101733933195,-10.633572099375005,1.107278335273282,1.6288298452541448,0.8528366572235083
1730865963.1339903,-1.7413307428359985,1.2730633020401,-9.82457160949707,-0.2645405539290162,-0.2918272390673983,-10.633498859017227,1.1061071760325032,1.618108821408937,0.7957297817785947
1730865963.1339903,-1.7646113634109497,1.2583575248718262,-9.81188678741455,-0.2654098329656245,-0.28993843697658617,-10.633452328709627,1.1060989276078788,1.6180474558458526,0.7953426263835831
1730865963.1839724,-1.7786732912063599,1.2127102613449097,-9.802888870239258,-0.2662493759017906,-0.2881586395413589,-10.633431055892565,1.1082923545617518,1.606480871661237,0.8625688563562381
1730865963.233917,-1.8130278587341309,1.14822256565094,-9.807696342468262,-0.2670511614312926,-0.28650256753378545,-10.633433089861576,1.107285567209561,1.5941074976829757,0.8081265802469155
1730865963.2838762,-1.809478998184204,1.100132703781128,-9.810400009155273,-0.26780899920586565,-0.2849840121719986,-10.633455992863114,1.105607787891588,1.5809811787569537,0.7269587264647369
1730865963.333905,-1.797210454940796,1.1131501197814941,-9.829365730285645,-0.2685185752743405,-0.28361506413529497,-10.633496939868477,1.1093317106045428,1.5672737047280525,0.8565210850968121
1730865963.383851,-1.7991148233413696,1.125964879989624,-9.836786270141602,-0.2691773127941672,-0.28240568309074465,-10.633552898983494,1.1081759583925423,1.552668300961614,0.7965798335818519
1730865963.4338167,-1.7826963663101196,1.1695894002914429,-9.845488548278809,-0.26978410447192164,-0.28136374854719676,-10.633620840768058,1.1102382413595633,1.53759494069773,0.8533374454035266
1730865963.4838102,-1.7767739295959473,1.2048052549362183,-9.856528282165527,-0.27033902367756646,-0.2804954576729206,-10.633697918442763,1.109164242403812,1.521647831775027,0.7929302970219156
1730865963.5337822,-1.8129676580429077,1.1983704566955566,-9.851751327514648,-0.27084308557512915,-0.2798058297922692,-10.633781594335188,1.1110467147325673,1.5048528501484792,0.8477607196888968
1730865963.5838563,-1.865580439567566,1.1427628993988037,-9.82577133178711,-0.2712982027226655,-0.2792990146185432,-10.63386967575111,1.1099862204398623,1.4877408164773578,0.7873887301615736
1730865963.633715,-1.881205439567566,1.0834192037582397,-9.824111938476562,-0.2717074101766878,-0.27897815215463,-10.6339602123784,1.108176234452809,1.4691691784396377,0.6968518535139523
1730865963.68373,-1.863053321838379,1.0553536415100098,-9.826824188232422,-0.2720751278036122,-0.27884485390068176,-10.63405132967682,1.1120828208662523,1.4511607277278336,0.8465195759390876
1730865963.7337158,-1.8265241384506226,1.0528087615966797,-9.850543975830078,-0.2724071236297136,-0.27889867859232575,-10.634141162948866,1.1108634673102205,1.431226837960105,0.7841964234743694
1730865963.7837036,-1.7715882062911987,1.0776413679122925,-9.877630233764648,-0.2727100806798546,-0.2791369371357797,-10.634227972829958,1.1090322835943673,1.4115267162502458,0.6986805628389968
1730865963.8336518,-1.7354477643966675,1.0973707437515259,-9.941924095153809,-0.2729909118729521,-0.2795548937168424,-10.634310439168237,1.1131049324505935,1.391032845672085,0.8465528628482304
1730865963.8837056,-1.689695954322815,1.1317925453186035,-9.966397285461426,-0.2732560354594899,-0.2801462237375161,-10.634388101664198,1.1119283441321623,1.3694564310839066,0.7858047230287706
1730865963.9335935,-1.6389662027359009,1.1293141841888428,-9.971222877502441,-0.2735107423186064,-0.28090353633556,-10.634461794473854,1.1100711730334962,1.3472423438913506,0.6986269954726986
1730865963.9836588,-1.6623183488845825,1.1505361795425415,-9.938908576965332,-0.2737587176847114,-0.28181880677384674,-10.634533816953825,1.1135999932441993,1.3244827604019511,0.8500835906598148
1730865964.0335605,-1.685981035232544,1.114296793937683,-9.907242774963379,-0.27400187476817106,-0.2828836362900923,-10.634607710956558,1.1122299511994724,1.3002434188015481,0.7882333671306557
1730865964.0836053,-1.685981035232544,1.114296793937683,-9.907242774963379,-0.2742405867246937,-0.2840893142788945,-10.634687778858206,1.1140550435293572,1.2769134838469203,0.8587763612578648
1730865964.0836053,-1.7127622365951538,1.098321795463562,-9.828071594238281,-0.2744741044935992,-0.28542673603931107,-10.634778557787804,1.1140498986819771,1.2767797116254114,0.8585382282302623
1730865964.1335196,-1.7381293773651123,1.0863145589828491,-9.812661170959473,-0.2747009605778808,-0.286886297474099,-10.634884280252596,1.1127573997166271,1.2517680018154347,0.8013213743782037
1730865964.1835907,-1.7394286394119263,1.1070185899734497,-9.751754760742188,-0.27491935424774333,-0.2884578517861853,-10.635008293318307,1.1146254228078203,1.2264722917440183,0.8750828435619017
1730865964.2335656,-1.7394286394119263,1.1070185899734497,-9.751754760742188,-0.2751274633229282,-0.29013077912374086,-10.635152553135569,1.1134179288691004,1.1999837854423347,0.8233516946533649
1730865964.2335656,-1.7783422470092773,1.099996566772461,-9.74980354309082,-0.2753236297348743,-0.2918941516866804,-10.635317341355293,1.1134087948875298,1.1998259282137385,0.8229689020426081
1730865964.2834716,-1.775434136390686,1.1180026531219482,-9.734968185424805,-0.2755065236380814,-0.2937368894034559,-10.635501247878892,1.1115235581819884,1.172791639862041,0.7450917853057267
1730865964.3334875,-1.775434136390686,1.1180026531219482,-9.734968185424805,-0.27567531544589396,-0.2956478900988853,-10.635701311816534,1.1144371637035264,1.1452533753711578,0.878886235353871
1730865964.3334875,-1.7961090803146362,1.0978853702545166,-9.74190616607666,-0.2758297586859103,-0.2976161540090732,-10.635913199213169,1.114431174549518,1.1450959028839616,0.8786589734942237
1730865964.3834748,-1.8024729490280151,1.096219539642334,-9.761283874511719,-0.2759702153647649,-0.29963082463887647,-10.636131440905928,1.113016627575635,1.1165609405633619,0.8247786869903573
1730865964.4334664,-1.8024729490280151,1.096219539642334,-9.761283874511719,-0.2760976972801305,-0.30168114449316996,-10.636349757671917,1.1149770202785607,1.0875892124057864,0.8906852142946131
1730865964.4334664,-1.8615046739578247,1.0873790979385376,-9.789366722106934,-0.2762139227243104,-0.30375643110912576,-10.636561410539493,1.1149714768693235,1.0874086674710468,0.8904535053305774
1730865964.4834557,-1.8615046739578247,1.0873790979385376,-9.789366722106934,-0.276321447141615,-0.30584609506983035,-10.636759529825593,1.1137150062222068,1.0573397221849095,0.8390743119030277
1730865964.4834557,-1.8906596899032593,1.113863468170166,-9.796687126159668,-0.27642385902002203,-0.30793969060619875,-10.636937398705795,1.113706345451614,1.0571750181072588,0.8387246291143319
1730865964.533443,-1.8906596899032593,1.113863468170166,-9.796687126159668,-0.2765258983527582,-0.3100270515995038,-10.63708864805102,1.1117652291944404,1.0264069857615379,0.7610066337934498
1730865964.533443,-1.8843986988067627,1.1354656219482422,-9.818350791931152,-0.2766334280769035,-0.3120985004437304,-10.637207378559587,1.1117495996159983,1.0261938983883048,0.7603845559953095
1730865964.5834439,-1.8520234823226929,1.1645499467849731,-9.829914093017578,-0.27675324131934553,-0.31414506993460883,-10.637288292997752,1.109122952732603,0.9946779860850742,0.656309661544745
1730865964.6334517,-1.8085271120071411,1.176212191581726,-9.861815452575684,-0.2768926662254454,-0.3161587448289159,-10.637326883770458,1.1154399670900175,0.9627484432553355,0.8950318382397144
1730865964.6834452,-1.7181299924850464,1.1627516746520996,-9.876137733459473,-0.2770589480011634,-0.3181326694097723,-10.637319659872652,1.1141747554966823,0.9294628116652925,0.8427495965806004
1730865964.7333987,-1.6924563646316528,1.1392431259155273,-9.905946731567383,-0.2772584510979904,-0.3200611671804841,-10.637264373372584,1.1159568937985418,0.8953746840469571,0.8897715755510661
1730865964.7834475,-1.6710063219070435,1.1597439050674438,-9.915834426879883,-0.27749590885554365,-0.3219395593364446,-10.637160205526632,1.1147463932676522,0.8610482910689832,0.8342160788266129
1730865964.8333828,-1.6623401641845703,1.1732234954833984,-9.910504341125488,-0.27777400029814336,-0.32376399382030413,-10.63700786186224,1.1127734671288905,0.8244995306799348,0.7490775063002515
1730865964.8834436,-1.664509892463684,1.188157320022583,-9.918722152709961,-0.27809328272316713,-0.32553144789652594,-10.636809524599,1.1102042874471183,0.7887366495667867,0.641536073099644
1730865964.933397,-1.664509892463684,1.188157320022583,-9.918722152709961,-0.2784523385671655,-0.32723982595340156,-10.636568695334718,1.116263615038662,5.801013242743398,0.8766455777878772
1730865964.933397,-1.6572636365890503,1.1673773527145386,-9.908549308776855,-0.2788480180918551,-0.3288879831224065,-10.636290005886597,1.116257515569919,5.800998911311797,0.8763770754204302
1730865964.9834638,-1.6591688394546509,1.130024790763855,-9.90406608581543,-0.27927568855634,-0.3304755641576105,-10.635979001176459,1.114806902465161,5.798001286947235,0.8146108496482352
1730865965.0333724,-1.6591688394546509,1.130024790763855,-9.90406608581543,-0.2797294599411245,-0.33200266782553167,-10.635641893421973,1.1175058186647568,5.8273316049889585,0.8848406078813876
1730865965.0333724,-1.6374982595443726,1.1253414154052734,-9.897210121154785,-0.2802023898270471,-0.3334695100182241,-10.635285338890151,1.1175016976945107,5.827288581187038,0.8845946258257626
1730865965.0834715,-1.6542800664901733,1.1127800941467285,-9.890379905700684,-0.2806866465636439,-0.3348762364282243,-10.634916250329432,1.1183022727602492,5.820162881048004,0.8897409571363214
1730865965.1333466,-1.6624219417572021,1.1077226400375366,-9.87459659576416,-0.28117367790475334,-0.3362228377580195,-10.634541607156818,1.1173719150032153,5.809892807546486,0.8376579488826975
1730865965.183495,-1.6803877353668213,1.1172305345535278,-9.872438430786133,-0.28165447327095244,-0.33750909483562486,-10.634168249182899,1.1157216158063736,5.7986661823578665,0.7581940640217769
1730865965.2333581,-1.6642932891845703,1.1443051099777222,-9.851571083068848,-0.2821198740521784,-0.33873461164612806,-10.633802677086903,1.1185093858413127,5.806784508261323,0.8745618472233404
1730865965.2835011,-1.676072597503662,1.1518168449401855,-9.866317749023438,-0.28256080336746586,-0.339898990578163,-10.633450889376533,1.1171751066056979,5.799375477277884,0.8147135868086613
1730865965.3333554,-1.688549518585205,1.173169493675232,-9.839729309082031,-0.2829684104150937,-0.3410020781783585,-10.633118277354814,1.1190942169504892,5.790928471365756,0.8741509720370351
1730865965.3832452,-1.7406500577926636,1.1670211553573608,-9.839791297912598,-0.2833342706501323,-0.3420441674890706,-10.632809552323604,1.1178376300619675,5.781449745296384,0.8153093107075915
1730865965.4331973,-1.7406500577926636,1.1670211553573608,-9.839791297912598,-0.2836507249171634,-0.34302609181005517,-10.632528673045664,1.1199404330901293,5.781815663107672,0.8732741394660583
1730865965.4331973,-1.7592371702194214,1.1434805393218994,-9.807424545288086,-0.2839112337277606,-0.3439491829413953,-10.632278788422102,1.1199357261693128,5.781773015751388,0.8730091288545027
1730865965.4832108,-1.7919294834136963,1.1425443887710571,-9.786770820617676,-0.2841106105554574,-0.3448151122211776,-10.632062148901149,1.118766309526778,5.7739661874347465,0.8138780551276569
1730865965.5332005,-1.8289555311203003,1.1339582204818726,-9.734051704406738,-0.2842452104320593,-0.3456256962121543,-10.631879902935093,1.1168860906026183,5.765284619928586,0.7281265837595491
1730865965.5832748,-1.906752586364746,1.1017496585845947,-9.722082138061523,-0.2843132225729272,-0.34638272385122726,-10.631731804604149,1.120598071794107,5.763724589154076,0.8777429027920555
1730865965.6332035,-1.906752586364746,1.1017496585845947,-9.722082138061523,-0.2843150658312048,-0.3470877727267453,-10.631615979448236,1.1193360660552276,5.755348325099231,0.8210310420453598
1730865965.6332035,-1.9440362453460693,1.0649313926696777,-9.711519241333008,-0.28425369986027316,-0.34774200371555214,-10.631528894637826,1.1193272573880222,5.755300236275875,0.8206496517864745
1730865965.6832056,-1.9440362453460693,1.0649313926696777,-9.711519241333008,-0.2841346890294914,-0.348345974450858,-10.631465509126787,1.1181463152841964,5.743744559597073,0.8800002327106827
1730865965.6832056,-1.954621434211731,1.0486096143722534,-9.747272491455078,-0.2839660561830362,-0.3488995024606619,-10.631419514737567,1.1181361097412752,5.743685137002647,0.8797710987250182
1730865965.733109,-1.9300211668014526,1.0519165992736816,-9.785317420959473,-0.2837579942832108,-0.349401612921117,-10.631383719828822,1.1159098287872542,5.732402060646294,0.8242941302116911
1730865965.7832572,-1.8917458057403564,1.0662336349487305,-9.863221168518066,-0.2835224078411622,-0.34985059693337217,-10.631350654889467,1.1130406947450842,5.720544745930748,0.7440074139088974
1730865965.8331983,-1.8261340856552124,1.0515388250350952,-9.917787551879883,-0.28327223763404785,-0.35024416538258407,-10.631313366730371,1.1094386998752386,5.707691204357741,0.6365275318138052
1730865965.8832433,-1.7325536012649536,1.0188775062561035,-9.973783493041992,-0.28302055373805346,-0.3505795834918688,-10.631266262899407,1.116260774570038,5.729195377336499,0.8788873265887664
1730865965.9331484,-1.6438817977905273,1.0134690999984741,-9.997303009033203,-0.2827794525082705,-0.3508536535581113,-10.631205810566353,1.1143029274505134,5.722807146318305,0.8215747159861658
1730865965.9832146,-1.6068297624588013,1.0392526388168335,-10.010113716125488,-0.2825589279219507,-0.3510626434065196,-10.631130940135389,1.1143812185029773,5.71008575109096,0.8761533888819719
1730865966.0331244,-1.5930547714233398,1.1113393306732178,-9.983500480651855,-0.28236604104785135,-0.35120244526317745,-10.631043093861203,1.112072113057091,5.699903494441094,0.8179867351591575
1730865966.0831685,-1.6152253150939941,1.2080261707305908,-9.939994812011719,-0.28220463310555866,-0.3512691569849179,-10.630945905942621,1.1123484771135772,5.691449311925128,0.8729431874793101
1730865966.1329873,-1.6628810167312622,1.2549554109573364,-9.904179573059082,-0.2820755858507373,-0.3512600060074029,-10.630844568485777,1.1098992072784755,5.6806478640548645,0.8141672461502305
1730865966.183079,-1.7237470149993896,1.2498868703842163,-9.840123176574707,-0.28197750473053035,-0.3511742238782232,-10.630745031507534,1.1067225164757208,5.668874919349404,0.7282556389053922
1730865966.232996,-1.7540323734283447,1.1959750652313232,-9.810408592224121,-0.2819076340549297,-0.35101339659472164,-10.630653186086041,1.1106202688818032,5.6728435480669654,0.8680975419316228
1730865966.282932,-1.7761001586914062,1.1373709440231323,-9.77637004852295,-0.2818627291030871,-0.35078111667810635,-10.630574148139694,1.1116571566654871,5.657679649853388,0.8763784935827664
1730865966.3329697,-1.7739691734313965,1.080772876739502,-9.734260559082031,-0.28183965786310383,-0.3504821525706469,-10.630511724664757,1.1100446240835058,5.646627457367563,0.8194443991151196
1730865966.3838212,-1.7863746881484985,1.0190056562423706,-9.72805404663086,-0.2818356955431994,-0.3501214827427528,-10.630468052219477,1.1123542613609487,5.644891658365866,0.8699165196419091
1730865966.4338863,-1.7863746881484985,1.0190056562423706,-9.72805404663086,-0.2818486244887455,-0.3497034584985097,-10.630443415324372,1.1109743347039387,5.635076976876692,0.81012168466473
1730865966.4338863,-1.763444423675537,0.9958710074424744,-9.702902793884277,-0.2818767326906131,-0.34923127579394087,-10.63043627476168,1.1109263852469176,5.634794298006056,0.8080997533029527
1730865966.4838243,-1.7485802173614502,0.980993390083313,-9.72205638885498,-0.28191869562610583,-0.34870678045805514,-10.630443419017919,1.1088915046807732,5.624389784394513,0.7238171118262199
1730865966.5338418,-1.7739217281341553,0.9647471904754639,-9.749009132385254,-0.2819733818407217,-0.3481304400403939,-10.630460199961352,1.1133672475974952,5.629486552180731,0.8722265592560786
1730865966.5839176,-1.776928424835205,1.0090956687927246,-9.792386054992676,-0.2820397604647773,-0.34750140350723224,-10.630480949645062,1.1120650159806629,5.621807717378708,0.8144370131630759
1730865966.6337254,-1.776928424835205,1.0090956687927246,-9.792386054992676,-0.2821169641094952,-0.3468177485878471,-10.630499548339673,1.1143161363747935,5.609921903307851,0.8728697971980591
1730865966.6337254,-1.7719019651412964,1.0469619035720825,-9.85647201538086,-0.28220435662184096,-0.346076910362614,-10.630509973687358,1.114312766388729,5.60988080864509,0.8726857999704823
1730865966.6840096,-1.742720127105713,1.0767850875854492,-9.918389320373535,-0.28230148787461595,-0.34527616138719097,-10.630506829705272,1.1131227773957153,5.599319914458224,0.8138138728017268
1730865966.733826,-1.7308605909347534,1.0838773250579834,-9.983128547668457,-0.28240792404897685,-0.34441307339035465,-10.630485990503631,1.1156584369638798,5.6021419400465815,0.8790563748551387
1730865966.7839155,-1.7244657278060913,1.1198302507400513,-10.016728401184082,-0.2825230197204627,-0.3434859048536666,-10.630445295588174,1.1147080902662703,5.594586030359621,0.8237306425460809
1730865966.8337839,-1.7244657278060913,1.1198302507400513,-10.016728401184082,-0.28264575471980413,-0.342493877495221,-10.630385040460052,1.116466384904855,5.583245991678401,0.8745441299968193
1730865966.8337839,-1.6922295093536377,1.1217204332351685,-10.01152515411377,-0.282774664762834,-0.3414373397319441,-10.630308078120587,1.1164632239311587,5.583209791467754,0.8743581680643912
1730865966.8839517,-1.6949405670166016,1.091368556022644,-10.003122329711914,-0.2829077739619992,-0.3403177597458818,-10.630219560663487,1.1153477552025706,5.574099429498435,0.8163336487441768
1730865966.9338105,-1.6541407108306885,1.079060673713684,-9.937772750854492,-0.2830424854725099,-0.3391375133086047,-10.630126449818288,1.1176726743428247,5.560593101367534,0.8798741056910881
1730865966.9837117,-1.6971153020858765,1.0559735298156738,-9.882655143737793,-0.2831754949078682,-0.3378995480529233,-10.63003681406036,1.116714770744834,5.549220771075481,0.8253103472635186
1730865967.0336804,-1.7184339761734009,1.0200108289718628,-9.829143524169922,-0.283302871098713,-0.3366070235479828,-10.629958929031845,1.1196899809652245,5.547830573697405,0.8755893822433196
1730865967.0837424,-1.7796587944030762,0.9819168448448181,-9.78043270111084,-0.28342041926975486,-0.33526293183379274,-10.629900364395567,1.1191960021162626,5.53723366655935,0.817837325120214
1730865967.1336548,-1.7767276763916016,0.9837790727615356,-9.749464988708496,-0.2835242260209019,-0.3338697127537112,-10.62986724031247,1.1179998922568377,5.525890045827597,0.7340772951398231
1730865967.1838517,-1.7815088033676147,1.03798508644104,-9.75819206237793,-0.2836111097678342,-0.33242905670722006,-10.629863750450752,1.1208585911261684,5.53027374482725,0.8685957377446107
1730865967.2337184,-1.7815088033676147,1.03798508644104,-9.75819206237793,-0.28367879771142535,-0.33094208165307865,-10.629892026901985,1.1198434071060088,5.5218513001909315,0.8084374443170576
1730865967.2337184,-1.7619465589523315,1.1153185367584229,-9.77953052520752,-0.2837258786806037,-0.3294097888015754,-10.629952318747396,1.119837174894611,5.5218110608674,0.8081031697794312
1730865967.283684,-1.7306779623031616,1.2181533575057983,-9.794438362121582,-0.2837516172582079,-0.327833683424291,-10.63004334828928,1.1181142940657263,5.512561827799484,0.7214137998871578
1730865967.3336196,-1.7306779623031616,1.2181533575057983,-9.794438362121582,-0.28375565890360405,-0.3262165636519002,-10.630162714989451,1.115684122823959,5.502489145891348,0.6082023005644972
1730865967.3336196,-1.73723566532135,1.2622041702270508,-9.825244903564453,-0.28373775619057795,-0.3245632097857072,-10.63030726113211,1.115669069424493,5.502432495682289,0.6075185211770717
1730865967.3837023,-1.7728885412216187,1.2536513805389404,-9.841352462768555,-0.2836976942927017,-0.3228806607125154,-10.630473405980167,1.1223482648650982,5.511336028386304,0.8729177972088087
1730865967.4336104,-1.7728885412216187,1.2536513805389404,-9.841352462768555,-0.2836354375462976,-0.32117812680347835,-10.630657475656136,1.1213220405377993,5.503901848323036,0.8171602246922998
1730865967.4336104,-1.7957485914230347,1.2329119443893433,-9.852080345153809,-0.2835513529005086,-0.31946667901563036,-10.630855955910626,1.1213145788780925,5.503859497104209,0.8167870806037519
1730865967.4835632,-1.7957485914230347,1.2329119443893433,-9.852080345153809,-0.28344637461720273,-0.3177587969031582,-10.631065623450503,1.1240377196517948,5.490801653953455,0.8786654909105623
1730865967.4835632,-1.8130037784576416,1.187165379524231,-9.869086265563965,-0.2833220914899618,-0.3160678657626137,-10.631283619028219,1.124035057394935,5.490753336509315,0.8784455089733365
1730865967.5335834,-1.8130037784576416,1.187165379524231,-9.869086265563965,-0.28318078566190824,-0.3144076525367002,-10.631507518682014,1.1231935103783461,5.481469495614744,0.8247574425780826
1730865967.5335834,-1.8403993844985962,1.1168467998504639,-9.861696243286133,-0.2830254500694298,-0.3127917585036532,-10.631735385237805,1.123186747463654,5.4814146609189764,0.8243783108120112
1730865967.5836523,-1.8365612030029297,1.1099493503570557,-9.855596542358398,-0.2828598119247876,-0.3112330533940253,-10.631965741580258,1.1278610627101762,5.466833415863784,0.8842416504263779
1730865967.6335382,-1.8015090227127075,1.1125519275665283,-9.858222961425781,-0.2826883025865739,-0.309743176447704,-10.6321974700157,1.1296380193619326,5.444687606366538,0.8832603300371634
1730865967.683565,-1.7416749000549316,1.0947171449661255,-9.853496551513672,-0.2825158010778057,-0.3083322662429439,-10.632429713019263,1.1296004801632675,5.429148810053133,0.8298614666696568
1730865967.7336876,-1.7416749000549316,1.0947171449661255,-9.853496551513672,-0.28234711696875936,-0.307008901138458,-10.632661809209738,1.128847930670826,5.4126793440837675,0.7490358598373924
1730865967.7336876,-1.707353949546814,1.0896289348602295,-9.870576858520508,-0.28218645991815267,-0.30578010187767324,-10.632893262243698,1.1288419304164767,5.412588476463258,0.7485270573105086
1730865967.7836096,-1.6856294870376587,1.0882185697555542,-9.87708854675293,-0.2820370876775047,-0.3046513634905804,-10.633123771501078,1.1274009719411244,5.395655597387791,0.6427101099301146
1730865967.833548,-1.6856732368469238,1.1131680011749268,-9.89499282836914,-0.28190108947232684,-0.30362675143795714,-10.633353330649445,1.130971618991788,5.425313476084811,0.8707109548781643
1730865967.8835711,-1.6620116233825684,1.1451038122177124,-9.884458541870117,-0.281779270209448,-0.30270911524880095,-10.633582331778593,1.1300973928626732,5.416675065423455,0.8127586071733625
1730865967.9334772,-1.6620116233825684,1.1451038122177124,-9.884458541870117,-0.28167113497813495,-0.30190042852081683,-10.633811594748067,1.1329885421673456,5.406356419597765,0.8717142010570671
1730865967.9334772,-1.6606212854385376,1.1801331043243408,-9.870457649230957,-0.28157493730799205,-0.30120213774083915,-10.634042289836872,1.1329873525531384,5.406296208821216,0.871464775757452
1730865967.9834714,-1.653437852859497,1.1797866821289062,-9.851520538330078,-0.28148778786915407,-0.30061543298105947,-10.634275777217953,1.1324229369357734,5.395053079573941,0.8132269998955404
1730865968.0334425,-1.653437852859497,1.1797866821289062,-9.851520538330078,-0.28140580401037535,-0.30014143192717696,-10.634513403710425,1.13115623298425,5.383014601088071,0.7282944797861671
1730865968.0334425,-1.6758476495742798,1.1824043989181519,-9.821070671081543,-0.28132428187722264,-0.2997812447316037,-10.63475630286524,1.1311473583167113,5.382946560804681,0.7277559688378011
1730865968.0835173,-1.6758476495742798,1.1824043989181519,-9.821070671081543,-0.28123793222532156,-0.2995359401111787,-10.635005216869134,1.1291827355744009,5.370196341666269,0.6165514834517754
1730865968.0835173,-1.7237505912780762,1.1566532850265503,-9.81063461303711,-0.28114119469990395,-0.29940646583437214,-10.635260349178697,1.129169394364949,5.370120710926517,0.6158342573821598
1730865968.1334534,-1.7237505912780762,1.1566532850265503,-9.81063461303711,-0.28102860650645833,-0.2993935066959113,-10.6355212894027,1.134779297355922,5.39284502567459,0.8760634050358687
1730865968.1334534,-1.7996176481246948,1.1426687240600586,-9.782665252685547,-0.280895211320167,-0.29949729922153917,-10.635786995357035,1.1347771395622401,5.3928230312084855,0.8759070489439024
1730865968.1835039,-1.7996176481246948,1.1426687240600586,-9.782665252685547,-0.2807370015950877,-0.2997174842842651,-10.636055756764026,1.1338654754963915,5.386724079537137,0.8219472518555624
1730865968.1835039,-1.8628112077713013,1.1092867851257324,-9.77823543548584,-0.28055134906043666,-0.3000530020921488,-10.636325147398399,1.1338575495757603,5.386683438758449,0.8215250473011266
1730865968.2334023,-1.8628112077713013,1.1092867851257324,-9.77823543548584,-0.28033734617843103,-0.3005019688280089,-10.636592042269527,1.1358992391927685,5.3736232118464295,0.8827087608939042
1730865968.2334023,-1.8774480819702148,1.0935637950897217,-9.79169750213623,-0.2800959981616526,-0.3010615450184404,-10.636852722063667,1.135896865367997,5.3735731238553175,0.8825123794653973
1730865968.2834685,-1.8774480819702148,1.0935637950897217,-9.79169750213623,-0.27983022024083093,-0.30172786566918797,-10.637103040615443,1.1375730196783846,5.354522158828111,0.8860202005156884
1730865968.2834685,-1.8534674644470215,1.108945369720459,-9.822172164916992,-0.2795446452435004,-0.3024960696894321,-10.637338638275525,1.1375728720197813,5.354454563193755,0.8858308692905794
1730865968.3333826,-1.8534674644470215,1.108945369720459,-9.822172164916992,-0.27924528933738996,-0.3033604380235882,-10.637555190242182,1.1371965624583467,5.341034565085612,0.8360508572351906
1730865968.3333826,-1.7973651885986328,1.1064001321792603,-9.855999946594238,-0.2789391153473556,-0.30431459096095265,-10.63774866852767,1.1371924269717486,5.34095578406702,0.8356909445277856
1730865968.3833833,-1.749116063117981,1.0848197937011719,-9.900351524353027,-0.27863348212528405,-0.3053516262465673,-10.637915627504494,1.1361280767403283,5.326851227485496,0.7598518275827711
1730865968.4334073,-1.749116063117981,1.0848197937011719,-9.900351524353027,-0.2783355019754972,-0.3064641412475322,-10.638053539725085,1.1343529431696726,5.3117952003255615,0.6563967894389293
1730865968.4334073,-1.6887575387954712,1.0780417919158936,-9.944061279296875,-0.2780514755537217,-0.3076442069506254,-10.63816110243787,1.1343412396067047,5.311710242341362,0.6557535901594755
1730865968.4834383,-1.6887575387954712,1.0780417919158936,-9.944061279296875,-0.27778649354877605,-0.30888338330824905,-10.638238430958467,1.1387150562715318,5.335803507609464,0.8806366887208962
1730865968.4834383,-1.660573959350586,1.0784896612167358,-9.943114280700684,-0.2775441567997151,-0.3101727912122354,-10.638287133670962,1.1387126659616476,5.335770755943264,0.8804686852230325
1730865968.5333052,-1.660573959350586,1.0784896612167358,-9.943114280700684,-0.2773264302957423,-0.31150321612851295,-10.638310236081882,1.1394068658225451,5.317790080385909,0.8855903447210535
1730865968.5333052,-1.6808581352233887,1.0688133239746094,-9.9386625289917,-0.2771336679082169,-0.3128652152723748,-10.638311974265935,1.1394042419696118,5.317738506943352,0.8854082055226138
1730865968.5834394,-1.6925055980682373,1.0484857559204102,-9.91047477722168,-0.27696482237583675,-0.3142491773150548,-10.638297527845124,1.138528306319986,5.306945177140945,0.8353577697012983
1730865968.6333168,-1.7340891361236572,1.0040960311889648,-9.874168395996094,-0.2768178219307589,-0.3156452671126143,-10.638272665123298,1.1412105126066734,5.306813645115255,0.8816709315854375
1730865968.6832635,-1.7340891361236572,1.0040960311889648,-9.874168395996094,-0.27669002510081675,-0.3170432478903172,-10.638243291941272,1.1406062180230099,5.298817920830205,0.8286158814427181
1730865968.6832635,-1.7513102293014526,0.9668171405792236,-9.831408500671387,-0.2765786294035396,-0.318432290521553,-10.638215022797738,1.1406009929816663,5.298771792105593,0.8282510806104202
1730865968.7332773,-1.7513102293014526,0.9668171405792236,-9.831408500671387,-0.27648094357231146,-0.3198008680919434,-10.638192847128103,1.1393073030654712,5.289995867556454,0.7487350576647038
1730865968.7332773,-1.7555934190750122,0.9132131338119507,-9.825553894042969,-0.27639453082132265,-0.3211367046781941,-10.638180891799179,1.1392977101501567,5.289942155106587,0.7481918519410268
1730865968.783267,-1.7555934190750122,0.9132131338119507,-9.825553894042969,-0.2763172718227742,-0.3224267109882336,-10.63818232116215,1.1422310903476065,5.284421669604525,0.8769684752202492
1730865968.783267,-1.7511773109436035,0.8991687297821045,-9.808719635009766,-0.27624737270975586,-0.3236569394506619,-10.638199351493286,1.1422281786089301,5.284370945978138,0.8767476113755689
1730865968.833155,-1.7669599056243896,0.9138646125793457,-9.811017036437988,-0.2761833479662775,-0.3248126706814017,-10.638233278861339,1.1413576752140286,5.27478482616254,0.8235381618315825
1730865968.8833268,-1.7647291421890259,0.9623916149139404,-9.817171096801758,-0.27612402400564384,-0.32587870833951227,-10.638284510192374,1.13979180604641,5.264323502651577,0.7434125223391762
1730865968.9331322,-1.7647291421890259,0.9623916149139404,-9.817171096801758,-0.27606856547450875,-0.32683987587965535,-10.638352656159059,1.1437555447340837,5.263939291029813,0.8775250883664446
1730865968.9331322,-1.774051547050476,0.9942019581794739,-9.836055755615234,-0.2760164818113088,-0.32768157542518556,-10.63843668892104,1.1437523296221261,5.263893124033785,0.8772910942420352
1730865968.9830694,-1.7563841342926025,1.0308074951171875,-9.850176811218262,-0.27596760355514094,-0.3283902696527665,-10.638535145559143,1.1428352173784586,5.255189780433411,0.8221515587008843
1730865969.0331802,-1.7418923377990723,1.052126407623291,-9.863423347473145,-0.2759220063415797,-0.3289539186186226,-10.638646371872891,1.1412085849855178,5.2455031871102005,0.7392985763171188
1730865969.0830772,-1.7418923377990723,1.052126407623291,-9.863423347473145,-0.27587985778620355,-0.3293623638510266,-10.638768753974563,1.1389139484263642,5.235109519495529,0.6309210024211325
1730865969.0830772,-1.7634446620941162,1.1164103746414185,-9.859697341918945,-0.275841286236177,-0.3296075841486126,-10.63890085927956,1.1388994880512486,5.2350502975086535,0.630254337691845
1730865969.1331055,-1.7634446620941162,1.1164103746414185,-9.859697341918945,-0.27580639312924127,-0.32968390144924076,-10.63904146576348,1.1452660442719387,5.241070968718365,0.8747469744586074
1730865969.1331055,-1.7613576650619507,1.1499154567718506,-9.857751846313477,-0.275775355485199,-0.32958818809916846,-10.63918952798775,1.1452623090493925,5.241024911244311,0.8744988822989734
1730865969.1830616,-1.7668864727020264,1.152148723602295,-9.854114532470703,-0.2757484854338685,-0.3293199737333191,-10.6393441329122,1.1480532076048797,5.2180542395306855,0.8831599329920055
1730865969.2330203,-1.7597706317901611,1.146106243133545,-9.849930763244629,-0.2757262255121639,-0.32888139400661914,-10.639504454215777,1.147837990752149,5.205427701716136,0.8324610438118069
1730865969.2830868,-1.7832831144332886,1.1196283102035522,-9.831854820251465,-0.2757091390329078,-0.3282769626446509,-10.639669685672178,1.149681118561574,5.190998791399813,0.8737798280776372
1730865969.3329446,-1.7911642789840698,1.0579688549041748,-9.824539184570312,-0.275697953405294,-0.3275131169614531,-10.639838933737376,1.1491394038184124,5.1771429601195695,0.8169140729867617
1730865969.3830001,-1.793712854385376,1.0126854181289673,-9.833224296569824,-0.2756936599385783,-0.3265975276717302,-10.640011102599793,1.1533892825943743,5.173247954028053,0.8660065623227845
1730865969.432937,-1.7517714500427246,1.0202561616897583,-9.849518775939941,-0.275697549961601,-0.32553833177341696,-10.640184871622168,1.1533433620389868,5.161867911100225,0.806266331422219
1730865969.4829564,-1.7155946493148804,1.0792349576950073,-9.881749153137207,-0.27571102883965554,-0.324343652891134,-10.640358833789358,1.156480611705798,5.154308159950338,0.8606740757450709
1730865969.532836,-1.6973638534545898,1.1483683586120605,-9.885079383850098,-0.27573521960677083,-0.32302169769048084,-10.640531754556601,1.1564699793387099,5.142437777309158,0.7999632525327663
1730865969.5827827,-1.6990910768508911,1.1914793252944946,-9.90003490447998,-0.27577057806157773,-0.3215813286456055,-10.64070282435214,1.1557753808273534,5.129848804649444,0.7132709640982439
1730865969.6338701,-1.7048535346984863,1.1952179670333862,-9.894710540771484,-0.27581672666667634,-0.32003269673094814,-10.640871800053379,1.1543407604620386,5.116002307813555,0.5960098273805271
1730865969.6838133,-1.7279154062271118,1.140415906906128,-9.889106750488281,-0.27587253109280996,-0.3183875065975482,-10.641039018324433,1.1522593131943242,5.101803518178952,0.45581011910033653
1730865969.7338028,-1.7279154062271118,1.140415906906128,-9.889106750488281,-0.27593632593394896,-0.3166587594948087,-10.641205310246026,1.1586849051886066,5.143886617148704,0.8465924166827028
1730865969.7338028,-1.727390170097351,1.0967813730239868,-9.850716590881348,-0.2760061558782936,-0.3148601902911192,-10.641371844104777,1.1586819452919421,5.143859788768652,0.846335046057445
1730865969.7837937,-1.7448590993881226,1.0502889156341553,-9.854978561401367,-0.27607994068046404,-0.31300566412355146,-10.641539898549283,1.1577664298236472,5.138262080196154,0.7832129339341403
1730865969.8337355,-1.7205950021743774,1.0371060371398926,-9.837763786315918,-0.2761555748241741,-0.31110858434203387,-10.641710614916986,1.1617254071274108,5.131383695822193,0.8550756145393004
1730865969.8838043,-1.7044275999069214,1.004769206047058,-9.838481903076172,-0.2762309452849597,-0.30918136802828405,-10.641884823954733,1.1615034348313364,5.12335999599536,0.7971239345098039
1730865969.9337204,-1.6762114763259888,1.0011883974075317,-9.852025985717773,-0.2763038054225748,-0.30723509319229425,-10.642062981005788,1.160592909837403,5.114567406625627,0.712644185279553
1730865969.9836867,-1.6579885482788086,0.9812003374099731,-9.872231483459473,-0.2763715464455654,-0.3052793119510531,-10.64224522513655,1.1589940827305183,5.105013742388252,0.601668066517076
1730865970.0337353,-1.6788157224655151,1.0039273500442505,-9.869159698486328,-0.2764310071252116,-0.3033220006018472,-10.64243155032977,1.1646999204228605,5.1112462608880085,0.8405923735759566
1730865970.0836577,-1.7302862405776978,0.9892690777778625,-9.866273880004883,-0.276478506714089,-0.30136964935842414,-10.642621967085882,1.1639850842308794,5.104410191485814,0.7783962656922423
1730865970.1336935,-1.7302862405776978,0.9892690777778625,-9.866273880004883,-0.2765101809916316,-0.29942742862355154,-10.642816552525497,1.1660818740778693,5.0956683622883645,0.8411584157345402
1730865970.1336935,-1.7561147212982178,1.0005706548690796,-9.84821891784668,-0.27652242486788126,-0.29749934300029723,-10.643015409470747,1.1660795254852216,5.095618726940574,0.8408808190451652
1730865970.1836424,-1.7561147212982178,1.0005706548690796,-9.84821891784668,-0.2765122045585405,-0.29558838708722524,-10.643218577935157,1.1632727997819847,5.0785925015903555,0.8503677160456533
1730865970.1836424,-1.7367112636566162,1.0267400741577148,-9.844929695129395,-0.27647718917377745,-0.2936967508528283,-10.64342593583353,1.1632623423651545,5.07852635795679,0.8501537548540398
1730865970.2335315,-1.7292639017105103,1.0034098625183105,-9.847564697265625,-0.2764157039155239,-0.291826044552823,-10.643637145245112,1.1609307142264553,5.0655893781986245,0.7962470891238157
1730865970.283596,-1.7082710266113281,1.0320013761520386,-9.856908798217773,-0.2763265403370534,-0.2899774747446958,-10.643851667829132,1.1579037436988093,5.051883695123354,0.7156870518369657
1730865970.3336132,-1.7297741174697876,1.0265306234359741,-9.872505187988281,-0.2762087517953079,-0.2881519705699296,-10.644068846671388,1.1541605239958859,5.037355558437533,0.6077814715254075
1730865970.3835676,-1.73284912109375,1.026072382926941,-9.879054069519043,-0.27606156635186163,-0.2863503010092216,-10.644288046364794,1.1610828513841793,5.065581751645961,0.8463179567357009
1730865970.4335475,-1.7507237195968628,1.0402652025222778,-9.899032592773438,-0.2758844498382268,-0.284573165212798,-10.64450881464685,1.1590260625918525,5.058771065934512,0.7888545392157351
1730865970.4835615,-1.7507237195968628,1.0402652025222778,-9.899032592773438,-0.27567723556960166,-0.28282126039560695,-10.644731027616295,1.1562708162989115,5.051217472103006,0.7045459297094014
1730865970.4835615,-1.7441734075546265,1.067531943321228,-9.886956214904785,-0.27544021209577474,-0.28109537858771516,-10.644954971872423,1.1562540782637052,5.051174792243312,0.7040187728024953
1730865970.5335526,-1.7646288871765137,1.0706843137741089,-9.89332103729248,-0.275174133393579,-0.27939654372115863,-10.645181314643402,1.1644251316580991,5.05351188281647,0.8422103591257031
1730865970.583584,-1.8092890977859497,1.0768513679504395,-9.85693645477295,-0.27488025439638986,-0.27772614934735335,-10.645410976425513,1.1635105484129369,5.047772975777088,0.786211960030668
1730865970.6335008,-1.8451093435287476,1.0780317783355713,-9.835271835327148,-0.27456053976485956,-0.276086031390515,-10.64564491690235,1.1618994536080505,5.041271783095447,0.7029662539667578
1730865970.6835158,-1.8451093435287476,1.0780317783355713,-9.835271835327148,-0.27421798935833186,-0.27447845811233207,-10.645883849524298,1.1669321962188062,5.03801780515566,0.8390900713390732
1730865970.6835158,-1.8778879642486572,1.068177342414856,-9.794242858886719,-0.2738568647486127,-0.27290606374922455,-10.646127985094562,1.1669287334517788,5.037971582859507,0.8387607465260839
1730865970.7335863,-1.8792659044265747,1.0619271993637085,-9.761591911315918,-0.2734827503675099,-0.27137173196281195,-10.646376811445123,1.1661005920635885,5.031125799289618,0.779134674348688
1730865970.7835293,-1.8781741857528687,1.0342954397201538,-9.767451286315918,-0.2731025112302876,-0.2698784235809938,-10.646628850096889,1.1710163461876948,5.019396404727755,0.8485424480443882
1730865970.8334446,-1.8452465534210205,1.0448501110076904,-9.792409896850586,-0.2727241164704164,-0.2684289675927588,-10.646881535051598,1.177327099469833,5.006267911490911,0.8505157407115131
1730865970.8834481,-1.7909832000732422,1.0523160696029663,-9.833215713500977,-0.2723562412267061,-0.26702590641236285,-10.647131408354285,1.179093547800318,4.995210757174704,0.7958618217870921
1730865970.9334626,-1.7380390167236328,1.0403714179992676,-9.891928672790527,-0.27200763083716295,-0.2656714696174137,-10.647374620855565,1.1801831307452864,4.983457051368426,0.7143991939369602
1730865970.9834626,-1.6841381788253784,1.027842402458191,-9.939653396606445,-0.2716863273189395,-0.26436758455234377,-10.647607607381794,1.180591380241325,4.97097524436339,0.6056318027153808
1730865971.0333781,-1.598343849182129,1.0370818376541138,-9.97574520111084,-0.2713988861769751,-0.26311582316883964,-10.647827779143082,1.1835304030991576,4.992661709212841,0.8365336817797814
1730865971.083417,-1.5712602138519287,1.0332560539245605,-9.993497848510742,-0.27114964408837106,-0.2619173503722336,-10.648034062201877,1.1838796080524143,4.98633596615842,0.7754594899654117
1730865971.133399,-1.5712602138519287,1.0332560539245605,-9.993497848510742,-0.27094018248255824,-0.2607729379768811,-10.648227168866116,1.1847084151463738,4.9792347204588205,0.8405389567678896
1730865971.133399,-1.550557255744934,1.039259433746338,-9.944525718688965,-0.2707691840507631,-0.2596830065096647,-10.6484095477348,1.18470872111036,4.979190572640227,0.8402850470199666
1730865971.1834455,-1.5575945377349854,1.0153611898422241,-9.915091514587402,-0.27063262524314174,-0.2586476518532801,-10.648584988455216,1.1844243706638715,4.970852373464683,0.7808239013974041
1730865971.233443,-1.6128383874893188,0.9890211224555969,-9.859123229980469,-0.27052415578918154,-0.25766659566861505,-10.64875797004943,1.1834692503878135,4.961906177577927,0.6951558510014012
1730865971.283348,-1.6128383874893188,0.9890211224555969,-9.859123229980469,-0.2704356753621517,-0.2567390259539521,-10.648932965289926,1.1818404506986309,4.952305596150261,0.5828825336239443
1730865971.283348,-1.700724482536316,0.9786924719810486,-9.800239562988281,-0.27035806997609413,-0.2558634380801692,-10.649113879276427,1.181829386521991,4.952249786607157,0.5821760913200008
1730865971.3333108,-1.7688379287719727,1.0146944522857666,-9.755945205688477,-0.27028205277155914,-0.2550376192960515,-10.649303602957987,1.1857465194198007,4.967897824987605,0.8447066047250401
1730865971.3833656,-1.8208271265029907,1.02140212059021,-9.763900756835938,-0.27019911796807133,-0.2542588217259948,-10.649503604011418,1.1874978481197642,4.954942226474968,0.8499253558136505
1730865971.433279,-1.8217395544052124,1.0340009927749634,-9.765320777893066,-0.27010240171825417,-0.25352405290887103,-10.649713695166168,1.1870219334694359,4.946844052788992,0.7951267720762308
1730865971.48329,-1.782911777496338,1.0537012815475464,-9.80487060546875,-0.26998709857643244,-0.25283035327615033,-10.649932149631002,1.189489300822081,4.9379833347464634,0.8425363479172072
1730865971.5332751,-1.7525897026062012,1.0612386465072632,-9.85537052154541,-0.26985030674410393,-0.2521750150426401,-10.650156131139658,1.189058778881979,4.928645620202228,0.7838251308604441
1730865971.5832372,-1.7525897026062012,1.0612386465072632,-9.85537052154541,-0.26969052117942777,-0.25155574857087426,-10.650382296897279,1.1879574113897153,4.91871028288468,0.6987635816500781
1730865971.5832372,-1.7406247854232788,1.1116029024124146,-9.87990665435791,-0.26950714309736334,-0.2509708026929811,-10.650607348025112,1.1879496186065381,4.918654761957853,0.6982306777428469
1730865971.633259,-1.770524501800537,1.115897536277771,-9.90289306640625,-0.26930020638642027,-0.25041912245324294,-10.650828386212474,1.1861716126061492,4.908078517246617,0.5863779336505079
1730865971.683197,-1.7900440692901611,1.1545110940933228,-9.899785995483398,-0.26907033134976044,-0.24990057340748034,-10.65104314484681,1.1918832509280444,4.926132566186197,0.8390897909223679
1730865971.7331789,-1.7900440692901611,1.1545110940933228,-9.899785995483398,-0.2688188333927577,-0.24941613491060124,-10.651250122355371,1.1933975052576906,4.914755507723541,0.8472292961525953
1730865971.7331789,-1.8505797386169434,1.163799524307251,-9.896068572998047,-0.26854787434907934,-0.24896798381772725,-10.651448570693333,1.1933961041727061,4.914712178622111,0.8469767127812889
1730865971.783353,-1.8505797386169434,1.163799524307251,-9.896068572998047,-0.26826063789070276,-0.248559448010344,-10.651638388550758,1.1928233750830735,4.907108980218513,0.7910948764848197
1730865971.783353,-1.8653908967971802,1.1624170541763306,-9.862640380859375,-0.2679615069622273,-0.24819485799383265,-10.651819974076309,1.192818299094935,4.907064807833053,0.790708380265057
1730865971.8332534,-1.84821355342865,1.119704008102417,-9.858514785766602,-0.2676560955779907,-0.24787931215902387,-10.651994009392057,1.1915845678134216,4.898902790459383,0.7088011108948595
1730865971.8832345,-1.8270213603973389,1.114829421043396,-9.805334091186523,-0.2673510557851666,-0.24761831756610692,-10.652161165055608,1.1896762795094815,4.890063732436271,0.5997884812432804
1730865971.9334147,-1.793975830078125,1.0453251600265503,-9.822367668151855,-0.26705369869487144,-0.24741731797156838,-10.652321777081847,1.1961592452728325,4.9001450746634,0.849235088650963
1730865971.9832606,-1.7209333181381226,1.0137131214141846,-9.828447341918945,-0.26677145869653746,-0.2472811460350543,-10.65247563016424,1.195449206050873,4.894862472876601,0.7935237445436278
1730865972.0332992,-1.7209333181381226,1.0137131214141846,-9.828447341918945,-0.26651124757428435,-0.24721347717636008,-10.652621964353532,1.198835540681011,4.883979699508912,0.8461116540916213
1730865972.0332992,-1.6012029647827148,0.9719731211662292,-9.870986938476562,-0.2662788015375379,-0.24721645915915233,-10.652759653474929,1.1988360534795424,4.8839308463130235,0.8458440840003204
1730865972.0832047,-1.5673483610153198,0.9927900433540344,-9.874567985534668,-0.2660780238808614,-0.24729056876509956,-10.652887470574619,1.1985921941144213,4.875579488720015,0.7886300069512092
1730865972.133241,-1.5673483610153198,0.9927900433540344,-9.874567985534668,-0.26591036686849634,-0.24743463790995268,-10.653004369649446,1.201566711754918,4.868548450544262,0.8502670355513156
1730865972.133241,-1.5617990493774414,1.0194441080093384,-9.915316581726074,-0.2657745506013895,-0.24764606020126442,-10.653109684424097,1.2015681566963026,4.868501033585076,0.8500402127568877
1730865972.1831715,-1.5617990493774414,1.0194441080093384,-9.915316581726074,-0.2656667265037265,-0.2479211311628494,-10.653203281710077,1.2015040864616682,4.859573458588158,0.7956877174722538
1730865972.1831715,-1.576568603515625,1.0584110021591187,-9.886327743530273,-0.2655808511861011,-0.2482554158024296,-10.653285684621927,1.201501921223395,4.859522319436602,0.7953140646835637
1730865972.2332606,-1.631142258644104,1.0728533267974854,-9.91388988494873,-0.2655091627623858,-0.24864412252180346,-10.653358039210493,1.200774567915126,4.849891560917844,0.713870532096632
1730865972.283102,-1.7173388004302979,1.079965353012085,-9.86382007598877,-0.26544287625084306,-0.24908247023603317,-10.653421945444649,1.2026786840222787,4.856113521301463,0.8528765953191524
1730865972.3331964,-1.7173388004302979,1.079965353012085,-9.86382007598877,-0.265373099972606,-0.24956595299417036,-10.653479237518157,1.201905306715578,4.850074870346114,0.7985839541619969
1730865972.3331964,-1.82231605052948,1.1077828407287598,-9.826631546020508,-0.2652917310337014,-0.250090469953751,-10.653531698833481,1.2018993444940063,4.8500407914549335,0.7982199915808733
1730865972.383157,-1.8533849716186523,1.1184059381484985,-9.800682067871094,-0.26519220612740174,-0.25065243036405643,-10.653580737967143,1.2071045529848723,4.839536486424694,0.8511143928716036
1730865972.4330823,-1.8954871892929077,1.0949914455413818,-9.761144638061523,-0.2650701528835925,-0.2512488634550567,-10.653627055383996,1.2075364269617832,4.8307963424002045,0.7975055478272505
1730865972.4830406,-1.8989217281341553,1.0262970924377441,-9.779446601867676,-0.2649238251803681,-0.2518773432779201,-10.653670343903379,1.2073077053487908,4.821483416025347,0.7177602016216146
1730865972.5331557,-1.8536771535873413,1.0082930326461792,-9.78778076171875,-0.26475414750484305,-0.2525355817874918,-10.653709179619401,1.2064053717076306,4.811394990303246,0.6098779450960835
1730865972.5831227,-1.783974289894104,1.004658818244934,-9.84261703491211,-0.2645642878580272,-0.2532208959947717,-10.653741222813201,1.2095257956495082,4.825362127717189,0.8397405677683144
1730865972.6330674,-1.783974289894104,1.004658818244934,-9.84261703491211,-0.26435884980689867,-0.2539298966447493,-10.653763660795772,1.213283554187808,4.804766085829006,0.8472705844615575
1730865972.6330674,-1.7528783082962036,1.0574264526367188,-9.855023384094238,-0.2641430480405163,-0.25465851368111153,-10.653773672103675,1.213291281364482,4.804683197943909,0.847020205014978
1730865972.6830595,-1.7528783082962036,1.0574264526367188,-9.855023384094238,-0.263922158781013,-0.2554022872202337,-10.653768718319082,1.2160479090590275,4.790036831528964,0.8588840979350871
1730865972.6830595,-1.7219197750091553,1.080628514289856,-9.910914421081543,-0.2637011945138372,-0.25615676321315733,-10.653746707171225,1.2160556583501376,4.789959985132394,0.8586883355777934
1730865972.7331333,-1.7219197750091553,1.080628514289856,-9.910914421081543,-0.2634846633135144,-0.2569178025438621,-10.65370620607826,1.2171618462430538,4.775393607861678,0.8090489049063311
1730865972.7331333,-1.704637885093689,1.1132997274398804,-9.919187545776367,-0.2632763807034363,-0.2576817706305886,-10.653646690874192,1.2171660722649353,4.775312520763159,0.8087058260898367
1730865972.7830756,-1.704637885093689,1.1132997274398804,-9.919187545776367,-0.2630793530550523,-0.2584456932291872,-10.653568657143365,1.2176114740220527,4.760202777631751,0.7329514099404467
1730865972.7830756,-1.6880874633789062,1.1303209066390991,-9.951221466064453,-0.2628957240694251,-0.25920739382716385,-10.653473595295399,1.2176121727605933,4.760112843611336,0.7324330252649418
1730865972.8330402,-1.6880874633789062,1.1303209066390991,-9.951221466064453,-0.2627267526472909,-0.25996556817691885,-10.653363977982506,1.2174050415552113,4.744303324062915,0.6298960148862717
1730865972.8330402,-1.6892642974853516,1.1353075504302979,-9.929433822631836,-0.2625728217999532,-0.26071978477296387,-10.653243251960305,1.2174021262491874,4.7442153214163545,0.6292643083883043
1730865972.8830557,-1.6928538084030151,1.1137971878051758,-9.93874454498291,-0.262433508063436,-0.26147040914998354,-10.653115702152373,1.216543596706824,4.7277971148652975,0.5005289590186425
1730865972.9329422,-1.7044410705566406,1.0738990306854248,-9.894899368286133,-0.26230771703402583,-0.2622183990663628,-10.652986183935283,1.2174732107333512,4.782834965806319,0.8607373680486505
1730865972.9829872,-1.7288248538970947,1.0470776557922363,-9.854463577270508,-0.2621938793094168,-0.26296492844969077,-10.652859758829422,1.2168130426684094,4.778039488045534,0.8081681778296625
1730865973.0330038,-1.782965898513794,1.0143132209777832,-9.822835922241211,-0.26209024883248166,-0.26371091678902736,-10.652741205662313,1.2154895035198945,4.772549167622993,0.7284640477949366
1730865973.082945,-1.8363450765609741,1.0109021663665771,-9.767317771911621,-0.26199536522536326,-0.2644566179748862,-10.65263447176494,1.2190124103598383,4.7698113827729305,0.8548251084551364
1730865973.132889,-1.8869452476501465,0.9894759058952332,-9.760782241821289,-0.2619086517256335,-0.26520136708404607,-10.652542185023407,1.2183249344663418,4.763354241198856,0.7969530242946643
1730865973.1829495,-1.8473352193832397,1.0347927808761597,-9.739604949951172,-0.26183093536294855,-0.26594352091563056,-10.652465322908371,1.2169877942723222,4.756264454487778,0.712789544849616
1730865973.232936,-1.816389560699463,1.0465000867843628,-9.774761199951172,-0.2617645633057655,-0.26668063310724816,-10.652403134967564,1.220766039023805,4.756587613290361,0.8519204838834368
1730865973.2828844,-1.816389560699463,1.0465000867843628,-9.774761199951172,-0.2617130435680417,-0.2674098040997448,-10.652353344762876,1.2227662683540907,4.744561272324719,0.8622389709106454
1730865973.2828844,-1.783855676651001,1.0769073963165283,-9.79489803314209,-0.2616805257719922,-0.2681280131493783,-10.652312527710384,1.2227657407138806,4.744520408091101,0.862011996421489
1730865973.3328242,-1.7646828889846802,1.053520679473877,-9.82564926147461,-0.2616713620599675,-0.2688323404613856,-10.652276529184892,1.2223420849369055,4.736638229644784,0.806813533396672
1730865973.3828576,-1.7646828889846802,1.053520679473877,-9.82564926147461,-0.261689738031962,-0.2695200756906809,-10.652240873855892,1.2212646430507073,4.728057648610789,0.7248693850393124
1730865973.3828576,-1.7351040840148926,1.0145779848098755,-9.854711532592773,-0.26173938399627966,-0.27018866711434925,-10.65220113312706,1.2212570511941507,4.728009487890782,0.7243546944044439
1730865973.432912,-1.7351040840148926,1.0145779848098755,-9.854711532592773,-0.2618233752663319,-0.27083553343600003,-10.652153207803233,1.2195259743726117,4.7187670334979215,0.6158760628303771
1730865973.432912,-1.683071255683899,0.9749651551246643,-9.900102615356445,-0.26194394936823906,-0.2714578364148831,-10.652093558487376,1.2195127686298703,4.718705578681769,0.615094743905272
1730865973.4828544,-1.683071255683899,0.9749651551246643,-9.900102615356445,-0.2621022893913158,-0.27205227727193315,-10.65201943902263,1.2171399240019625,4.708837481862156,0.4807213373268015
1730865973.4828544,-1.6453770399093628,0.9578630328178406,-9.910890579223633,-0.26229830406821686,-0.2726149502604779,-10.651929099689818,1.2171250112628385,4.708781061864258,0.47990551753211175
1730865973.532847,-1.649688720703125,0.9565423130989075,-9.945751190185547,-0.26253047848223676,-0.2731412873998345,-10.65182190151787,1.214082693917358,4.698173049752915,0.318119757283903
1730865973.5828483,-1.6442580223083496,0.9954084157943726,-9.940225601196289,-0.26279584428016234,-0.27362613020369647,-10.651698386457786,1.224788547160864,4.726703090426541,0.8629477904225621
