Timestamp,IMU_Linear_Acc_X,IMU_Linear_Acc_Y,IMU_Linear_Acc_Z,Filtered_X,Filtered_Y,Filtered_Z,Pose_X,Pose_Y,Pose_Z
1730865946.9339588,-1.6460669040679932,1.1705397367477417,-9.888028144836426,-0.0026398058385943,-0.003175589649203332,-0.29579333709508643,0.87383976061403,3.8320517991552925,0.8964522324967009
1730865946.9839773,-1.6460669040679932,1.1705397367477417,-9.888028144836426,-0.00327458284790973,-0.0041706544153606705,-0.36063059956277976,0.8717342179826001,3.8321445879833598,0.8962194055295457
1730865947.0338826,-1.5448205471038818,1.3515266180038452,-9.916738510131836,-0.004856423061326162,-0.006779795122504698,-0.5161027781982215,0.8892492855041898,3.8322867576163793,0.8933578539281732
1730865947.0338826,-1.4505513906478882,1.3764179944992065,-9.885746955871582,-0.005816486069653756,-0.008431928596482115,-0.6073149532878837,0.888465259952721,3.832318155802773,0.8930534491400094
1730865947.083904,-1.4505513906478882,1.3764179944992065,-9.885746955871582,-0.0068947262997067806,-0.010342820197438396,-0.7078007297582884,0.7961058988312459,3.8360149779668262,0.8570658963232354
1730865947.083904,-1.483825922012329,1.3574954271316528,-9.83907413482666,-0.008092096578539106,-0.012533805870182489,-0.8177044197152177,0.7951183243449275,3.836054486356133,0.8566797129327539
1730865947.1338828,-1.5220105648040771,1.4168083667755127,-9.791072845458984,-0.009407094549902526,-0.015026501478913972,-0.9371116078641738,0.8376284356475058,3.8456749292595567,0.8698297177067085
1730865947.1838188,-1.466209888458252,1.5062932968139648,-9.781386375427246,-0.01083624698595885,-0.01784250025437494,-1.0660492863660833,0.7926127762398634,3.8553488539122673,0.8478883262639949
1730865947.2339377,-1.6475468873977661,1.4503509998321533,-9.745635986328125,-0.012374651093169719,-0.021003408254271407,-1.2044864946349585,0.7475648130294085,3.8649747476408702,0.8230978549487791
1730865947.2838902,-1.7597566843032837,1.3032793998718262,-9.741059303283691,-0.01401678350066569,-0.024530679027843665,-1.3523355410457314,0.8565216579027631,3.874555414114744,0.8740429365723869
1730865947.3337905,-1.7597566843032837,1.3032793998718262,-9.741059303283691,-0.015757791756992382,-0.028444656761163072,-1.5094537559232746,0.8686664010850427,1.2298420479687473,0.8776509845472266
1730865947.3337905,-1.6816997528076172,1.2365984916687012,-9.753911018371582,-0.01759450525363853,-0.03276324220245258,-1.6756457328599423,0.868646073740474,1.228684056270599,0.8776203803606009
1730865947.3838024,-1.757475733757019,1.2633165121078491,-9.788309097290039,-0.019525490514774656,-0.03750095295547719,-1.850666032819629,0.8632710790623137,0.9238480283077527,0.8672194901688225
1730865947.4338114,-1.9410609006881714,1.2342725992202759,-9.715015411376953,-0.021550840066337635,-0.04266852542614831,-2.0342221964248584,0.8715010350266186,0.3831267657203246,0.8786541582528794
1730865947.4836771,-1.7980672121047974,1.2204742431640625,-9.816902160644531,-0.023672515337326335,-0.048272819778961834,-2.2259778552356835,0.8678706850136835,-0.04725501969218086,0.8675858470899596
1730865947.5337312,-1.6201061010360718,1.2407430410385132,-9.861479759216309,-0.025894471227096382,-0.05431683658831578,-2.4255560694375577,0.8641995629490832,-0.47528618703788433,0.8507932893313781
1730865947.5837328,-1.6417081356048584,1.2559638023376465,-9.932706832885742,-0.028221552624088493,-0.060799853323783085,-2.6325431543975775,0.8733063224327491,0.5647107092746635,0.8755650649707388
1730865947.6336718,-1.4783844947814941,1.2720919847488403,-9.962823867797852,-0.03065782862284055,-0.0677177504641024,-2.846492791044585,0.8720655981193826,0.47660814171576593,0.8611372630948367
1730865947.6836586,-1.4127205610275269,1.249739170074463,-9.95790958404541,-0.0332052643471347,-0.07506340319570703,-3.0669299858251295,0.8707368424660639,0.38776279596210683,0.839200988902078
1730865947.7336457,-1.4345476627349854,1.2176520824432373,-9.960887908935547,-0.03586273517555446,-0.0828269185736766,-3.2933546665064073,0.8710432444051579,0.7371283691746248,0.8724900074628624
1730865947.7836764,-1.6071974039077759,1.2252144813537598,-9.856568336486816,-0.038625717935457805,-0.09099566203255854,-3.5252448626160784,0.8695919766509904,0.719688123217946,0.8543068113954702
1730865947.8337014,-1.532752275466919,1.1856809854507446,-9.923158645629883,-0.04148704774341891,-0.09955422491321492,-3.7620595434551634,0.8680483471196386,0.7021039271383739,0.8271057937649463
1730865947.8835726,-1.49844229221344,1.2116985321044922,-9.878271102905273,-0.0444379583152533,-0.1084844677736532,-4.0032414348925025,0.8679340115283033,0.8031128202235968,0.8689434604052372
1730865947.9345996,-1.521494746208191,1.106750726699829,-9.946966171264648,-0.04746847235502254,-0.11776559328845773,-4.248220113165862,0.8665033412201418,0.8001855145571849,0.8464654314678928
1730865947.9846032,-1.521235466003418,1.066617727279663,-9.89339542388916,-0.050567401234508785,-0.12737405474019964,-4.496415283058568,0.8692439654338745,0.82521642911777,0.8668734079622159
1730865948.034629,-1.6524330377578735,0.9745575785636902,-9.893824577331543,-0.05372263076029879,-0.13728319428971025,-4.747239945964319,0.8702244070775909,0.8337750671239376,0.8678914150132824
1730865948.0845356,-1.6524330377578735,0.9745575785636902,-9.893824577331543,-0.056921852265844806,-0.14746281871904648,-5.0001033167067686,0.8701323158888565,0.8350531811204738,0.842988641732463
1730865948.0845356,-1.714928388595581,0.9513433575630188,-9.833707809448242,-0.06015345295644048,-0.15787904137975323,-5.254413558053917,0.8701314166906496,0.8350591819629711,0.8428173086671923
1730865948.1347377,-1.6118273735046387,0.9223973155021667,-9.884674072265625,-0.06340708932920659,-0.16849448857356977,-5.509580403947702,0.869889701939211,0.8359362511021021,0.8049367663963475
1730865948.1846237,-1.3661701679229736,0.9260615110397339,-9.857068061828613,-0.06667342434232972,-0.1792687036791702,-5.765017749910463,0.8694838948319303,0.8363843675780065,0.7527254577235505
1730865948.2345996,-1.2212275266647339,0.8862243294715881,-9.932165145874023,-0.06994268960203442,-0.19015859529524817,-6.020146330937463,0.8685451490523122,0.8425518080887495,0.8631818773201898
1730865948.2835228,-1.0323896408081055,0.8774198889732361,-9.941996574401855,-0.07320249120879875,-0.2011188788372164,-6.274396485287985,0.867841042929736,0.8432747084971025,0.8321771447207968
1730865948.3344536,-1.2495695352554321,0.9381879568099976,-9.924843788146973,-0.07643607597817036,-0.21210255484590906,-6.527210840396834,0.8687789646354728,0.8489319572226749,0.8602075357479793
1730865948.3844686,-1.4342632293701172,1.0002256631851196,-9.9284086227417,-0.0796223505305598,-0.223061654177933,-6.778046656983586,0.8683410054213511,0.8502327875535323,0.8248629894877196
1730865948.4344435,-1.6491162776947021,1.1198151111602783,-9.88106918334961,-0.08273799501843637,-0.23394841421693022,-7.026377726611163,0.8677057919313799,0.8509557974394928,0.7727302459486919
1730865948.4846096,-1.8150001764297485,1.2128596305847168,-9.911548614501953,-0.0857606074020708,-0.24471677110330087,-7.271695967291864,0.8668464765264189,0.8510853737575428,0.7016115276674456
1730865948.5345068,-1.8747748136520386,1.2866096496582031,-9.855307579040527,-0.0886715141168481,-0.2553238985281983,-7.513512874754423,0.8664778407461914,0.8536059589863362,0.8523406254686214
1730865948.5845046,-1.8972151279449463,1.2438414096832275,-9.890105247497559,-0.09145752266220002,-0.2657313923481109,-7.751360876985292,0.8618585938186547,0.8579478507689756,0.8566573728037082
1730865948.6345894,-1.8699368238449097,1.2726092338562012,-9.829380989074707,-0.0941114519918417,-0.2759057452221075,-7.984794567259321,0.8596057103253879,0.8588570275765414,0.8157281387618229
1730865948.6844258,-1.9649289846420288,1.1705948114395142,-9.842905044555664,-0.09663182028864424,-0.2858181311096136,-8.213391777219005,0.8581623614399443,0.8633617554037819,0.851053995660313
1730865948.7343395,-1.755480170249939,1.117276906967163,-9.814167976379395,-0.09902218201418836,-0.2954437094658336,-8.436754484470676,0.8560601706325581,0.8643268479190899,0.8065454016015523
1730865948.7843802,-1.648979902267456,1.0715574026107788,-9.870731353759766,-0.10128994932317506,-0.3047606342801803,-8.65450966071149,0.8579392084175763,0.8705173672840885,0.8484530883237532
1730865948.8343627,-1.619248390197754,1.0923936367034912,-9.766934394836426,-0.10344453511469287,-0.3137491379144155,-8.86631010204315,0.8567615564036519,0.8718536963057575,0.8011234446083446
1730865948.8843756,-1.5719029903411865,1.1600306034088135,-9.814069747924805,-0.10549557994732953,-0.32239112443977813,-9.071835042306356,0.8596824342988238,0.8781602712361685,0.846403727471935
1730865948.9342463,-1.4718180894851685,1.2043366432189941,-9.855443000793457,-0.10745184020061788,-0.33067039690972905,-9.270790571455755,0.8593246442760653,0.8799138189823132,0.7966869904090093
1730865948.9843962,-1.5622344017028809,1.2559999227523804,-9.844598770141602,-0.10932050666562479,-0.338573262919592,-9.462910176967984,0.8643023062533265,0.8831498562653092,0.8444582286945755
1730865949.0343103,-1.6065484285354614,1.3037285804748535,-9.91126537322998,-0.11110700697725259,-0.34608915659861567,-9.647955373851826,0.8653462807332581,0.884515137931874,0.79265149307082
1730865949.084335,-1.6464300155639648,1.3352413177490234,-9.848318099975586,-0.11281550931018679,-0.3532111093491016,-9.825716135519949,0.866126192067443,0.8850225359564603,0.7153811470100968
1730865949.1342292,-1.7890230417251587,1.2793657779693604,-9.847938537597656,-0.11444982885019842,-0.3599359628495228,-9.99601095675877,0.8673712731071933,0.8886782182142394,0.8429542022070501
1730865949.1843033,-1.9112098217010498,1.1769911050796509,-9.826825141906738,-0.11601453249278082,-0.366264060324669,-10.158686513471054,0.8677461572749114,0.8888050323618111,0.7872563137705543
1730865949.2342906,-1.7468112707138062,1.169215440750122,-9.872337341308594,-0.1175160309831251,-0.3721983325543952,-10.313617157461286,0.8678294282996695,0.8880148862813654,0.7064265357761327
1730865949.2843397,-1.7610691785812378,1.1731765270233154,-9.90518856048584,-0.1189628661531482,-0.37774326607617137,-10.460704561284736,0.8687833541570875,0.8957995760598838,0.8440906896068201
1730865949.3341703,-1.772855281829834,1.1963719129562378,-9.869773864746094,-0.12036503845425195,-0.3829043355574454,-10.599877489547067,0.8688166227639879,0.8962773174412016,0.786327384994162
1730865949.3842542,-1.7723252773284912,1.1582468748092651,-9.856871604919434,-0.1217333083090705,-0.38768788797606,-10.731091358914636,0.8685478970640061,0.8957963621807112,0.7015403782055515
1730865949.4341888,-1.5951693058013916,1.1924304962158203,-9.84045124053955,-0.12307875656328937,-0.39210111093594663,-10.854327405909281,0.8701385286211126,0.9037832744805828,0.8459133505907466
1730865949.4842129,-1.4303251504898071,1.1096744537353516,-9.871488571166992,-0.1244118630011187,-0.39615190061695293,-10.969591687740493,0.8700302633798979,0.9043277596101315,0.7851816573892278
1730865949.5342839,-1.4494115114212036,1.127644419670105,-9.831385612487793,-0.1257409366179414,-0.39984859866603606,-11.076914151627205,0.8668229447291723,0.9127443613224204,0.8515612310269534
1730865949.5842733,-1.374488115310669,1.0864741802215576,-9.847817420959473,-0.12707080225955822,-0.4031996469873677,-11.176347710459694,0.8652907035971061,0.9145364801545232,0.7915297681448249
1730865949.634126,-1.4525998830795288,1.0719263553619385,-9.802490234375,-0.12840240234895683,-0.40621329271323814,-11.267967193935505,0.8638027472834514,0.9210513360085106,0.8544940427529177
1730865949.684152,-1.5784028768539429,1.0320987701416016,-9.840079307556152,-0.12973326360819187,-0.4088973513393667,-11.351868205593512,0.8619522373251067,0.9229109245642899,0.7935359701039197
1730865949.734146,-1.5448294878005981,0.9901504516601562,-9.828018188476562,-0.13105861658843693,-0.41125893986217693,-11.428166015805008,0.8635805526913809,0.9271497349282053,0.8531345614984684
1730865949.7841535,-1.495914340019226,0.9905200004577637,-9.897010803222656,-0.13237251243270926,-0.4133041959519092,-11.49699459608315,0.8624324142042209,0.9279863501389229,0.7900445910123324
1730865949.8341901,-1.5989469289779663,0.96947181224823,-9.889765739440918,-0.13366831955604924,-0.41503810698226956,-11.558505799624337,0.8634033863976635,0.9345855478128743,0.8518457630580724
1730865949.8841543,-1.5671354532241821,0.9694827198982239,-9.91878890991211,-0.13493896980821996,-0.4164645202194137,-11.612868557219057,0.8631740242753643,0.9350962115126882,0.8534941327179123
1730865949.9341342,-1.4966825246810913,0.9941743016242981,-9.964380264282227,-0.1361772785996352,-0.41758630005878283,-11.660267972898858,0.8621635922359852,0.9349091957271225,0.7904925158718027
1730865949.984129,-1.4800490140914917,0.969645619392395,-9.981051445007324,-0.13737593746961152,-0.41840559513578673,-11.700904380358725,0.860797489519304,0.9336640729049591,0.6973487435085456
1730865950.0342054,-1.459653377532959,1.016774296760559,-9.992463111877441,-0.13852714774783875,-0.4189241537448688,-11.734992380370578,0.8591057041091203,0.9313927136598257,0.5762417301915415
1730865950.0840492,-1.5144121646881104,1.049118995666504,-9.973414421081543,-0.1396224049839184,-0.4191436861803362,-11.76275970979107,0.8649767156926348,0.9417206308053767,0.8365238840525769
1730865950.1340241,-1.6105612516403198,1.0086636543273926,-9.94045639038086,-0.14065277606521404,-0.4190662890015886,-11.784445841123791,0.8645175157223892,0.9414200631975992,0.7681311387523695
1730865950.1840804,-1.5536221265792847,1.06661057472229,-9.94149398803711,-0.14160959690443004,-0.4186947637885296,-11.80030037097911,0.867059850112734,0.9496598123823001,0.8385734098649765
1730865950.2339597,-1.603241205215454,1.065562129020691,-9.964529037475586,-0.14248510271651138,-0.4180328011008089,-11.810581420761816,0.8669725559257849,0.9506116150789901,0.7720954805304907
1730865950.2839465,-1.879683494567871,1.0326447486877441,-9.866992950439453,-0.14327293538667263,-0.4170851427103203,-11.815554182331445,0.8665244498404071,0.9505336908945363,0.6745744198204447
1730865950.3339956,-2.0737950801849365,0.9914940595626831,-9.809025764465332,-0.14396936456438314,-0.41585755612227276,-11.815489350246153,0.870509767773602,0.9591290386918938,0.8331285423522052
1730865950.3840535,-1.8243703842163086,0.9407444000244141,-9.798154830932617,-0.14457506923636448,-0.414356467539488,-11.810661283329816,0.8705506622008212,0.9595438806477459,0.7641435524422718
1730865950.4339852,-1.6435387134552002,1.0102969408035278,-9.805895805358887,-0.1450955315799182,-0.4125885042684977,-11.801346294376449,0.8746260845424669,0.9707651315170648,0.833766771019459
1730865950.4839067,-1.5730770826339722,1.1460793018341064,-9.76155948638916,-0.1455391734449117,-0.41056048585125254,-11.787821386358413,0.8754169787939955,0.9732290236706781,0.7664430480186267
1730865950.5338778,-1.402429223060608,1.2469379901885986,-9.80485725402832,-0.14591474398919516,-0.4082802272595054,-11.770363267322088,0.8758384852822084,0.9746523006513309,0.6707781763238989
1730865950.5837739,-1.2801685333251953,1.27745521068573,-9.844583511352539,-0.14622922126044754,-0.4057577995003112,-11.749247553392115,0.8759001113612562,0.9750746497489238,0.5451835275920146
1730865950.6338754,-1.3144124746322632,1.2810062170028687,-9.876189231872559,-0.14648628258339583,-0.40300645035875826,-11.724748279392266,0.8755934801437607,0.9744811934280894,0.3891952767784765
1730865950.6837897,-1.3720238208770752,1.2254197597503662,-9.91110610961914,-0.1466856287427208,-0.40004274745857626,-11.697137614258871,0.8749240667867243,0.9728917974670184,0.20539538763753432
1730865950.7338083,-1.4993278980255127,1.1518988609313965,-9.931300163269043,-0.146823533952558,-0.39688599456198204,-11.666685548959776,0.8793562665659884,0.9837304996557653,0.8245961332361212
1730865950.78379,-1.6006672382354736,1.0863429307937622,-9.86929702758789,-0.14689431622553392,-0.3935571583656824,-11.63365940015175,0.8794739032008065,0.9841490322769109,0.7552911851934975
1730865950.8337855,-1.81550133228302,1.01986563205719,-9.81452465057373,-0.14689222204042465,-0.39007762224423026,-11.598322938849233,0.8832350045819104,0.9905141287309879,0.834485644167703
1730865950.8837059,-1.9375649690628052,0.9927679896354675,-9.77560806274414,-0.1468134868940684,-0.3864680707890536,-11.560935120600156,0.883827381422929,0.9912418116334508,0.7695424318189413
1730865950.9336746,-2.0457820892333984,0.9714118242263794,-9.726194381713867,-0.14665829825048807,-0.38274769579092144,-11.521748722727274,0.8840541068453496,0.9910119837259791,0.6759605108958534
1730865950.9836621,-2.0869340896606445,1.0083929300308228,-9.737180709838867,-0.14643218868091507,-0.37893382016923793,-11.481009195473739,0.8874330565286743,1.0056117948334409,0.831777860578975
1730865951.0336392,-2.0562994480133057,1.051559329032898,-9.758321762084961,-0.14614653935101693,-0.37504197963980945,-11.438953888279592,0.8879596669086928,1.0078337230958625,0.7658249965889395
1730865951.083622,-1.9736506938934326,1.1039338111877441,-9.822582244873047,-0.1458181311253072,-0.37108640676795923,-11.395811749357073,0.8969330339726147,1.0169990235284647,0.8356438428152482
1730865951.133597,-1.9302725791931152,1.1401413679122925,-9.887577056884766,-0.14546789685032857,-0.36708071687136035,-11.351803472785855,0.8996849913386236,1.0200840236053434,0.7720568977438442
1730865951.1835477,-1.8705997467041016,1.1601102352142334,-9.892549514770508,-0.14511932816339998,-0.363038541906095,-11.307141879123991,0.9062677603192604,1.0279122103322966,0.8368251889650734
1730865951.233644,-1.852792739868164,1.1702474355697632,-9.919771194458008,-0.14479701813182086,-0.35897394502714525,-11.262032191483057,0.9098333315508854,1.0315358867301938,0.773656648698107
1730865951.2836158,-1.850260853767395,1.1229956150054932,-9.914119720458984,-0.14452556726149857,-0.3549015349849441,-11.216672016937883,0.9123012222206811,1.0393751878171662,0.8371941441467127
1730865951.3335752,-1.8229795694351196,1.0839333534240723,-9.910886764526367,-0.14432887509097395,-0.35083622338547427,-11.171251100406387,0.9147919231849024,1.0427718708718299,0.7748495152854036
1730865951.3836124,-1.7985893487930298,1.0479875802993774,-9.888747215270996,-0.14422966437794088,-0.34679267916613415,-11.125950941908258,0.9209791625683714,1.0522947181363016,0.8377389889870804
1730865951.4335694,-1.7535266876220703,0.9978740811347961,-9.872357368469238,-0.14424902787509972,-0.34278468729646006,-11.080944316316419,0.9291033140560109,1.0564710290988675,0.8442969710506895
1730865951.4836032,-1.7225205898284912,0.9698752164840698,-9.863229751586914,-0.1444059282085082,-0.3388245703948178,-11.036394771120587,0.9335711105319265,1.0593623493399957,0.7848721266405134
1730865951.533507,-1.668954610824585,0.9353963732719421,-9.8529052734375,-0.1447166932612177,-0.3349227236423378,-10.99245620048107,0.9376281560377923,1.0613838830993827,0.6987992452271619
1730865951.583536,-1.6359572410583496,0.9215210676193237,-9.852986335754395,-0.14519454969011752,-0.3310873029388454,-10.949272550235515,0.9413701204071288,1.0625932311709456,0.5841193069810073
1730865951.6334298,-1.6144894361495972,0.9229671359062195,-9.850465774536133,-0.14584924920586748,-0.3273241013723611,-10.906977653337922,0.92846919266704,1.0692606771006739,0.8331831424345011
1730865951.6834772,-1.6067534685134888,0.9610587358474731,-9.857247352600098,-0.14668688158958093,-0.3236366642893256,-10.865695179401623,0.9286320972413581,1.0710932014331087,0.769799360680961
1730865951.7344527,-1.5976148843765259,1.0084751844406128,-9.867647171020508,-0.1477099181732476,-0.32002670195460103,-10.825538687480572,0.9228437777808628,1.084414269578796,0.8379964324296356
1730865951.7843916,-1.6114647388458252,1.0301212072372437,-9.874835968017578,-0.1489174380885678,-0.3164947413576599,-10.786611771364923,0.9210499178009909,1.0890562871838991,0.7770088055072044
1730865951.8344188,-1.5975745916366577,1.018343448638916,-9.889068603515625,-0.15030546913802256,-0.3130407653235736,-10.749008271064032,0.9188731814618278,1.0929286185492706,0.688755246761021
1730865951.8845086,-1.6075562238693237,0.9683912396430969,-9.893061637878418,-0.15186736676431412,-0.30966453341546657,-10.712812517005897,0.9189465160088512,1.0978906012783485,0.835480546206532
1730865951.934418,-1.626556634902954,0.905511736869812,-9.897462844848633,-0.1535941951386401,-0.30636544273370653,-10.678099576453581,0.9172405908473883,1.1005942089080165,0.7743385225575616
1730865951.9844997,-1.6508206129074097,0.8503293991088867,-9.890620231628418,-0.15547516796800193,-0.30314202481955244,-10.644935468481412,0.9143247126841477,1.1142597907235674,0.8392572903227711
1730865952.034278,-1.668717384338379,0.7852784395217896,-9.882685661315918,-0.15749817175736297,-0.2999913108988017,-10.613377325736957,0.9117259397089749,1.1195992589238049,0.7803405305656101
1730865952.0843859,-1.666137456893921,0.7490000128746033,-9.847501754760742,-0.1596502719090792,-0.29690826326502334,-10.583473486354183,0.910005959312127,1.130121415136773,0.8399359435817709
1730865952.134316,-1.6244356632232666,0.7482098340988159,-9.854060173034668,-0.16191804178037023,-0.29388541798390466,-10.555263520313751,0.9071462326401176,1.136157943630484,0.7811494402595555
1730865952.1843207,-1.5937052965164185,0.7874472141265869,-9.882034301757812,-0.1642875947593927,-0.2909129046989107,-10.528778319096752,0.903848972744278,1.1415262591735258,0.6953956420178813
1730865952.2342668,-1.5707736015319824,0.8576775789260864,-9.910017013549805,-0.16674437992320135,-0.2879789552258028,-10.50404043733151,0.9075592939628525,1.138207156210245,0.8372367758681544
1730865952.2842512,-1.587791085243225,0.9232023358345032,-9.935588836669922,-0.16927298800359256,-0.28507084079844924,-10.481064684425403,0.9093211961696323,1.1453671687464968,0.8459815765436056
1730865952.3342435,-1.5839658975601196,0.9715844392776489,-9.951668739318848,-0.1718571762786746,-0.28217599659125703,-10.459858783923362,0.9082660682618485,1.1487324154480212,0.7899765819557887
1730865952.3842833,-1.6285433769226074,0.9795622229576111,-9.949352264404297,-0.17448013031240248,-0.27928300515999005,-10.440423944666822,0.9073702736632406,1.1479389308150185,0.841195375860313
1730865952.4342704,-1.6731714010238647,0.9589577913284302,-9.931402206420898,-0.177124914465301,-0.27638217128750664,-10.422755258340876,0.9055053699112884,1.1490666266492409,0.7832675494061696
1730865952.4843504,-1.7608195543289185,0.9085907340049744,-9.892904281616211,-0.1797751259691628,-0.27346558152695993,-10.40684187840547,0.9031663818964469,1.1495159109892668,0.6983330030777257
1730865952.5342863,-1.8198007345199585,0.8613375425338745,-9.845653533935547,-0.18241573732785174,-0.27052671908703363,-10.392666984433216,0.9060798727281382,1.1597979635649025,0.8376900416628763
1730865952.5842535,-1.8743910789489746,0.8098325729370117,-9.812735557556152,-0.18503397197540516,-0.2675598321140846,-10.380207607080877,0.9045157952493216,1.1618416805428171,0.7780386977276135
1730865952.634168,-1.8814746141433716,0.8248398900032043,-9.78154468536377,-0.18761996943672007,-0.26455932074165556,-10.369434460890334,0.906438523076005,1.1742494362619529,0.8411852487728116
1730865952.6841817,-1.8178749084472656,0.9012826681137085,-9.799697875976562,-0.19016699829854714,-0.2615194746425942,-10.360311949774008,0.9052523024392576,1.1786467419501168,0.7828483012293552
1730865952.7341259,-1.7743693590164185,0.9895063042640686,-9.821540832519531,-0.1926710698298716,-0.258434833023751,-10.35279847888183,0.905136154297834,1.1849358730937676,0.8416186123947516
1730865952.7841399,-1.7426655292510986,1.0704177618026733,-9.879551887512207,-0.1951301068765475,-0.2553010930880072,-10.346847124002746,0.9035449267759992,1.1890611326530736,0.7840392213423628
1730865952.834016,-1.7173658609390259,1.144403100013733,-9.899643898010254,-0.19754307706697724,-0.2521161816441873,-10.342406563863046,0.9038452876688255,1.2016491397195883,0.841602767398699
1730865952.884022,-1.7238008975982666,1.201750636100769,-9.902915954589844,-0.19990936973776413,-0.24888115760008683,-10.339422033982885,0.902184383389081,1.207392474903436,0.783657135072014
1730865952.9340377,-1.7645459175109863,1.1820310354232788,-9.86949348449707,-0.20222850300413903,-0.2456007578081711,-10.337836024328869,0.9071606142956896,1.21928240729053,0.8424192702953373
1730865952.9839852,-1.83077871799469,1.1543887853622437,-9.82955265045166,-0.20450022549704527,-0.24228340826341593,-10.337588585871424,0.9102744868266444,1.2239151940375361,0.8480840425262848
1730865953.0339887,-1.8594506978988647,1.0799541473388672,-9.79504680633545,-0.2067249633470316,-0.2389406324652506,-10.33861732515299,0.9105953306159067,1.228265196910259,0.7936698272483474
1730865953.0839276,-1.8404059410095215,1.018115758895874,-9.759230613708496,-0.20890430304158308,-0.23558601395612142,-10.340857283610044,0.9103996203086905,1.2320739572493455,0.7126992362462248
1730865953.1339393,-1.7897979021072388,0.9865586757659912,-9.764646530151367,-0.21104110689645594,-0.23223400573659195,-10.344240892011921,0.9096840759280768,1.2352661331398713,0.606786255243827
1730865953.1840162,-1.698754072189331,1.0258070230484009,-9.786855697631836,-0.21313907540637755,-0.22889896603514193,-10.348698156333665,0.9114429620298291,1.2394220092246404,0.8376123661946051
1730865953.2339149,-1.6195176839828491,1.096706748008728,-9.849236488342285,-0.21520185399605699,-0.22559478201656719,-10.354157189192696,0.9107366951243048,1.2426585919696878,0.7778926208626505
1730865953.2839737,-1.5690386295318604,1.1863417625427246,-9.894932746887207,-0.21723196807389344,-0.22233518008855035,-10.360545078228684,0.9094762121060346,1.2453640192319497,0.6913453308783741
1730865953.3338645,-1.5596836805343628,1.2637195587158203,-9.941064834594727,-0.21922996222229346,-0.21913449114574063,-10.36778891897608,0.9111944643273204,1.256083552184477,0.8401972107227008
1730865953.384044,-1.59630286693573,1.3051685094833374,-9.960204124450684,-0.2211940441670331,-0.21600848541995693,-10.3758167682709,0.9101091550591188,1.2607667809424883,0.7805718416322079
1730865953.4338489,-1.6284863948822021,1.3273265361785889,-9.94701862335205,-0.22312030945168246,-0.21297493639706605,-10.384558324726433,0.908494719607228,1.2648318902894244,0.6963890980504994
1730865953.4840422,-1.6553434133529663,1.316172480583191,-9.920696258544922,-0.2250033612854647,-0.2100537431617619,-10.393945230065496,0.9111166204202078,1.2682815664540188,0.8398287046196905
1730865953.5338588,-1.6599690914154053,1.2806527614593506,-9.860176086425781,-0.2268369975421732,-0.20726660945313796,-10.403910983019987,0.9133809983080876,1.280045133015818,0.8488748355752826
1730865953.583919,-1.6765570640563965,1.1801283359527588,-9.819402694702148,-0.22861473531689014,-0.20463630767337593,-10.414390557799532,0.9129447417722978,1.2854035539837363,0.7928193652265582
1730865953.6338382,-1.6720153093338013,1.0732054710388184,-9.787087440490723,-0.23033014506464486,-0.20218551807433033,-10.425319910936668,0.9158019683115602,1.2949650732339895,0.8444360217674187
1730865953.6838663,-1.6663193702697754,0.9791675806045532,-9.763050079345703,-0.23197704096241684,-0.19993534969733703,-10.43663559137057,0.9155361396094558,1.3006979008213615,0.7865126953379229
1730865953.7339408,-1.6707918643951416,0.9239218235015869,-9.750232696533203,-0.23354955817487952,-0.19790388032697784,-10.44827455952222,0.9146904264128183,1.305907532724979,0.7027869865822989
1730865953.7837968,-1.6994575262069702,0.9047927856445312,-9.781537055969238,-0.23504220588326094,-0.1961051005763442,-10.460174233633388,0.9199343537495762,1.3039593296068903,0.8400197575374233
1730865953.8338177,-1.7137017250061035,0.9450106620788574,-9.824131965637207,-0.23645001777220248,-0.19454848877512596,-10.472272822840843,0.9199417057519185,1.3071168768238466,0.7805674821557789
1730865953.8838098,-1.7199853658676147,1.0237822532653809,-9.900525093078613,-0.23776878442779031,-0.1932392896002577,-10.484509989959111,0.9255247269562124,1.3132586106016497,0.8428902338485854
1730865953.933771,-1.7121604681015015,1.109671950340271,-9.941783905029297,-0.23899522214650742,-0.19217942480500091,-10.496827748874122,0.9310435381146318,1.3186977554716848,0.8487519604585637
1730865953.9838536,-1.7125602960586548,1.1412822008132935,-9.991416931152344,-0.24012699186742026,-0.19136873202703553,-10.50917137384903,0.93295192150115,1.3223866826646131,0.7926943951786766
1730865954.033785,-1.7383090257644653,1.1559922695159912,-9.991555213928223,-0.2411626412109686,-0.1908060577787848,-10.521490090946894,0.9342484575764333,1.3255702309729176,0.7111537430736226
1730865954.0837812,-1.7700742483139038,1.0934906005859375,-9.966474533081055,-0.2421016297560486,-0.19048983153746926,-10.533737395470851,0.9328496981396162,1.3329633015894349,0.8396185615613457
1730865954.1337168,-1.7931220531463623,1.0574482679367065,-9.924484252929688,-0.24294450845641502,-0.1904180218150349,-10.545870923563266,0.9326848298400542,1.3363240962854004,0.7799676141408871
1730865954.1838078,-1.8051255941390991,0.9757516384124756,-9.861323356628418,-0.24369314937814496,-0.1905876304690427,-10.557851933252918,0.9345876510356136,1.3493547097435696,0.8423876418082473
1730865954.233678,-1.8243852853775024,0.909440279006958,-9.807530403137207,-0.2443508891095182,-0.19099397330883283,-10.569644551008706,0.9344367183538655,1.35524587135327,0.7837739395098037
1730865954.2837088,-1.831785798072815,0.8526820540428162,-9.77783489227295,-0.24492256200414125,-0.19162993291344885,-10.581214978988562,0.9348871859813079,1.3568825660775279,0.8427024546230099
1730865954.3335953,-1.7967559099197388,0.8678164482116699,-9.767488479614258,-0.24541441948291687,-0.19248539654135782,-10.592530883283018,0.9341511936059244,1.3606885433609726,0.7839751695119513
1730865954.3836603,-1.7605763673782349,0.9291214346885681,-9.799591064453125,-0.24583384056298901,-0.19354718388613326,-10.60356113179659,0.9353056833482347,1.3722151428848974,0.8424773846551322
1730865954.433618,-1.710945725440979,1.0032237768173218,-9.818702697753906,-0.24618878822371865,-0.19479964087007845,-10.614275919728545,0.9343793134316364,1.3775926395750444,0.783803028761218
1730865954.4836576,-1.7012803554534912,1.053971767425537,-9.838756561279297,-0.24648715551992967,-0.19622572078785513,-10.624647156054458,0.9360076817387492,1.3825367726001039,0.8426366295516482
1730865954.5335536,-1.6881037950515747,1.0379717350006104,-9.849413871765137,-0.2467362334896286,-0.19780808167342748,-10.634648886863806,0.9350763348035767,1.3869731917036285,0.7835321012963651
1730865954.5836434,-1.7113316059112549,0.9963055849075317,-9.854170799255371,-0.2469424495675259,-0.1995297275545942,-10.644257606565905,0.93685399623998,1.3909677251467654,0.842256520483773
1730865954.6335702,-1.745736837387085,0.9328804016113281,-9.85682487487793,-0.24711140645605034,-0.20137401224516252,-10.653452429584473,0.9359835904170648,1.3943932895756241,0.7832082596182826
1730865954.683587,-1.7479357719421387,0.8603179454803467,-9.831171989440918,-0.2472481531597011,-0.2033241606190741,-10.662215124671238,0.9344836074829249,1.397348729825527,0.6967785790781176
1730865954.733575,-1.7491909265518188,0.843873918056488,-9.839099884033203,-0.24735749055016956,-0.2053626202790857,-10.670530016118725,0.9373849814416447,1.3998122716624009,0.8389179694428046
1730865954.7836032,-1.719849944114685,0.8954249024391174,-9.856204986572266,-0.2474440996359433,-0.2074706420700569,-10.678383847982829,0.9362473186186717,1.4017314774274563,0.7778747901807721
1730865954.8335345,-1.69038987159729,1.013269066810608,-9.893735885620117,-0.24751242859625525,-0.2096285026519891,-10.685765782612794,0.9405400461526354,1.4031961514370892,0.8423238164231771
1730865954.8834958,-1.6407148838043213,1.1782209873199463,-9.94733715057373,-0.2475663815552167,-0.2118165565854725,-10.692667615744543,0.9443321103085991,7.809599135929241,0.8479757241549472
1730865954.9335127,-1.5968351364135742,1.3148117065429688,-9.980710983276367,-0.24760888012437313,-0.21401693515865022,-10.699084151606465,0.94532129895283,8.914672524538748,0.7911712238037847
1730865954.9834745,-1.5788203477859497,1.3853707313537598,-9.986942291259766,-0.24764140890003672,-0.21621536866955327,-10.70501356592891,0.9456958398180366,10.026137225210945,0.7071780147212021
1730865955.0333755,-1.59587824344635,1.345052719116211,-9.986001014709473,-0.24766372945758303,-0.2184024364578204,-10.710457544209909,0.9459418634114063,7.300322695823466,0.8393557392644554
1730865955.0834413,-1.6471034288406372,1.241713523864746,-9.92891788482666,-0.24767395769936654,-0.22057370376888852,-10.715421081652615,0.9455127923988088,7.523802499323182,0.7780189669427034
1730865955.1334794,-1.7504501342773438,1.1041513681411743,-9.85863208770752,-0.2476691075920905,-0.2227286624432063,-10.719911909215359,0.9444677002141714,7.745082414891793,0.6903396587153667
1730865955.1834555,-1.8304283618927002,0.9711137413978577,-9.74976921081543,-0.24764606769369588,-0.22486886843542012,-10.723939540744984,0.9499564674718568,6.8867233408967365,0.838217357592626
1730865955.2333221,-1.9156988859176636,0.9128645658493042,-9.670672416687012,-0.24760278944956832,-0.22699590850418846,-10.727514052604946,0.9499129986814414,6.929586397653307,0.7773333943474205
1730865955.2834413,-1.9563443660736084,0.903839647769928,-9.61693286895752,-0.24753935508691488,-0.22910983150973363,-10.73064486583548,0.9492506972932483,6.972324602385665,0.6890185692048894
1730865955.3332965,-1.9563443660736084,0.903839647769928,-9.61693286895752,-0.2474586526488807,-0.23120840980940813,-10.733339870959375,0.9479768110803025,7.014227051648308,0.5745514393043247
1730865955.3332965,-1.9662718772888184,0.9583784937858582,-9.625625610351562,-0.24736653361628105,-0.23328716130287191,-10.735605115525301,0.9479669903023701,7.014485282601679,0.5737580286050024
1730865955.3834836,-1.923431158065796,1.0500279664993286,-9.705564498901367,-0.24727152098077929,-0.23533992050214836,-10.737445066819127,0.9566109310401121,6.714869314829109,0.8373908202303301
1730865955.4342368,-1.8367159366607666,1.1513241529464722,-9.823517799377441,-0.2471841624649521,-0.23735986022846112,-10.73886341046235,0.9569305973548332,6.718592590452136,0.7774207573481869
1730865955.4842105,-1.7143102884292603,1.2665013074874878,-9.948857307434082,-0.247115975805613,-0.23934082238176135,-10.739864348328059,0.9613581304322176,6.673791251834039,0.8427060288554509
1730865955.5342638,-1.5934988260269165,1.3747628927230835,-10.055098533630371,-0.24707799091750157,-0.24127872126224328,-10.740454175364947,0.9621372672480575,6.671224511718746,0.7834620882805398
1730865955.5842412,-1.4835880994796753,1.4298890829086304,-10.111140251159668,-0.24707912991359804,-0.24317278247423132,-10.74064272117619,0.9648366040941861,6.656598021941144,0.8420017583896973
1730865955.6342456,-1.443881630897522,1.4316983222961426,-10.103753089904785,-0.24712479542665727,-0.24502633751549913,-10.740444250769327,0.9654040258864359,6.65245836999354,0.7831607591588994
1730865955.6842623,-1.4952565431594849,1.3775787353515625,-10.049909591674805,-0.247216078203162,-0.24684690615368232,-10.739877569998612,0.9675784392594423,6.64782324578512,0.8373773860437909
1730865955.7341847,-1.6399167776107788,1.2702287435531616,-9.953142166137695,-0.24734996595687556,-0.24864547816147645,-10.738965309227801,0.9676337016479014,6.643998043881433,0.7767710849640683
1730865955.7842758,-1.8158236742019653,1.1555479764938354,-9.814238548278809,-0.24752068797206242,-0.2504351168728003,-10.73773254521285,0.9689255182289939,6.638854730308328,0.8307881994680276
1730865955.8341494,-1.987913966178894,1.0372942686080933,-9.684324264526367,-0.24772189456060678,-0.2522291761454937,-10.736204993281671,0.9693297301591983,6.636717391434231,0.8328215504552486
1730865955.8841746,-2.1046435832977295,0.9711049795150757,-9.589987754821777,-0.2479490388318622,-0.25403952883674774,-10.73440709590167,0.9687500737379586,6.632553283462579,0.7725432622678311
1730865955.9341092,-2.1483964920043945,0.9394667744636536,-9.553539276123047,-0.24820128917173667,-0.2558751990999314,-10.732360444129862,0.967561234348279,6.627804100105913,0.6863119589688819
1730865955.9841945,-2.121264934539795,0.9565346837043762,-9.586009979248047,-0.24848249708610542,-0.2577416599306157,-10.73008291991679,0.9657367608949332,6.622359783186135,0.5722395093382632
1730865956.0340698,-2.039263963699341,0.9619608521461487,-9.645097732543945,-0.24880105913001616,-0.25964081130093986,-10.72758872581116,0.9695493891952905,6.6299937019165265,0.817084664396572
1730865956.0840585,-1.9312196969985962,0.9948458671569824,-9.719782829284668,-0.24916882442358862,-0.26157141973395925,-10.724889170861957,0.9684159952126813,6.626462807546972,0.753035257765142
1730865956.1340225,-1.8107657432556152,1.0069457292556763,-9.799466133117676,-0.2495993972419443,-0.2635297529333025,-10.72199387270261,0.9666707626619054,6.622309746469236,0.6628207458201516
1730865956.184022,-1.7375962734222412,1.0039891004562378,-9.883305549621582,-0.2501062631356007,-0.26551021211971687,-10.718912058676832,0.9642975219282931,6.617485530762976,0.5456185339311194
1730865956.2339506,-1.6901278495788574,0.9899908900260925,-9.963652610778809,-0.25070117454888163,-0.26750580633907195,-10.715653790665998,0.9755018176453648,6.623802349505243,0.8134259634173442
1730865956.2840056,-1.6511867046356201,1.0167818069458008,-10.022025108337402,-0.2513930807703828,-0.26950844145853603,-10.712231013053398,0.9753614118416675,6.620396632521142,0.7493885746563451
1730865956.3338845,-1.626352071762085,1.0566904544830322,-10.058816909790039,-0.25218758799270935,-0.2715092094691115,-10.708658316773654,0.9814695716286974,6.6285981976266815,0.8204928709702758
1730865956.3839247,-1.6089198589324951,1.1275053024291992,-10.08283519744873,-0.2530867751303185,-0.27349889066564287,-10.70495333286889,0.9819811822559871,6.627565833378056,0.7604463346090954
1730865956.433835,-1.548673152923584,1.161179542541504,-10.08017635345459,-0.25408919553012677,-0.2754686741882935,-10.701136752846377,0.9899429848563082,6.633566562732216,0.8217710785214924
1730865956.4838657,-1.5168516635894775,1.1840696334838867,-10.051786422729492,-0.2551898904900102,-0.2774108771422928,-10.697232013196299,0.9960575284009262,6.637891832776362,0.8327301229888024
1730865956.533793,-1.4813148975372314,1.1318827867507935,-9.987784385681152,-0.2563803521101291,-0.2793193624300389,-10.693264648395312,0.9987650576725053,6.638762338445396,0.7783933445677566
1730865956.5838237,-1.4938756227493286,1.0512200593948364,-9.905617713928223,-0.25764857438252387,-0.28118941935825353,-10.689261312069643,1.0008604734242268,6.638939691565749,0.6965343143051608
1730865956.6337664,-1.5253958702087402,0.9455553293228149,-9.82075309753418,-0.25897937842682,-0.28301704665424826,-10.685248541654907,1.0022909291922977,6.6384138794319085,0.5890023091850023
1730865956.683823,-1.6069215536117554,0.8572342395782471,-9.72569751739502,-0.26035511946634804,-0.2847978311060936,-10.681251428323026,1.0010091952353328,6.643674818421494,0.8262467825115588
1730865956.7337284,-1.7038275003433228,0.803158164024353,-9.66273307800293,-0.2617567915679396,-0.2865257927923322,-10.67729237141065,1.0014990534238177,6.643769274300432,0.7658234729961947
1730865956.7837372,-1.8090814352035522,0.8006678223609924,-9.635173797607422,-0.26316543600950254,-0.288192575931625,-10.673390106717907,1.0046283205791369,6.6496875829301425,0.8355237327295337
1730865956.8336544,-1.8927173614501953,0.8072279691696167,-9.634767532348633,-0.2645636369885302,-0.2897872148607607,-10.669559200260887,1.0081936060771253,6.6476930374819805,0.8455469150787343
1730865956.883653,-1.9440635442733765,0.8602471947669983,-9.668485641479492,-0.2659368209059809,-0.2912964655743605,-10.665810085051385,1.0090523826885207,6.646678191039796,0.7908662411738516
1730865956.9336395,-1.9826576709747314,0.9154075980186462,-9.733817100524902,-0.267274133033249,-0.29270555750085814,-10.662149588692522,1.0092441395212273,6.644930587582589,0.709405237906198
1730865956.9837236,-1.9989776611328125,0.9727869033813477,-9.810914993286133,-0.26856883303236523,-0.29399919902558774,-10.658581857107997,1.012543816270953,6.643954249772741,0.8409522365912373
1730865957.033659,-1.9968469142913818,1.0430967807769775,-9.891023635864258,-0.2698182843562511,-0.2951626538730459,-10.655109529618105,1.0127549898414916,6.6417445839635265,0.7819517315621671
1730865957.083661,-1.9078164100646973,1.1033395528793335,-9.982389450073242,-0.2710235583430063,-0.29618275703361474,-10.651734980069433,1.0122896485039665,6.638779999592157,0.6958794840657255
1730865957.1336153,-1.811535358428955,1.1505705118179321,-10.037453651428223,-0.27218854348758276,-0.29704879924497485,-10.648461465197464,1.0163628723877665,6.6411049220784735,0.8396753783387643
1730865957.1835968,-1.684177279472351,1.158101201057434,-10.068291664123535,-0.2733185449663456,-0.29775316795119056,-10.645294014858576,1.0162791514396832,6.6387105853049455,0.7789272078238458
1730865957.2335598,-1.607757568359375,1.1402833461761475,-10.083259582519531,-0.27441864257590065,-0.29829160022118834,-10.64223990760733,1.0155123922163434,6.635580785452269,0.6918281290783014
1730865957.2836456,-1.5794684886932373,1.0847864151000977,-10.054425239562988,-0.27549225219795337,-0.2986629668109104,-10.639308693747527,1.0140628486338423,6.6317124608776945,0.5783720277831951
1730865957.3335211,-1.6266781091690063,1.0333889722824097,-10.00820255279541,-0.27654032091211644,-0.29886863121144625,-10.636511801707792,1.0220998269703339,6.6173053911727475,0.8369012686726646
1730865957.3835816,-1.7076492309570312,0.985153317451477,-9.948284149169922,-0.27756139006022973,-0.2989115647864267,-10.633861782909424,1.0261758879323528,6.595844855459427,0.8472258038183195
1730865957.4335127,-1.7534598112106323,0.9991579055786133,-9.872818946838379,-0.27855239468639365,-0.29879550820822287,-10.631371319325464,1.026749268725187,6.585039369483372,0.7904850065920173
1730865957.4836228,-1.761965274810791,1.019677996635437,-9.80775260925293,-0.279509700320593,-0.2985244781256201,-10.629052147851795,1.0266290703077985,6.573393702017443,0.7066480480436146
1730865957.5335631,-1.7332777976989746,1.0601274967193604,-9.740081787109375,-0.2804298243959816,-0.29810273698154366,-10.626914036110092,1.025808932933104,6.561040307718886,0.5965025719377778
1730865957.5835302,-1.7360866069793701,1.0578792095184326,-9.706241607666016,-0.2813096466247793,-0.2975350590149916,-10.6249639378673,1.0242755827673484,6.547858479988111,0.4588774391424442
1730865957.633568,-1.7078824043273926,1.0534155368804932,-9.675688743591309,-0.2821463046813124,-0.29682698041434885,-10.623205437645527,1.0303442269456369,6.566078578187975,0.8352919558496336
1730865957.683474,-1.7233083248138428,1.0290294885635376,-9.678693771362305,-0.2829370351919378,-0.29598482256811176,-10.621638539802259,1.0298176510722243,6.557977653007662,0.7731467092275719
1730865957.733404,-1.7296462059020996,1.0342074632644653,-9.693284034729004,-0.2836791011064234,-0.2950155079807786,-10.620259798214866,1.0349565671058283,6.5388425528197835,0.8422502868663343
1730865957.7834828,-1.7782323360443115,1.0552161931991577,-9.738544464111328,-0.2843698893891005,-0.2939263613139769,-10.619062759806338,1.0353590433434647,6.5254597625619715,0.78249010470796
1730865957.833414,-1.8271551132202148,1.1032934188842773,-9.756502151489258,-0.2850072267589439,-0.2927251001319149,-10.618038650246007,1.0350488285475916,6.511508732727586,0.6970472651901337
1730865957.8834038,-1.8970963954925537,1.1459044218063354,-9.80887222290039,-0.28558989870402574,-0.29142008545653836,-10.617177156523182,1.034018194623712,6.496667706463954,0.5839671031324029
1730865957.933347,-1.9201931953430176,1.1988476514816284,-9.833016395568848,-0.2861182586935473,-0.2900207422049911,-10.616467185115951,1.0385874783707827,6.51128486847072,0.8372187313552383
1730865957.983341,-1.93211030960083,1.2210768461227417,-9.855461120605469,-0.286594700756098,-0.2885379904805404,-10.615897531079492,1.0380204095584133,6.502369016274955,0.7755505670449089
1730865958.0332818,-1.8952357769012451,1.1917591094970703,-9.863088607788086,-0.28702377437034426,-0.28698449191243364,-10.615457379236377,1.0430583629794314,6.5038485731900355,0.843061139808641
1730865958.0833924,-1.8420480489730835,1.143674373626709,-9.883455276489258,-0.28741185407979297,-0.2853744957175782,-10.615136607691284,1.0433786161439103,6.496522237882114,0.7831885380517117
1730865958.1332362,-1.7618697881698608,1.129366159439087,-9.8805570602417,-0.28776640569098755,-0.2837232652277566,-10.614925954690685,1.0458625574532612,6.495768583602951,0.8430686279210373
1730865958.1833367,-1.694387674331665,1.115341305732727,-9.905627250671387,-0.2880949875511712,-0.2820463782726871,-10.614817109009254,1.0458601658601385,6.489062543259248,0.7834083117846681
1730865958.2332082,-1.6100733280181885,1.094612956047058,-9.931663513183594,-0.2884041804528613,-0.2803591843023986,-10.614802786936316,1.0451364415397952,6.481720197655356,0.6977837966198832
1730865958.2832747,-1.5418109893798828,1.0807050466537476,-9.972339630126953,-0.2886985986111461,-0.27867642578352186,-10.614876883260674,1.049782374012054,6.486555309682347,0.8386287147178514
1730865958.3331993,-1.499990701675415,1.0729589462280273,-10.015694618225098,-0.2889800838887951,-0.27701194091083986,-10.615034727224835,1.0520159004919787,6.478709404546916,0.8472105772803807
1730865958.383289,-1.4388550519943237,1.0682786703109741,-10.016959190368652,-0.2892471699239533,-0.27537845180897025,-10.615273363166644,1.0519570353357837,6.472259990476311,0.7900669150518959
1730865958.4332135,-1.4234479665756226,1.0768064260482788,-10.036955833435059,-0.28949482539431104,-0.2737874650769271,-10.615591701897468,1.0552794675280597,6.471578562039314,0.8415525321595942
1730865958.4831707,-1.4432932138442993,1.1116139888763428,-10.005428314208984,-0.28971448397529287,-0.2722493107013113,-10.615990442902838,1.055523744709726,6.46569156703365,0.7821144911692945
1730865958.5341525,-1.5085569620132446,1.1484904289245605,-9.962830543518066,-0.28989448641109816,-0.2707733666320074,-10.616471742057781,1.0550278451897948,6.459015013157308,0.694487266924669
1730865958.5831633,-1.5824558734893799,1.1850098371505737,-9.87814998626709,-0.29002100855745466,-0.26936845354399963,-10.617038583695491,1.0567717044959668,6.459564227241125,0.8376809687037355
1730865958.6341417,-1.7026240825653076,1.1562330722808838,-9.797066688537598,-0.2900793692118789,-0.2680432279275956,-10.617693858716008,1.0560109952514343,6.453932608231157,0.775668592301516
1730865958.6841717,-1.8434793949127197,1.0966352224349976,-9.701960563659668,-0.29005558615599597,-0.2668062782041702,-10.618439267870444,1.054528856055949,6.4477256468912625,0.6878701369898518
1730865958.7341104,-1.9647480249404907,1.0394996404647827,-9.635427474975586,-0.28993807542680616,-0.2656657408454266,-10.619274236766342,1.052340002040437,6.440910641248718,0.5744758870135412
1730865958.7841659,-2.0362460613250732,0.9632866978645325,-9.589738845825195,-0.28971924270907845,-0.26462856454344197,-10.620195042780315,1.0584276815999414,6.446422306317817,0.8344704101112742
1730865958.8331368,-2.0580220222473145,0.9396564364433289,-9.595098495483398,-0.28939657798487983,-0.2636997172084495,-10.621194340978484,1.0574184864479093,6.441356979235189,0.7740197456225937
1730865958.8841126,-2.0260348320007324,0.9472898840904236,-9.640368461608887,-0.2889729785557802,-0.262881628021041,-10.62226123072294,1.0594574000010786,6.432562447223861,0.8399289835803225
1730865958.9341154,-1.9630955457687378,1.0134309530258179,-9.721592903137207,-0.2884562717499694,-0.2621741238213988,-10.62338191224173,1.0583531339139933,6.426006975700318,0.7803451580832812
1730865958.984118,-1.895137906074524,1.0919886827468872,-9.815616607666016,-0.28785811787208265,-0.2615749670247778,-10.624540844280697,1.0606904423922863,6.4163710020007425,0.8407748544936808
1730865959.0339692,-1.8222602605819702,1.1473636627197266,-9.905097961425781,-0.2871925999465963,-0.261080835677722,-10.625722181128113,1.0596863155554082,6.408201741417091,0.7820215023618522
1730865959.0840662,-1.7455374002456665,1.1361726522445679,-9.956357955932617,-0.28647478265933135,-0.2606883308491466,-10.626911188035985,1.0635238157344522,6.3986483363729265,0.8413181693725769
1730865959.1339521,-1.700907826423645,1.1482601165771484,-10.000899314880371,-0.28571941223971425,-0.2603945868113955,-10.628095347704734,1.0632239051865962,6.388043186176611,0.7822772010655678
1730865959.1839936,-1.7207727432250977,1.1174755096435547,-10.020934104919434,-0.2849399394086606,-0.2601973967241722,-10.629265022626319,1.0622058211440237,6.376722434584719,0.6962037661037584
1730865959.233999,-1.7523990869522095,1.134559988975525,-9.988039016723633,-0.28414809564318144,-0.260095065547806,-10.630413674711097,1.064315954815049,6.386930478418833,0.8409824355548225
1730865959.2839696,-1.8286563158035278,1.1376848220825195,-9.950651168823242,-0.2833540897484039,-0.2600862308768618,-10.631537633300521,1.0632547855306473,6.380152436936056,0.7810880625810908
1730865959.3339097,-1.8731988668441772,1.1633003950119019,-9.883402824401855,-0.2825672431460223,-0.26016980125348665,-10.632635443590708,1.066409997360921,6.373182207192014,0.8475164641662408
1730865959.3839538,-1.87714421749115,1.2097761631011963,-9.829784393310547,-0.28179672454030125,-0.26034505768039845,-10.633706956536733,1.0681470154514252,6.368038898082005,0.8551386147698404
1730865959.43391,-1.8527741432189941,1.2444229125976562,-9.779115676879883,-0.281051998245443,-0.260611912770097,-10.634752368164447,1.0676321273572236,6.361570432576311,0.8004368162480422
1730865959.483997,-1.7791498899459839,1.2536530494689941,-9.761033058166504,-0.28034275638357126,-0.260971237112662,-10.635771402450322,1.0664050883843867,6.354318011004985,0.7180336720122289
1730865959.5338774,-1.7433054447174072,1.2289862632751465,-9.7857084274292,-0.27967838230586134,-0.26142503236397463,-10.636762817804366,1.069913131328812,6.336756606835866,0.8500841554621005
1730865959.583923,-1.7001326084136963,1.2023404836654663,-9.813427925109863,-0.2790672183320133,-0.26197627748127894,-10.637724356050816,1.0690559195188551,6.3258034536537355,0.7901637009471477
1730865959.6338441,-1.658395528793335,1.1724835634231567,-9.855494499206543,-0.27851592754791804,-0.2626284885423491,-10.63865308731486,1.0716149839922118,6.304541629453239,0.8557847268003868
1730865959.6838272,-1.589672565460205,1.1396898031234741,-9.88569164276123,-0.27802900081285686,-0.2633851657001317,-10.639545953265253,1.0733156417643224,6.284706573123837,0.8611402545751224
1730865959.733828,-1.5081108808517456,1.1046420335769653,-9.922158241271973,-0.2776082680634895,-0.26424925308322866,-10.640400321620913,1.0728729947358735,6.26877502168243,0.8047785870718871
1730865959.7838185,-1.4295170307159424,1.1049782037734985,-9.95274543762207,-0.2772523235151261,-0.2652226785160778,-10.641214461160576,1.0717311717050373,6.252161768754603,0.7215632311643797
1730865959.833836,-1.4295170307159424,1.1049782037734985,-9.95274543762207,-0.2769559934332043,-0.26630607385470806,-10.64198789086918,1.0699082451732738,6.235017116095841,0.6125006319576216
1730865959.833836,-1.4276865720748901,1.1359474658966064,-9.951932907104492,-0.27671015881269584,-0.26749875807985607,-10.64272153141887,1.0698958653276485,6.23491733612514,0.6118021796407422
1730865959.8838398,-1.4848183393478394,1.1582427024841309,-9.916403770446777,-0.2765021265938984,-0.26879896454425933,-10.643417602234928,1.0737387813096053,6.256005687436085,0.8507246590078303
1730865959.9337692,-1.5948827266693115,1.1681678295135498,-9.850994110107422,-0.27631652961036546,-0.2702042017093534,-10.644079246430096,1.0753556517834124,6.2327343207039005,0.860598856551367
1730865959.9839382,-1.7093874216079712,1.1369863748550415,-9.79179573059082,-0.2761367074545139,-0.2717115508365673,-10.644709880630078,1.0745920646913039,6.218247258582866,0.8044228385755176
1730865960.0338023,-1.8193243741989136,1.1080282926559448,-9.737626075744629,-0.2759464110169527,-0.27331770824090246,-10.645312378656692,1.0770992502266508,6.22544134674775,0.8554940092336556
1730865960.083812,-1.884267807006836,1.1029753684997559,-9.714607238769531,-0.2757314638308301,-0.27501878193852414,-10.645888325115868,1.0763733100479913,6.217677871040082,0.796410920635362
1730865960.1337838,-1.9105286598205566,1.1115912199020386,-9.716594696044922,-0.27548099772535073,-0.2768100784661566,-10.646437554131758,1.0749689936672937,6.2093043761147095,0.7114283037383794
1730865960.1837988,-1.9257912635803223,1.116139531135559,-9.744019508361816,-0.2751880641704171,-0.27868607854816574,-10.646958083967379,1.0786601356630978,6.209652128876875,0.8505083833183679
1730865960.2337227,-1.9447674751281738,1.1083884239196777,-9.78177261352539,-0.2748496996109561,-0.2806405643991984,-10.647446437126206,1.0777551896903408,6.201591724988998,0.7896612437463673
1730865960.28374,-1.942165493965149,1.0875669717788696,-9.824285507202148,-0.27446669015874037,-0.28266673144958354,-10.64789822900142,1.0803968401517858,6.192258654740912,0.8532767141568036
1730865960.3336928,-1.9253342151641846,1.0885087251663208,-9.844911575317383,-0.2740431820108424,-0.2847571971459725,-10.64830884847532,1.0796934452475768,6.182217250087741,0.7938141452333859
1730865960.383695,-1.8715403079986572,1.0781447887420654,-9.8873929977417,-0.27358611105317787,-0.28690396855220357,-10.648674068086542,1.0782982598359707,6.171407919529803,0.7072902969230963
1730865960.4336674,-1.8378441333770752,1.0401469469070435,-9.917705535888672,-0.2731044157299838,-0.28909841995331587,-10.648990536264423,1.076236833379726,6.159983672682095,0.5951113055669847
1730865960.48365,-1.7672381401062012,1.032460331916809,-9.951805114746094,-0.2726081092407594,-0.2913312193183348,-10.6492561901515,1.0841583328241453,6.176927414733819,0.8438351593657328
1730865960.5337403,-1.7021394968032837,1.0370874404907227,-9.975760459899902,-0.2721073085921261,-0.2935922293119466,-10.649470589981089,1.0834204630108561,6.170722685901776,0.7814101942397155
1730865960.5838394,-1.65043306350708,1.073177456855774,-10.0149564743042,-0.2716112754655886,-0.2958705650319441,-10.649635157669865,1.0889890439357293,6.163742312328618,0.8449153641265749
1730865960.6337297,-1.6014059782028198,1.14634108543396,-10.020565032958984,-0.27112757288024814,-0.2981549550494105,-10.649753329163007,1.0892584196335888,6.156072561414476,0.7839630579050523
1730865960.6836996,-1.5850491523742676,1.22859787940979,-9.987622261047363,-0.2706614634042225,-0.3004344414623853,-10.64983055169126,1.0935203178021982,6.147596773563737,0.8414778042877229
1730865960.733647,-1.6096011400222778,1.2526041269302368,-9.945744514465332,-0.2702156447859893,-0.3026992809323791,-10.64987397246539,1.0940778602112013,6.138421836621719,0.7804172502476209
1730865960.7837098,-1.665219783782959,1.2559261322021484,-9.857342720031738,-0.2697904275976236,-0.30494168301843005,-10.649891761449489,1.093960717530682,6.128428170093575,0.6922402582111981
1730865960.8336103,-1.7471556663513184,1.2027697563171387,-9.769553184509277,-0.26938439011678283,-0.30715604475112135,-10.649892136338593,1.0931748941135162,6.117765942623473,0.5784146874693964
1730865960.8836133,-1.8258168697357178,1.1118991374969482,-9.667461395263672,-0.26899539109785103,-0.3093385772609216,-10.649882201868548,1.096276646465396,6.10624624203788,0.8322225570224457
1730865960.9335773,-1.8815194368362427,1.0185134410858154,-9.608986854553223,-0.26862169678370007,-0.3114864006607372,-10.649866790268508,1.0958050752822523,6.093840307030549,0.7684228971197359
1730865960.9835758,-1.8734042644500732,0.954424262046814,-9.58102798461914,-0.268262898076318,-0.3135963595578498,-10.649847569624688,1.099718793088638,6.080878161977248,0.8349150768910094
1730865961.033538,-1.8734042644500732,0.954424262046814,-9.58102798461914,-0.26792033880265514,-0.31566398670378426,-10.64982264382652,1.099570831647902,6.067071399999992,0.7744620776273502
1730865961.033538,-1.824157476425171,0.9195178747177124,-9.613903045654297,-0.2675970122644862,-0.3176829567043267,-10.649786695965656,1.0995681141430187,6.0669915374101855,0.7740471784222468
1730865961.0836797,-1.7324042320251465,0.9404146075248718,-9.695297241210938,-0.2672970300010647,-0.3196450226119131,-10.649731616111652,1.0987492555313887,6.05237540134759,0.6868430077582701
1730865961.133535,-1.6441199779510498,0.9858413338661194,-9.814929962158203,-0.26702471139506356,-0.32154028213424357,-10.649647586766623,1.1009648277339699,1.499940468439131,0.8418787466081764
1730865961.1836119,-1.5686087608337402,1.074684739112854,-9.920032501220703,-0.2667834308094386,-0.3233577904778983,-10.649524560001005,1.100161992978987,1.1985312216964814,0.7849355750430924
1730865961.2334654,-1.542607307434082,1.151999592781067,-10.003628730773926,-0.26657456044679323,-0.32508654763924594,-10.649353858613157,1.1010297286617954,1.5091551889787862,0.8462404011547401
1730865961.283573,-1.5542049407958984,1.2301385402679443,-10.041191101074219,-0.26639685118366674,-0.32671667619907585,-10.649129507955648,1.0998950956594173,1.4313644477807845,0.7890791388763019
1730865961.3333614,-1.6225168704986572,1.2406723499298096,-10.066964149475098,-0.26624644126986907,-0.3282404724536393,-10.648849027692965,1.0981174063191306,1.3538717666424516,0.706373097429139
1730865961.3834236,-1.7253564596176147,1.2138913869857788,-10.027120590209961,-0.26611752422485824,-0.3296530035302123,-10.648513623672102,1.0956481419544266,1.2745046644933877,0.5958434157778776
1730865961.4334004,-1.8377536535263062,1.1672279834747314,-9.96264362335205,-0.26600356029096955,-0.33095206111060316,-10.648127799821305,1.1009567863173717,1.5789333202502807,0.8414874506507592
1730865961.4834306,-1.8791604042053223,1.118408203125,-9.90227222442627,-0.2658987112273276,-0.3321375752425485,-10.647698464600287,1.0995410095048184,1.5639435762958471,0.7803673033000523
1730865961.5334456,-1.8703622817993164,1.049418330192566,-9.87574577331543,-0.26579897890357485,-0.33321076474807954,-10.647233806148042,1.1021807756183464,1.613688464346215,0.8497462223750334
1730865961.5833516,-1.7904411554336548,0.9940613508224487,-9.860814094543457,-0.2657025897253089,-0.3341732247155675,-10.64674232468904,1.1027110864699223,1.6243884549421939,0.8591080355204096
1730865961.6333067,-1.6464136838912964,0.9628157019615173,-9.86606502532959,-0.26560946442783856,-0.335026084592141,-10.646232237999053,1.1016742588201347,1.6213903732598043,0.8047679718297642
1730865961.683353,-1.5627888441085815,0.9482263922691345,-9.848698616027832,-0.2655199438494936,-0.3357694010306551,-10.645711215856453,1.0999699516079424,1.6175448104490706,0.7236360576170826
1730865961.7333167,-1.562458872795105,0.9341247081756592,-9.841981887817383,-0.26543334794177353,-0.3364018783996245,-10.645186266207475,1.0976050550855239,1.612865960544854,0.6160376479085506
1730865961.783527,-1.5797141790390015,0.9555282592773438,-9.840194702148438,-0.265347112234739,-0.3369208727265152,-10.644663646297804,1.1025142336157796,1.6301743249069636,0.8463991989821192
1730865961.8334281,-1.656130313873291,1.0449622869491577,-9.828990936279297,-0.26525680430995524,-0.3373226874593138,-10.644148796203215,1.1010947530683075,1.628163231240391,0.7853259242283054
1730865961.883437,-1.7408385276794434,1.130565881729126,-9.812065124511719,-0.26515683158599856,-0.337603290228191,-10.643646294600092,1.0989909765036725,1.6252787008245864,0.69673479238693
1730865961.933372,-1.8037424087524414,1.1793253421783447,-9.80042552947998,-0.2650415265725015,-0.3377593771452397,-10.643159789543104,1.0962482304928423,1.6215822829107127,0.5825306741057366
1730865961.9834905,-1.8700915575027466,1.1633671522140503,-9.820185661315918,-0.2649062700588609,-0.337789335986568,-10.642691935609307,1.1028022391207493,1.632257201032739,0.8450806837235793
1730865962.0333447,-1.9134926795959473,1.100498914718628,-9.80792236328125,-0.2647483916401626,-0.33769361972999956,-10.64224443434692,1.101383492861301,1.630436215626432,0.7836541309439999
1730865962.083408,-1.9134926795959473,1.100498914718628,-9.80792236328125,-0.2645677382929591,-0.33747444315783526,-10.64181815793463,1.1031208824347316,1.6333898020472317,0.8503318578917776
1730865962.083408,-1.9817607402801514,0.9967160820960999,-9.799867630004883,-0.2643669011544776,-0.3371351186284339,-10.641413245161518,1.1031148478575155,1.6333828486017141,0.8500643793897388
1730865962.1332574,-2.009242534637451,0.8998187184333801,-9.762540817260742,-0.2641512687973987,-0.3366792242938289,-10.641029115364738,1.1017540990973178,1.6317751581526898,0.7910631568550585
1730865962.1833553,-2.0146119594573975,0.8520634174346924,-9.732019424438477,-0.2639290605418301,-0.3361095878613778,-10.640664361816265,1.102756749882543,1.6343912332769635,0.8583197291709026
1730865962.2332752,-1.9653370380401611,0.8578269481658936,-9.763777732849121,-0.2637111735908466,-0.3354273786645688,-10.640316576502595,1.1028262280471344,1.6350706338238643,0.860729484237357
1730865962.2832632,-1.8760980367660522,0.9307280778884888,-9.811843872070312,-0.2635105776602217,-0.3346318073764334,-10.639982377479853,1.1014192803781764,1.633702150880939,0.8058004760366693
1730865962.3331802,-1.7786275148391724,1.0387083292007446,-9.875558853149414,-0.26334120660440047,-0.3337206411764773,-10.639657852252167,1.0993616535637292,1.6315069430815905,0.7245845661499685
1730865962.3832405,-1.7020138502120972,1.1243410110473633,-9.926508903503418,-0.26321655508135333,-0.33269136580026937,-10.639339305213694,1.0966200455163928,1.6284501720541904,0.6157472172572017
1730865962.4332123,-1.7020138502120972,1.1243410110473633,-9.926508903503418,-0.26314839125180434,-0.331542499410445,-10.639023998607417,1.1027284227311358,1.6348170615325803,0.846817404362826
1730865962.4332123,-1.6601722240447998,1.1989141702651978,-9.964488983154297,-0.2631459624010979,-0.33027452271176583,-10.638710624290844,1.102722145252859,1.6348094658384449,0.846555535933454
1730865962.4832904,-1.6342209577560425,1.2611186504364014,-9.975395202636719,-0.2632156895922778,-0.32889039228887423,-10.638399493134823,1.101244372013775,1.633008331818879,0.7853375876193697
1730865962.5331616,-1.622498869895935,1.2675787210464478,-9.962905883789062,-0.26336107648324647,-0.3273959257497151,-10.638092567726503,1.1037262620042363,1.6352752530329386,0.8586809272727394
1730865962.5832772,-1.639206886291504,1.2061913013458252,-9.937066078186035,-0.2635827450242549,-0.32579995511302,-10.637793317564423,1.102544071948356,1.6336487655358134,0.8033050109402855
1730865962.6331246,-1.6860491037368774,1.1449236869812012,-9.880510330200195,-0.2638787247275986,-0.32411389500509125,-10.637506310886788,1.1007080363299777,1.6312171856957236,0.7215809577492461
1730865962.6834114,-1.7109571695327759,1.0855287313461304,-9.83228588104248,-0.26424503693733586,-0.32235076445083544,-10.637236568858468,1.104453436527234,1.6354690473567355,0.8512881891053374
1730865962.7330935,-1.709753394126892,1.0741137266159058,-9.788422584533691,-0.26467639140986376,-0.3205240874164699,-10.636988808162293,1.1032214535334457,1.6337652591053975,0.7910137077738354
1730865962.7832174,-1.6724727153778076,1.0828081369400024,-9.795247077941895,-0.26516668480594485,-0.3186470868282448,-10.636766782665031,1.1058682389441374,1.6313056104253583,0.8563426693509847
1730865962.8330767,-1.6206578016281128,1.0981696844100952,-9.837224006652832,-0.2657091010280991,-0.3167323410713499,-10.63657297351421,1.1049150476153349,1.6279772249606836,0.7976960423337993
1730865962.8830912,-1.5427521467208862,1.13316011428833,-9.84755802154541,-0.26629582451975803,-0.314791817661291,-10.636408734074768,1.106733110076015,1.624007134580796,0.8600867966134367
1730865962.933006,-1.5629488229751587,1.1618047952651978,-9.863628387451172,-0.2669175759341916,-0.31283711878432674,-10.636274692407113,1.10573257155791,1.6191625306199955,0.8029877178868717
1730865962.9830446,-1.629149079322815,1.215698003768921,-9.845447540283203,-0.2675634093976341,-0.3108798352471232,-10.636171091927533,1.1040612527343707,1.6135303148020508,0.7191687263107214
1730865963.0340078,-1.6967530250549316,1.2590280771255493,-9.838217735290527,-0.26822115536341523,-0.30893196381412824,-10.63609792009251,1.101665896630202,1.6069882375446216,0.6062622165767704
1730865963.084012,-1.7413307428359985,1.2730633020401,-9.82457160949707,-0.2688783796620253,-0.30700631594161987,-10.636054861402389,1.1072456378524933,1.59983899534109,0.8524303429457267
1730865963.1339903,-1.7646113634109497,1.2583575248718262,-9.81188678741455,-0.269523366934761,-0.30511674392230237,-10.63604117984623,1.1059435448294996,1.591883127352692,0.7908488308205054
1730865963.1839724,-1.7786732912063599,1.2127102613449097,-9.802888870239258,-0.27014579084303536,-0.30327800725667026,-10.636055605019518,1.1081169064924583,5.380160932624565,0.8564587310599725
1730865963.233917,-1.8130278587341309,1.14822256565094,-9.807696342468262,-0.27073706107011536,-0.30150524106949517,-10.636096259925537,1.1069604177062498,5.754764357522166,0.7972049928102108
1730865963.2838762,-1.809478998184204,1.100132703781128,-9.810400009155273,-0.2712904941157635,-0.29981314130150927,-10.636160673079523,1.1051182871035636,6.13122125841484,0.7109464127120837
1730865963.333905,-1.797210454940796,1.1131501197814941,-9.829365730285645,-0.2718013526045122,-0.29821514413995676,-10.636245892680796,1.10921904325494,6.2752426755212,0.8529472318239084
1730865963.383851,-1.7991148233413696,1.125964879989624,-9.836786270141602,-0.27226670011404225,-0.29672294813506894,-10.636348680403206,1.1080204599542163,6.55119036918083,0.7922099174229305
1730865963.4338167,-1.7826963663101196,1.1695894002914429,-9.845488548278809,-0.272685127982057,-0.2953465198098092,-10.636465733119154,1.1101857804382296,6.152312759048508,0.8518214197732495
1730865963.4838102,-1.7767739295959473,1.2048052549362183,-9.856528282165527,-0.273056461037365,-0.2940944483869877,-10.636593874574979,1.1090774871319613,6.219583952240272,0.7905958048645502
1730865963.5337822,-1.8129676580429077,1.1983704566955566,-9.851751327514648,-0.2733815135979748,-0.29297440933345187,-10.636730192410054,1.1110221752443383,6.045017268468147,0.8474070114872673
1730865963.5838563,-1.865580439567566,1.1427628993988037,-9.82577133178711,-0.27366204018845974,-0.29199343375937514,-10.636872083744068,1.109939601467483,6.057071628641281,0.7866605146328699
1730865963.633715,-1.881205439567566,1.0834192037582397,-9.824111938476562,-0.2739009560104503,-0.2911577315816684,-10.637017161478722,1.10810946729028,6.068799926878603,0.6962049794545078
1730865963.68373,-1.863053321838379,1.0553536415100098,-9.826824188232422,-0.27410259486682664,-0.2904721380649284,-10.637163095804805,1.1120647171894649,5.987103635822439,0.8462390833458678
1730865963.7337158,-1.8265241384506226,1.0528087615966797,-9.850543975830078,-0.2742726683684973,-0.28993955693437024,-10.63730755564682,1.1108362811066406,5.985649410841374,0.7840927028873257
1730865963.7837036,-1.7715882062911987,1.0776413679122925,-9.877630233764648,-0.2744178288708511,-0.2895607346949879,-10.637448330819858,1.1090007072807344,5.98356140574657,0.6990962032800474
1730865963.8336518,-1.7354477643966675,1.0973707437515259,-9.941924095153809,-0.27454498070413336,-0.2893344330988277,-10.637583631904416,1.1130908061702502,5.95871944792478,0.8463226033826659
1730865963.8837056,-1.689695954322815,1.1317925453186035,-9.966397285461426,-0.2746605521788439,-0.2892578603762222,-10.637712536244354,1.1118951315595127,5.953387332403569,0.7851194997096658
1730865963.9335935,-1.6389662027359009,1.1293141841888428,-9.971222877502441,-0.27476985967902245,-0.2893271689456933,-10.637835427305575,1.1100306776807638,5.947402133985741,0.6982065637687724
1730865963.9836588,-1.6623183488845825,1.1505361795425415,-9.938908576965332,-0.27487662640829436,-0.28953786484627464,-10.637954169607204,1.113590310629803,5.941980356115283,0.8499768577317091
1730865964.0335605,-1.685981035232544,1.114296793937683,-9.907242774963379,-0.27498281324775514,-0.2898850464373233,-10.638071889665841,1.1122150673005995,5.9361146926679895,0.7881987960429233
1730865964.0836053,-1.7127622365951538,1.098321795463562,-9.828071594238281,-0.2750888722370601,-0.29036343283673083,-10.638192426032928,1.11404668063445,5.9275240661103155,0.8586434614075287
1730865964.1335196,-1.7381293773651123,1.0863145589828491,-9.812661170959473,-0.2751942530969005,-0.2909672124957988,-10.6383195906228,1.1127355748057743,5.919790619496675,0.8008200019767503
1730865964.1835907,-1.7394286394119263,1.1070185899734497,-9.751754760742188,-0.2752979033158992,-0.2916898904078658,-10.638456441051137,1.114417869833556,5.914046932250688,0.8666686572467941
1730865964.2335656,-1.7783422470092773,1.099996566772461,-9.74980354309082,-0.2753986503956798,-0.29252430406953817,-10.638604733442625,1.1131004236064548,5.906035836880738,0.8106112328238175
1730865964.2834716,-1.775434136390686,1.1180026531219482,-9.734968185424805,-0.27549549396823947,-0.29346277934732923,-10.638764614219578,1.1111063270092063,5.897345515061586,0.7284510179726462
1730865964.3334875,-1.775434136390686,1.1180026531219482,-9.734968185424805,-0.2755878195397476,-0.2944973173571438,-10.638934556470614,1.1142204205353765,5.905038801196328,0.8695574199485019
1730865964.3334875,-1.7961090803146362,1.0978853702545166,-9.74190616607666,-0.2756754927353394,-0.29561974214812137,-10.639111488102088,1.1142115298333366,5.90500167462642,0.8692172585180978
1730865964.3834748,-1.8024729490280151,1.096219539642334,-9.761283874511719,-0.2757588942059005,-0.29682174392141014,-10.639291043773962,1.112685455664761,5.89969876685122,0.8107181212173086
1730865964.4334664,-1.8024729490280151,1.096219539642334,-9.761283874511719,-0.27583897002030777,-0.2980948381649826,-10.639467903321176,1.114903186169621,5.895369123018827,0.8875571916218761
1730865964.4334664,-1.8615046739578247,1.0873790979385376,-9.789366722106934,-0.27591729699741785,-0.29943034605955465,-10.639636154565103,1.1148978388517252,5.895337076258568,0.8873335155832229
1730865964.4834557,-1.8906596899032593,1.113863468170166,-9.796687126159668,-0.2759962477453349,-0.3008194415600942,-10.639789640685697,1.1136163354762239,5.889352996366074,0.8348630175259338
1730865964.533443,-1.8906596899032593,1.113863468170166,-9.796687126159668,-0.27607926859323,-0.3022532755780515,-10.639922273488402,1.111649119051615,5.882624375073162,0.7559647833980346
1730865964.533443,-1.8843986988067627,1.1354656219482422,-9.818350791931152,-0.2761710353051844,-0.30372317053874953,-10.64002826699148,1.1116355639251219,5.882582719345884,0.7554243070086547
1730865964.5834439,-1.8520234823226929,1.1645499467849731,-9.829914093017578,-0.276277309969279,-0.30522084853348364,-10.640102315661464,1.1089831311060017,5.8751093263579435,0.6501334986644198
1730865964.6334517,-1.8085271120071411,1.176212191581726,-9.861815452575684,-0.2764045335871449,-0.30673868874735577,-10.640139797177165,1.1153412278066273,5.882872500748364,0.891131955889179
1730865964.6834452,-1.7181299924850464,1.1627516746520996,-9.876137733459473,-0.27655919648291627,-0.30826995107466443,-10.640137013548724,1.1140305828086206,5.877391612333976,0.8370079210440158
1730865964.7333987,-1.6924563646316528,1.1392431259155273,-9.905946731567383,-0.2767470294440134,-0.3098088119831446,-10.64009143078334,1.1159145186294293,5.86969510256153,0.888038495057781
1730865964.7834475,-1.6710063219070435,1.1597439050674438,-9.915834426879883,-0.2769722428918069,-0.31135019921747675,-10.640001877236724,1.1146914523103895,5.862430766097818,0.8318690497986327
1730865964.8333828,-1.6623401641845703,1.1732234954833984,-9.910504341125488,-0.2772370937617947,-0.31288963709046264,-10.639868650025726,1.1127095996871634,5.8540823518153875,0.746206103499444
1730865964.8834436,-1.664509892463684,1.188157320022583,-9.918722152709961,-0.2775418087145235,-0.31442326524355885,-10.639693477910265,1.1101412072447758,5.8453485787520165,0.6384837868869762
1730865964.933397,-1.6572636365890503,1.1673773527145386,-9.908549308776855,-0.27788471563613687,-0.3159479338623907,-10.639479364468754,1.116246564610615,5.852014156618428,0.8758363060535962
1730865964.9834638,-1.6591688394546509,1.130024790763855,-9.90406608581543,-0.2782624612243768,-0.3174611567217024,-10.639230377826138,1.1148019587504976,5.845829551264664,0.8141477659967838
1730865965.0333724,-1.6591688394546509,1.130024790763855,-9.90406608581543,-0.2786702483221073,-0.3189608452926416,-10.638951417790075,1.1172681919628624,5.8369101394543135,0.8769339744980497
1730865965.0333724,-1.6374982595443726,1.1253414154052734,-9.897210121154785,-0.27910205610461636,-0.320444993352382,-10.638647992437456,1.1172630798516978,5.836860952479866,0.8766474823755371
1730865965.0834715,-1.6542800664901733,1.1127800941467285,-9.890379905700684,-0.279550815759005,-0.32191149555797816,-10.638326021770677,1.118207027424684,5.822615993366815,0.886502086722867
1730865965.1333466,-1.6624219417572021,1.1077226400375366,-9.87459659576416,-0.28000859113642784,-0.3233580687147759,-10.637991639237523,1.1172431483308989,5.812243054777583,0.8330904209008945
1730865965.183495,-1.6803877353668213,1.1172305345535278,-9.872438430786133,-0.28046685254259307,-0.3247822030592413,-10.63765097691277,1.1155734935365917,5.801016837897866,0.7528201316554719
1730865965.2333581,-1.6642932891845703,1.1443051099777222,-9.851571083068848,-0.28091679808595277,-0.32618120151750585,-10.637309957568085,1.1184775513853165,5.807275954065736,0.8733232597816902
1730865965.2835011,-1.676072597503662,1.1518168449401855,-9.866317749023438,-0.28134959400687415,-0.3275523611931754,-10.6369741233786,1.1171416879171796,5.799895493149747,0.8131716378653165
1730865965.3333554,-1.688549518585205,1.173169493675232,-9.839729309082031,-0.28175652912771987,-0.32889322533515714,-10.636648522801167,1.1190884105111778,5.791108676673386,0.873810346431861
1730865965.3832452,-1.7406500577926636,1.1670211553573608,-9.839791297912598,-0.2821292246677566,-0.3302017918216156,-10.636337629865864,1.1178335962926298,5.781669740069849,0.8147530339876786
1730865965.4331973,-1.7592371702194214,1.1434805393218994,-9.807424545288086,-0.28245999925814325,-0.33147659181364597,-10.636045234832663,1.1199365605437355,5.7818589128470705,0.8728646339077312
1730865965.4832108,-1.7919294834136963,1.1425443887710571,-9.786770820617676,-0.28274230868619304,-0.332716593083234,-10.635774278316514,1.1187706839201448,5.774108518051984,0.8135837503050304
1730865965.5332005,-1.8289555311203003,1.1339582204818726,-9.734051704406738,-0.28297112671103,-0.33392100799095853,-10.635526615924405,1.1168994169313429,5.765527799516348,0.7277817971621159
1730865965.5832748,-1.906752586364746,1.1017496585845947,-9.722082138061523,-0.2831432968938185,-0.3350891144723191,-10.635302722197196,1.1203865975246643,5.763512087857423,0.8686472276516782
1730865965.6332035,-1.9440362453460693,1.0649313926696777,-9.711519241333008,-0.28325796518782287,-0.33622003961468583,-10.635101443338225,1.1190327644659386,5.755060939208066,0.807914833765246
1730865965.6832056,-1.954621434211731,1.0486096143722534,-9.747272491455078,-0.28331699885622275,-0.33731244620260237,-10.634919969123926,1.118051723049195,5.74372282037808,0.8717360739258857
1730865965.733109,-1.9300211668014526,1.0519165992736816,-9.785317420959473,-0.28332511309262065,-0.33836424837881557,-10.634754124261246,1.1157579521381753,5.732493557889765,0.8109047953975036
1730865965.7832572,-1.8917458057403564,1.0662336349487305,-9.863221168518066,-0.28328955025252617,-0.33937253439076376,-10.634598969797269,1.1128296873942969,5.720754756172296,0.7255135095374828
1730865965.8331983,-1.8261340856552124,1.0515388250350952,-9.917787551879883,-0.28321937766091965,-0.3403337022223556,-10.634449627799375,1.109173650652999,5.7080671680409125,0.613024272925778
1730865965.8832433,-1.7325536012649536,1.0188775062561035,-9.973783493041992,-0.28312451729024246,-0.3412436137435171,-10.63430216530136,1.1159388125265806,5.728330638311637,0.8658059161324283
1730865965.9331484,-1.6438817977905273,1.0134690999984741,-9.997303009033203,-0.28301458234894084,-0.34209759589086974,-10.634154330641008,1.1138759171286845,5.721752351982931,0.8043991140394293
1730865965.9832146,-1.6068297624588013,1.0392526388168335,-10.010113716125488,-0.2828976911287897,-0.34289038643012126,-10.634005992509485,1.1142450544716254,5.709761731093985,0.870846146025763
1730865966.0331244,-1.5930547714233398,1.1113393306732178,-9.983500480651855,-0.2827795818054315,-0.3436163090155297,-10.633859222050374,1.1119043036451928,5.6995737245470455,0.8114401212615955
1730865966.0831685,-1.6152253150939941,1.2080261707305908,-9.939994812011719,-0.2826632735877235,-0.34426986950414123,-10.63371800454339,1.1123042608495184,5.691389195798832,0.8711695762352657
1730865966.1329873,-1.6628810167312622,1.2549554109573364,-9.904179573059082,-0.28254927788349427,-0.3448466939061991,-10.633587635125222,1.1098354291906785,5.680571963418011,0.8118348690274876
1730865966.183079,-1.7237470149993896,1.2498868703842163,-9.840123176574707,-0.28243623485751473,-0.34534441586103665,-10.633473946777784,1.1066455118287657,5.668835454296889,0.7255225275308487
1730865966.232996,-1.7540323734283447,1.1959750652313232,-9.810408592224121,-0.2823217845589856,-0.3457630388825077,-10.633382519749883,1.1106059217209616,5.672856646951112,0.867553554508361
1730865966.282932,-1.7761001586914062,1.1373709440231323,-9.77637004852295,-0.28220339746889445,-0.3461045993315699,-10.633317989951745,1.1116565616259755,5.657733253041054,0.8763472515221368
1730865966.3329697,-1.7739691734313965,1.080772876739502,-9.734260559082031,-0.2820789370970522,-0.34637234573043324,-10.63328353821044,1.1100410420996534,5.646682076988548,0.8193423746661226
1730865966.3838212,-1.7863746881484985,1.0190056562423706,-9.72805404663086,-0.2819469176978771,-0.3465697818341066,-10.633280550230866,1.1123574796516398,5.644955151180807,0.8700870616378606
1730865966.4338863,-1.7863746881484985,1.0190056562423706,-9.72805404663086,-0.28180656967048673,-0.3466998374782345,-10.633308454988388,1.1109766888351995,5.635145482069731,0.8102554900883789
1730865966.4338863,-1.763444423675537,0.9958710074424744,-9.702902793884277,-0.2816578057595446,-0.34676434754894875,-10.633364771591696,1.1109274813605612,5.634855987605127,0.8081805340332994
1730865966.4838243,-1.7485802173614502,0.980993390083313,-9.72205638885498,-0.2815010727290791,-0.3467638634972558,-10.633445277914788,1.1088947853264988,5.624484257038783,0.7239659487109508
1730865966.5338418,-1.7739217281341553,0.9647471904754639,-9.749009132385254,-0.28133712884844386,-0.34669763065499926,-10.633544262144165,1.1133679068143472,5.629497866901054,0.8722143874198774
1730865966.5839176,-1.776928424835205,1.0090956687927246,-9.792386054992676,-0.2811669253153937,-0.3465636526086148,-10.633654954185479,1.1120760263390286,5.621866615095908,0.8147352034507213
1730865966.6337254,-1.7719019651412964,1.0469619035720825,-9.85647201538086,-0.28099164047567193,-0.34635897648904285,-10.633770164666876,1.11431620424691,5.60988064272428,0.8726937447935086
1730865966.6840096,-1.742720127105713,1.0767850875854492,-9.918389320373535,-0.280812686255267,-0.34608024803711723,-10.633883065241763,1.1131346566570381,5.599329325453142,0.8139113250757086
1730865966.733826,-1.7308605909347534,1.0838773250579834,-9.983128547668457,-0.28063155131260653,-0.3457243227680294,-10.633988022772543,1.1154276836331187,5.601354444242478,0.8710397508580112
1730865966.7839155,-1.7244657278060913,1.1198302507400513,-10.016728401184082,-0.2804495541838907,-0.3452887170018148,-10.634081355737546,1.1143705897179668,5.593491967863613,0.8118324608465847
1730865966.8337839,-1.7244657278060913,1.1198302507400513,-10.016728401184082,-0.28026765985817237,-0.34477189931417024,-10.634161838644033,1.1163489558008903,5.582876288336471,0.8700788503299344
1730865966.8337839,-1.6922295093536377,1.1217204332351685,-10.01152515411377,-0.28008639188689594,-0.344173467506777,-10.634230816044491,1.1163424632285979,5.582804291693024,0.8697006512483689
1730865966.8839517,-1.6949405670166016,1.091368556022644,-10.003122329711914,-0.2799057480676064,-0.34349415378896,-10.634291955398455,1.1152025663487288,5.573628822726441,0.810418340218749
1730865966.9338105,-1.6541407108306885,1.079060673713684,-9.937772750854492,-0.2797250758825852,-0.34273562339076347,-10.634350767702497,1.1176438133264543,5.560487813247989,0.878513831848967
1730865966.9837117,-1.6971153020858765,1.0559735298156738,-9.882655143737793,-0.27954297225545427,-0.3419001483620437,-10.63441391356152,1.116689955071297,5.549047332637146,0.8234357978535355
1730865967.0336804,-1.7184339761734009,1.0200108289718628,-9.829143524169922,-0.2793573521286393,-0.3409902559783878,-10.634488311502736,1.1196876775644125,5.547787915992207,0.8750649184109253
1730865967.0837424,-1.7796587944030762,0.9819168448448181,-9.78043270111084,-0.2791658008661553,-0.34000835647389044,-10.634580231710167,1.11921050027337,5.537182529067725,0.8172400131805592
1730865967.1336548,-1.7767276763916016,0.9837790727615356,-9.749464988708496,-0.27896610979830844,-0.33895636450240635,-10.634694558425291,1.1180394730440717,5.525790413443894,0.7332006539019957
1730865967.1838517,-1.7815088033676147,1.03798508644104,-9.75819206237793,-0.27875671849495104,-0.33783550701175064,-10.634834317975647,1.1208756490717076,5.530275354615653,0.8686208243731491
1730865967.2337184,-1.7815088033676147,1.03798508644104,-9.75819206237793,-0.27853688476902777,-0.3366465044220017,-10.635000547859569,1.1198871949032094,5.5218113370778985,0.8084184671659249
1730865967.2337184,-1.7619465589523315,1.1153185367584229,-9.77953052520752,-0.27830663168837977,-0.33539002960654696,-10.635192478681752,1.1198784164897133,5.521752989845815,0.8079357883876638
1730865967.283684,-1.7306779623031616,1.2181533575057983,-9.794438362121582,-0.2780665569398415,-0.334067331162969,-10.635407893005025,1.1182012747425585,5.512485372182098,0.7214965671707504
1730865967.3336196,-1.73723566532135,1.2622041702270508,-9.825244903564453,-0.27781754008706894,-0.3326810634807198,-10.635643558888718,1.115824862293703,5.502342388976142,0.6081871267505942
1730865967.3837023,-1.7728885412216187,1.2536513805389404,-9.841352462768555,-0.27756051473582394,-0.33123608158387985,-10.635895689786436,1.1223584746599382,5.511160745720672,0.8719385846996706
1730865967.4336104,-1.7957485914230347,1.2329119443893433,-9.852080345153809,-0.2772965114606442,-0.3297397311419229,-10.636160367604678,1.121299863093484,5.503588718271957,0.81362514469378
1730865967.4835632,-1.8130037784576416,1.187165379524231,-9.869086265563965,-0.2770269238178893,-0.32820152259316404,-10.636433863819601,1.1239009484555027,5.490955433008727,0.8733727277682246
1730865967.5335834,-1.8130037784576416,1.187165379524231,-9.869086265563965,-0.276753762876812,-0.32663246707003024,-10.636712851450032,1.1229636530669982,5.481569442813364,0.8149827177172674
1730865967.5335834,-1.8403993844985962,1.1168467998504639,-9.861696243286133,-0.2764797771395203,-0.3250443640647393,-10.636994515463439,1.1229552830175575,5.481505600223138,0.8145152507027849
1730865967.5836523,-1.8365612030029297,1.1099493503570557,-9.855596542358398,-0.27620848949745547,-0.3234491308539576,-10.637276542505624,1.1275636741977484,5.467026399063149,0.8762252523483046
1730865967.6335382,-1.8015090227127075,1.1125519275665283,-9.858222961425781,-0.2759441574413442,-0.3218582245282315,-10.637557024604247,1.1295009939375638,5.444823719499226,0.8791762427300804
1730865967.683565,-1.7416749000549316,1.0947171449661255,-9.853496551513672,-0.27569150792935543,-0.3202822964492572,-10.637834363544485,1.1294455596442017,5.4292571628984785,0.8242902644247595
1730865967.7336876,-1.707353949546814,1.0896289348602295,-9.870576858520508,-0.2754551817350409,-0.3187310563524346,-10.638107225152316,1.1286927571985155,5.412743760560661,0.7420131134529245
1730865967.7836096,-1.6856294870376587,1.0882185697555542,-9.87708854675293,-0.27523908921825874,-0.31721319250061236,-10.638374559898757,1.127254784669861,5.395562815882714,0.6336845538034884
1730865967.833548,-1.6856732368469238,1.1131680011749268,-9.89499282836914,-0.2750459552095018,-0.3157363514781565,-10.638635688847756,1.1309165739833174,5.424557445316534,0.8654290434061569
1730865967.8835711,-1.6620116233825684,1.1451038122177124,-9.884458541870117,-0.2748771395512008,-0.31430727692107874,-10.638890402760541,1.1300119985761934,5.415541795445491,0.8040499674175489
1730865967.9334772,-1.6606212854385376,1.1801331043243408,-9.870457649230957,-0.2747326205948748,-0.312932128234491,-10.639138978411957,1.1329722703789782,5.405999074463724,0.869100174290111
1730865967.9834714,-1.653437852859497,1.1797866821289062,-9.851520538330078,-0.2746110342167976,-0.3116168687988653,-10.639382047710608,1.1324224196803605,5.394503286180563,0.8093732050598444
1730865968.0334425,-1.6758476495742798,1.1824043989181519,-9.821070671081543,-0.2745097838732708,-0.3103675344178397,-10.639620343298493,1.1311933357332526,5.382311137235383,0.7235832248069226
1730865968.0835173,-1.7237505912780762,1.1566532850265503,-9.81063461303711,-0.27442530693795586,-0.30919026761546553,-10.639854393081858,1.1292636290254408,5.369231207153068,0.6102910445739337
1730865968.1334534,-1.7996176481246948,1.1426687240600586,-9.782665252685547,-0.2743535897335778,-0.3080911410621353,-10.640084236516271,1.1345604623668888,5.391321324226448,0.8627633982061854
1730865968.1835039,-1.8628112077713013,1.1092867851257324,-9.77823543548584,-0.2742909398927885,-0.30707585471798976,-10.64030921003997,1.1335101219889523,5.384578852381245,0.8007802126630313
1730865968.2334023,-1.8774480819702148,1.0935637950897217,-9.79169750213623,-0.2742348196615736,-0.30614938912702877,-10.640527841728018,1.1355847083914166,5.3734041570953455,0.8678163377053582
1730865968.2834685,-1.8534674644470215,1.108945369720459,-9.822172164916992,-0.27418438625923575,-0.3053157194062148,-10.640737934114036,1.1371796241292593,5.3553333815031925,0.8731937851162527
1730865968.3333826,-1.7973651885986328,1.1064001321792603,-9.855999946594238,-0.2741404804116869,-0.3045777128331158,-10.640936874131576,1.1365984323318319,5.3422884312851995,0.8164503376095976
1730865968.3833833,-1.749116063117981,1.0848197937011719,-9.900351524353027,-0.2741050931432557,-0.303937184525114,-10.641122101515933,1.1353346052132323,5.328450507795294,0.7331107229266202
1730865968.4334073,-1.749116063117981,1.0848197937011719,-9.900351524353027,-0.27408061407265916,-0.30339493698285225,-10.641291600586218,1.1333706982554477,5.3137380635442355,0.6223190941102735
1730865968.4334073,-1.6887575387954712,1.0780417919158936,-9.944061279296875,-0.27406919853161815,-0.3029507364209564,-10.64144427628945,1.1333572719751308,5.3136503965217345,0.6215972442722716
1730865968.4834383,-1.660573959350586,1.0784896612167358,-9.943114280700684,-0.27407230338059946,-0.30260331793552564,-10.641580181711802,1.1383557059340033,5.334656234338965,0.8638588555757707
1730865968.5333052,-1.6808581352233887,1.0688133239746094,-9.9386625289917,-0.27409031479375745,-0.30235044253491883,-10.641700619465803,1.1391248842862884,5.318418031085723,0.8739269043705814
1730865968.5834394,-1.6925055980682373,1.0484857559204102,-9.91047477722168,-0.2741224112733559,-0.3021889453269673,-10.641808054603336,1.138129496597006,5.307769117208453,0.8181887092602198
1730865968.6333168,-1.7340891361236572,1.0040960311889648,-9.874168395996094,-0.27416678088554025,-0.3021146935759675,-10.641905792647373,1.1408320876352023,5.306364283606741,0.8689904559545892
1730865968.6832635,-1.7513102293014526,0.9668171405792236,-9.831408500671387,-0.2742210607329138,-0.3021223966082808,-10.64199747874347,1.1400693584387553,5.298081204124784,0.8100611568185234
1730865968.7332773,-1.7513102293014526,0.9668171405792236,-9.831408500671387,-0.27428278865261024,-0.30220534242053404,-10.642086549505851,1.1386208919791485,5.289059143041926,0.7245877908907883
1730865968.7332773,-1.7555934190750122,0.9132131338119507,-9.825553894042969,-0.2743496994903326,-0.3023552223567602,-10.642175831562874,1.1386103956474438,5.2890041256637375,0.7240092498862618
1730865968.783267,-1.7511773109436035,0.8991687297821045,-9.808719635009766,-0.27441982944171,-0.30256205339096676,-10.642267375770167,1.1420130666747415,5.284219679455276,0.8678314716275972
1730865968.833155,-1.7669599056243896,0.9138646125793457,-9.811017036437988,-0.2744915282275942,-0.30281415688900964,-10.642362418760566,1.1410642523490004,5.274616055325847,0.8109294062547224
1730865968.8833268,-1.7647291421890259,0.9623916149139404,-9.817171096801758,-0.2745634759933183,-0.3030983551157215,-10.642461389835143,1.1394177289477203,5.264194793746892,0.7268676532362977
1730865968.9331322,-1.774051547050476,0.9942019581794739,-9.836055755615234,-0.27463472152046564,-0.30340051891226266,-10.642564010014471,1.1434823693880898,5.263611751925446,0.8665477272544754
1730865968.9830694,-1.7563841342926025,1.0308074951171875,-9.850176811218262,-0.2747046956838314,-0.3037063174029442,-10.642669505949877,1.1424650221850945,5.254810463280848,0.8070095190748292
1730865969.0331802,-1.7418923377990723,1.052126407623291,-9.863423347473145,-0.274773140129559,-0.3040019257084871,-10.642776879620811,1.140750103341255,5.2451803296628015,0.7202986999806076
1730865969.0830772,-1.7634446620941162,1.1164103746414185,-9.859697341918945,-0.27483996679167655,-0.30427460738458045,-10.642885145614699,1.138367070012236,5.2348799000957555,0.6078942744932099
1730865969.1331055,-1.7613576650619507,1.1499154567718506,-9.857751846313477,-0.2749051754934787,-0.304513249771362,-10.642993463086228,1.1449642444002166,5.240485028570117,0.8619225765036521
1730865969.1830616,-1.7668864727020264,1.152148723602295,-9.854114532470703,-0.2749688863428613,-0.3047088478130935,-10.64310115242636,1.1475791343425208,5.219371074404192,0.8722159088500882
1730865969.2330203,-1.7597706317901611,1.146106243133545,-9.849930763244629,-0.2750313866796057,-0.3048547498346192,-10.643207649099269,1.1471224289123128,5.207246178728104,0.815130280746045
1730865969.2830868,-1.7832831144332886,1.1196283102035522,-9.831854820251465,-0.2750931392914471,-0.30494655343637495,-10.643312431003872,1.1494443407398907,5.1915300973736915,0.867440206018579
1730865969.3329446,-1.7911642789840698,1.0579688549041748,-9.824539184570312,-0.2751548209949032,-0.30498170349972514,-10.643414908964182,1.1488326915071885,5.177892734542966,0.8084811410045648
1730865969.3830001,-1.793712854385376,1.0126854181289673,-9.833224296569824,-0.27521741792666016,-0.3049588512316686,-10.643514309667696,1.1532950141372456,5.173499504914168,0.8634677424920666
1730865969.432937,-1.7517714500427246,1.0202561616897583,-9.849518775939941,-0.27528225737202083,-0.3048771330659441,-10.643609650993401,1.1532292326649778,5.1622811164249605,0.8031858928846769
1730865969.4829564,-1.7155946493148804,1.0792349576950073,-9.881749153137207,-0.2753508177059784,-0.30473573385781383,-10.643699878355434,1.1564499507541601,5.154408329966464,0.8595811303793874
1730865969.532836,-1.6973638534545898,1.1483683586120605,-9.885079383850098,-0.275424328159171,-0.30453402303467736,-10.643784121467748,1.1564346894814281,5.142723765825933,0.799013197040732
1730865969.5827827,-1.6990910768508911,1.1914793252944946,-9.90003490447998,-0.2755033802511868,-0.30427216404241014,-10.64386194479378,1.1557320967815417,5.130224453689485,0.7116032322726
1730865969.6338701,-1.7048535346984863,1.1952179670333862,-9.894710540771484,-0.27558775822554327,-0.30395178072079504,-10.643933487009424,1.1542989766807015,5.116640369016125,0.5945423860854175
1730865969.6838133,-1.7279154062271118,1.140415906906128,-9.889106750488281,-0.27567651232214024,-0.30357625323566306,-10.64399947237559,1.1522128513453855,5.102669138649189,0.4539741940326459
1730865969.7338028,-1.727390170097351,1.0967813730239868,-9.850716590881348,-0.2757681809359416,-0.3031504496953298,-10.644061088965852,1.1586790124724042,5.143992680408498,0.8463821065480961
1730865969.7837937,-1.7448590993881226,1.0502889156341553,-9.854978561401367,-0.27586104324268595,-0.30268003533926124,-10.644119735622208,1.1577560557282638,5.138428750920639,0.7826538465281778
1730865969.8337355,-1.7205950021743774,1.0371060371398926,-9.837763786315918,-0.2759533035136893,-0.3021707081039672,-10.644176741921239,1.1614613297484955,5.131495532576397,0.847639556351654
1730865969.8838043,-1.7044275999069214,1.004769206047058,-9.838481903076172,-0.27604313454834567,-0.30162762143077115,-10.64423318141495,1.161099984003359,5.123579401228076,0.7856641432524579
1730865969.9337204,-1.6762114763259888,1.0011883974075317,-9.852025985717773,-0.2761285527831461,-0.30105503490187635,-10.644289799669133,1.1600505008569924,5.114932458210669,0.6972876633011713
1730865969.9836867,-1.6579885482788086,0.9812003374099731,-9.872231483459473,-0.2762071909385059,-0.30045612906342123,-10.644347066633648,1.158309337390741,5.105520384324845,0.582175992536963
1730865970.0337353,-1.6788157224655151,1.0039273500442505,-9.869159698486328,-0.27627610888056126,-0.2998329554307376,-10.64440534146549,1.1645832846350208,5.1113022828400485,0.8370612416487833
1730865970.0836577,-1.7302862405776978,0.9892690777778625,-9.866273880004883,-0.2763318276531962,-0.29918652452880856,-10.644465028139864,1.1638366976353407,5.1044581143088275,0.7736262230045459
1730865970.1336935,-1.7561147212982178,1.0005706548690796,-9.84821891784668,-0.2763706898092746,-0.2985169790819947,-10.644526603713077,1.1660422513222968,5.095698805986504,0.8399367945307151
1730865970.1836424,-1.7367112636566162,1.0267400741577148,-9.844929695129395,-0.2763893514352337,-0.29782379564284855,-10.644590523193305,1.1634459682137168,5.079371294662789,0.8436233788451362
1730865970.2335315,-1.7292639017105103,1.0034098625183105,-9.847564697265625,-0.2763850532620587,-0.29710601733822994,-10.644657095155027,1.1612198836578709,5.066794758505513,0.784964198594562
1730865970.283596,-1.7082710266113281,1.0320013761520386,-9.856908798217773,-0.27635556789835203,-0.2963624661492171,-10.644726430319716,1.1583019408125672,5.053473874252252,0.699661390019096
1730865970.3336132,-1.7297741174697876,1.0265306234359741,-9.872505187988281,-0.27629901861725253,-0.2955918926929589,-10.644798501324567,1.1546812714963108,5.039371287994669,0.5873650447519265
1730865970.3835676,-1.73284912109375,1.026072382926941,-9.879054069519043,-0.27621378829352733,-0.2947931027551443,-10.64487328015926,1.1608471310064143,5.064628974541915,0.832771899114642
1730865970.4335475,-1.7507237195968628,1.0402652025222778,-9.899032592773438,-0.27609857855798425,-0.2939650547734544,-10.644950897464641,1.1587064182590219,5.057544517215353,0.771015672977029
1730865970.4835615,-1.7441734075546265,1.067531943321228,-9.886956214904785,-0.2759525297711134,-0.2931069573907181,-10.645031774853265,1.1558541595591463,5.049663287111163,0.6819919281349234
1730865970.5335526,-1.7646288871765137,1.0706843137741089,-9.89332103729248,-0.2757753066676497,-0.2922184418055142,-10.645116680232722,1.164156754748688,5.053021102140813,0.8348502224319216
1730865970.583584,-1.8092890977859497,1.0768513679504395,-9.85693645477295,-0.27556718907619615,-0.2912997472290768,-10.645206665241162,1.163080254928395,5.047028546839799,0.774312135299123
1730865970.6335008,-1.8451093435287476,1.0780317783355713,-9.835271835327148,-0.2753292918673227,-0.290351807679628,-10.645302863893427,1.1613143109227675,5.040274182744994,0.6869969443799819
1730865970.6835158,-1.8778879642486572,1.068177342414856,-9.794242858886719,-0.2750639123326289,-0.2893762305744508,-10.645406162492172,1.1668079511665248,5.037786850990886,0.8356446893232397
1730865970.7335863,-1.8792659044265747,1.0619271993637085,-9.761591911315918,-0.27477483411910586,-0.28837519571893716,-10.645516802132704,1.165935669080388,5.030769014439231,0.7746446667823044
1730865970.7835293,-1.8781741857528687,1.0342954397201538,-9.767451286315918,-0.2744674237433744,-0.28735128078449945,-10.645634023800614,1.1706539148073503,5.019427445594027,0.839549745425413
1730865970.8334446,-1.8452465534210205,1.0448501110076904,-9.792409896850586,-0.2741484647856193,-0.2863072399719568,-10.645755924060321,1.177093468696476,5.00629315848034,0.8456278512356339
1730865970.8834481,-1.7909832000732422,1.0523160696029663,-9.833215713500977,-0.2738257337248179,-0.2852458349732247,-10.645879650724371,1.1787635967835124,4.995177056354553,0.7889433000987701
1730865970.9334626,-1.7380390167236328,1.0403714179992676,-9.891928672790527,-0.2735073392749283,-0.28416979379378215,-10.64600190397542,1.1797474364835623,4.983371508043052,0.7057935468048951
1730865970.9834626,-1.6841381788253784,1.027842402458191,-9.939653396606445,-0.2732009251784448,-0.2830818059312237,-10.64611961213133,1.1800493491480784,4.970776942170267,0.5953138697193944
1730865971.0333781,-1.598343849182129,1.0370818376541138,-9.97574520111084,-0.27291286447661034,-0.2819844533809562,-10.646230624866023,1.1834427406716783,4.992595584438538,0.8346707328025283
1730865971.083417,-1.5712602138519287,1.0332560539245605,-9.993497848510742,-0.27264750577967384,-0.2808801428331116,-10.646334252691691,1.18376590925545,4.986130623718779,0.7727815678480655
1730865971.133399,-1.550557255744934,1.039259433746338,-9.944525718688965,-0.2724065979319057,-0.2797711086482302,-10.646431495548885,1.1846754405155757,4.97919271533589,0.8401162144975844
1730865971.1834455,-1.5575945377349854,1.0153611898422241,-9.915091514587402,-0.2721890808559327,-0.2786594319730537,-10.646524842992768,1.1843805978259139,4.970699575832268,0.7803480541009422
1730865971.233443,-1.6128383874893188,0.9890211224555969,-9.859123229980469,-0.27199130218919576,-0.2775469735767589,-10.646617695478662,1.1834127809726707,4.961614205068567,0.6948102573481945
1730865971.283348,-1.700724482536316,0.9786924719810486,-9.800239562988281,-0.2718076622186346,-0.2764351864580169,-10.646713611325573,1.181758429541536,4.951769821856324,0.5820393271278103
1730865971.3333108,-1.7688379287719727,1.0146944522857666,-9.755945205688477,-0.27163165269014394,-0.2753249482962836,-10.646815533542103,1.1856178693742359,4.967039385308302,0.8346615040767831
1730865971.3833656,-1.8208271265029907,1.02140212059021,-9.763900756835938,-0.27145704160466466,-0.27421661658676677,-10.646925145262278,1.1874194004402336,4.954530869951095,0.8449001091098498
1730865971.433279,-1.8217395544052124,1.0340009927749634,-9.765320777893066,-0.27127882904054573,-0.2731102866266888,-10.647042563232954,1.1868912159623717,4.946261424592217,0.7880517725000521
1730865971.48329,-1.782911777496338,1.0537012815475464,-9.80487060546875,-0.2710936983112854,-0.27200606405364325,-10.647166438804428,1.1894452010969585,4.937779022533311,0.8403305595606699
1730865971.5332751,-1.7525897026062012,1.0612386465072632,-9.85537052154541,-0.2708998941623471,-0.2709042785904469,-10.647294374633796,1.1889945357882605,4.928306018888682,0.7809751520466842
1730865971.5832372,-1.7406247854232788,1.1116029024124146,-9.87990665435791,-0.2706967363904028,-0.26980569037524205,-10.647423537382664,1.187868587362395,4.918178190144059,0.6951580029602198
1730865971.633259,-1.770524501800537,1.115897536277771,-9.90289306640625,-0.2704841553369658,-0.268711737103162,-10.647551280040927,1.18605854077103,4.907331353887648,0.5822457793980049
1730865971.683197,-1.7900440692901611,1.1545110940933228,-9.899785995483398,-0.27026252545488316,-0.2676247934212483,-10.647675573937345,1.1917870334461056,4.925546564184541,0.8340407030978427
1730865971.7331789,-1.8505797386169434,1.163799524307251,-9.896068572998047,-0.2700328174558866,-0.2665483698096649,-10.647795182900232,1.1933424614389945,4.914504814911258,0.8448248988936664
1730865971.783353,-1.8653908967971802,1.1624170541763306,-9.862640380859375,-0.2697969370530025,-0.26548720830144745,-10.647909603761946,1.1927323903313898,4.90671066270808,0.7874707167322333
1730865971.8332534,-1.84821355342865,1.119704008102417,-9.858514785766602,-0.26955802838634035,-0.2644471941509524,-10.648018828436156,1.1914521944862586,4.898304001568541,0.7038696146713836
1730865971.8832345,-1.8270213603973389,1.114829421043396,-9.805334091186523,-0.269320487694796,-0.2634350166460231,-10.648123011529876,1.189492786387659,4.889207149964891,0.5933118149761926
1730865971.9334147,-1.793975830078125,1.0453251600265503,-9.822367668151855,-0.26908963213628956,-0.26245765764280593,-10.648222123727878,1.1957998649719515,4.8992609699730245,0.8342301288517255
1730865971.9832606,-1.7209333181381226,1.0137131214141846,-9.828447341918945,-0.2688711481638249,-0.26152179706284484,-10.648315716660965,1.1949429061210486,4.8936329772132705,0.772835174285549
1730865972.0332992,-1.6012029647827148,0.9719731211662292,-9.870986938476562,-0.2686703227002828,-0.2606331851182685,-10.64840295074566,1.1986749834418378,4.883626747326273,0.8398437788827894
1730865972.0832047,-1.5673483610153198,0.9927900433540344,-9.874567985534668,-0.2684910397935771,-0.2597961426591851,-10.64848286938594,1.1983732179327555,4.87506348403955,0.7804052669864942
1730865972.133241,-1.5673483610153198,0.9927900433540344,-9.874567985534668,-0.26833487663117706,-0.2590133809079548,-10.648554710770444,1.201298278069495,4.868299995541506,0.8404647413262769
1730865972.133241,-1.5617990493774414,1.0194441080093384,-9.915316581726074,-0.2682007390984572,-0.2582861496800019,-10.648618105559748,1.2012991174115946,4.868245816099626,0.8401818631518922
1730865972.1831715,-1.576568603515625,1.0584110021591187,-9.886327743530273,-0.2680850327653944,-0.2576145897212039,-10.648673197438999,1.2011022624020942,4.859155145093178,0.7811711129182601
1730865972.2332606,-1.631142258644104,1.0728533267974854,-9.91388988494873,-0.26798211784798576,-0.25699819155772713,-10.648720711200998,1.200235911791219,4.8493601624351035,0.695207667845348
1730865972.283102,-1.7173388004302979,1.079965353012085,-9.86382007598877,-0.2678850146678905,-0.25643624098980444,-10.648761903926038,1.2025521060483824,4.855744518041806,0.8462358538581972
1730865972.3331964,-1.82231605052948,1.1077828407287598,-9.826631546020508,-0.267786435663418,-0.25592812748481897,-10.648798339864685,1.201705094374944,4.849511131802598,0.7887284283732693
1730865972.383157,-1.8533849716186523,1.1184059381484985,-9.800682067871094,-0.26768000199372854,-0.25547354656180554,-10.648831473310633,1.2068501929374043,4.839431000583981,0.8443613321576436
1730865972.4330823,-1.8954871892929077,1.0949914455413818,-9.761144638061523,-0.26756126365443994,-0.2550726380845694,-10.648862164609417,1.2070729242814253,4.830743530973419,0.7862202767262195
1730865972.4830406,-1.8989217281341553,1.0262970924377441,-9.779446601867676,-0.2674282468598712,-0.25472590948888013,-10.648890316469931,1.2066291274195737,4.821414737271469,0.7014984195443589
1730865972.5331557,-1.8536771535873413,1.0082930326461792,-9.78778076171875,-0.26728151786504806,-0.254433821227192,-10.648914754696726,1.2055074940175992,4.811371084318148,0.5892553729850027
1730865972.5831227,-1.783974289894104,1.004658818244934,-9.84261703491211,-0.26712377403905574,-0.25419624772234606,-10.648933419817759,1.2093823328401292,4.825301571039163,0.8359546517352389
1730865972.6330674,-1.783974289894104,1.004658818244934,-9.84261703491211,-0.26695905284054106,-0.25401216121758896,-10.648943801500188,1.213214511920185,4.804785253769173,0.8458319912627265
1730865972.6330674,-1.7528783082962036,1.0574264526367188,-9.855023384094238,-0.26679192309926386,-0.253879653715707,-10.648943395131672,1.2132227671310125,4.804695128033521,0.8455578210426709
1730865972.6830595,-1.7219197750091553,1.080628514289856,-9.910914421081543,-0.2666269221851645,-0.25379624650722504,-10.648930037012196,1.2160236931670714,4.790028546389598,0.8584410639463766
1730865972.7331333,-1.704637885093689,1.1132997274398804,-9.919187545776367,-0.2664681497984214,-0.25375937317580466,-10.648902211177301,1.2171256372364518,4.775349729326048,0.8084491786827169
1730865972.7830756,-1.6880874633789062,1.1303209066390991,-9.951221466064453,-0.266318927527913,-0.2537668448415087,-10.648859382941236,1.2175530723540287,4.760179560710851,0.7323982296653864
1730865972.8330402,-1.6892642974853516,1.1353075504302979,-9.929433822631836,-0.2661815821742408,-0.25381716614763744,-10.64880221831025,1.2173157806884953,4.744255358647201,0.629041138436865
1730865972.8830557,-1.6928538084030151,1.1137971878051758,-9.93874454498291,-0.2660573915271647,-0.2539096512758119,-10.648732585953402,1.216414478724494,4.7277769623789645,0.49958746640639634
1730865972.9329422,-1.7044410705566406,1.0738990306854248,-9.894899368286133,-0.2659466764878743,-0.25404428799863743,-10.648653359841838,1.2174883658564364,4.780036418217984,0.8449743542418443
1730865972.9829872,-1.7288248538970947,1.0470776557922363,-9.854463577270508,-0.2658490080842083,-0.25422135905805876,-10.648568045631215,1.216714033355986,4.774479151813517,0.7843898593564903
1730865973.0330038,-1.782965898513794,1.0143132209777832,-9.822835922241211,-0.265763532735781,-0.25444095301870817,-10.648480251020839,1.215271646254192,4.768273491029151,0.6969859278839499
1730865973.082945,-1.8363450765609741,1.0109021663665771,-9.767317771911621,-0.2656894598915821,-0.254702536511046,-10.648393098489395,1.2189603406040264,4.768946337709279,0.84822206730346
1730865973.132889,-1.8869452476501465,0.9894759058952332,-9.760782241821289,-0.26562668371005127,-0.25500468625450445,-10.648308701151125,1.2182304267933741,4.762397549607607,0.7887405208695749
1730865973.1829495,-1.8473352193832397,1.0347927808761597,-9.739604949951172,-0.26557632547742105,-0.2553450165622897,-10.648227797777642,1.2168427400206603,4.755230396097446,0.7029583099400115
1730865973.232936,-1.816389560699463,1.0465000867843628,-9.774761199951172,-0.26554087075036087,-0.2557203430541002,-10.64814964339424,1.2207301787538303,4.756383541044192,0.8498105136629382
1730865973.2828844,-1.783855676651001,1.0769073963165283,-9.79489803314209,-0.2655238002371698,-0.2561270500656882,-10.648072199449663,1.222741190116929,4.744485412141661,0.8612147904984273
1730865973.3328242,-1.7646828889846802,1.053520679473877,-9.82564926147461,-0.26552898850954915,-0.256561470678947,-10.647992562695258,1.2222920569321323,4.736643806264208,0.8057454648570912
1730865973.3828576,-1.7351040840148926,1.0145779848098755,-9.854711532592773,-0.2655601666112064,-0.2570200442385373,-10.647907486294958,1.2211797802028026,4.7281537054839955,0.7236485795845161
1730865973.432912,-1.7351040840148926,1.0145779848098755,-9.854711532592773,-0.2656205285254761,-0.25749917654610033,-10.647813849832259,1.219384837933826,4.718933767557671,0.6138357756168371
1730865973.432912,-1.683071255683899,0.9749651551246643,-9.900102615356445,-0.26571245152236556,-0.2579949674094226,-10.647709010429702,1.2193711569991064,4.718872571692608,0.6130447380423383
1730865973.4828544,-1.6453770399093628,0.9578630328178406,-9.910890579223633,-0.2658372268689102,-0.2585029687562841,-10.647591075439388,1.2169590392512646,4.709221262534082,0.4793522373161956
1730865973.532847,-1.649688720703125,0.9565423130989075,-9.945751190185547,-0.2659947489967489,-0.25901799596005587,-10.647459162027133,1.2138428890381714,4.698760316656784,0.3168369238284573
1730865973.5828483,-1.6442580223083496,0.9954084157943726,-9.940225601196289,-0.2661833273665032,-0.25953408639986797,-10.647313606615993,1.2245475290488361,4.725974348572837,0.8506159081328689
1730865973.632834,-1.6689367294311523,1.0497392416000366,-9.937795639038086,-0.266399769864924,-0.2600447659095001,-10.647156031648553,1.223471306356508,4.720979314490891,0.7904192465321304
1730865973.682793,-1.6859419345855713,1.0834542512893677,-9.915569305419922,-0.26663968589826204,-0.26054361557804573,-10.646989216907313,1.227473988705266,4.7162949411032615,0.8563309514413682
1730865973.7328548,-1.71327543258667,1.1262437105178833,-9.893120765686035,-0.26689790709560135,-0.26102493199464705,-10.646816796617191,1.226934369688509,4.710676208422686,0.7971369118008494
1730865973.782775,-1.7269731760025024,1.1472166776657104,-9.872698783874512,-0.26716893944608444,-0.26148427596076357,-10.646642859154706,1.2257313075519203,4.704452898208289,0.7118204848728903
1730865973.8327966,-1.735066294670105,1.1401067972183228,-9.833118438720703,-0.26744735504598216,-0.2619188107531571,-10.646471520011975,1.2286181506380283,4.695954273287335,0.852092278306857
1730865973.8827624,-1.717958927154541,1.1496965885162354,-9.815305709838867,-0.26772804070649686,-0.26232738228319713,-10.646306499709246,1.2276256990531633,4.688428125519938,0.7915152846306076
1730865973.9327734,-1.6673269271850586,1.18075430393219,-9.812365531921387,-0.2680062174119978,-0.26271042540794887,-10.64615076355808,1.2306186188548796,4.683288395888657,0.8552938718312169
1730865973.9827108,-1.718985915184021,1.200554609298706,-9.816550254821777,-0.2682772587740543,-0.26306990180132656,-10.646006333446737,1.2299998057644446,4.675487074818202,0.7960610569615709
1730865974.032757,-1.777178168296814,1.1863377094268799,-9.796299934387207,-0.26853663509374937,-0.26340930739923873,-10.645874283080722,1.2320320002896177,4.671616011615784,0.8557103536009929
1730865974.0837018,-1.8267006874084473,1.1075407266616821,-9.833602905273438,-0.26878029153700644,-0.2637335095426194,-10.645754819955341,1.2312940402803634,4.663845212185872,0.7953286784201342
1730865974.1328225,-1.8129234313964844,1.0744457244873047,-9.833734512329102,-0.2690052505617905,-0.2640481939361923,-10.645647445808942,1.2299140307097225,4.655650788549425,0.7104407416800481
1730865974.1827915,-1.7848941087722778,1.034195899963379,-9.854951858520508,-0.26920994039462487,-0.2643590595587544,-10.645551215657985,1.2278464213193936,4.6466851333678045,0.5979262351510028
1730865974.2327878,-1.7069191932678223,1.0519814491271973,-9.866008758544922,-0.26939399528475894,-0.26467114221336974,-10.645465014566808,1.2337745197803696,4.657499690372772,0.8499079329783474
1730865974.2827125,-1.7330290079116821,1.0380792617797852,-9.891645431518555,-0.26955767378599216,-0.2649884933730371,-10.645387803444553,1.232798932200987,4.651552629866702,0.7882169885751937
1730865974.333654,-1.723747968673706,1.0607243776321411,-9.90710735321045,-0.26970132263270097,-0.2653141643326463,-10.645318858040216,1.2349501615480507,4.64299421927326,0.8547543304609417
1730865974.383695,-1.6333900690078735,1.1029419898986816,-9.92292594909668,-0.2698250895903871,-0.2656503832525808,-10.645257993007561,1.2339854789390199,4.635402167556315,0.7948682353902566
1730865974.4336932,-1.7185343503952026,1.0912126302719116,-9.885492324829102,-0.26992868711767026,-0.2659988710810505,-10.645205687344404,1.232345981902939,4.627146291761629,0.7083670600563565
1730865974.4835937,-1.7632367610931396,1.0811116695404053,-9.884361267089844,-0.2700113212153699,-0.26636113057792177,-10.645163002058949,1.2366275727360592,4.628899671057415,0.8519228164246198
1730865974.533778,-1.7660847902297974,1.066494345664978,-9.817702293395996,-0.27007207794252575,-0.2667385072908652,-10.645131279141644,1.235628869123032,4.622589082969839,0.7906731801913498
1730865974.583637,-1.76335608959198,1.0730304718017578,-9.786660194396973,-0.2701104381466952,-0.26713207745854184,-10.645111682913114,1.2379720502591276,4.613456502157952,0.8548447762844592
1730865974.6336203,-1.755035638809204,1.0663394927978516,-9.755593299865723,-0.27012647171672094,-0.2675425524714644,-10.645104669484596,1.2370746562030623,4.605233567445708,0.7956502784986637
1730865974.683558,-1.7797462940216064,1.05051851272583,-9.727736473083496,-0.27012078830964714,-0.2679702450976953,-10.645109536627393,1.2389942852921447,4.597928202549578,0.8555837769903845
1730865974.7336075,-1.7905184030532837,1.0506978034973145,-9.733460426330566,-0.2700945073431171,-0.26841502745341883,-10.645124166808735,1.2380455128160004,4.58887948621451,0.7960725664524237
1730865974.7834837,-1.7196898460388184,1.0897799730300903,-9.776664733886719,-0.27004925554003645,-0.26887631522117345,-10.645145030990108,1.2391858152236193,4.579386233099434,0.8554798652166209
1730865974.8335426,-1.7713710069656372,1.1019127368927002,-9.835098266601562,-0.269987013365229,-0.26935321705966725,-10.645167551876021,1.2379374903582974,4.570229522411114,0.79577647103104
1730865974.8835092,-1.8028919696807861,1.1387075185775757,-9.852670669555664,-0.26990994137620195,-0.26984484973378836,-10.645186771160292,1.2365683234252725,4.55793998358564,0.85535916175943
1730865974.9336016,-1.8285831212997437,1.182466745376587,-9.922863006591797,-0.26982050659515333,-0.2703507095253319,-10.645198070683584,1.2343714109326933,4.546990177236145,0.7959844271985554
1730865974.9834633,-1.8077365159988403,1.2220063209533691,-9.935257911682129,-0.2697217802916968,-0.2708710751689486,-10.645197788369252,1.2315021334960017,4.535371491276851,0.7100606808702035
1730865975.0335941,-1.8268399238586426,1.19771409034729,-9.958266258239746,-0.26961755651010255,-0.27140736934922977,-10.645183683897605,1.2279567820165753,4.523066796456221,0.5974685248991658
1730865975.0834959,-1.7553056478500366,1.1827597618103027,-9.942646980285645,-0.2695122139375561,-0.27196225393561724,-10.645155162368782,1.2237456296798854,4.510106779679067,0.4585344306728222
1730865975.1334362,-1.7702215909957886,1.131227731704712,-9.93575382232666,-0.2694103838628601,-0.2725393416155176,-10.645113210472449,1.2334076691529967,4.540593093319002,0.847583665436181
1730865975.1834197,-1.7350672483444214,1.0756663084030151,-9.8892240524292,-0.2693165414583157,-0.2731426192983003,-10.645060096476499,1.2312389314760193,4.534198632358414,0.7849259601102339
1730865975.2334309,-1.6980245113372803,1.014807939529419,-9.849322319030762,-0.26923465267555774,-0.2737757113787755,-10.644998880194644,1.2348543633978477,4.521354457788994,0.8542652683784864
1730865975.2833824,-1.74787175655365,0.9247363805770874,-9.83838939666748,-0.26916790892846426,-0.2744410663556218,-10.644932818720482,1.2335267697080412,4.5110479068158895,0.7946847117523205
1730865975.3333728,-1.7218077182769775,0.9190731048583984,-9.835184097290039,-0.2691186408916143,-0.2751391739541547,-10.644864870110977,1.236270986580126,4.5015106554124165,0.854711996289426
1730865975.3833628,-1.710154414176941,0.9689270853996277,-9.809120178222656,-0.26908841095521874,-0.27586809691703024,-10.64479742577471,1.2352247237931657,4.490169046944521,0.795302576623739
1730865975.4333987,-1.6837084293365479,0.9878154993057251,-9.841340065002441,-0.26907803966472077,-0.2766236208275272,-10.644732210802236,1.2373108319119406,4.490892585446509,0.8543925435875752
1730865975.483403,-1.650559425354004,1.0081390142440796,-9.836055755615234,-0.2690874601417286,-0.27739987734798804,-10.644670312780368,1.2362112224990465,4.483060714574335,0.7950124748154447
1730865975.5333564,-1.6746716499328613,1.0141290426254272,-9.857386589050293,-0.26911553627160195,-0.2781899969762282,-10.64461234141436,1.245643369775164,4.477552662253223,0.8544413783171251
1730865975.5833364,-1.6851810216903687,1.004333734512329,-9.852632522583008,-0.2691600390128146,-0.2789865595333313,-10.644558628327252,1.253565184129674,4.472076110733408,0.8601548836068463
1730865975.6333683,-1.5812643766403198,1.044628381729126,-9.859695434570312,-0.2692177602295608,-0.2797818756830243,-10.644509377648964,1.256476576696416,4.464624781979567,0.8033389141561983
1730865975.683324,-1.7228114604949951,1.0327458381652832,-9.875347137451172,-0.26928455858978495,-0.28056823140366655,-10.644464766684507,1.2587104305180816,4.456486922131212,0.7200407239216006
1730865975.7333395,-1.8088876008987427,1.0366780757904053,-9.752493858337402,-0.26935563016220104,-0.28133812747251286,-10.644424931784773,1.2602782106125257,4.447603718118274,0.6095893212787296
1730865975.7832942,-1.8492463827133179,1.0879586935043335,-9.823813438415527,-0.2694264081888206,-0.28208446862039516,-10.644389698722277,1.257437142288539,4.456295538781933,0.8486571313731042
1730865975.8332365,-1.8476037979125977,1.0733569860458374,-9.768607139587402,-0.26949360467309313,-0.2828007773287734,-10.644358236684484,1.25762219186199,4.44984955453885,0.7870254929621797
1730865975.8832293,-1.7965223789215088,1.0459142923355103,-9.815152168273926,-0.269555660037324,-0.28348138885685054,-10.644328966466947,1.2609470373433502,4.439904727721788,0.853549792138466
1730865975.933179,-1.7969716787338257,1.0425485372543335,-9.871280670166016,-0.2696125327430701,-0.2841214153828734,-10.64429975815021,1.2642118879139284,4.43410543878324,0.859641812844648
1730865975.9832678,-1.7303887605667114,1.079399585723877,-9.879664421081543,-0.2696651688763504,-0.2847165687895328,-10.644268366574975,1.2648541225024237,4.427056584502745,0.8026027295361025
1730865976.0331671,-1.6776671409606934,1.154143214225769,-9.950304985046387,-0.2697148735112669,-0.28526320919328174,-10.644232991621852,1.2648186869716136,4.419329886346546,0.719225056072976
1730865976.0831647,-1.6643404960632324,1.210000991821289,-9.945380210876465,-0.2697626368281002,-0.28575879209421357,-10.644192773677569,1.2662954473856867,4.415520953311133,0.8504799389103096
1730865976.1330926,-1.6949403285980225,1.204162359237671,-9.977410316467285,-0.26980862672300154,-0.2862024838733729,-10.644148137491625,1.2658818943809942,4.407581509353664,0.7896505825680893
1730865976.1830785,-1.715383529663086,1.1504161357879639,-9.959513664245605,-0.2698521188710403,-0.28659547027941623,-10.644100929629166,1.2683919927517167,4.396957904136922,0.8532537520091619
1730865976.2331274,-1.7309974431991577,1.0735752582550049,-9.935346603393555,-0.26989179866442375,-0.28694063437714,-10.644054315328784,1.270383309881097,4.390297055044475,0.8555252524949692
1730865976.2831085,-1.751832365989685,1.0295008420944214,-9.867960929870605,-0.2699261512537998,-0.28724171115269903,-10.64401240752813,1.2703686651892099,4.38161365321261,0.7976048402374729
1730865976.333172,-1.7894331216812134,1.0231446027755737,-9.804779052734375,-0.26995380666839186,-0.2875023578059239,-10.64397960652435,1.2696753826770821,4.372121702852226,0.712355582827848
1730865976.3830342,-1.7807178497314453,0.9962002635002136,-9.770801544189453,-0.26997385211277436,-0.28772553188797806,-10.64395977442086,1.271942600568252,4.37607921127521,0.8438608660989388
1730865976.4331918,-1.7807178497314453,0.9962002635002136,-9.770801544189453,-0.2699860382447013,-0.28791322148136334,-10.643955535880126,1.2711723260783199,4.369342414051224,0.7820475863266578
1730865976.4331918,-1.7861945629119873,0.9779112339019775,-9.746031761169434,-0.26999079792587,-0.288066361767889,-10.64396793160487,1.271164999932152,4.369295623081352,0.781551552254557
1730865976.4830334,-1.7849152088165283,0.9251965284347534,-9.751386642456055,-0.26998916291294495,-0.28818478544842063,-10.643996372620343,1.2697391319354383,4.361950382962926,0.6943760078057976
1730865976.5330846,-1.784656286239624,0.8895010352134705,-9.759675979614258,-0.26998268125738,-0.28826706595533724,-10.644038747089798,1.2676120318082464,4.353752202377734,0.5790000975712892
1730865976.583109,-1.7826882600784302,0.8732828497886658,-9.80506706237793,-0.26997333334106643,-0.28831025259925414,-10.644091678249803,1.2748902611666435,4.3618387086978565,0.8453323264041555
1730865976.6331296,-1.7952266931533813,0.8966658711433411,-9.827330589294434,-0.26996344730085836,-0.2883097237754193,-10.6441509748401,1.2742133957707809,4.355968901195923,0.7859193550247385
1730865976.6830444,-1.813761830329895,0.8992002606391907,-9.887080192565918,-0.269955667598908,-0.2882593448262089,-10.644212213740818,1.2728662932240933,4.349400293328425,0.7001873977925097
1730865976.7331476,-1.7603381872177124,1.0126773118972778,-9.927574157714844,-0.2699529528175143,-0.28815194817916084,-10.644271368459373,1.2761339165468322,4.347011120247413,0.8407322588293392
1730865976.7829556,-1.7341268062591553,1.0816811323165894,-9.964619636535645,-0.2699584169397217,-0.28798016449825026,-10.644325420001708,1.2795938580366388,4.334370150556289,0.8456498519207838
