Timestamp,IMU_Linear_Acc_X,IMU_Linear_Acc_Y,IMU_Linear_Acc_Z,Filtered_X,Filtered_Y,Filtered_Z,Pose_X,Pose_Y,Pose_Z
1730865946.8840554,-1.6525182723999023,1.072100281715393,-9.886634826660156,-0.0007180662202934052,-0.0005535091705566737,-0.08426311066994853,0.8728214773946241,3.831001006163276,0.8989996113458816
1730865946.9339588,-1.6460669040679932,1.1705397367477417,-9.888028144836426,-0.000997472968455631,-0.0008475588993621904,-0.11318715714048225,0.9030177955462131,3.831001162779756,0.8989990812035416
1730865946.9839773,-1.5448205471038818,1.3515266180038452,-9.916738510131836,-0.0013470531231512114,-0.0012469880697452576,-0.14826406183754962,0.9035462061649695,3.8310011906569716,0.8989989512511409
1730865947.0338826,-1.4505513906478882,1.3764179944992065,-9.885746955871582,-0.001775589706135682,-0.0017725270024963476,-0.19004819332652728,0.890938516649111,3.8309906488183834,0.898998283584063
1730865947.083904,-1.4505513906478882,1.3764179944992065,-9.885746955871582,-0.0022903752484651667,-0.0024471786311443433,-0.2390551388611519,0.8239424587294764,3.8309494450888475,0.8989550271495631
1730865947.083904,-1.483825922012329,1.3574954271316528,-9.83907413482666,-0.0028964433571161243,-0.0032963546511338747,-0.29575629988925534,0.8231149355199225,3.830948932013315,0.8989540892797656
1730865947.1338828,-1.5220105648040771,1.4168083667755127,-9.791072845458984,-0.003596511914235599,-0.004347325762015478,-0.3605742646707458,0.8851401319312108,3.830802215811755,0.8982789486101299
1730865947.1838188,-1.466209888458252,1.5062932968139648,-9.781386375427246,-0.004391417687454148,-0.005628690369517863,-0.43387894652359194,0.879766782582024,3.8306527016035745,0.8966039794026122
1730865947.2339377,-1.6475468873977661,1.4503509998321533,-9.745635986328125,-0.0052806121360132515,-0.0071701968090869435,-0.5159845754549653,0.8743879984810178,3.8304873323848345,0.8937405872142193
1730865947.2838902,-1.7597566843032837,1.3032793998718262,-9.741059303283691,-0.006262928928323353,-0.009002379739974678,-0.6071476053523672,0.8837788627989043,3.830271069708265,0.8894646903964009
1730865947.3337905,-1.6816997528076172,1.2365984916687012,-9.753911018371582,-0.007337767692513182,-0.011155359535410067,-0.7075654830001115,0.8796422386851461,3.8300116764362957,0.8835962563736668
1730865947.3838024,-1.757475733757019,1.2633165121078491,-9.788309097290039,-0.008505940213339518,-0.013657192361870003,-0.8173762620274608,0.8774228326630206,3.82976209888392,0.8757553797661161
1730865947.4338114,-1.9410609006881714,1.2342725992202759,-9.715015411376953,-0.009769958174492948,-0.016532734563959615,-0.9366589436188388,0.8747369432661686,3.8293929161272393,0.8657271487148106
1730865947.4836771,-1.7980672121047974,1.2204742431640625,-9.816902160644531,-0.01113443127282677,-0.019803221822697413,-1.065434277007487,0.8716736320393553,3.829055917316355,0.8532844086464281
1730865947.5337312,-1.6201061010360718,1.2407430410385132,-9.861479759216309,-0.01260613343411724,-0.023486130605052582,-1.203666087565349,0.8685505887060554,3.828661262537368,0.8378708508929829
1730865947.5837328,-1.6417081356048584,1.2559638023376465,-9.932706832885742,-0.01419284600123134,-0.027595173682594426,-1.3512633742452154,0.8756976786121318,3.8281461999989483,0.8193439203539747
1730865947.6336718,-1.4783844947814941,1.2720919847488403,-9.962823867797852,-0.015901643417493515,-0.032140498884662375,-1.5080829557402273,0.8751737668412378,3.827613849853728,0.797225055424063
1730865947.6836586,-1.4127205610275269,1.249739170074463,-9.95790958404541,-0.017737521092096066,-0.037128966419462804,-1.6739322158045917,0.8746073908456804,3.826994432715553,0.7711082464019327
1730865947.7336457,-1.4345476627349854,1.2176520824432373,-9.960887908935547,-0.01970237002605535,-0.04256428402607508,-1.8485717189955988,0.8714958426725828,3.826206142483519,0.7407894242124117
1730865947.7836764,-1.6071974039077759,1.2252144813537598,-9.856568336486816,-0.021794632550360456,-0.04844694323799806,-2.0317176309273153,0.8701255149949406,3.8253707358648352,0.7053599615526526
1730865947.8337014,-1.532752275466919,1.1856809854507446,-9.923158645629883,-0.024010027643597782,-0.05477410782623826,-2.223044001597976,0.868700057496681,3.824407324668404,0.6646557537217354
1730865947.8835726,-1.49844229221344,1.2116985321044922,-9.878271102905273,-0.026342563445159322,-0.061539588600975415,-2.4221852189639566,0.8682242139725538,3.823213860027497,0.6184553011047829
1730865947.9345996,-1.521494746208191,1.106750726699829,-9.946966171264648,-0.028784903370354522,-0.06873385779729493,-2.6287389173009394,0.8669501560848828,3.821916115982129,0.5646222131420776
1730865947.9846032,-1.521235466003418,1.066617727279663,-9.89339542388916,-0.03132834483993282,-0.07634390847958714,-2.842269234399657,0.8702891733777838,3.8203460991063896,0.5045660088911551
1730865948.034629,-1.6524330377578735,0.9745575785636902,-9.893824577331543,-0.03396308722642294,-0.0843528525936105,-3.062310110161319,0.8708813171166362,3.8185740851018517,0.43746635447603544
1730865948.0845356,-1.714928388595581,0.9513433575630188,-9.833707809448242,-0.03667900421552958,-0.09273944395591781,-3.288368418881892,0.8710765778756122,3.816701069427466,0.36281317190023077
1730865948.1347377,-1.6118273735046387,0.9223973155021667,-9.884674072265625,-0.03946658862251369,-0.10147781093771704,-3.5199269926415626,0.8711782404028455,3.814562963537768,0.27876781189165334
1730865948.1846237,-1.3661701679229736,0.9260615110397339,-9.857068061828613,-0.042317109031830974,-0.11053754724023174,-3.7564477875652953,0.8711769896471121,3.812179698597128,0.1864041902286735
1730865948.2345996,-1.2212275266647339,0.8862243294715881,-9.932165145874023,-0.0452212941262545,-0.11988410504387637,-3.9973753060149706,0.8685018293109313,3.809355819555447,0.08411142313514923
1730865948.2835228,-1.0323896408081055,0.8774198889732361,-9.941996574401855,-0.04816712459605951,-0.12947928349141266,-4.242140204666808,0.867896379680225,3.8064242566506223,-0.026220480698974896
1730865948.3344536,-1.2495695352554321,0.9381879568099976,-9.924843788146973,-0.05113808806636124,-0.13928175780037902,-4.490162913368875,0.8692163749138954,3.802874489213515,-0.15184366218124357
1730865948.3844686,-1.4342632293701172,1.0002256631851196,-9.9284086227417,-0.05411318934822626,-0.14924787870512918,-4.740856989562625,0.8691044410264023,3.7991863317948233,-0.28674607661789964
1730865948.4344435,-1.6491162776947021,1.1198151111602783,-9.88106918334961,-0.05706905759923464,-0.15933290591550545,-4.993632092718093,0.8688554844812213,3.795134472208077,-0.4330308844698536
1730865948.4846096,-1.8150001764297485,1.2128596305847168,-9.911548614501953,-0.059983086127974705,-0.1694925601548588,-5.247896713072821,0.8684533243162595,3.7905898917544505,-0.5950345060557962
1730865948.5345068,-1.8747748136520386,1.2866096496582031,-9.855307579040527,-0.06283624051497931,-0.17968462390608472,-5.50306080247491,0.8665344688378063,3.7854838048365997,-0.7674428286476608
1730865948.5845046,-1.8972151279449463,1.2438414096832275,-9.890105247497559,-0.06561481041583912,-0.18987018972277214,-5.758538345625331,0.8603042490575248,3.7798760368710442,-0.9547828668544796
1730865948.6345894,-1.8699368238449097,1.2726092338562012,-9.829380989074707,-0.06831094076810258,-0.20001419992645442,-6.013749838110563,0.8575977185588857,3.7739757311945574,-1.1575980770852488
1730865948.6844258,-1.9649289846420288,1.1705948114395142,-9.842905044555664,-0.070922321833485,-0.21008529716501323,-6.268124624452422,0.8583751878361067,3.767375562480142,-1.3737039320340583
1730865948.7343395,-1.755480170249939,1.117276906967163,-9.814167976379395,-0.07345152981990277,-0.22005519532490947,-6.521103082799746,0.8565820728277811,3.7604823229158195,-1.6057558627623578
1730865948.7843802,-1.648979902267456,1.0715574026107788,-9.870731353759766,-0.07590485303426077,-0.2298977556165914,-6.772138754916461,0.8590115248243507,3.75269612010664,-1.856279109052739
1730865948.8343627,-1.619248390197754,1.0923936367034912,-9.766934394836426,-0.07829044070501703,-0.23958813748220742,-7.020700456241644,0.858443228343214,3.744630301489544,-2.1227963650288952
1730865948.8843756,-1.5719029903411865,1.1600306034088135,-9.814069747924805,-0.08061653657478648,-0.24910245873572656,-7.266274160448129,0.8608200826097279,3.7356157306560847,-2.4082462129065885
1730865948.9342463,-1.4718180894851685,1.2043366432189941,-9.855443000793457,-0.08289037452496371,-0.25841808910123554,-7.508364674577612,0.8610402979397377,3.7263270740234566,-2.710171794567677
1730865948.9843962,-1.5622344017028809,1.2559999227523804,-9.844598770141602,-0.08511750530083545,-0.2675143212480234,-7.746497417260669,0.8656650848636608,3.715962559647777,-3.033743694991175
1730865949.0343103,-1.6065484285354614,1.3037285804748535,-9.91126537322998,-0.08730160764152968,-0.27637305723332994,-7.980220260555153,0.8675053170435626,3.705314634149786,-3.3748997716806115
1730865949.084335,-1.6464300155639648,1.3352413177490234,-9.848318099975586,-0.08944500113456061,-0.28497934245056267,-8.209105143065948,0.8691360284252366,3.6938929909014977,-3.7385933450447175
1730865949.1342292,-1.7890230417251587,1.2793657779693604,-9.847938537597656,-0.09154956221047644,-0.2933216404006266,-8.432749281414605,0.8675473681244555,3.6813647690068096,-4.122715434833472
1730865949.1843033,-1.9112098217010498,1.1769911050796509,-9.826825141906738,-0.09361783863927245,-0.30139158410739214,-8.650775940982882,0.8680534882140136,3.6685149981697003,-4.527088008071903
1730865949.2342906,-1.7468112707138062,1.169215440750122,-9.872337341308594,-0.09565415165804536,-0.30918312048380936,-8.862835000855169,0.8683232485952378,3.6549287615881223,-4.952520962658335
1730865949.2843397,-1.7610691785812378,1.1731765270233154,-9.90518856048584,-0.09766489330675787,-0.3166915349553883,-9.068603625028839,0.86890266131265,3.6401204917631507,-5.399906609239742
1730865949.3341703,-1.772855281829834,1.1963719129562378,-9.869773864746094,-0.0996578640975157,-0.3239129381847673,-9.26778701370779,0.8691573850485874,3.624929479758956,-5.871081680093953
1730865949.3842542,-1.7723252773284912,1.1582468748092651,-9.856871604919434,-0.10164158447278566,-0.3308442024190946,-9.460118894734503,0.8691606352524565,3.608841565578504,-6.368091377994858
1730865949.4341888,-1.5951693058013916,1.1924304962158203,-9.84045124053955,-0.10362486527112647,-0.33748297968625135,-9.645361572382544,0.8704265776867317,3.591641730023687,-6.881433550921456
1730865949.4842129,-1.4303251504898071,1.1096744537353516,-9.871488571166992,-0.10561589610668355,-0.3438276172524223,-9.823305757249303,0.870596372403638,3.5738160411948394,-7.4278955962935385
1730865949.5342839,-1.4494115114212036,1.127644419670105,-9.831385612487793,-0.10762068530367501,-0.34987693957624244,-9.993770411512209,0.8661472672783642,3.5547024282177784,-7.9946421989534535
1730865949.5842733,-1.374488115310669,1.0864741802215576,-9.847817420959473,-0.10964175594788426,-0.35562994565888895,-10.156602546519222,0.8644134604189936,3.5352102945302493,-8.58819059866416
1730865949.634126,-1.4525998830795288,1.0719263553619385,-9.802490234375,-0.1116777567334136,-0.3610855540271085,-10.311676841262248,0.8638153938463643,3.5143581585685473,-9.202643710260439
1730865949.684152,-1.5784028768539429,1.0320987701416016,-9.840079307556152,-0.11372393747418585,-0.36624240330062785,-10.458895111851106,0.8621526128684146,3.4931086908425737,-9.845947378556955
1730865949.734146,-1.5448294878005981,0.9901504516601562,-9.828018188476562,-0.1157732770595649,-0.37109862016149536,-10.598185762004524,0.86448095132783,3.4703399087548785,-10.513252860769528
1730865949.7841535,-1.495914340019226,0.9905200004577637,-9.897010803222656,-0.11781760824914661,-0.37565157075080124,-10.729503320125112,0.8638789674877015,3.447179712972063,-11.21084370257344
1730865949.8341901,-1.5989469289779663,0.96947181224823,-9.889765739440918,-0.1198481219661247,-0.37989771931602356,-10.852828068310664,0.8640249235826365,3.4224570509161665,-11.932050042382734
1730865949.8841543,-1.5671354532241821,0.9694827198982239,-9.91878890991211,-0.12185562063281492,-0.38383266542473854,-10.968165633095548,0.8635397277946022,3.3968824155918513,-12.675998201874206
1730865949.9341342,-1.4966825246810913,0.9941743016242981,-9.964380264282227,-0.12383084501128616,-0.387451325655924,-11.075546423147344,0.8627716303762781,3.370860664064736,-13.454536078639574
1730865949.984129,-1.4800490140914917,0.969645619392395,-9.981051445007324,-0.1257644730139774,-0.39074822262673575,-11.175024976003586,0.8616825531917097,3.3436567347012383,-14.267140276716837
1730865950.0342054,-1.459653377532959,1.016774296760559,-9.992463111877441,-0.1276467591243437,-0.3937178198297322,-11.266679235282055,0.8602837836994865,3.3156673800375223,-15.101963736405542
1730865950.0840492,-1.5144121646881104,1.049118995666504,-9.973414421081543,-0.12946732409471665,-0.39635490094232406,-11.350609610342655,0.8659050483131807,3.2859925083983605,-15.959211826369385
1730865950.1340241,-1.6105612516403198,1.0086636543273926,-9.94045639038086,-0.13121543683696502,-0.3986550086668179,-11.426937718878596,0.8658911003414623,3.256267437651847,-16.843013247115525
1730865950.1840804,-1.6105612516403198,1.0086636543273926,-9.94045639038086,-0.13288076754455935,-0.4006147236648129,-11.495804871493863,0.8678556573820042,3.2243710319414753,-17.761791339973676
1730865950.1840804,-1.5536221265792847,1.06661057472229,-9.94149398803711,-0.1344541222444126,-0.40223171179339146,-11.557370501881596,0.867858454070244,3.224190017256865,-17.767161480538604
1730865950.2339597,-1.603241205215454,1.065562129020691,-9.964529037475586,-0.13592764806247476,-0.4035048557300922,-11.61181075063569,0.8681729965190451,3.1924780951556047,-18.707512201630927
1730865950.2839465,-1.879683494567871,1.0326447486877441,-9.866992950439453,-0.1372949685893839,-0.40443450920701024,-11.659317142795494,0.8681503253716953,3.159424131660434,-19.686802717218335
1730865950.3339956,-2.0737950801849365,0.9914940595626831,-9.809025764465332,-0.13855231071714397,-0.40502250426106845,-11.700095021128536,0.8713219348496486,3.1247168250714092,-20.682416532820127
1730865950.3840535,-1.8243703842163086,0.9407444000244141,-9.798154830932617,-0.13970029320691343,-0.4052717733143591,-11.734361640510654,0.8717014487315518,3.0894224412389506,-21.726039802704772
1730865950.4339852,-1.6435387134552002,1.0102969408035278,-9.805895805358887,-0.14074432699276596,-0.40518587996127997,-11.762344358987486,0.8756562580262561,3.052840697130775,-22.773270159733844
1730865950.4839067,-1.5730770826339722,1.1460793018341064,-9.76155948638916,-0.14169275758137978,-0.40476899779174474,-11.78427924579468,0.8769732481685937,3.015918697215063,-23.863384379651503
1730865950.5338778,-1.402429223060608,1.2469379901885986,-9.80485725402832,-0.14255425808538186,-0.40402670063564655,-11.800409940459977,0.877941507044053,2.977826473790583,-24.987681611377287
1730865950.5837739,-1.2801685333251953,1.27745521068573,-9.844583511352539,-0.14333573569748898,-0.40296720962736793,-11.810986674366742,0.8785511327790195,2.93884601903119,-26.1379373201556
1730865950.6338754,-1.3144124746322632,1.2810062170028687,-9.876189231872559,-0.14404080647959933,-0.4016022998686173,-11.81626557625544,0.8788041768219698,2.8986350310537077,-27.32436106886701
1730865950.6837897,-1.3720238208770752,1.2254197597503662,-9.91110610961914,-0.14466912347329763,-0.3999474289238375,-11.816508160808695,0.87869497188547,2.8574899270401692,-28.53832461716046
1730865950.7338083,-1.4993278980255127,1.1518988609313965,-9.931300163269043,-0.14521693013965603,-0.3980211381241947,-11.811980769995873,0.8795172839555632,0.9841736480277378,0.8735285045999858
1730865950.78379,-1.6006672382354736,1.0863429307937622,-9.86929702758789,-0.14567853375895357,-0.39584396399241917,-11.802953812358291,0.8798650048071552,0.9851577241066116,0.8289544740118787
1730865950.8337855,-1.81550133228302,1.01986563205719,-9.81452465057373,-0.14604819270768363,-0.3934371762954004,-11.789700611434585,0.8841588299312331,0.9920440931088029,0.872554083804242
1730865950.8837059,-1.9375649690628052,0.9927679896354675,-9.77560806274414,-0.14632217921726035,-0.3908216466286132,-11.772495841719753,0.8851692364539642,0.9935355162568863,0.828241547185021
1730865950.9336746,-2.0457820892333984,0.9714118242263794,-9.726194381713867,-0.14650074414655376,-0.38801703823562816,-11.751613859579331,0.885814880517726,0.9940549332666728,0.7544337641026139
1730865950.9836621,-2.0869340896606445,1.0083929300308228,-9.737180709838867,-0.1465895115814208,-0.3850414136210603,-11.727327237779638,0.8879666590592558,1.0080908183610198,0.8724480966508912
1730865951.0336392,-2.0562994480133057,1.051559329032898,-9.758321762084961,-0.14659998343722,-0.38191129980275407,-11.69990566663683,0.8887638713109421,1.011426846624698,0.8282402105701815
1730865951.083622,-1.9736506938934326,1.1039338111877441,-9.822582244873047,-0.14654909135409772,-0.37864215590319916,-11.669615321677622,0.8989757592051996,1.018804356446129,0.8724714105669071
1730865951.133597,-1.9302725791931152,1.1401413679122925,-9.887577056884766,-0.1464579494664902,-0.3752490425963989,-11.636718673702322,0.9027772002605936,1.0228394119771713,0.8285711462684436
1730865951.1835477,-1.8705997467041016,1.1601102352142334,-9.892549514770508,-0.1463502614134507,-0.37174723959408285,-11.601474528855789,0.9072641380105074,1.0291369600853235,0.8726518600610542
1730865951.233644,-1.852792739868164,1.1702474355697632,-9.919771194458008,-0.14625086291440792,-0.36815264391119773,-11.564137962201656,0.911357858626097,1.0335456428448777,0.8289022334801327
1730865951.2836158,-1.850260853767395,1.1229956150054932,-9.914119720458984,-0.14618462746886146,-0.364481868119212,-11.524959956150727,0.9121467921150016,1.0406344867920074,0.8730716936475783
1730865951.3335752,-1.8229795694351196,1.0839333534240723,-9.910886764526367,-0.14617575741529218,-0.36075198165965644,-11.48418681229059,0.9145230675408853,1.044574167708831,0.8297339158926379
1730865951.3836124,-1.7985893487930298,1.0479875802993774,-9.888747215270996,-0.1462473073753901,-0.35697994961294977,-11.442059428865525,0.9218681916679728,1.053873653405378,0.8733157787817264
1730865951.4335694,-1.7535266876220703,0.9978740811347961,-9.872357368469238,-0.1464207300990982,-0.35318197597221346,-11.398812484287651,0.9313689130867321,1.05660813401457,0.8733889358297834
1730865951.4836032,-1.7225205898284912,0.9698752164840698,-9.863229751586914,-0.14671537524189285,-0.3493729101514801,-11.35467360339105,0.9366211649238472,1.0591394645924719,0.830488102361983
1730865951.533507,-1.668954610824585,0.9353963732719421,-9.8529052734375,-0.14714798349490116,-0.34556576714546866,-11.30986260582349,0.9415121940740399,1.0608040300543262,0.759159731912845
1730865951.583536,-1.6359572410583496,0.9215210676193237,-9.852986335754395,-0.14773221871310294,-0.3417714013191038,-11.264590892278388,0.9460241155405462,1.0616067459839957,0.659807845843506
1730865951.6334298,-1.6144894361495972,0.9229671359062195,-9.850465774536133,-0.14847829268829693,-0.33799836892927015,-11.219060969009053,0.9261655816064969,1.0696931506669685,0.8737356443029576
1730865951.6834772,-1.6067534685134888,0.9610587358474731,-9.857247352600098,-0.14939277655673522,-0.3342530296943086,-11.173466095182544,0.9257210487414587,1.0719848435750936,0.8311630783196226
1730865951.7344527,-1.5976148843765259,1.0084751844406128,-9.867647171020508,-0.15047864258406773,-0.3305399464260852,-11.127990043016002,0.9213402575245806,1.0870292765715488,0.873247706172186
1730865951.7843916,-1.6114647388458252,1.0301212072372437,-9.874835968017578,-0.15173548864730751,-0.3268625243042324,-11.082806960703595,0.9191244134571638,1.0931360862469823,0.8310360394707759
1730865951.8344188,-1.5975745916366577,1.018343448638916,-9.889068603515625,-0.15315987728204242,-0.3232236379717721,-11.038081312463394,0.9165162255847061,1.0984583045320433,0.7609277163237398
1730865951.8845086,-1.6075562238693237,0.9683912396430969,-9.893061637878418,-0.15474571278477445,-0.3196259409568135,-10.99396786281493,0.9191710759881736,1.0982159670832632,0.8737958774176754
1730865951.934418,-1.626556634902954,0.905511736869812,-9.897462844848633,-0.15648462040392438,-0.3160717155410697,-10.950611675096072,0.9177616877005945,1.1010189461022113,0.8323611371999
1730865951.9844997,-1.6508206129074097,0.8503293991088867,-9.890620231628418,-0.15836638523209542,-0.31256235929587506,-10.908148090998267,0.9141138091485698,1.1168004118423929,0.8738562338478725
1730865952.034278,-1.668717384338379,0.7852784395217896,-9.882685661315918,-0.16037947354711013,-0.30909774053173256,-10.866702669712225,0.9114492157687214,1.12358128840383,0.8329773628705894
1730865952.0843859,-1.666137456893921,0.7490000128746033,-9.847501754760742,-0.16251153699524562,-0.305675620469049,-10.826391070347128,0.9102968925984025,1.131440941211796,0.8739334504798555
1730865952.134316,-1.6244356632232666,0.7482098340988159,-9.854060173034668,-0.16474973974773552,-0.30229128731729926,-10.787318882150933,0.9076116195173127,1.13825205732162,0.8332418397864194
1730865952.1843207,-1.5937052965164185,0.7874472141265869,-9.882034301757812,-0.167080788700699,-0.2989375680462446,-10.74958153154552,0.9044905230308574,1.1443615451003186,0.7652713808063918
1730865952.2342668,-1.5707736015319824,0.8576775789260864,-9.910017013549805,-0.1694907272906827,-0.295605329537968,-10.71326445478246,0.9087633303765353,1.1365163033632024,0.8743174107510829
1730865952.2842512,-1.587791085243225,0.9232023358345032,-9.935588836669922,-0.17196473966001494,-0.29228440898124325,-10.678443534258161,0.910983738541027,1.147279410415521,0.874304103267692
1730865952.3342435,-1.5839658975601196,0.9715844392776489,-9.951668739318848,-0.17448717379733414,-0.2889647321306096,-10.64518561622067,0.9107557813785115,1.1512939767598904,0.8341842588947873
1730865952.3842833,-1.6285433769226074,0.9795622229576111,-9.949352264404297,-0.17704180158236946,-0.28563729106701036,-10.613548953878691,0.9075934449642841,1.1469339200409547,0.8739524740477072
1730865952.4342704,-1.6731714010238647,0.9589577913284302,-9.931402206420898,-0.17961226766436855,-0.28229471393976663,-10.583583490386523,0.9057299132685325,1.1477310876633673,0.8335712396577829
1730865952.4843504,-1.7608195543289185,0.9085907340049744,-9.892904281616211,-0.18218274197247936,-0.2789313199739136,-10.555330936538699,0.9034250600891999,1.1478236444270737,0.7670325034346458
1730865952.5342863,-1.8198007345199585,0.8613375425338745,-9.845653533935547,-0.18473876062509392,-0.27554273037730737,-10.528824646989648,0.9069272835368043,1.1614630616613153,0.8739200859949712
1730865952.5842535,-1.8743910789489746,0.8098325729370117,-9.812735557556152,-0.18726810017360807,-0.27212523319065984,-10.504089369976217,0.9058036308549448,1.1642416822721238,0.8343280439619557
1730865952.634168,-1.8814746141433716,0.8248398900032043,-9.78154468536377,-0.18976144142953155,-0.26867516743781494,-10.481141017450287,0.9073516514217254,1.1768425324759189,0.8741650344299433
1730865952.6841817,-1.8178749084472656,0.9012826681137085,-9.799697875976562,-0.19221258118574264,-0.26518865829702165,-10.459986620151897,0.9066307744856722,1.18245680518675,0.8346551743224534
1730865952.7341259,-1.7743693590164185,0.9895063042640686,-9.821540832519531,-0.1946180446734678,-0.26166197521747214,-10.440624600962064,0.9054866525940573,1.1855629959891023,0.8741844928486887
1730865952.7841399,-1.7426655292510986,1.0704177618026733,-9.879551887512207,-0.19697625338181343,-0.2580924389890431,-10.423045417300346,0.9040743132607251,1.1900886119747447,0.8345984078017052
1730865952.834016,-1.7173658609390259,1.144403100013733,-9.899643898010254,-0.19928665727807984,-0.25447949242797563,-10.407232477514118,0.9043795998267696,1.2038926937720082,0.8743765423776648
1730865952.884022,-1.7238008975982666,1.201750636100769,-9.902915954589844,-0.20154911083872756,-0.2508256023950122,-10.393163089481437,0.9030556198948739,1.2106349394487321,0.8352313603478406
1730865952.9340377,-1.7238008975982666,1.201750636100769,-9.902915954589844,-0.20376354270742794,-0.24713682331383457,-10.380809193233873,0.9088865106798638,1.221030904570591,0.8750736391891635
1730865952.9340377,-1.7645459175109863,1.1820310354232788,-9.86949348449707,-0.20592989339424808,-0.24342288381424942,-10.37013780321428,0.9088910237921607,1.2210732238558688,0.8749341552990552
1730865952.9839852,-1.83077871799469,1.1543887853622437,-9.82955265045166,-0.20804831744368807,-0.23969675719869837,-10.36111120023739,0.9118453985288457,1.2231516199434544,0.8761616287521599
1730865953.0339887,-1.8594506978988647,1.0799541473388672,-9.79504680633545,-0.21011963588042334,-0.2359738523246528,-10.353686924574621,0.912780179079657,1.2265047010494403,0.8379301733176486
1730865953.0839276,-1.8594506978988647,1.0799541473388672,-9.79504680633545,-0.21214582955004413,-0.23227102204037403,-10.347817721672088,0.9131924093474266,1.2292867445663047,0.7737762482745106
1730865953.0839276,-1.8404059410095215,1.018115758895874,-9.759230613708496,-0.214130248734005,-0.22860560765638271,-10.343451627147314,0.9131931855804942,1.2292999774564641,0.7733664425056204
1730865953.1339393,-1.7897979021072388,0.9865586757659912,-9.764646530151367,-0.21607740958656982,-0.2249946424933389,-10.340532212779298,0.9130687229469002,1.2315061506794394,0.6833831123237386
1730865953.1840162,-1.698754072189331,1.0258070230484009,-9.786855697631836,-0.21799241592643842,-0.22145423361929872,-10.338998960608983,0.9116576694943425,1.2392827172426977,0.8760245111043995
1730865953.2339149,-1.6195176839828491,1.096706748008728,-9.849236488342285,-0.2198800598723491,-0.21799932883541268,-10.338787866385701,0.9111640773994176,1.2428049431027521,0.8372187830514268
1730865953.2839737,-1.6195176839828491,1.096706748008728,-9.849236488342285,-0.22174382515586455,-0.21464400809252712,-10.339832307113493,0.9101182788027657,1.2457929002375183,0.7725303373207961
1730865953.2839737,-1.5690386295318604,1.1863417625427246,-9.894932746887207,-0.22358518494825727,-0.21140200969363743,-10.342063960624344,0.9101110219638232,1.2458077945607822,0.7721047087630661
1730865953.3338645,-1.5596836805343628,1.2637195587158203,-9.941064834594727,-0.2254033186753618,-0.20828727759536902,-10.34541361708358,0.911596708138737,1.2571296629790747,0.8767614739390549
1730865953.384044,-1.5596836805343628,1.2637195587158203,-9.941064834594727,-0.2271950798158342,-0.20531455663457093,-10.349811921028344,0.9108244882232716,1.2626437353533664,0.8379264685582685
1730865953.384044,-1.59630286693573,1.3051685094833374,-9.960204124450684,-0.22895517700438642,-0.20249982876526548,-10.355189990107196,0.9108186727759535,1.2626725339928393,0.8376415039759908
1730865953.4338489,-1.6284863948822021,1.3273265361785889,-9.94701862335205,-0.23067663776933647,-0.1998604076062333,-10.361479794141333,0.9094918008830748,1.2675938815389998,0.7737801455800724
1730865953.4840422,-1.6553434133529663,1.316172480583191,-9.920696258544922,-0.23235147431317416,-0.19741482497629748,-10.368614302812457,0.9117675580566779,1.268096026176124,0.8767293346121585
1730865953.5338588,-1.6553434133529663,1.316172480583191,-9.920696258544922,-0.23397133893946942,-0.19518257198330669,-10.37652745532222,0.9148302802651903,1.2838514558809337,0.8767584052419672
1730865953.5338588,-1.6599690914154053,1.2806527614593506,-9.860176086425781,-0.2355279861244166,-0.1931836497499784,-10.385154020651305,0.9148331157423045,1.2838863222291785,0.8766267061611196
1730865953.583919,-1.6765570640563965,1.1801283359527588,-9.819402694702148,-0.2370135285491041,-0.19143790398511432,-10.394429362588772,0.9150984526613717,1.2905566965457926,0.8375175399789112
1730865953.6338382,-1.6720153093338013,1.0732054710388184,-9.787087440490723,-0.23842060326937786,-0.18996402630045425,-10.404289096612533,0.9167876564967091,1.2963310221522144,0.8768369991531528
1730865953.6838663,-1.6663193702697754,0.9791675806045532,-9.763050079345703,-0.23974249178644624,-0.1887782264755158,-10.414668775267256,0.916981428488169,1.3025883252369634,0.8378417076038004
1730865953.7339408,-1.6707918643951416,0.9239218235015869,-9.750232696533203,-0.2409731574855967,-0.18789290344623377,-10.425503754092013,0.9165734271762999,1.3084083434692755,0.7724924844693604
1730865953.7837968,-1.6994575262069702,0.9047927856445312,-9.781537055969238,-0.2421072608332652,-0.1873157121760854,-10.436729284137233,0.9209207911642308,1.30261671660485,0.8766237956761423
1730865953.8338177,-1.7137017250061035,0.9450106620788574,-9.824131965637207,-0.24314027399355806,-0.18704925331475272,-10.448280890443371,0.9214417346565452,1.3055502743050436,0.8372521508054762
1730865953.8838098,-1.7199853658676147,1.0237822532653809,-9.900525093078613,-0.24406867928173126,-0.18709145882047665,-10.460095079360993,0.9269127760347716,1.3138230139220197,0.876518074375947
1730865953.933771,-1.7121604681015015,1.109671950340271,-9.941783905029297,-0.2448901059169031,-0.18743660214082247,-10.472110279526483,0.9331288364234868,1.3194828440687802,0.8765544292507249
1730865953.9838536,-1.7125602960586548,1.1412822008132935,-9.991416931152344,-0.24560331874712452,-0.18807662917339735,-10.484267793712213,0.9358835407379145,1.3233247592395665,0.836908244510323
1730865954.033785,-1.7383090257644653,1.1559922695159912,-9.991555213928223,-0.2462081318893605,-0.18900233635251973,-10.496512531679247,0.9380097947486994,1.3266748657077658,0.7713578540839205
1730865954.0837812,-1.7700742483139038,1.0934906005859375,-9.966474533081055,-0.24670540737372698,-0.19020402302359968,-10.50879336786242,0.9323859636452699,1.3337731736829226,0.8764295929724525
1730865954.1337168,-1.7931220531463623,1.0574482679367065,-9.924484252929688,-0.24709720964923026,-0.1916715192307796,-10.521063051964632,0.9321378447090563,1.337465330757879,0.8367343577024999
1730865954.1838078,-1.8051255941390991,0.9757516384124756,-9.861323356628418,-0.24738701208764344,-0.19339374542512175,-10.533277727690706,0.9350867500705593,1.3516400077513748,0.8764275878026507
1730865954.233678,-1.8243852853775024,0.909440279006958,-9.807530403137207,-0.2475798187905383,-0.1953580523942855,-10.545396215626589,0.935360096725441,1.3587914129955594,0.8367919304802408
1730865954.2837088,-1.831785798072815,0.8526820540428162,-9.77783489227295,-0.24768217781284732,-0.19754952757687555,-10.557379255406135,0.9351021465335435,1.3559059705005978,0.8764021669345614
1730865954.3335953,-1.7967559099197388,0.8678164482116699,-9.767488479614258,-0.24770208198009175,-0.19995048088788164,-10.569188927424197,0.934585207123483,1.3592753166713112,0.836729946153991
1730865954.3836603,-1.7605763673782349,0.9291214346885681,-9.799591064453125,-0.24764866241804634,-0.20254041505507991,-10.580788422704735,0.9358469956805396,1.3742251155998277,0.876166702820093
1730865954.433618,-1.710945725440979,1.0032237768173218,-9.818702697753906,-0.24753162935474698,-0.2052966569030113,-10.592142198856669,0.9352778479988311,1.3804965238985476,0.8361623318717527
1730865954.4836576,-1.7012803554534912,1.053971767425537,-9.838756561279297,-0.2473606040542632,-0.208195471139803,-10.603216395496032,0.93672295522272,1.3862872006986324,0.8762876951908557
1730865954.5335536,-1.6881037950515747,1.0379717350006104,-9.849413871765137,-0.2471445738780631,-0.2112131857615281,-10.613979284972375,0.9362349632494518,1.3915065072176245,0.8365156969854682
1730865954.5836434,-1.7113316059112549,0.9963055849075317,-9.854170799255371,-0.24689161913348107,-0.21432685697757842,-10.624401609399966,0.9376069594814909,1.3962841051840695,0.8760772060803208
1730865954.6335702,-1.745736837387085,0.9328804016113281,-9.85682487487793,-0.24660894160883384,-0.21751429254375718,-10.63445677660776,0.9372009284267927,1.4004301432602904,0.8361737893730755
1730865954.683587,-1.7479357719421387,0.8603179454803467,-9.831171989440918,-0.2463031264486715,-0.22075358868114728,-10.644120917137368,0.9361683819633109,1.4040903133837153,0.7688704247054468
1730865954.733575,-1.7491909265518188,0.843873918056488,-9.839099884033203,-0.2459804396841343,-0.2240224937238514,-10.653372806573028,0.9381062747833003,1.4071764623114678,0.876487449235634
1730865954.7836032,-1.719849944114685,0.8954249024391174,-9.856204986572266,-0.24564694953967833,-0.22729799717255575,-10.66219374932287,0.9373990780120088,1.4096997185894808,0.8363510344413079
1730865954.8335345,-1.69038987159729,1.013269066810608,-9.893735885620117,-0.2453084075237047,-0.2305565575920448,-10.670567595162424,0.9419101211717654,1.4117080725022537,0.8763262958472202
1730865954.8834958,-1.6407148838043213,1.1782209873199463,-9.94733715057373,-0.244969932226828,-0.23377515702407559,-10.678480970813968,0.9460528299207591,1.4132067459058026,0.8761771697954683
1730865954.9335127,-1.5968351364135742,1.3148117065429688,-9.980710983276367,-0.24463556680425458,-0.2369329993589434,-10.685923670032784,0.948091082140092,1.413998603105746,0.8360344519842013
1730865954.9834745,-1.5788203477859497,1.3853707313537598,-9.986942291259766,-0.24430782127728923,-0.2400133295890027,-10.692889030117277,0.9495312174121014,1.41419925386306,0.7689017472013622
1730865955.0333755,-1.59587824344635,1.345052719116211,-9.986001014709473,-0.24398738414535648,-0.24300467844248697,-10.699374082225086,0.945927854498062,1.4138766326846204,0.8763556949921923
1730865955.0834413,-1.6471034288406372,1.241713523864746,-9.92891788482666,-0.24367319811501853,-0.2459009916797141,-10.705379361943574,0.945635027695624,1.4128592277565426,0.8358353970524433
1730865955.1334794,-1.7504501342773438,1.1041513681411743,-9.85863208770752,-0.24336300293237162,-0.24870056123766648,-10.710908344591767,0.9447353322236564,1.4112300957864512,0.7688044512688191
1730865955.1834555,-1.8304283618927002,0.9711137413978577,-9.74976921081543,-0.24305431167024155,-0.2514041514155546,-10.715966500263544,0.9509639195565928,1.4090612928185695,0.8760519464602359
1730865955.2333221,-1.9156988859176636,0.9128645658493042,-9.670672416687012,-0.24274559940222223,-0.25401295262370954,-10.720560080065349,0.9515179110876734,1.4061989676233888,0.8359121798608335
1730865955.2834413,-1.9156988859176636,0.9128645658493042,-9.670672416687012,-0.24243733552622365,-0.2565270064172135,-10.724694951914266,0.9514704991839568,1.4026495375960295,0.7681725164099876
1730865955.2834413,-1.9563443660736084,0.903839647769928,-9.61693286895752,-0.2421325567095115,-0.2589444742512935,-10.72837586641359,0.9514683915932755,1.4026266188354517,0.7676911876269229
1730865955.3332965,-1.9563443660736084,0.903839647769928,-9.61693286895752,-0.24183696799100676,-0.26126160479203553,-10.73160620508639,0.950823073866609,1.3985085380131586,0.6747849543393133
1730865955.3332965,-1.9662718772888184,0.9583784937858582,-9.625625610351562,-0.24155877299364745,-0.26347304234130464,-10.734388010109011,0.9508174494692693,1.3984820217809963,0.6741513573126489
1730865955.3834836,-1.923431158065796,1.0500279664993286,-9.705564498901367,-0.24130833311425964,-0.2655724105679581,-10.736722293939163,0.9576338126470295,1.3937706649433772,0.8760888191854862
1730865955.4342368,-1.8367159366607666,1.1513241529464722,-9.823517799377441,-0.24109756059789172,-0.26755328593166006,-10.738609802313634,0.9584621061489353,1.3882239599582298,0.835049756039866
1730865955.4842105,-1.7143102884292603,1.2665013074874878,-9.948857307434082,-0.2409389021330831,-0.2694104810308555,-10.740052277784027,0.962382925354822,1.3822433431107042,0.8762606167790744
1730865955.5342638,-1.5934988260269165,1.3747628927230835,-10.055098533630371,-0.24084391779463632,-0.27114140145588184,-10.741054003368331,0.9637782428320182,1.37538376566939,0.8357079471720484
1730865955.5842412,-1.4835880994796753,1.4298890829086304,-10.111140251159668,-0.2408216963210577,-0.2727472392719432,-10.741623212152689,0.9653901719802711,1.3680534058902973,0.8761634887705803
1730865955.6342456,-1.443881630897522,1.4316983222961426,-10.103753089904785,-0.24087747718364194,-0.2742337233220133,-10.741772957247086,0.9663748163347831,1.35985648103734,0.8356756379037494
1730865955.6842623,-1.4952565431594849,1.3775787353515625,-10.049909591674805,-0.24101189043227486,-0.27561115853103346,-10.741521187603965,0.9681332480634982,1.3511825040694,0.8701660860569601
1730865955.7341847,-1.6399167776107788,1.2702287435531616,-9.953142166137695,-0.2412211963205242,-0.27689366585554853,-10.74089000321512,0.9684651416690274,1.3416219195346597,0.8281114227576052
1730865955.7842758,-1.8158236742019653,1.1555479764938354,-9.814238548278809,-0.24149865921698627,-0.2780977454062268,-10.739904249673588,0.9692870930396215,1.3315703959963556,0.8641598701770272
1730865955.8341494,-1.987913966178894,1.0372942686080933,-9.684324264526367,-0.24183675492553688,-0.2792404543870063,-10.738589684164433,0.9696262457004755,1.3209298258355124,0.8601931689040306
1730865955.8841746,-2.1046435832977295,0.9711049795150757,-9.589987754821777,-0.24222957889323787,-0.28033759800824976,-10.736971038961764,0.9692501663276518,1.3092624210621018,0.8168042829835273
1730865955.9341092,-2.1483964920043945,0.9394667744636536,-9.553539276123047,-0.2426747837238075,-0.28140232572689394,-10.735070418912631,0.968266896820908,1.296890900529459,0.7465267246216637
1730865955.9841945,-2.121264934539795,0.9565346837043762,-9.586009979248047,-0.24317457067461123,-0.28244439427899487,-10.732906420864655,0.9666671472435981,1.283755921815546,0.64889444629183
1730865956.0340698,-2.039263963699341,0.9619608521461487,-9.645097732543945,-0.2437355738829273,-0.2834701128748507,-10.730494141569125,0.9701139311826406,1.2703804834688877,0.8576793425565234
1730865956.0840585,-1.9312196969985962,0.9948458671569824,-9.719782829284668,-0.24436778884806432,-0.28448275143298934,-10.727845942840665,0.9694223599529385,1.2559504090522104,0.8162510078774707
1730865956.1340225,-1.8107657432556152,1.0069457292556763,-9.799466133117676,-0.2450828946836841,-0.2854831454867883,-10.724972633941672,0.9681201105841062,1.2407860715592565,0.7480375732173962
1730865956.184022,-1.7375962734222412,1.0039891004562378,-9.883305549621582,-0.24589239862506518,-0.28647030042774657,-10.721884754034154,0.9662051072249436,1.224902794524337,0.653053482906287
1730865956.2339506,-1.6901278495788574,0.9899908900260925,-9.963652610778809,-0.24680603878839147,-0.2874418393566218,-10.718593779341036,0.9769911953721079,1.2087844694117393,0.8537818880843125
1730865956.2840056,-1.6511867046356201,1.0167818069458008,-10.022025108337402,-0.24783073004679926,-0.2883942672602235,-10.715113154433865,0.9775789700168415,1.1913715390476702,0.8120323881981801
1730865956.3338845,-1.626352071762085,1.0566904544830322,-10.058816909790039,-0.24897003883219118,-0.2893232371277845,-10.711459040576052,0.9831863724371809,1.1738627857263393,0.8553815678258107
1730865956.3839247,-1.6089198589324951,1.1275053024291992,-10.08283519744873,-0.2502240125444636,-0.29022403056866525,-10.707650694523311,0.9843670070362633,1.155072534426873,0.8150573161526201
1730865956.433835,-1.548673152923584,1.161179542541504,-10.08017635345459,-0.2515891937365658,-0.2910922584011769,-10.703710475055479,0.991918456773738,1.136184437826912,0.8558682457073564
1730865956.4838657,-1.5168516635894775,1.1840696334838867,-10.051786422729492,-0.2530586450251424,-0.29192456141052137,-10.699663514577008,0.9979658500796744,1.1166425891540375,0.863691905533976
1730865956.533793,-1.4813148975372314,1.1318827867507935,-9.987784385681152,-0.2546219222870947,-0.2927190113867959,-10.695537060089915,1.0015132320286133,1.0958025604208175,0.8272132076727051
1730865956.5838237,-1.4938756227493286,1.0512200593948364,-9.905617713928223,-0.25626513508360826,-0.29347497647855053,-10.691359483190244,1.0044524952217486,1.074019048557642,0.7634529545434044
1730865956.6337664,-1.5253958702087402,0.9455553293228149,-9.82075309753418,-0.2579712802561919,-0.29419239046494583,-10.687159034402045,1.0067199998304295,1.0517397737634988,0.6737761515835289
1730865956.683823,-1.6069215536117554,0.8572342395782471,-9.72569751739502,-0.25972095632625825,-0.2948706191267585,-10.68296250359536,1.0004437962478974,1.0292936506598112,0.8653715429525335
1730865956.7337284,-1.7038275003433228,0.803158164024353,-9.66273307800293,-0.26149347475916096,-0.29550729464406633,-10.678793965698315,1.0010120802290738,1.0055290514548658,0.8263357737896937
1730865956.7837372,-1.8090814352035522,0.8006678223609924,-9.635173797607422,-0.26326827399478103,-0.29609749701020105,-10.674673801047188,1.0052345727276075,0.9818884329130886,0.8704140348960755
1730865956.8336544,-1.8927173614501953,0.8072279691696167,-9.634767532348633,-0.265026419996053,-0.29663351192687454,-10.670618181932547,1.0095641234060497,0.9575601840703366,0.8745414192886515
1730865956.883653,-1.9440635442733765,0.8602471947669983,-9.668485641479492,-0.2667519095882585,-0.2971051555678278,-10.666639102889219,1.0108959203664127,0.9314727937412445,0.8364494371392972
1730865956.9336395,-1.9826576709747314,0.9154075980186462,-9.733817100524902,-0.2684325504352631,-0.2975005208374127,-10.662744902492584,1.0115550569355993,0.9046891487486698,0.7717179594970587
1730865956.9837236,-1.9989776611328125,0.9727869033813477,-9.810914993286133,-0.27006035916126964,-0.29780697858483723,-10.658941181952502,1.0130602874352306,0.8781595628795723,0.8777485260290235
1730865957.033659,-1.9968469142913818,1.0430967807769775,-9.891023635864258,-0.27163155268323114,-0.29801225083436506,-10.655231975691313,1.013635543552512,0.8500199777885484,0.8391632957446993
1730865957.083661,-1.9078164100646973,1.1033395528793335,-9.982389450073242,-0.27314615360603034,-0.29810542466356393,-10.651620988585952,1.0135317282564693,0.8209467506204315,0.7736144452615297
1730865957.1336153,-1.9078164100646973,1.1033395528793335,-9.982389450073242,-0.27460718670881573,-0.29807779324909955,-10.648112691551914,1.0170469734692438,0.7924893806921175,0.8763531623041955
1730865957.1336153,-1.811535358428955,1.1505705118179321,-10.037453651428223,-0.27601963836986787,-0.29792336971213895,-10.644713041018946,1.0170506525594525,0.7923327132951297,0.8762130418254371
1730865957.1835968,-1.811535358428955,1.1505705118179321,-10.037453651428223,-0.2773894391143284,-0.2976390734420064,-10.64142976542728,1.0174084283723113,0.7620600294406387,0.8362537977423695
1730865957.1835968,-1.684177279472351,1.158101201057434,-10.068291664123535,-0.27872254039630506,-0.29722472268969347,-10.638272389062422,1.0174085020399983,0.761888854270453,0.8359567325765955
1730865957.2335598,-1.607757568359375,1.1402833461761475,-10.083259582519531,-0.2800239690555307,-0.2966828603769836,-10.635252138657524,1.017073946915862,0.730882517910381,0.7695788608383212
1730865957.2836456,-1.5794684886932373,1.0847864151000977,-10.054425239562988,-0.28129683297130265,-0.29601836191053593,-10.632381756394908,1.0160374530712626,0.6989406811398645,0.6762652976746534
1730865957.3335211,-1.6266781091690063,1.0333889722824097,-10.00820255279541,-0.282541643391469,-0.29523778925323924,-10.62967511600895,1.023050564502992,0.6678741325417973,0.8766064405413417
1730865957.3835816,-1.7076492309570312,0.985153317451477,-9.948284149169922,-0.2837564012808753,-0.2943485503103509,-10.627146532591276,1.027928634758536,0.6360068927281205,0.8763066044475732
1730865957.4335127,-1.7534598112106323,0.9991579055786133,-9.872818946838379,-0.2849374181468027,-0.2933581037924893,-10.624809832045862,1.0291733005700479,0.601930252343929,0.8361898834245117
1730865957.4836228,-1.761965274810791,1.019677996635437,-9.80775260925293,-0.28608037239482775,-0.2922735084513978,-10.622677334369563,1.0297049371831495,0.5670396048394446,0.7693392537294149
1730865957.5335631,-1.7332777976989746,1.0601274967193604,-9.740081787109375,-0.28718104858927374,-0.29110143457117754,-10.620758885434164,1.0295187339243204,0.5315319696746796,0.6761647426288975
1730865957.5835302,-1.7360866069793701,1.0578792095184326,-9.706241607666016,-0.2882355640257924,-0.2898484707143605,-10.619061065512668,1.0286122322100832,0.49522388837144865,0.5562236562822277
1730865957.633568,-1.7078824043273926,1.0534155368804932,-9.675688743591309,-0.2892402790456411,-0.2885214136565247,-10.61758668418314,1.0307939226703688,0.4601767735040568,0.8763353304653413
1730865957.683474,-1.7233083248138428,1.0290294885635376,-9.678693771362305,-0.29019165117083356,-0.2871273304235131,-10.616334616951189,1.0306585689150767,0.42253329441596166,0.8363134011967639
1730865957.733404,-1.7233083248138428,1.0290294885635376,-9.678693771362305,-0.2910861685180288,-0.2856734073163971,-10.615299966678425,1.0362969311733927,0.3863454907266089,0.8764105977213984
1730865957.733404,-1.7296462059020996,1.0342074632644653,-9.693284034729004,-0.2919203980920112,-0.2841667555912373,-10.614474471495045,1.036305258658221,0.3861373743984059,0.8762665448423728
1730865957.7834828,-1.7782323360443115,1.0552161931991577,-9.738544464111328,-0.2926911351945335,-0.28261433479379056,-10.613847080924726,1.0374829491888429,0.3472419405869079,0.8363671992591505
1730865957.833414,-1.8271551132202148,1.1032934188842773,-9.756502151489258,-0.29339570028676587,-0.28102306501550045,-10.61340466589233,1.0379347956614426,0.30752744575772495,0.7699292387016322
1730865957.8834038,-1.8970963954925537,1.1459044218063354,-9.80887222290039,-0.2940324438058694,-0.27940013738315883,-10.613132799294904,1.0376527382584366,0.26700572546048057,0.6767511972030671
1730865957.933347,-1.9201931953430176,1.1988476514816284,-9.833016395568848,-0.29460135676826715,-0.2777534676081171,-10.61301651453704,1.0391342044871845,0.22841366314780898,0.8767597046348077
1730865957.983341,-1.93211030960083,1.2210768461227417,-9.855461120605469,-0.2951045440533907,-0.27609215935675824,-10.613040974206841,1.0389276136079602,0.18650174119260096,0.8367101139220153
1730865958.0332818,-1.8952357769012451,1.1917591094970703,-9.863088607788086,-0.29554633937079783,-0.2744267816101249,-10.613191970109794,1.0444050548659203,0.14702038662804717,0.8770242085203522
1730865958.0833924,-1.8420480489730835,1.143674373626709,-9.883455276489258,-0.29593297437694455,-0.272769244660937,-10.613456224918782,1.0455032531116701,0.1034742116637026,0.8367493058662533
1730865958.1332362,-1.7618697881698608,1.129366159439087,-9.8805570602417,-0.2962718438535446,-0.27113225547001774,-10.613821556497498,1.046499661977778,0.06300409325910947,0.8763590911529794
1730865958.1833367,-1.694387674331665,1.115341305732727,-9.905627250671387,-0.2965705054940599,-0.2695286457537662,-10.614276965116314,1.0468684338179775,0.01833288164628344,0.8360410448618663
1730865958.2332082,-1.6100733280181885,1.094612956047058,-9.931663513183594,-0.29683560789419955,-0.26797085567051115,-10.614812706671895,1.0464949681777282,-0.026591428372040753,0.7696678684471224
1730865958.2832747,-1.5418109893798828,1.0807050466537476,-9.972339630126953,-0.29707189923860194,-0.26647058062777246,-10.615420439347176,1.0505870120526337,-0.06918035108137867,0.8756771076844946
1730865958.3331993,-1.499990701675415,1.0729589462280273,-10.015694618225098,-0.29728141890308696,-0.26503849824224623,-10.61609347472132,1.0530383750878436,6.477253411587453,0.8754211954952406
1730865958.383289,-1.4388550519943237,1.0682786703109741,-10.016959190368652,-0.2974629586694817,-0.26368407962089846,-10.616827053086428,1.0533523246211716,6.470849264472589,0.8349466496329183
1730865958.4332135,-1.4234479665756226,1.0768064260482788,-10.036955833435059,-0.29761180282709676,-0.2624155118124261,-10.617618489058852,1.0562029477182266,6.4733187378129715,0.8746242056315768
1730865958.4831707,-1.4234479665756226,1.0768064260482788,-10.036955833435059,-0.2977197369258644,-0.26123972618019886,-10.618467115936648,1.0570745522979927,6.46817901677617,0.8341451961637355
1730865958.4831707,-1.4432932138442993,1.1116139888763428,-10.005428314208984,-0.2977753770941903,-0.26016252072026486,-10.619374065483775,1.057077144447049,6.468150452571043,0.8338638672951576
1730865958.5341525,-1.5085569620132446,1.1484904289245605,-9.962830543518066,-0.29776483750978217,-0.2591888040131808,-10.620341856195168,1.0571955092285592,6.462292963784709,0.765798167690629
1730865958.5831633,-1.5824558734893799,1.1850098371505737,-9.87814998626709,-0.2976727106256078,-0.25832298464922476,-10.621373722152764,1.0570861105321625,6.460683867679947,0.8747555801761457
1730865958.6341417,-1.7026240825653076,1.1562330722808838,-9.797066688537598,-0.2974833301891897,-0.25756937225777693,-10.622472693067856,1.0566212640996295,6.455747095041981,0.8340021333082802
1730865958.6841717,-1.8434793949127197,1.0966352224349976,-9.701960563659668,-0.2971822691503826,-0.25693228929865625,-10.62364051874446,1.0554142840952654,6.450254830784015,0.7671951462863248
1730865958.7341104,-1.9647480249404907,1.0394996404647827,-9.635427474975586,-0.2967579837319648,-0.25641570158365556,-10.62487660342267,1.0534707802113596,6.444138132468679,0.6741031928711022
1730865958.7841659,-2.0362460613250732,0.9632866978645325,-9.589738845825195,-0.29620335249715574,-0.25602249559800244,-10.626177150273755,1.0592189441582958,6.447901255468206,0.8744554718175365
1730865958.8331368,-2.0580220222473145,0.9396564364433289,-9.595098495483398,-0.2955167214902007,-0.25575369742370835,-10.627534703231921,1.0587175864528378,6.443491742285695,0.8354347575825782
1730865958.8841126,-2.0260348320007324,0.9472898840904236,-9.640368461608887,-0.29470218050396946,-0.25560792551889533,-10.628938227924165,1.0602892038351086,6.431587632496072,0.8742799727908505
1730865958.9341154,-1.9630955457687378,1.0134309530258179,-9.721592903137207,-0.29376904172355733,-0.25558133666536476,-10.630373781057493,1.0596388123734304,6.425022061325595,0.8337690135271275
1730865958.984118,-1.895137906074524,1.0919886827468872,-9.815616607666016,-0.2927307012388622,-0.2556681723053739,-10.631825679462215,1.061647139010881,6.415690269921148,0.8750278135336863
1730865959.0339692,-1.8222602605819702,1.1473636627197266,-9.905097961425781,-0.2916031899106979,-0.25586174591578614,-10.63327794716108,1.0611709359515855,6.407351339366225,0.8351428337392562
1730865959.0840662,-1.7455374002456665,1.1361726522445679,-9.956357955932617,-0.2904036959272846,-0.2561554566491717,-10.634715739565308,1.0647704477580178,6.398848126015933,0.8751896752115881
1730865959.1339521,-1.700907826423645,1.1482601165771484,-10.000899314880371,-0.28914923072478593,-0.2565434047340226,-10.63612645753975,1.065218813653334,6.387915159809789,0.8352387540861193
1730865959.1839936,-1.7207727432250977,1.1174755096435547,-10.020934104919434,-0.2878556203265941,-0.25702052138547116,-10.637500416205928,1.0649454745329492,6.376275794029544,0.7683598851183582
1730865959.233999,-1.7523990869522095,1.134559988975525,-9.988039016723633,-0.28653705228122983,-0.25758242499273526,-10.638831069980238,1.0648094453911152,6.390546887864866,0.8787931948767946
1730865959.2839696,-1.8286563158035278,1.1376848220825195,-9.950651168823242,-0.2852062451173638,-0.2582252443151659,-10.6401147850193,1.06410133998205,6.385280805335476,0.8395429324322448
1730865959.3339097,-1.8731988668441772,1.1633003950119019,-9.883402824401855,-0.2838750586519595,-0.2589455582880984,-10.641350191165643,1.0674903499726938,6.3734697902605575,0.8819479381548031
1730865959.3839538,-1.87714421749115,1.2097761631011963,-9.829784393310547,-0.2825552057389329,-0.2597404982009949,-10.642537274529566,1.0692539180102512,6.369181961455111,0.8842813079284731
1730865959.43391,-1.87714421749115,1.2097761631011963,-9.829784393310547,-0.28125870156401367,-0.260607975598032,-10.64367646422316,1.0692072417167693,6.364026979111898,0.8458845922251848
1730865959.43391,-1.8527741432189941,1.2444229125976562,-9.779115676879883,-0.27999790507206007,-0.26154691121506934,-10.64476796176694,1.0692049891099193,6.363995531735107,0.8455889524446313
1730865959.483997,-1.7791498899459839,1.2536530494689941,-9.761033058166504,-0.2787852147201099,-0.2625573629164839,-10.645811333769226,1.0684584464148292,6.358130552630438,0.7801843007201974
1730865959.5338774,-1.7433054447174072,1.2289862632751465,-9.7857084274292,-0.2776324767991809,-0.2636405360855544,-10.646805262266879,1.0707257616080637,6.351645796414429,0.8869300479869303
1730865959.583923,-1.7001326084136963,1.2023404836654663,-9.813427925109863,-0.2765502548289894,-0.2647985989102138,-10.647747543236068,1.0703615803575637,6.344444998175407,0.8478187666123866
1730865959.6338441,-1.658395528793335,1.1724835634231567,-9.855494499206543,-0.2755471976935818,-0.26603425867053626,-10.648635424030353,1.0725211144602436,6.336618515018742,0.889783838046956
1730865959.6838272,-1.589672565460205,1.1396898031234741,-9.88569164276123,-0.27462955344707507,-0.26735022345147214,-10.649466139016514,1.0743948946136457,6.328082108709866,0.888251656324272
1730865959.733828,-1.589672565460205,1.1396898031234741,-9.88569164276123,-0.27380076111465,-0.2687487066627081,-10.650237423596117,1.0745120337871554,6.31890992609006,0.8480675290261919
1730865959.733828,-1.5081108808517456,1.1046420335769653,-9.922158241271973,-0.2730611619122413,-0.2702310673384506,-10.650947861026427,1.0745107913537177,6.318857668135485,0.8477733244567688
1730865959.7838185,-1.5081108808517456,1.1046420335769653,-9.922158241271973,-0.27240784524194106,-0.27179758215768623,-10.651597073868128,1.0739470852224546,6.309051227946175,0.7812271372732973
1730865959.7838185,-1.4295170307159424,1.1049782037734985,-9.95274543762207,-0.27183456348190393,-0.2734473162938337,-10.652185848750364,1.0739419608498797,6.308993618530373,0.7807740258164978
1730865959.833836,-1.4295170307159424,1.1049782037734985,-9.95274543762207,-0.27133169912614424,-0.275178121222058,-10.652716218312825,1.0727017330828996,6.298503214484928,0.6877045152283378
1730865959.833836,-1.4276865720748901,1.1359474658966064,-9.951932907104492,-0.2708863593550197,-0.2769867705713226,-10.653191471214686,1.072692937613758,6.298442825057628,0.6871118066682798
1730865959.8838398,-1.4848183393478394,1.1582427024841309,-9.916403770446777,-0.2704827636269066,-0.27886922363678135,-10.653616022421147,1.0743083595430343,6.2872416673269775,0.8882506318856924
1730865959.9337692,-1.4848183393478394,1.1582427024841309,-9.916403770446777,-0.2701029787657676,-0.28082097500156383,-10.653995107948752,1.0764948295202268,6.275368630887893,0.8879278297273583
1730865959.9337692,-1.5948827266693115,1.1681678295135498,-9.850994110107422,-0.26972785442005487,-0.2828373515090607,-10.654334364840874,1.0764957953630219,6.2753013317746635,0.8877802878501084
1730865959.9839382,-1.7093874216079712,1.1369863748550415,-9.79179573059082,-0.26933814454776905,-0.2849136432889048,-10.65463930370933,1.0763335557711202,6.262655567002259,0.8474479253374151
1730865960.0338023,-1.8193243741989136,1.1080282926559448,-9.737626075744629,-0.26891592450677354,-0.28704503711834434,-10.654914630689913,1.0781010113164395,6.249356852791666,0.8878570091792545
1730865960.083812,-1.884267807006836,1.1029753684997559,-9.714607238769531,-0.26844609975418404,-0.2892263866503887,-10.655163555914587,1.077934798120049,6.235268133140273,0.8476900443339789
1730865960.1337838,-1.9105286598205566,1.1115912199020386,-9.716594696044922,-0.2679175549796372,-0.2914519951288277,-10.655387348454047,1.0770989903985535,6.220478118346398,0.7809760783206613
1730865960.1837988,-1.9257912635803223,1.116139531135559,-9.744019508361816,-0.2673236843700241,-0.2937155857723347,-10.655585286144579,1.0794896796246916,6.204921337729181,0.887363428686516
1730865960.2337227,-1.9447674751281738,1.1083884239196777,-9.78177261352539,-0.26666238111507434,-0.2960104227256318,-10.655754989945184,1.0791128638593654,6.188672384956359,0.8470945046742054
1730865960.28374,-1.942165493965149,1.0875669717788696,-9.824285507202148,-0.2659357313342053,-0.2983294154715856,-10.655893025940797,1.0813400863644689,6.171681311298225,0.8872037425530849
1730865960.3336928,-1.9253342151641846,1.0885087251663208,-9.844911575317383,-0.2651495586082267,-0.300665119459816,-10.65599559844121,1.0812221698598987,6.153937952435516,0.8469540421557068
1730865960.383695,-1.8715403079986572,1.0781447887420654,-9.8873929977417,-0.2643127923907296,-0.3030096947762648,-10.656059171838237,1.0804365471698976,6.135319044712721,0.779597191701782
1730865960.4336674,-1.8378441333770752,1.0401469469070435,-9.917705535888672,-0.2634366241983771,-0.30535487415237017,-10.656080973763352,1.0790048109711827,6.116162382168655,0.6865650034428474
1730865960.48365,-1.7672381401062012,1.032460331916809,-9.951805114746094,-0.26253352746208064,-0.30769187926139824,-10.656059418107827,1.0853116078763827,6.096170461392492,0.8832207239469662
1730865960.5337403,-1.7021394968032837,1.0370874404907227,-9.975760459899902,-0.26161623838913967,-0.31001131108010593,-10.655994448911274,1.0851728545925698,6.075289544321093,0.8421503889088334
1730865960.5838394,-1.65043306350708,1.073177456855774,-10.0149564743042,-0.26069675262221603,-0.3123031965767688,-10.655887787815928,1.0905829468968216,6.053261810970637,0.8784032273936271
1730865960.6337297,-1.6014059782028198,1.14634108543396,-10.020565032958984,-0.2597854415014361,-0.31455733838274136,-10.655743094659675,1.0916984984270854,6.031065420842069,0.8366050102737537
1730865960.6836996,-1.6014059782028198,1.14634108543396,-10.020565032958984,-0.25889042820945807,-0.31676392932793307,-10.655566001999789,1.0946410639330633,6.0076369611364555,0.8752878823210962
1730865960.6836996,-1.5850491523742676,1.22859787940979,-9.987622261047363,-0.2580173097269658,-0.31891421053950975,-10.65536393249096,1.0946508988745367,6.007484483334336,0.875101843448207
1730865960.733647,-1.6096011400222778,1.2526041269302368,-9.945744514465332,-0.25716921190024705,-0.3210010334548276,-10.655145654555229,1.0958455434785697,5.983587273633081,0.8331376540602066
1730865960.7837098,-1.665219783782959,1.2559261322021484,-9.857342720031738,-0.2563471293344961,-0.3230193081352926,-10.654920582294011,1.096404568310035,5.958783491906231,0.7644018468706784
1730865960.8336103,-1.7471556663513184,1.2027697563171387,-9.769553184509277,-0.2555505798142031,-0.3249661534462995,-10.654697829940606,1.0963243279248882,5.933225147844841,0.669251412019651
1730865960.8836133,-1.8258168697357178,1.1118991374969482,-9.667461395263672,-0.25477856889349254,-0.32684051658624885,-10.654485084631025,1.0965835338822043,5.906516949635566,0.8726171295135137
1730865960.9335773,-1.8815194368362427,1.0185134410858154,-9.608986854553223,-0.2540306727319805,-0.32864226076069525,-10.65428747842963,1.09652617135782,5.879270888816804,0.8314596867765712
1730865960.9835758,-1.8815194368362427,1.0185134410858154,-9.608986854553223,-0.2533079222012501,-0.33037103102048565,-10.654106751562097,1.1008944067676247,5.850788454641163,0.8685812584335633
1730865960.9835758,-1.8734042644500732,0.954424262046814,-9.58102798461914,-0.25261321511145707,-0.33202537395809395,-10.653940951585614,1.1008998316373675,5.850592570704263,0.8683867693241683
1730865961.033538,-1.8734042644500732,0.954424262046814,-9.58102798461914,-0.25195123364774596,-0.33360229372577954,-10.653784607621562,1.1013709161770653,5.821906499163196,0.8271257127439468
1730865961.033538,-1.824157476425171,0.9195178747177124,-9.613903045654297,-0.2513280698091501,-0.3350970837005983,-10.653629152585571,1.1013719525329677,5.821717199266181,0.8267715277424845
1730865961.0836797,-1.7324042320251465,0.9404146075248718,-9.695297241210938,-0.2507506357091063,-0.3365033320842112,-10.653463588548194,1.1012155865010747,5.791854487055391,0.7582047145649109
1730865961.133535,-1.6441199779510498,0.9858413338661194,-9.814929962158203,-0.2502257552826439,-0.33781315952150137,-10.653275548704617,1.1013784270659384,5.760967569589968,0.8743688422188568
1730865961.1836119,-1.5686087608337402,1.074684739112854,-9.920032501220703,-0.2497590149791149,-0.3390178046513304,-10.653052751866825,1.1009326493030152,5.729424197036897,0.835447481113611
1730865961.2334654,-1.542607307434082,1.151999592781067,-10.003628730773926,-0.24935371150739938,-0.34010858541141414,-10.652784581815988,1.1015058546115462,5.69682543939622,0.877622665925977
1730865961.283573,-1.5542049407958984,1.2301385402679443,-10.041191101074219,-0.24901023876539707,-0.34107805215933784,-10.652463398152122,1.10078838789289,5.663591763117258,0.8390593546055379
1730865961.3333614,-1.6225168704986572,1.2406723499298096,-10.066964149475098,-0.24872610372739562,-0.34192101544402986,-10.652085307898968,1.0994578276640699,5.62973704392301,0.7743075622968835
1730865961.3834236,-1.7253564596176147,1.2138913869857788,-10.027120590209961,-0.24849660250892075,-0.3426351210736318,-10.651650338038012,1.0974880289643556,5.5946616639544,0.6820848876029912
1730865961.4334004,-1.8377536535263062,1.1672279834747314,-9.96264362335205,-0.24831604086067283,-0.34322078309736065,-10.651162028878494,1.101773821766231,5.558667351577436,0.8797062469242367
1730865961.4834306,-1.8791604042053223,1.118408203125,-9.90227222442627,-0.24817917877140283,-0.34368057817198633,-10.650626522777431,1.1009220843716125,5.521813838927106,0.8399613481887602
1730865961.5334456,-1.8703622817993164,1.049418330192566,-9.87574577331543,-0.2480823795391423,-0.3440183778093582,-10.650051422345847,1.1032272948628,5.484067360506604,0.8839765136904928
1730865961.5833516,-1.8703622817993164,1.049418330192566,-9.87574577331543,-0.24802407705526888,-0.34423846871336305,-10.649444820107012,1.1034242605733626,5.445324751979554,0.8880419321769654
1730865961.5833516,-1.7904411554336548,0.9940613508224487,-9.860814094543457,-0.2480045901725494,-0.34434486434985356,-10.648814721891991,1.1034227951777815,5.445125349719687,0.8879175444443114
1730865961.6333067,-1.6464136838912964,0.9628157019615173,-9.86606502532959,-0.24802539995394018,-0.34434084358848416,-10.648168787075942,1.1028322142723581,5.406180589154687,0.8506878075446419
1730865961.683353,-1.5627888441085815,0.9482263922691345,-9.848698616027832,-0.24808790037338363,-0.3442286008205404,-10.647514205579649,1.1016178753793464,5.366071923191689,0.7865903450444341
1730865961.7333167,-1.562458872795105,0.9341247081756592,-9.841981887817383,-0.24819200486356927,-0.34400901581662946,-10.646857602380521,1.0997816234133373,5.325098038594978,0.6958069851313722
1730865961.783527,-1.5797141790390015,0.9555282592773438,-9.840194702148438,-0.24833531988931992,-0.34368163578170585,-10.64620493939843,1.1033390734738737,5.2825106263409625,0.8850512493757375
1730865961.8334281,-1.5797141790390015,0.9555282592773438,-9.840194702148438,-0.2485131287183581,-0.34324487063669373,-10.645561450332924,1.1024610783439868,5.240017044677853,0.8449258651287275
1730865961.8334281,-1.656130313873291,1.0449622869491577,-9.828990936279297,-0.24871886316520683,-0.34269638658010937,-10.644931631903958,1.1024538630630656,5.239756390231569,0.8446015133393052
1730865961.883437,-1.656130313873291,1.0449622869491577,-9.828990936279297,-0.2489447807797705,-0.3420337057608323,-10.644319249261677,1.1009553401146857,5.196414769960173,0.777919592482178
1730865961.883437,-1.7408385276794434,1.130565881729126,-9.812065124511719,-0.24918272516526419,-0.3412549125706629,-10.643727322517694,1.1009450840305206,5.196166624614927,0.7774662771052139
1730865961.933372,-1.8037424087524414,1.1793253421783447,-9.80042552947998,-0.2494249127820515,-0.3403593435474972,-10.643158087957602,1.0988368504411292,5.152190806328339,0.6847539633403231
1730865961.9834905,-1.8700915575027466,1.1633671522140503,-9.820185661315918,-0.24966477596052764,-0.33934818952300744,-10.642612959171164,1.1037911319967193,5.106142392782392,0.8848692166962316
1730865962.0333447,-1.9134926795959473,1.100498914718628,-9.80792236328125,-0.24989777735330387,-0.33822473898393907,-10.642092564689445,1.1029649322051631,5.060283091282195,0.8448714419879128
1730865962.083408,-1.9134926795959473,1.100498914718628,-9.80792236328125,-0.2501219740048456,-0.33699404232809754,-10.641596857716792,1.1039805501190931,5.01257567491786,0.8845421249306437
1730865962.083408,-1.9817607402801514,0.9967160820960999,-9.799867630004883,-0.2503382402158611,-0.3356622182994661,-10.641125198909938,1.103977252862998,5.012281769064656,0.8843738635435326
1730865962.1332574,-2.009242534637451,0.8998187184333801,-9.762540817260742,-0.2505503174345723,-0.33423559575641854,-10.640676357820555,1.103143261822108,4.965024589021044,0.8444553384758615
1730865962.1833553,-2.0146119594573975,0.8520634174346924,-9.732019424438477,-0.250764844660093,-0.3327196737476328,-10.640248394471737,1.103281386832773,4.915487118190935,0.8844496519198204
1730865962.2332752,-1.9653370380401611,0.8578269481658936,-9.763777732849121,-0.2509912030914062,-0.3311181925375568,-10.639838472991581,1.1034754899868033,4.865479822939346,0.8842748916297143
1730865962.2832632,-1.8760980367660522,0.9307280778884888,-9.811843872070312,-0.2512409086430951,-0.32943281479194914,-10.639442878465667,1.102526875387767,4.81514993315307,0.8440252695400529
1730865962.3331802,-1.7786275148391724,1.0387083292007446,-9.875558853149414,-0.2515265017837236,-0.32766362461207704,-10.639057450435645,1.1009557679317687,4.764194408874661,0.7774303961115332
1730865962.3832405,-1.7020138502120972,1.1243410110473633,-9.926508903503418,-0.25186014269654844,-0.3258102757251946,-10.638678321063919,1.0987470640687291,4.7121793599976325,0.683884015475751
1730865962.4332123,-1.6601722240447998,1.1989141702651978,-9.964488983154297,-0.25225228512408215,-0.32387336065253725,-10.638302681521695,1.1037279436882605,4.658454190572344,0.8842139180349313
1730865962.4832904,-1.6342209577560425,1.2611186504364014,-9.975395202636719,-0.2527107510089181,-0.3218555770509011,-10.63792935219157,1.1028256985368339,4.604803061142191,0.8438684521073274
1730865962.5331616,-1.622498869895935,1.2675787210464478,-9.962905883789062,-0.25324029659911435,-0.31976248850992106,-10.63755902734562,1.104503889372997,4.550061704695038,0.8848050195278875
1730865962.5832772,-1.639206886291504,1.2061913013458252,-9.937066078186035,-0.25384258371845897,-0.3176027453895751,-10.63719415947193,1.1037767203608284,4.494676668553299,0.8447338310901892
1730865962.6331246,-1.6860491037368774,1.1449236869812012,-9.880510330200195,-0.2545164852275468,-0.3153876320393603,-10.636838527620672,1.102421797108722,4.438926088832479,0.7784656071235496
1730865962.6834114,-1.7109571695327759,1.0855287313461304,-9.83228588104248,-0.25525868496402704,-0.313130069742121,-10.636496569404628,1.10535263705704,4.380880852419806,0.8845816751566175
1730865962.7330935,-1.709753394126892,1.0741137266159058,-9.788422584533691,-0.25606438945758075,-0.3108435004284099,-10.636172602661071,1.1046622124793715,4.323045137296746,0.8440287842248204
1730865962.7832174,-1.6724727153778076,1.0828081369400024,-9.795247077941895,-0.2569278410073146,-0.30854106577617707,-10.635870147406989,1.1068937572440867,4.266079008617955,0.8898200571982702
1730865962.8330767,-1.6206578016281128,1.0981696844100952,-9.837224006652832,-0.257842432044862,-0.30623525059251544,-10.635591597405464,1.1065445162200063,4.206009866037667,0.8507214965650771
1730865962.8830912,-1.5427521467208862,1.13316011428833,-9.84755802154541,-0.2588004318911534,-0.303937905064553,-10.63533834771416,1.1075185971170867,4.148674406242234,0.8933830373806062
1730865962.933006,-1.5629488229751587,1.1618047952651978,-9.863628387451172,-0.25979253530852775,-0.30166048047323296,-10.635111180879516,1.1070013146497633,4.088299801992725,0.8556701207396393
1730865962.9830446,-1.629149079322815,1.215698003768921,-9.845447540283203,-0.2608076720682819,-0.29941437480974215,-10.634910592379923,1.1058292411524293,4.0268790134549635,0.7911242315390249
1730865963.0340078,-1.629149079322815,1.215698003768921,-9.845447540283203,-0.2618334007868399,-0.2972113042437723,-10.63473691161791,1.1039647086908568,3.963666609772113,0.6981174339510209
1730865963.0340078,-1.6967530250549316,1.2590280771255493,-9.838217735290527,-0.26285666681336706,-0.295063583206983,-10.634590272409817,1.1039522381737796,3.963307136345764,0.6975132819537654
1730865963.084012,-1.7413307428359985,1.2730633020401,-9.82457160949707,-0.26386457930463936,-0.29298427073346966,-10.634470538170845,1.1080785468786798,3.9020115692725943,0.8910363699750415
1730865963.1339903,-1.7646113634109497,1.2583575248718262,-9.81188678741455,-0.2648451423397941,-0.29098720848054654,-10.634377214799246,1.1073010070885663,3.8385903886597563,0.8510880155276014
1730865963.1839724,-1.7786732912063599,1.2127102613449097,-9.802888870239258,-0.2657878463735739,-0.28908685252322663,-10.634309343529273,1.1090329157423258,3.776693338099421,0.8903024642954855
1730865963.233917,-1.8130278587341309,1.14822256565094,-9.807696342468262,-0.26668400703470185,-0.28729776392250383,-10.634265417122933,1.1084073727728325,3.7120101739709113,0.8501015849124329
1730865963.2838762,-1.809478998184204,1.100132703781128,-9.810400009155273,-0.2675269281539513,-0.2856338156813454,-10.634243381234697,1.107113726574698,3.646448252013544,0.783262836943716
1730865963.333905,-1.797210454940796,1.1131501197814941,-9.829365730285645,-0.26831193372342577,-0.28410739350368763,-10.634240738679317,1.1102032439583012,3.582734159018698,0.8899891879310955
1730865963.383851,-1.7991148233413696,1.125964879989624,-9.836786270141602,-0.2690362157753779,-0.2827289387585553,-10.634254734118343,1.1095386070645674,3.515794323459526,0.8497355200050698
1730865963.4338167,-1.7826963663101196,1.1695894002914429,-9.845488548278809,-0.2696985546218058,-0.28150697441516603,-10.634282567446359,1.1110985546334162,5.987110931531235,0.8848508985832808
1730865963.4838102,-1.7767739295959473,1.2048052549362183,-9.856528282165527,-0.2702990183843055,-0.2804484795350788,-10.634321577860927,1.1105256160313361,5.9799102866714025,0.8428124440395625
1730865963.5337822,-1.8129676580429077,1.1983704566955566,-9.851751327514648,-0.2708387131416054,-0.2795593719864747,-10.63436937397533,1.1118890989213397,5.976019039263021,0.8808536755062095
1730865963.5838563,-1.865580439567566,1.1427628993988037,-9.82577133178711,-0.27131972813245,-0.2788447963873744,-10.634423873165773,1.1113081850094237,5.96897757892115,0.839099085625022
1730865963.633715,-1.881205439567566,1.0834192037582397,-9.824111938476562,-0.27174535103383307,-0.2783089651589614,-10.634483202266987,1.1100026657032451,5.96092809524336,0.7681858139000891
1730865963.68373,-1.863053321838379,1.0553536415100098,-9.826824188232422,-0.27212032100197026,-0.2779546222778797,-10.63454553407558,1.1129952687776927,5.96700824726832,0.8843870067047352
1730865963.7337158,-1.8265241384506226,1.0528087615966797,-9.850543975830078,-0.2724507832923365,-0.27778250290067147,-10.634609024362106,1.1122985631319178,5.962511759962088,0.8438232326765883
1730865963.7837036,-1.7715882062911987,1.0776413679122925,-9.877630233764648,-0.2727438478938693,-0.27779112347650736,-10.634671930136026,1.1109725493511604,5.957561074916541,0.7793696844226498
1730865963.8336518,-1.7354477643966675,1.0973707437515259,-9.941924095153809,-0.2730068967301294,-0.27797696927512594,-10.634732906139432,1.1140364124974977,5.953621892339978,0.8838662435606671
1730865963.8837056,-1.689695954322815,1.1317925453186035,-9.966397285461426,-0.27324685189754694,-0.27833493993390324,-10.63479144794527,1.11339142118577,5.947919255631222,0.8437246460118529
1730865963.9335935,-1.689695954322815,1.1317925453186035,-9.966397285461426,-0.27346958182306924,-0.2788588629565615,-10.634848324533536,1.1120717901253785,5.941567088756324,0.7774500503681171
1730865963.9335935,-1.6389662027359009,1.1293141841888428,-9.971222877502441,-0.2736795250113009,-0.27954190319468003,-10.634905767939085,1.1120623429776733,5.941528965793698,0.776997557393696
1730865963.9836588,-1.6623183488845825,1.1505361795425415,-9.938908576965332,-0.2738794989472434,-0.2803767950958983,-10.634967357474945,1.1144536592182437,5.941678192838385,0.8883719237735758
1730865964.0335605,-1.685981035232544,1.114296793937683,-9.907242774963379,-0.2740707049460709,-0.2813559567363291,-10.635037672380346,1.113592249885837,5.936289570627809,0.8480242352706971
1730865964.0836053,-1.685981035232544,1.114296793937683,-9.907242774963379,-0.27425298931465186,-0.28247150675010746,-10.635121808062697,1.1148787606273751,5.926898937483626,0.8930595765988872
1730865964.0836053,-1.7127622365951538,1.098321795463562,-9.828071594238281,-0.27442524298015436,-0.2837151740351664,-10.635224873192321,1.1148762836323647,5.9268584467503755,0.8929275881158637
1730865964.1335196,-1.7381293773651123,1.0863145589828491,-9.812661170959473,-0.2745857880735199,-0.2850781851415581,-10.635351471966262,1.1140772131453252,5.9190579909148795,0.8553506642435877
1730865964.1835907,-1.7394286394119263,1.1070185899734497,-9.751754760742188,-0.2747327469204486,-0.28655121435568376,-10.635505143734482,1.1152634109989579,5.914586696501647,0.9014799250512675
1730865964.2335656,-1.7783422470092773,1.099996566772461,-9.74980354309082,-0.27486437352949544,-0.28812444109080354,-10.635687875060908,1.1144413779863176,5.907007815580254,0.8652083722961282
1730865964.2834716,-1.775434136390686,1.1180026531219482,-9.734968185424805,-0.27497932135965053,-0.28978770797009235,-10.635899816001805,1.1129331127187478,5.898716604128874,0.8023947627764505
1730865964.3334875,-1.775434136390686,1.1180026531219482,-9.734968185424805,-0.2750768340295282,-0.29153070911563916,-10.63613923975171,1.1150492420145506,5.907695600563026,0.9062664335862939
1730865964.3334875,-1.7961090803146362,1.0978853702545166,-9.74190616607666,-0.2751568178059141,-0.29334313847036086,-10.63640269288244,1.115045326361341,5.90767499896632,0.9061256227437645
1730865964.3834748,-1.8024729490280151,1.096219539642334,-9.761283874511719,-0.2752198559959722,-0.2952147329199332,-10.636685268200367,1.1140116310552661,5.903671264289144,0.8680324399240208
1730865964.4334664,-1.8615046739578247,1.0873790979385376,-9.789366722106934,-0.27526729306920406,-0.2971352226902678,-10.636980988179234,1.1156251898134566,5.895582286494132,0.9139281958694775
1730865964.4834557,-1.8906596899032593,1.113863468170166,-9.796687126159668,-0.27530145845390175,-0.29909431157061783,-10.637283264564878,1.1147660733658746,5.889834027940738,0.8768052102633224
1730865964.533443,-1.8906596899032593,1.113863468170166,-9.796687126159668,-0.27532596082306915,-0.30108177862370133,-10.637585316207822,1.11321922589535,5.883331794237964,0.8131064580677659
1730865964.533443,-1.8843986988067627,1.1354656219482422,-9.818350791931152,-0.2753458252829446,-0.3030876745853426,-10.637880453606135,1.1132083904778043,5.883292401237502,0.8126652915498427
1730865964.5834439,-1.8520234823226929,1.1645499467849731,-9.829914093017578,-0.27536732654429164,-0.3051025528565967,-10.638162285767162,1.1109820775777197,5.876064225826766,0.7227337736881684
1730865964.6334517,-1.8085271120071411,1.176212191581726,-9.861815452575684,-0.2753975592910398,-0.3071177290438144,-10.63842494983511,1.1159736031688274,5.884181309618612,0.915478514433043
1730865964.6834452,-1.7181299924850464,1.1627516746520996,-9.876137733459473,-0.2754437878164458,-0.30912550599703875,-10.638663377360372,1.1150618146165572,5.879201482895732,0.8764854459828136
1730865964.7333987,-1.6924563646316528,1.1392431259155273,-9.905946731567383,-0.27551261779063657,-0.31111921044675744,-10.638873557451928,1.1167476560819654,5.869374199484477,0.9159750936088437
1730865964.7834475,-1.6710063219070435,1.1597439050674438,-9.915834426879883,-0.2756092174092402,-0.31309302786819476,-10.639052757002323,1.1160241067312373,5.861999610093447,0.8769721728432509
1730865964.8333828,-1.6623401641845703,1.1732234954833984,-9.910504341125488,-0.2757368675546443,-0.3150418473602151,-10.639199647411214,1.1145619016075627,5.853509839377365,0.8089994748245337
1730865964.8834436,-1.664509892463684,1.188157320022583,-9.918722152709961,-0.27589686954329,-0.31696127945900515,-10.639314286266766,1.1124974954102629,5.844656368742156,0.7183513355273233
1730865964.933397,-1.664509892463684,1.188157320022583,-9.918722152709961,-0.27608866888102895,-0.31884776858082703,-10.63939798700058,1.1171828998779543,5.853690545544315,0.9130439231738722
1730865964.933397,-1.6572636365890503,1.1673773527145386,-9.908549308776855,-0.27631007650516415,-0.32069863067209187,-10.639453154494557,1.1171791942736216,5.8536582121930945,0.9128630826286338
1730865964.9834638,-1.6591688394546509,1.130024790763855,-9.90406608581543,-0.27655749811652586,-0.322511905499951,-10.639483090616482,1.1162729593910194,5.8483666148261,0.8722117721881375
1730865965.0333724,-1.6591688394546509,1.130024790763855,-9.90406608581543,-0.2768261416046871,-0.32428603382636145,-10.639491769033464,1.1182833172161384,5.836486868583399,0.9100129032873436
1730865965.0333724,-1.6374982595443726,1.1253414154052734,-9.897210121154785,-0.2771102051075631,-0.3260195326730172,-10.639483630645985,1.118281830999482,5.836439391524882,0.9098529833163089
1730865965.0834715,-1.6542800664901733,1.1127800941467285,-9.890379905700684,-0.2774030247786413,-0.3277108195123647,-10.639463412844638,1.1188655587145075,5.820678945425985,0.9076988535948506
1730865965.1333466,-1.6624219417572021,1.1077226400375366,-9.87459659576416,-0.27769722937905106,-0.329358138355893,-10.639435974750834,1.1182444580819522,5.809900330372741,0.8664185299214929
1730865965.183495,-1.6803877353668213,1.1172305345535278,-9.872438430786133,-0.2779849897941724,-0.33095951511168514,-10.639406104308332,1.1169225278519554,5.798226022552101,0.7981916591523754
1730865965.2333581,-1.6642932891845703,1.1443051099777222,-9.851571083068848,-0.2782583178289963,-0.33251280022330165,-10.639378330520547,1.1192234315313543,5.809998124015224,0.9058441221374562
1730865965.2835011,-1.6642932891845703,1.1443051099777222,-9.851571083068848,-0.2785092750572865,-0.3340158461437214,-10.63935675740063,1.1183590182477445,5.804064238830207,0.8651554362874453
1730865965.2835011,-1.676072597503662,1.1518168449401855,-9.866317749023438,-0.278730066744002,-0.3354667231167998,-10.639344954051992,1.1183519550819643,5.804027191508633,0.8648408761424334
1730865965.3333554,-1.688549518585205,1.173169493675232,-9.839729309082031,-0.27891314092155517,-0.33686387120940087,-10.639345939019147,1.1199730137417252,5.791049087861852,0.9066805695651499
1730865965.3832452,-1.7406500577926636,1.1670211553573608,-9.839791297912598,-0.27905140331305617,-0.33820621052275945,-10.639362184816923,1.1192606851805331,5.7814408794196215,0.8669890655752809
1730865965.4331973,-1.7592371702194214,1.1434805393218994,-9.807424545288086,-0.2791385717853181,-0.33949319312877285,-10.639395542293986,1.120881241015631,5.784428523712332,0.9062143230677807
1730865965.4832108,-1.7919294834136963,1.1425443887710571,-9.786770820617676,-0.27916959059372076,-0.340724707842023,-10.639447085008728,1.1202658376901442,5.777813968609765,0.8657994726427553
1730865965.5332005,-1.8289555311203003,1.1339582204818726,-9.734051704406738,-0.2791409877198032,-0.34190088918113537,-10.639516882822699,1.1189530050242087,5.7703630634346545,0.7988507656847148
1730865965.5832748,-1.8289555311203003,1.1339582204818726,-9.734051704406738,-0.2790511352632245,-0.3430219678611859,-10.639603724324466,1.121265317970988,5.764833299358148,0.9060360284363337
1730865965.5832748,-1.906752586364746,1.1017496585845947,-9.722082138061523,-0.27890043062949493,-0.34408816970970457,-10.639704916110151,1.1212624619922311,5.764788432764063,0.9058765504095395
1730865965.6332035,-1.9440362453460693,1.0649313926696777,-9.711519241333008,-0.2786914981900786,-0.34509954981355145,-10.639816269540223,1.1204350833696912,5.756804281399939,0.8657949544346165
1730865965.6832056,-1.954621434211731,1.0486096143722534,-9.747272491455078,-0.2784294533198492,-0.3460557068106721,-10.639932252742678,1.1182634295856253,5.743340942773373,0.9060272980579992
1730865965.733109,-1.9300211668014526,1.0519165992736816,-9.785317420959473,-0.27812199436467244,-0.34695550542428555,-10.640046319503,1.1161807028041564,5.731761592559376,0.8649154651563845
1730865965.7832572,-1.8917458057403564,1.0662336349487305,-9.863221168518066,-0.2777790871307977,-0.34779699682039644,-10.640151492534718,1.1134893291168573,5.7197415892514005,0.7991280009826096
1730865965.8331983,-1.8261340856552124,1.0515388250350952,-9.917787551879883,-0.27741226859805523,-0.3485775517136559,-10.640241170202891,1.110053817202676,5.706614252354757,0.7055697149611363
1730865965.8832433,-1.8261340856552124,1.0515388250350952,-9.917787551879883,-0.27703376717476624,-0.3492940412314709,-10.640309942415787,1.1170601076965145,5.692697637152257,0.9057643900472554
1730865965.8832433,-1.7325536012649536,1.0188775062561035,-9.973783493041992,-0.27665566442578915,-0.3499429234666124,-10.640354145656849,1.1170541094393465,5.692617834664736,0.9056155355295916
1730865965.9331484,-1.6438817977905273,1.0134690999984741,-9.997303009033203,-0.276289089742876,-0.3505202169184314,-10.640372145103012,1.1156358012839669,5.677871688062039,0.865726404965393
1730865965.9832146,-1.6438817977905273,1.0134690999984741,-9.997303009033203,-0.2759433459431747,-0.3510214401172769,-10.640364497676657,1.114964820082848,5.6621219197991035,0.9055040272070914
1730865965.9832146,-1.6068297624588013,1.0392526388168335,-10.010113716125488,-0.27562521820742725,-0.35144165550804124,-10.640333967980087,1.114956428616811,5.662036097013233,0.9053606277540734
1730865966.0331244,-1.6068297624588013,1.0392526388168335,-10.010113716125488,-0.275338725577286,-0.3517756835204792,-10.640285355079932,1.113033661884699,5.645457988821622,0.8650685553079694
1730865966.0331244,-1.5930547714233398,1.1113393306732178,-9.983500480651855,-0.2750851849825295,-0.35201844644152996,-10.64022520370239,1.1130215050959689,5.6453667528829845,0.8647810986853065
1730865966.0831685,-1.6152253150939941,1.2080261707305908,-9.939994812011719,-0.2748634261558607,-0.35216550295382937,-10.640161379358236,1.1131268193070092,5.628065314575815,0.9053690959282137
1730865966.1329873,-1.6628810167312622,1.2549554109573364,-9.904179573059082,-0.2746701820992046,-0.3522138607867801,-10.640102455451474,1.111158504639547,5.609703972493978,0.8653982695465693
1730865966.183079,-1.6628810167312622,1.2549554109573364,-9.904179573059082,-0.2745006736889636,-0.3521627994152537,-10.640057041142628,1.1085105735479246,5.590507695174645,0.7990083329784612
1730865966.183079,-1.7237470149993896,1.2498868703842163,-9.840123176574707,-0.27434926415235883,-0.3520142541787149,-10.640033233353918,1.108494280249144,5.590400737909383,0.7985742130245579
1730865966.232996,-1.7540323734283447,1.1959750652313232,-9.810408592224121,-0.27421008611432063,-0.35177263846146034,-10.640038159125085,1.1118168269231747,5.570396749240749,0.9050260780823172
1730865966.282932,-1.7540323734283447,1.1959750652313232,-9.810408592224121,-0.2740776223599124,-0.3514442937079768,-10.640077534899472,1.113051934952719,5.549495683098258,0.9047168540913457
1730865966.282932,-1.7761001586914062,1.1373709440231323,-9.77637004852295,-0.27394711957409695,-0.35103681429499645,-10.640155369145997,1.1130493414152842,5.5493794319493,0.9045708086456583
1730865966.3329697,-1.7739691734313965,1.080772876739502,-9.734260559082031,-0.2738147719837277,-0.3505583578763743,-10.640273824322056,1.1122310444975083,5.527581522067556,0.8644557067710711
1730865966.3838212,-1.7739691734313965,1.080772876739502,-9.734260559082031,-0.27367776552922607,-0.350016941603259,-10.640433083270743,1.1135596755818904,5.504480522762985,0.9037287663487403
1730865966.3838212,-1.7863746881484985,1.0190056562423706,-9.72805404663086,-0.2735342454735993,-0.34941983940768134,-10.640631265794802,1.1135574660229504,5.504348324373063,0.9035716326578048
1730865966.4338863,-1.7863746881484985,1.0190056562423706,-9.72805404663086,-0.2733832562382169,-0.34877316931800806,-10.640864534122223,1.112824579961249,5.480676790421282,0.8625453638494103
1730865966.4338863,-1.763444423675537,0.9958710074424744,-9.702902793884277,-0.2732246677118022,-0.34808162787380476,-10.641127318221262,1.1127974778598397,5.480073801734864,0.8611779613696404
1730865966.4838243,-1.7485802173614502,0.980993390083313,-9.72205638885498,-0.2730590073488478,-0.3473483660348763,-10.641412529237508,1.1114110835491462,5.4561933640141085,0.7950421052432411
1730865966.5338418,-1.7485802173614502,0.980993390083313,-9.72205638885498,-0.2728871948021669,-0.3465749862137635,-10.641711786008294,1.114284050098828,5.430793643078663,0.9039371648368967
1730865966.5338418,-1.7739217281341553,0.9647471904754639,-9.749009132385254,-0.27271033765459823,-0.3457616139255269,-10.642015737046712,1.114281458117343,5.430647565915506,0.9037844392981151
1730865966.5839176,-1.776928424835205,1.0090956687927246,-9.792386054992676,-0.27252971475887344,-0.34490706215586797,-10.64231449592234,1.1134903362268487,5.4046231139024545,0.8638649441991375
1730865966.6337254,-1.7719019651412964,1.0469619035720825,-9.85647201538086,-0.27234686912534695,-0.34400917330164726,-10.64259821694265,1.115269164861155,5.377635894269462,0.9038559717374336
1730865966.6840096,-1.742720127105713,1.0767850875854492,-9.918389320373535,-0.27216361612152995,-0.34306537410091653,-10.642857829793329,1.1146547756621736,5.349479183546597,0.8633860465615114
1730865966.733826,-1.7308605909347534,1.0838773250579834,-9.983128547668457,-0.27198187401594043,-0.34207327262818893,-10.643085848777954,1.1164011800876041,5.320826941469797,0.9035264640799001
1730865966.7839155,-1.7244657278060913,1.1198302507400513,-10.016728401184082,-0.2718034058033895,-0.34103109679224797,-10.643277104754498,1.1159272009730072,5.29108202656631,0.8632371267764418
1730865966.8337839,-1.7244657278060913,1.1198302507400513,-10.016728401184082,-0.27162962567549975,-0.3399379748086896,-10.643429225585216,1.117243714283132,5.260702121136609,0.9033244213950962
1730865966.8337839,-1.6922295093536377,1.1217204332351685,-10.01152515411377,-0.2714615021704616,-0.33879410266498333,-10.643542726728601,1.1172418707510348,5.260507528318798,0.9031550552468676
1730865966.8839517,-1.6949405670166016,1.091368556022644,-10.003122329711914,-0.27129946597313775,-0.33760074118937416,-10.643620741244998,1.1166076058297505,5.229143746850142,0.862842656956346
1730865966.9338105,-1.6949405670166016,1.091368556022644,-10.003122329711914,-0.27114331513788253,-0.3363600189226937,-10.64366857688121,1.1183718436141454,5.197023329007878,0.9041149238184859
1730865966.9338105,-1.6541407108306885,1.079060673713684,-9.937772750854492,-0.2709921742604283,-0.3350746524557937,-10.643693216530568,1.1183709375721453,5.196845165493774,0.9039696831339722
1730865966.9837117,-1.6971153020858765,1.0559735298156738,-9.882655143737793,-0.2708444790999245,-0.33374769657042247,-10.643702673736758,1.1178726528812895,5.164115271156552,0.8645005474372688
1730865967.0336804,-1.7184339761734009,1.0200108289718628,-9.829143524169922,-0.2706980560810708,-0.33238229038715533,-10.643705142088434,1.12070069517916,5.130226946180991,0.9045333719509197
1730865967.0837424,-1.7796587944030762,0.9819168448448181,-9.78043270111084,-0.27055045897638186,-0.33098131639394823,-10.643708104501645,1.1209242879750925,5.095346486961148,0.8644494555329041
1730865967.1336548,-1.7767276763916016,0.9837790727615356,-9.749464988708496,-0.2703994928063626,-0.3295470220871855,-10.643717601557535,1.1204749693284366,5.060089295040036,0.7985039291818778
1730865967.1838517,-1.7767276763916016,0.9837790727615356,-9.749464988708496,-0.2702436413099927,-0.3280807802637635,-10.643737756965615,1.121533082907345,5.023605296792601,0.9042228946313385
1730865967.1838517,-1.7815088033676147,1.03798508644104,-9.75819206237793,-0.27008221533096366,-0.32658313406955003,-10.643770629076956,1.121531942150717,5.023405617572242,0.9040761336624599
1730865967.2337184,-1.7815088033676147,1.03798508644104,-9.75819206237793,-0.2699153031497387,-0.3250541231825632,-10.643816367108922,1.1209899336937257,4.986541096854961,0.8641176597237663
1730865967.2337184,-1.7619465589523315,1.1153185367584229,-9.77953052520752,-0.26974366283863316,-0.32349376323097484,-10.643873528694503,1.1209840370654691,4.9862902767102755,0.8637600484245573
1730865967.283684,-1.7306779623031616,1.2181533575057983,-9.794438362121582,-0.2695685356368176,-0.3219026551043475,-10.643939452381339,1.1197729423887641,4.948593154462823,0.7973842696877342
1730865967.3336196,-1.73723566532135,1.2622041702270508,-9.825244903564453,-0.26939135462117036,-0.3202828046010622,-10.644010672619254,1.1178861934440083,4.909896336249359,0.7042217986881678
1730865967.3837023,-1.7728885412216187,1.2536513805389404,-9.841352462768555,-0.26921351874112553,-0.31863840831729123,-10.644083361715023,1.123103523504467,4.8703273392055015,0.9046906932807338
1730865967.4336104,-1.7957485914230347,1.2329119443893433,-9.852080345153809,-0.26903643802436217,-0.3169761360721882,-10.644153735569851,1.1225356252202268,4.830042807790919,0.8647110943583607
1730865967.4835632,-1.7957485914230347,1.2329119443893433,-9.852080345153809,-0.26886178672976496,-0.31530483982133306,-10.644218342829127,1.124876078749965,4.788791876702108,0.9043751881486571
1730865967.4835632,-1.8130037784576416,1.187165379524231,-9.869086265563965,-0.26869171687807913,-0.31363500100993563,-10.644274217481357,1.1248757243821568,4.7885399999166856,0.904211056199462
1730865967.5335834,-1.8130037784576416,1.187165379524231,-9.869086265563965,-0.26852893576581727,-0.31197813315089085,-10.644318959778523,1.1244877185989404,4.74706841359933,0.864347851064343
1730865967.5335834,-1.8403993844985962,1.1168467998504639,-9.861696243286133,-0.26837672528888756,-0.31034617365587563,-10.644350780121355,1.124482962533097,4.746791301683774,0.8639972293575637
1730865967.5836523,-1.8403993844985962,1.1168467998504639,-9.861696243286133,-0.2682389715991682,-0.3087508666042806,-10.644368470007777,1.1287950944625733,4.704431334753622,0.9042403127517892
1730865967.5836523,-1.8365612030029297,1.1099493503570557,-9.855596542358398,-0.2681201797337821,-0.3072032247066226,-10.644371306639846,1.1288000155862716,4.704187978783898,0.9040885626949893
1730865967.6335382,-1.8365612030029297,1.1099493503570557,-9.855596542358398,-0.2680254005413093,-0.3057132233863256,-10.644358948278207,1.130430028077213,4.661074117564638,0.9037455847719337
1730865967.6335382,-1.8015090227127075,1.1125519275665283,-9.858222961425781,-0.2679600465262708,-0.30428972661347975,-10.644331352557256,1.1304338775357652,4.660834282077604,0.90359810532629
1730865967.683565,-1.7416749000549316,1.0947171449661255,-9.853496551513672,-0.2679295616555296,-0.30294049789483063,-10.644288724216125,1.1308007245276055,4.617051211903842,0.863798105169478
1730865967.7336876,-1.707353949546814,1.0896289348602295,-9.870576858520508,-0.26793889235261603,-0.3016721879788746,-10.644231491611787,1.13049964261267,4.571682597498045,0.7964396975916245
1730865967.7836096,-1.6856294870376587,1.0882185697555542,-9.87708854675293,-0.2679918880719864,-0.3004902873707519,-10.64416032819367,1.1295347515556184,4.526162294727149,0.7034442358584806
1730865967.833548,-1.6856732368469238,1.1131680011749268,-9.89499282836914,-0.2680908848989545,-0.29939913017584924,-10.644076233305253,1.1313981720601562,4.479832476715711,0.9033069838685571
1730865967.8835711,-1.6620116233825684,1.1451038122177124,-9.884458541870117,-0.2682365628164609,-0.2984020558466035,-10.643980626581591,1.1309197375078104,4.4324377695605754,0.8628681713790305
1730865967.9334772,-1.6606212854385376,1.1801331043243408,-9.870457649230957,-0.26842796397294744,-0.29750174986336764,-10.643875359994192,1.133940679493781,4.3848770901666105,0.9027968593808591
1730865967.9834714,-1.653437852859497,1.1797866821289062,-9.851520538330078,-0.2686625645511571,-0.29670065283447083,-10.643762583129659,1.1340213395733825,4.336180852276618,0.8625367237991763
1730865968.0334425,-1.6758476495742798,1.1824043989181519,-9.821070671081543,-0.2689364157977948,-0.29600124875583683,-10.643644485370993,1.1334274234557034,4.286575707426799,0.7954181535014946
1730865968.0835173,-1.7237505912780762,1.1566532850265503,-9.81063461303711,-0.2692444394969531,-0.2954061180295386,-10.643522987425296,1.132159781295035,4.236321347720304,0.7017322851387076
1730865968.1334534,-1.7996176481246948,1.1426687240600586,-9.782665252685547,-0.2695809703416021,-0.2949177785157646,-10.643399455011638,1.1353112586783325,4.185666867439026,0.9023936852104284
1730865968.1835039,-1.8628112077713013,1.1092867851257324,-9.77823543548584,-0.2699405538813586,-0.29453839920585007,-10.643274482093052,1.134752178102664,4.134252286989766,0.8623722018451134
1730865968.2334023,-1.8774480819702148,1.0935637950897217,-9.79169750213623,-0.27031880370470307,-0.2942694689519485,-10.643147783713829,1.1363984921698411,4.082101146858895,0.9018312347458204
1730865968.2834685,-1.8534674644470215,1.108945369720459,-9.822172164916992,-0.2707129640157136,-0.29411152480332997,-10.643018277376873,1.138304495453168,4.029426096172656,0.9014429393174757
1730865968.3333826,-1.8534674644470215,1.108945369720459,-9.822172164916992,-0.27112196917636977,-0.294064065148614,-10.642884361506438,1.1383450427831447,3.9755580647057593,0.8609938028018838
1730865968.3333826,-1.7973651885986328,1.1064001321792603,-9.855999946594238,-0.27154611583061233,-0.2941256434699654,-10.642744257070243,1.1383434378589246,3.9752682437950875,0.8607061559591591
1730865968.3833833,-1.7973651885986328,1.1064001321792603,-9.855999946594238,-0.2719865634038052,-0.29429399651240495,-10.642596304857637,1.1377105322768668,3.921189369350891,0.7942673590305656
1730865968.3833833,-1.749116063117981,1.0848197937011719,-9.900351524353027,-0.27244480619230915,-0.2945661114402714,-10.64243922376184,1.1377043221914172,3.920840353355245,0.7937572042210984
1730865968.4334073,-1.749116063117981,1.0848197937011719,-9.900351524353027,-0.2729222125185317,-0.2949382247681641,-10.642272357617127,1.1363862537062952,3.8656165503335114,0.7002395204806444
1730865968.4334073,-1.6887575387954712,1.0780417919158936,-9.944061279296875,-0.27341964442066824,-0.29540579331032873,-10.642095905384936,1.1363762795546364,3.8652825159125612,0.6995975046478611
1730865968.4834383,-1.660573959350586,1.0784896612167358,-9.943114280700684,-0.2739370893830804,-0.29596350346604616,-10.641911113000965,1.1390711115514047,3.8101792653101487,0.9017920651506973
1730865968.5333052,-1.6808581352233887,1.0688133239746094,-9.9386625289917,-0.2744733220175646,-0.2966053287518536,-10.641720375303557,1.1398558880037455,3.7541337941642294,0.9013087957769249
1730865968.5834394,-1.6925055980682373,1.0484857559204102,-9.91047477722168,-0.275025798450056,-0.2973245776042795,-10.641527149852767,1.1392299666877541,3.6964030965358363,0.8609450768057878
1730865968.6333168,-1.7340891361236572,1.0040960311889648,-9.874168395996094,-0.27559090249565743,-0.2981138502038418,-10.64133563621074,1.1419106965738508,3.6389009083441803,0.9013647699172559
1730865968.6832635,-1.7513102293014526,0.9668171405792236,-9.831408500671387,-0.27616441172849515,-0.29896484633814296,-10.6411502766619,1.1417408010131038,3.58000899935434,0.861355088587455
1730865968.7332773,-1.7555934190750122,0.9132131338119507,-9.825553894042969,-0.2767419773744352,-0.29986805103601605,-10.640975204665128,1.1408777165615767,3.5201449668706357,0.7945374711329695
1730865968.783267,-1.7511773109436035,0.8991687297821045,-9.808719635009766,-0.27731944971663414,-0.30081240650654584,-10.640813815498275,1.1427173496032612,3.4604592803023544,0.9013275961977488
1730865968.833155,-1.7669599056243896,0.9138646125793457,-9.811017036437988,-0.27789301070331385,-0.30178514226498654,-10.640668554899545,1.1421412584805155,3.399224791791494,0.8611865041911231
1730865968.8833268,-1.7647291421890259,0.9623916149139404,-9.817171096801758,-0.2784592258558276,-0.3027719534736613,-10.640540889450024,1.1408685392912128,3.337188122436792,0.7943849765858542
1730865968.9331322,-1.774051547050476,0.9942019581794739,-9.836055755615234,-0.2790150974122596,-0.3037575680430058,-10.640431414347788,1.1443615699074925,3.275440827330383,0.9013378334335121
1730865968.9830694,-1.7563841342926025,1.0308074951171875,-9.850176811218262,-0.2795580909612362,-0.30472651395467065,-10.640340075980903,1.1438350793425622,3.212354144179063,0.861545318397757
1730865969.0331802,-1.7418923377990723,1.052126407623291,-9.863423347473145,-0.2800860756286935,-0.3056638428589961,-10.640266450209385,1.1425965419354418,3.1476404084724097,0.7944082273913693
1730865969.0830772,-1.7634446620941162,1.1164103746414185,-9.859697341918945,-0.2805971935206473,-0.3065557267411556,-10.640209988136762,1.1406749957341038,3.0829505627463507,0.7015922175594174
1730865969.1331055,-1.7613576650619507,1.1499154567718506,-9.857751846313477,-0.28108978575316246,-0.3073900059169423,-10.640170156453195,1.145887549526964,3.018161163642014,0.900972831843547
1730865969.1830616,-1.7613576650619507,1.1499154567718506,-9.857751846313477,-0.2815624268946474,-0.3081566819860207,-10.640146465633821,1.149129266943347,2.9530917490027617,0.9008935443705688
1730865969.1830616,-1.7668864727020264,1.152148723602295,-9.854114532470703,-0.2820139699022305,-0.308848173055891,-10.64013844492731,1.1491325682052755,2.9527253141098453,0.9007459210290354
1730865969.2330203,-1.7597706317901611,1.146106243133545,-9.849930763244629,-0.2824435490342864,-0.30945925445153744,-10.64014560902797,1.149379365485995,2.884887346348507,0.8599835307620511
1730865969.2830868,-1.7832831144332886,1.1196283102035522,-9.831854820251465,-0.2828505778709013,-0.30998679987417166,-10.640167404573994,1.1503141677055144,2.8185467594225084,0.9008916687277139
1730865969.3329446,-1.7911642789840698,1.0579688549041748,-9.824539184570312,-0.2832347945225083,-0.31042936757980294,-10.640203111156461,1.1501295363753983,2.7503929647503362,0.8613476532751948
1730865969.3830001,-1.793712854385376,1.0126854181289673,-9.833224296569824,-0.28359636020398626,-0.3107865812241876,-10.640251732491743,1.1546932870316589,2.6823305345961246,0.8963209690963155
1730865969.432937,-1.7517714500427246,1.0202561616897583,-9.849518775939941,-0.2839358932881156,-0.31105842879845363,-10.640311979749757,1.155287145834471,2.6119972959244153,0.8547599989604355
1730865969.4829564,-1.7155946493148804,1.0792349576950073,-9.881749153137207,-0.28425428048966744,-0.3112448441752867,-10.640382415655651,1.1573796186943448,5.155538987515794,0.8930011344145439
1730865969.532836,-1.6973638534545898,1.1483683586120605,-9.885079383850098,-0.28455227696612684,-0.3113458600091193,-10.640461718762714,1.157846271714461,5.144174547037669,0.8513587801295239
1730865969.5827827,-1.6990910768508911,1.1914793252944946,-9.90003490447998,-0.2848301172492337,-0.31136223241009287,-10.640548941153577,1.1576060638770274,5.132020125852937,0.7832129031399578
1730865969.6338701,-1.6990910768508911,1.1914793252944946,-9.90003490447998,-0.28508733923378715,-0.3112961177444196,-10.640643659675932,1.1566196850102863,5.118711194810618,0.685516175754728
1730865969.6338701,-1.7048535346984863,1.1952179670333862,-9.894710540771484,-0.28532282007871307,-0.3111514206968143,-10.64074601263715,1.1566124078008622,5.118637960771093,0.684919607135083
1730865969.6838133,-1.7279154062271118,1.140415906906128,-9.889106750488281,-0.28553493044936806,-0.3109337112924688,-10.640856639743012,1.154941224920266,5.104988319791035,0.5637042957750024
1730865969.7338028,-1.7279154062271118,1.140415906906128,-9.889106750488281,-0.2857217570740652,-0.3106498127632715,-10.640976556580233,1.1591970868342787,5.149440039553539,0.8882386260730455
1730865969.7338028,-1.727390170097351,1.0967813730239868,-9.850716590881348,-0.2858813255829514,-0.3103072504601847,-10.641106994388961,1.1591961130094302,5.149419174025268,0.8880720272289083
1730865969.7837937,-1.7448590993881226,1.0502889156341553,-9.854978561401367,-0.2860117491899078,-0.30991370117217565,-10.641249185386554,1.1586812961001605,5.145565056925992,0.8472259025731729
1730865969.8337355,-1.7205950021743774,1.0371060371398926,-9.837763786315918,-0.28611131231656517,-0.3094764490445899,-10.64140412662654,1.1625853728891287,5.131549358991995,0.8812589693245823
1730865969.8838043,-1.7044275999069214,1.004769206047058,-9.838481903076172,-0.28617847260427726,-0.30900190455385423,-10.641572417631146,1.1628599731841436,5.123295900949074,0.8382735551593498
1730865969.9337204,-1.7044275999069214,1.004769206047058,-9.838481903076172,-0.2862117447293363,-0.30849529403633275,-10.64175419371659,1.1624188586657445,5.114293450206444,0.7688194196178666
1730865969.9337204,-1.6762114763259888,1.0011883974075317,-9.852025985717773,-0.286209545058135,-0.30796053490259384,-10.64194914217429,1.1624147148199655,5.114244814832825,0.7683905373082744
1730865969.9836867,-1.6762114763259888,1.0011883974075317,-9.852025985717773,-0.28617006515907883,-0.3074002695134482,-10.64215659921985,1.161266081628656,5.10453838068602,0.6729840979767526
1730865969.9836867,-1.6579885482788086,0.9812003374099731,-9.872231483459473,-0.2860911670914597,-0.30681598283454037,-10.64237569275085,1.1612582686972608,5.104485935523584,0.672419586617734
1730865970.0337353,-1.6579885482788086,0.9812003374099731,-9.872231483459473,-0.28597031647443305,-0.3062080974062387,-10.642605495833262,1.165427690457136,5.112978804227094,0.877416472256203
1730865970.0337353,-1.6788157224655151,1.0039273500442505,-9.869159698486328,-0.28580459460585284,-0.30557606106769325,-10.642845155036493,1.1654280590897876,5.112950559850976,0.8772755362492131
1730865970.0836577,-1.7302862405776978,0.9892690777778625,-9.866273880004883,-0.28559087623844126,-0.3049185211154709,-10.643093939446558,1.1651473935977632,5.10700364067519,0.8363151726547298
1730865970.1336935,-1.7302862405776978,0.9892690777778625,-9.866273880004883,-0.2853262107333899,-0.3042335381614226,-10.643351213303598,1.166809165339603,5.095470423779418,0.874539618356373
1730865970.1336935,-1.7561147212982178,1.0005706548690796,-9.84821891784668,-0.2850082404703962,-0.3035187371799268,-10.643616377835281,1.1668094317679198,5.095423385529694,0.8743861168612235
1730865970.1836424,-1.7367112636566162,1.0267400741577148,-9.844929695129395,-0.28463545439453586,-0.30277146183603104,-10.643888783530144,1.162642091905142,5.076056957596456,0.871400971333895
1730865970.2335315,-1.7292639017105103,1.0034098625183105,-9.847564697265625,-0.2842072245341473,-0.30198899984707134,-10.64416762818281,1.159945833589591,5.061800316668748,0.8292084437275874
1730865970.283596,-1.7082710266113281,1.0320013761520386,-9.856908798217773,-0.2837236609754446,-0.3011687796721673,-10.644451917232217,1.156550302620523,5.046835028627968,0.7606283494694557
1730865970.3336132,-1.7297741174697876,1.0265306234359741,-9.872505187988281,-0.28318539517689734,-0.30030849048892394,-10.644740531453873,1.1524155295770937,5.030998070115367,0.6647403822286774
1730865970.3835676,-1.73284912109375,1.026072382926941,-9.879054069519043,-0.28259345566901384,-0.299406180212178,-10.64503237157139,1.1619278485690274,5.069750232048775,0.8734423540590174
1730865970.4335475,-1.7507237195968628,1.0402652025222778,-9.899032592773438,-0.2819492961532035,-0.2984603257393502,-10.645326524010905,1.1603469113722509,5.06435793665916,0.833112585836305
1730865970.4835615,-1.7441734075546265,1.067531943321228,-9.886956214904785,-0.2812548865463687,-0.29746990452414834,-10.645622398988106,1.1580693151656014,5.058250090464885,0.7663341298356598
1730865970.5335526,-1.7646288871765137,1.0706843137741089,-9.89332103729248,-0.2805127717659858,-0.2964345421882467,-10.645919790938665,1.1550860249079724,5.051392057894348,0.6728309361851219
1730865970.583584,-1.8092890977859497,1.0768513679504395,-9.85693645477295,-0.2797261376013366,-0.2953546744605579,-10.646218820431198,1.1659938662094538,5.054924184177494,0.8733235986311132
1730865970.6335008,-1.8451093435287476,1.0780317783355713,-9.835271835327148,-0.2788990077644059,-0.2942316116548913,-10.646519736690886,1.1657007692994816,5.049712679786057,0.8331385593580625
1730865970.6835158,-1.8778879642486572,1.068177342414856,-9.794242858886719,-0.27803657026174694,-0.2930674961249216,-10.646822590817637,1.1679986311596606,5.038660196046181,0.8733758649202841
1730865970.7335863,-1.8792659044265747,1.0619271993637085,-9.761591911315918,-0.2771454621493116,-0.291865181273289,-10.64712684105693,1.1677105299774018,5.03193642825154,0.8331857953119322
1730865970.7835293,-1.8781741857528687,1.0342954397201538,-9.767451286315918,-0.2762338486314777,-0.2906280381833218,-10.647431000151453,1.1720233070770876,5.018946656564175,0.873639051706875
1730865970.8334446,-1.8781741857528687,1.0342954397201538,-9.767451286315918,-0.2753112711248975,-0.28935970706242986,-10.647732470375512,1.1799567812825327,5.004881243949767,0.8739414321812372
1730865970.8334446,-1.8452465534210205,1.0448501110076904,-9.792409896850586,-0.2743883416666164,-0.28806387795037747,-10.648027640263717,1.1799756215931438,5.004820387483,0.8737875353686768
1730865970.8834481,-1.7909832000732422,1.0523160696029663,-9.833215713500977,-0.2734762957141955,-0.2867442127885762,-10.648312199469764,1.182884787624184,4.993971843685534,0.8340431756352087
1730865970.9334626,-1.7909832000732422,1.0523160696029663,-9.833215713500977,-0.2725863946675625,-0.28540439702562154,-10.648581585470943,1.185135618273322,4.982322384492513,0.7673978360713224
1730865970.9334626,-1.7380390167236328,1.0403714179992676,-9.891928672790527,-0.2717293267449953,-0.2840481898065324,-10.648831444526193,1.1851459087359792,4.982257595156535,0.7669658979371283
1730865970.9834626,-1.6841381788253784,1.027842402458191,-9.939653396606445,-0.2709146939674466,-0.2826793783906461,-10.649058083648516,1.1867075097644733,4.969938437383028,0.6738733026643888
1730865971.0333781,-1.598343849182129,1.0370818376541138,-9.97574520111084,-0.27015044214158573,-0.28130166056206307,-10.649258982758257,1.183711088928811,4.997035365054211,0.8741509067585895
1730865971.083417,-1.598343849182129,1.0370818376541138,-9.97574520111084,-0.26944220768461913,-0.2799185610513773,-10.649433257758158,1.1843413788223904,4.992203089702869,0.8342698936991559
1730865971.083417,-1.5712602138519287,1.0332560539245605,-9.993497848510742,-0.26879284835769657,-0.27853342861203023,-10.649581871316043,1.1843430673916955,4.99217324694384,0.8339635269634978
1730865971.133399,-1.550557255744934,1.039259433746338,-9.944525718688965,-0.2682023316894074,-0.2771494567326548,-10.649707546728688,1.1848554045551556,4.979490781146321,0.874391259644415
1730865971.1834455,-1.5575945377349854,1.0153611898422241,-9.915091514587402,-0.2676678560710527,-0.2757696754044184,-10.649814405498896,1.1848429147479522,4.970850529256503,0.8344655231997207
1730865971.233443,-1.6128383874893188,0.9890211224555969,-9.859123229980469,-0.2671841450941025,-0.2743968655695024,-10.649907358745685,1.1841615879891032,4.961522180849603,0.767903808001984
1730865971.283348,-1.6128383874893188,0.9890211224555969,-9.859123229980469,-0.2667440014449378,-0.27303337340643974,-10.649991414934135,1.1828171277873665,4.951537288689915,0.6749944658262339
1730865971.283348,-1.700724482536316,0.9786924719810486,-9.800239562988281,-0.26633904952192367,-0.2716809301007446,-10.650071103935431,1.1828037426285078,4.951454952818338,0.6741472749827585
1730865971.3333108,-1.7688379287719727,1.0146944522857666,-9.755945205688477,-0.2659605827163629,-0.27034061606510185,-10.650150016933273,1.1861050867478644,4.970125955734804,0.8743517991840627
1730865971.3833656,-1.7688379287719727,1.0146944522857666,-9.755945205688477,-0.2656004773871686,-0.26901300862164,-10.650230377414498,1.1885509640628853,4.951602646762263,0.873799339433322
1730865971.3833656,-1.8208271265029907,1.02140212059021,-9.763900756835938,-0.265251927365972,-0.2676984258508676,-10.650312776058039,1.1885532517368003,4.951555068157291,0.8736569270609593
1730865971.433279,-1.8217395544052124,1.0340009927749634,-9.765320777893066,-0.2649098367084198,-0.26639712882973393,-10.650396226243952,1.1886562288118419,4.942233509181182,0.8335078149705037
1730865971.48329,-1.782911777496338,1.0537012815475464,-9.80487060546875,-0.26457093353044103,-0.2651094695422554,-10.650478456811577,1.1903716057724132,4.937893614404989,0.8737469459781206
1730865971.5332751,-1.7525897026062012,1.0612386465072632,-9.85537052154541,-0.26423356145130594,-0.26383605299821955,-10.650556357440676,1.1904831379751657,4.92852708217753,0.8335051263510663
1730865971.5832372,-1.7406247854232788,1.1116029024124146,-9.87990665435791,-0.26389717993602874,-0.262577931421471,-10.650626573880277,1.189936049819575,4.918526709889325,0.7668059626946249
1730865971.633259,-1.770524501800537,1.115897536277771,-9.90289306640625,-0.26356188779773226,-0.26133684054046025,-10.650686113550794,1.18872319809166,4.907809355577952,0.6729573450169262
1730865971.683197,-1.7900440692901611,1.1545110940933228,-9.899785995483398,-0.26322824599001615,-0.2601154493511778,-10.650732761572598,1.1925663332106509,4.9292344268265795,0.8738661888716123
1730865971.7331789,-1.8505797386169434,1.163799524307251,-9.896068572998047,-0.2628974201307198,-0.25891755051566745,-10.650765239675941,1.1943349526295124,4.912181332339468,0.873626082581948
1730865971.783353,-1.8505797386169434,1.163799524307251,-9.896068572998047,-0.2625714973981107,-0.25774814992239437,-10.650783162211559,1.194221066223811,4.903807994829097,0.8331376252803389
1730865971.783353,-1.8653908967971802,1.1624170541763306,-9.862640380859375,-0.2622537601352981,-0.2566134138676188,-10.650786873291567,1.1942183460905151,4.903755027247012,0.832808912289311
1730865971.8332534,-1.84821355342865,1.119704008102417,-9.858514785766602,-0.261948737715625,-0.25552043932727286,-10.650777200334968,1.193453263556089,4.894847866449026,0.7663234985419178
1730865971.8832345,-1.8270213603973389,1.114829421043396,-9.805334091186523,-0.26166201316271726,-0.25447686126242663,-10.650755132622924,1.1920309515427527,4.88523560956033,0.6728191995487885
1730865971.9334147,-1.793975830078125,1.0453251600265503,-9.822367668151855,-0.2613998440668752,-0.2534903495018235,-10.65072147412629,1.1967379006312149,4.901563235609205,0.8738788105651916
1730865971.9832606,-1.7209333181381226,1.0137131214141846,-9.828447341918945,-0.26116862688597686,-0.2525680320735038,-10.65067660418576,1.1964195409927607,4.89693547086273,0.8336113595651167
1730865972.0332992,-1.6012029647827148,0.9719731211662292,-9.870986938476562,-0.2609741437478626,-0.25171588488617835,-10.650620501464429,1.1998358906586992,4.8829567538589576,0.8741671085355832
1730865972.0832047,-1.5673483610153198,0.9927900433540344,-9.874567985534668,-0.26082057440941764,-0.25093824912645835,-10.650553014558637,1.2002238331690087,4.873966691518479,0.8345546301741192
1730865972.133241,-1.5617990493774414,1.0194441080093384,-9.915316581726074,-0.2607096022408278,-0.250237691559094,-10.650474207107377,1.2022121013238152,4.868843372223657,0.8740419029711217
1730865972.1831715,-1.576568603515625,1.0584110021591187,-9.886327743530273,-0.26064006349962743,-0.24961527183405186,-10.650384630244206,1.2025561485202967,4.8601021488746445,0.8343078426210428
1730865972.2332606,-1.631142258644104,1.0728533267974854,-9.91388988494873,-0.26060821241074894,-0.2490710552661088,-10.650285440995466,1.2022545905290742,4.850576535971095,0.767202436654035
1730865972.283102,-1.7173388004302979,1.079965353012085,-9.86382007598877,-0.26060843896175434,-0.24860460769499063,-10.650178350975466,1.2029234173654773,4.857662218807943,0.874443121495081
1730865972.3331964,-1.7173388004302979,1.079965353012085,-9.86382007598877,-0.26063425266376183,-0.248215305148749,-10.650065428843746,1.2023902354005742,4.852461640708095,0.8340292630913654
1730865972.3331964,-1.82231605052948,1.1077828407287598,-9.826631546020508,-0.26067924774972095,-0.2479024810076994,-10.649948795834543,1.2023853531636415,4.852430513020022,0.8337246663883287
1730865972.383157,-1.8533849716186523,1.1184059381484985,-9.800682067871094,-0.2607379202448065,-0.2476655484936778,-10.649830283746805,1.2083126897161294,4.838821907181169,0.8746886965619033
1730865972.4330823,-1.8954871892929077,1.0949914455413818,-9.761144638061523,-0.2608063822106136,-0.24750412832897958,-10.649711085100261,1.2094081003242119,4.829707269511177,0.8348019390979147
1730865972.4830406,-1.8989217281341553,1.0262970924377441,-9.779446601867676,-0.2608828566545085,-0.2474179915586302,-10.649591438399636,1.2098490095474077,4.820031820350937,0.7686943448226782
1730865972.5331557,-1.8989217281341553,1.0262970924377441,-9.779446601867676,-0.2609678189200036,-0.2474066869510784,-10.649470497661007,1.209635910221567,4.809590197685469,0.6746769388362404
1730865972.5331557,-1.8536771535873413,1.0082930326461792,-9.78778076171875,-0.2610638007360617,-0.2474690755402888,-10.6493464501506,1.2096329479117311,4.8095319887274055,0.674094429440948
1730865972.5831227,-1.8536771535873413,1.0082930326461792,-9.78778076171875,-0.26117492783069124,-0.24760307208847895,-10.649216748587145,1.20983634955051,4.828323638069622,0.8746298046832706
1730865972.5831227,-1.783974289894104,1.004658818244934,-9.84261703491211,-0.26130631459005016,-0.24780560795287096,-10.649078369095328,1.2098369632110728,4.8282987819636904,0.874486326348864
1730865972.6330674,-1.783974289894104,1.004658818244934,-9.84261703491211,-0.2614634254593228,-0.24807269658997996,-10.648928154153337,1.214879737324352,4.799660104079435,0.8745217783637295
1730865972.6330674,-1.7528783082962036,1.0574264526367188,-9.855023384094238,-0.2616514940126218,-0.2483995910833302,-10.64876319445832,1.2148964803977782,4.7995378905526405,0.8743467764783546
1730865972.6830595,-1.7219197750091553,1.080628514289856,-9.910914421081543,-0.2618750835765661,-0.2487811147357998,-10.648581129488718,1.2166276422208828,4.789889153817498,0.8805154260787095
1730865972.7331333,-1.704637885093689,1.1132997274398804,-9.919187545776367,-0.262137752381872,-0.2492121455571017,-10.648380430083037,1.2180420318626441,4.775436161326008,0.8429640762349225
1730865972.7830756,-1.704637885093689,1.1132997274398804,-9.919187545776367,-0.2624417952744381,-0.24968806719144576,-10.648160680467901,1.2187776826871646,4.760653135304272,0.7797540864638444
1730865972.7830756,-1.6880874633789062,1.1303209066390991,-9.951221466064453,-0.26278813146187685,-0.2502050375436922,-10.64792271435572,1.2187807820417476,4.760539345061916,0.7791781964560516
1730865972.8330402,-1.6880874633789062,1.1303209066390991,-9.951221466064453,-0.26317632263714985,-0.25076008620019197,-10.64766862472764,1.2188657228051611,4.745095650753759,0.6893572016026864
1730865972.8330402,-1.6892642974853516,1.1353075504302979,-9.929433822631836,-0.26360465019702917,-0.25135111386154674,-10.647401721338419,1.2188643823794265,4.745008254984036,0.6887856504375705
1730865972.8830557,-1.6928538084030151,1.1137971878051758,-9.93874454498291,-0.26407024839073434,-0.2519768161728514,-10.647126362788219,1.2182964953100435,4.72896698014185,0.572747315128579
1730865972.9329422,-1.7044410705566406,1.0738990306854248,-9.894899368286133,-0.26456929916998917,-0.2526364789596145,-10.64684765908435,1.2173499430972803,4.786912439045559,0.8809123047117202
1730865972.9829872,-1.7288248538970947,1.0470776557922363,-9.854463577270508,-0.2650972831777119,-0.25332960269167654,-10.64657107978602,1.2168346882238823,4.783457041270272,0.841485998845592
1730865973.0330038,-1.782965898513794,1.0143132209777832,-9.822835922241211,-0.26564932902510463,-0.2540554328079937,-10.646301939707897,1.2156547077407187,4.7793554082497085,0.7753236425795691
1730865973.082945,-1.8363450765609741,1.0109021663665771,-9.767317771911621,-0.26622072259717644,-0.2548125498536236,-10.646044826653636,1.2196477794670169,4.770516381246559,0.8845373634155325
1730865973.132889,-1.8869452476501465,0.9894759058952332,-9.760782241821289,-0.2668075481502311,-0.2555986178787351,-10.645803091913756,1.2194357981058546,4.764183784384884,0.8456627871560438
1730865973.1829495,-1.8473352193832397,1.0347927808761597,-9.739604949951172,-0.2674072479908235,-0.25641032686112886,-10.645578499563927,1.2185526489828598,4.7571822493737885,0.779911152116594
1730865973.232936,-1.816389560699463,1.0465000867843628,-9.774761199951172,-0.26801877481595265,-0.2572435699384535,-10.645371130964195,1.2215417696787736,4.757873325468251,0.8870891440470229
1730865973.2828844,-1.783855676651001,1.0769073963165283,-9.79489803314209,-0.26864223582234387,-0.2580938229989476,-10.645179588450072,1.223954090698377,4.741697360613824,0.8904299228534786
1730865973.3328242,-1.7646828889846802,1.053520679473877,-9.82564926147461,-0.2692783027701707,-0.2589565356141521,-10.645001437344161,1.2240520188844073,4.733285226262868,0.8518982369181112
1730865973.3828576,-1.7646828889846802,1.053520679473877,-9.82564926147461,-0.2699277107364852,-0.25982733322858326,-10.644833713691062,1.2234768779632963,4.7242095267098065,0.7867116503860092
1730865973.3828576,-1.7351040840148926,1.0145779848098755,-9.854711532592773,-0.27059094782583515,-0.260701985101647,-10.644673332550559,1.2234713698756254,4.724152897173751,0.786238430005052
1730865973.432912,-1.7351040840148926,1.0145779848098755,-9.854711532592773,-0.2712680646077984,-0.2615762223484622,-10.644517374830698,1.2222208011678588,4.714453301103807,0.6946160182308851
1730865973.432912,-1.683071255683899,0.9749651551246643,-9.900102615356445,-0.2719584985011729,-0.26244551664298055,-10.644363322334677,1.2222115459283602,4.714394917641685,0.6940050747483689
1730865973.4828544,-1.6453770399093628,0.9578630328178406,-9.910890579223633,-0.27266082858878327,-0.2633048671462143,-10.64420930597775,1.2202811648631635,4.704037946643244,0.5757687444326196
1730865973.532847,-1.649688720703125,0.9565423130989075,-9.945751190185547,-0.2733724671336061,-0.26414861499631065,-10.644054373258056,1.2176746286910434,4.693034137395497,0.4312029926189654
1730865973.5828483,-1.6442580223083496,0.9954084157943726,-9.940225601196289,-0.27408947243010134,-0.2649704042030763,-10.643898705376408,1.225214732021498,4.728477695841316,0.8886814147474176
1730865973.632834,-1.6689367294311523,1.0497392416000366,-9.937795639038086,-0.27480663191856336,-0.2657634496569834,-10.643743691455349,1.2245438358373104,4.724336480228079,0.8485851617669189
1730865973.682793,-1.6689367294311523,1.0497392416000366,-9.937795639038086,-0.2755177485371981,-0.2665210744779558,-10.643591827058513,1.2287399954524894,4.716353424409018,0.888562579203698
1730865973.682793,-1.6859419345855713,1.0834542512893677,-9.915569305419922,-0.27621599098477023,-0.2672372460847483,-10.643446495088025,1.228742013745751,4.716328798895885,0.8884307740837689
1730865973.7328548,-1.71327543258667,1.1262437105178833,-9.893120765686035,-0.2768942396158411,-0.2679069554942917,-10.643311674889539,1.2288064084319503,4.71098412875999,0.8483095146125581
1730865973.782775,-1.7269731760025024,1.1472166776657104,-9.872698783874512,-0.27754544279141335,-0.2685265437479617,-10.643191578419232,1.2281791313293617,4.704959987494946,0.7815522121942594
1730865973.8327966,-1.7269731760025024,1.1472166776657104,-9.872698783874512,-0.27816295624723153,-0.26909398940061796,-10.643090282757774,1.2292733608035802,4.695526809118908,0.8889375773917086
1730865973.8327966,-1.735066294670105,1.1401067972183228,-9.833118438720703,-0.2787407674158048,-0.269608998063106,-10.643011445255237,1.22927191849423,4.695489287732843,0.8887984292209603
1730865973.8827624,-1.717958927154541,1.1496965885162354,-9.815305709838867,-0.2792735750640955,-0.2700728644900262,-10.642958058937147,1.2286491723720536,4.687974337113182,0.8489576993105444
1730865973.9327734,-1.6673269271850586,1.18075430393219,-9.812365531921387,-0.27975671343758185,-0.27048828225278176,-10.642932204337523,1.2316413209843617,4.683994759434728,0.8894523851444986
1730865973.9827108,-1.718985915184021,1.200554609298706,-9.816550254821777,-0.2801859359643426,-0.27085927706029145,-10.642934901676453,1.2315862187973197,4.676548789066106,0.8497129629284598
1730865974.032757,-1.777178168296814,1.1863377094268799,-9.796299934387207,-0.28055733935422544,-0.27119123064461576,-10.642966123781353,1.2327815083769271,4.672703547099916,0.8893384847171594
