Timestamp,IMU_Linear_Acc_X,IMU_Linear_Acc_Y,IMU_Linear_Acc_Z,Filtered_X,Filtered_Y,Filtered_Z,Pose_X,Pose_Y,Pose_Z
1730865946.7840548,-1.6862400770187378,1.1638270616531372,-9.89360523223877,-0.0010926438203128406,-0.0006816936216428067,-0.11320756028744136,0.8961304358967728,3.8308522651680814,0.8989995193869301
1730865946.8340745,-1.6862400770187378,1.1638270616531372,-9.89360523223877,-0.0014538638203704982,-0.0010020818330401598,-0.1482955949219858,0.8961302394390003,3.8308526133817637,0.8989983420059804
1730865946.8840554,-1.6464816331863403,1.1096014976501465,-9.926274299621582,-0.0023992473582820735,-0.0019843472142749984,-0.23912347314605448,0.8961301510942615,3.8308527630294913,0.898997553033184
1730865946.9339588,-1.6460669040679932,1.1705397367477417,-9.888028144836426,-0.003695700113676359,-0.003555937582806511,-0.36070524951822713,0.8995959540138214,3.830853094334792,0.8989946647481373
1730865946.9839773,-1.5448205471038818,1.3515266180038452,-9.916738510131836,-0.0044952837631188165,-0.004610817882882724,-0.4340547187078541,0.8995949931402526,3.830854475872436,0.8989476080254802
1730865947.0338826,-1.4505513906478882,1.3764179944992065,-9.885746955871582,-0.005404969799979804,-0.005870149580616625,-0.5162175721885186,0.8964615694059628,3.8308473214765093,0.8979734332125587
1730865947.083904,-1.4505513906478882,1.3764179944992065,-9.885746955871582,-0.0064295359246166455,-0.007353882795693891,-0.6074542265910973,0.8964201425926884,3.830828260343077,0.8955903710943857
1730865947.083904,-1.483825922012329,1.3574954271316528,-9.83907413482666,-0.007571177533228116,-0.00908338279885081,-0.7079671703840563,0.896419849475633,3.830828092639656,0.8955717360716874
1730865947.1338828,-1.5220105648040771,1.4168083667755127,-9.791072845458984,-0.008829511582048862,-0.011081025613489691,-0.8179001276911445,0.8915906485471036,3.8307729949765044,0.8914497087804252
1730865947.1838188,-1.466209888458252,1.5062932968139648,-9.781386375427246,-0.01020206734529816,-0.013369802256296717,-0.9373376782458666,0.8913812118314275,3.8307000500470325,0.8850786912513113
1730865947.2339377,-1.6475468873977661,1.4503509998321533,-9.745635986328125,-0.011684834022566783,-0.01597326701764023,-1.06630543374324,0.8911449387865261,3.8305905521016235,0.8762154754701769
1730865947.2838902,-1.7597566843032837,1.3032793998718262,-9.741059303283691,-0.013273075881046065,-0.01891529076860049,-1.2047708451662869,0.8863233781966579,3.8304086252914713,0.8644614128691387
1730865947.3337905,-1.6816997528076172,1.2365984916687012,-9.753911018371582,-0.014962559622668596,-0.022218968456276356,-1.3526445996436447,0.8827073924468172,3.8301637369700896,0.8496939634222529
1730865947.3838024,-1.757475733757019,1.2633165121078491,-9.788309097290039,-0.016750440356619437,-0.02590506881460127,-1.509782602112797,0.8820300565241554,3.829896508206607,0.8311379728337064
1730865947.4338114,-1.9410609006881714,1.2342725992202759,-9.715015411376953,-0.0186355854417804,-0.029990990239237205,-1.6759884356534296,0.8779856913490837,3.8294971654164063,0.8087062734062452
1730865947.4836771,-1.7980672121047974,1.2204742431640625,-9.816902160644531,-0.020619005189452113,-0.034490423623976724,-1.8510160454007627,0.8770667728736934,3.8290795223195677,0.7818667162935634
1730865947.5337312,-1.6201061010360718,1.2407430410385132,-9.861479759216309,-0.022703948317921458,-0.03941329000343276,-2.034572725583056,0.8760957653127366,3.828570750257838,0.7502454853660578
1730865947.5837328,-1.6417081356048584,1.2559638023376465,-9.932706832885742,-0.024894771189701605,-0.0447658051038189,-2.2263226630022013,0.8751517044227533,3.8278710284739383,0.7132169033391771
1730865947.6336718,-1.4783844947814941,1.2720919847488403,-9.962823867797852,-0.027195246512028558,-0.050550740287889376,-2.425890827705467,0.8740578442576937,3.827134700709852,0.6703894840182234
1730865947.6836586,-1.4127205610275269,1.249739170074463,-9.95790958404541,-0.029607211342942655,-0.05676775554452601,-2.632866772484138,0.8728925477267014,3.8262639413983095,0.6212220104740658
1730865947.7336457,-1.4345476627349854,1.2176520824432373,-9.960887908935547,-0.03212955913448411,-0.06341358409915536,-2.8468081234489273,0.871572924311985,3.8251356154477114,0.5653163572827749
1730865947.7836764,-1.6071974039077759,1.2252144813537598,-9.856568336486816,-0.0347579103150725,-0.07048201223464792,-3.0672437065495557,0.8702428893409857,3.8239440363329553,0.5018893241035434
1730865947.8337014,-1.532752275466919,1.1856809854507446,-9.923158645629883,-0.037485350026030304,-0.07796380569523921,-3.2936763791544075,0.8688207953988261,3.822565046598472,0.43041771838605386
1730865947.8835726,-1.49844229221344,1.2116985321044922,-9.878271102905273,-0.04030345077314871,-0.08584671715226924,-3.525585884183922,0.8678058541637724,3.8208508900813336,0.3508573191242222
1730865947.9345996,-1.521494746208191,1.106750726699829,-9.946966171264648,-0.04320264654138439,-0.09411552825191863,-3.7624320214164966,0.8661723897424617,3.8190015660123615,0.2599617300290579
1730865947.9846032,-1.521235466003418,1.066617727279663,-9.89339542388916,-0.04617221752381194,-0.10275193196887064,-4.003658039840752,0.8675038557017659,3.8167720405424683,0.16074677135178153
1730865948.034629,-1.6524330377578735,0.9745575785636902,-9.893824577331543,-0.04920056220258024,-0.11173414917858777,-4.248693953185585,0.8679296127468887,3.8142701770574714,0.05179055898226014
1730865948.0845356,-1.714928388595581,0.9513433575630188,-9.833707809448242,-0.052275972112062516,-0.12103646601568271,-4.496959580215351,0.8662041310186317,3.811644766950379,-0.06818075367284315
1730865948.1347377,-1.6118273735046387,0.9223973155021667,-9.884674072265625,-0.055387577452571085,-0.13062897704706755,-4.747867376229187,0.864331965244156,3.808685549630609,-0.2005656411225366
1730865948.1846237,-1.3661701679229736,0.9260615110397339,-9.857068061828613,-0.05852550304774945,-0.14047768292213833,-5.000825316270925,0.8623291965590828,3.805406009939024,-0.34430439200034674
1730865948.2345996,-1.2212275266647339,0.8862243294715881,-9.932165145874023,-0.06167955063300264,-0.15054488704084912,-5.255239951562274,0.8661242766098534,3.8015457467359215,0.7444171506512675
1730865948.2835228,-1.0323896408081055,0.8774198889732361,-9.941996574401855,-0.0648369874828889,-0.16078968445150243,-5.510519577271621,0.8641125050170865,3.797596371576549,0.6094061198425498
1730865948.3344536,-1.2495695352554321,0.9381879568099976,-9.924843788146973,-0.06798079692904004,-0.17116848851812647,-5.766077344373414,0.8659116435151156,3.7928110356410096,0.6763270565149996
1730865948.3844686,-1.4342632293701172,1.0002256631851196,-9.9284086227417,-0.0710896831837691,-0.18163582529507727,-6.02133404794002,0.8636899225999621,3.787906482203918,0.5188516607963524
1730865948.4344435,-1.6491162776947021,1.1198151111602783,-9.88106918334961,-0.07414017216058158,-0.1921455595257434,-6.2757204835679214,0.8612949409280609,3.7825532529217964,0.34660191566780146
1730865948.4846096,-1.6491162776947021,1.1198151111602783,-9.88106918334961,-0.07710959508317575,-0.20265235345109894,-6.528679485787023,0.8586848222545429,3.7766475538845956,0.15644848460666633
1730865948.4846096,-1.8150001764297485,1.2128596305847168,-9.911548614501953,-0.0799784123710499,-0.21311295263354352,-6.779667830529999,0.8586598238894159,3.7765906588722977,0.15461652882077806
1730865948.5345068,-1.8747748136520386,1.2866096496582031,-9.855307579040527,-0.08273158225210724,-0.22348715801130636,-7.0281581480254705,0.863649359066582,3.769945048134436,0.6178110147476906
1730865948.5845046,-1.8747748136520386,1.2866096496582031,-9.855307579040527,-0.08535939210926723,-0.23373862626124559,-7.273640724740442,0.8603403233207034,3.762621435598726,0.608096873304851
1730865948.5845046,-1.8972151279449463,1.2438414096832275,-9.890105247497559,-0.08785774317914599,-0.2438353445865307,-7.515625076731734,0.8603267444565443,3.7625867513978744,0.6071570977875403
1730865948.6345894,-1.8699368238449097,1.2726092338562012,-9.829380989074707,-0.09022780970631955,-0.2537495292002242,-7.753641445948922,0.8573737275547828,3.755014881813026,0.4008991979063735
1730865948.6844258,-1.8699368238449097,1.2726092338562012,-9.829380989074707,-0.09247534353229311,-0.2634572250035582,-7.987242172584118,0.8563721297641184,3.7464087635115186,0.5787163653416139
1730865948.6844258,-1.9649289846420288,1.1705948114395142,-9.842905044555664,-0.0946099691672353,-0.27293790700587295,-8.216002807107497,0.8563554485154247,3.7463644283375115,0.5775743079420392
1730865948.7343395,-1.9649289846420288,1.1705948114395142,-9.842905044555664,-0.09664477922060541,-0.2821739043355873,-8.43952314122766,0.8530437845901429,3.737531641211219,0.34860548039579753
1730865948.7343395,-1.755480170249939,1.117276906967163,-9.814167976379395,-0.09859597869830002,-0.2911496203395974,-8.657428228279338,0.853022728049599,3.7374752952266888,0.3471363506439115
1730865948.7843802,-1.755480170249939,1.117276906967163,-9.814167976379395,-0.10048182640668393,-0.2998508722206579,-8.869369194815398,0.854943717879831,3.7274230708905485,0.5603288767433566
1730865948.7843802,-1.648979902267456,1.0715574026107788,-9.870731353759766,-0.10232097393520942,-0.30826446383374256,-9.075023864914021,0.8549230863756349,3.727364878523269,0.5588812315100615
1730865948.8343627,-1.619248390197754,1.0923936367034912,-9.766934394836426,-0.10413101846057608,-0.3163779059970976,-9.274097343012865,0.8512617304990561,3.7170097693610127,0.29954086839041044
1730865948.8843756,-1.5719029903411865,1.1600306034088135,-9.814069747924805,-0.10592752817014323,-0.32417936067655123,-9.466322385786071,0.8549638484467201,3.7052591003885436,0.5065344702001933
1730865948.9342463,-1.4718180894851685,1.2043366432189941,-9.855443000793457,-0.10772333960570815,-0.331657986737999,-9.651459538421546,0.8510527385936,3.693266947635226,0.21883005230064767
1730865948.9843962,-1.5622344017028809,1.2559999227523804,-9.844598770141602,-0.1095280539637208,-0.3388046053856501,-9.829297375210443,0.8569072795866877,3.6797970894451453,0.4408195994983716
1730865949.0343103,-1.6065484285354614,1.3037285804748535,-9.91126537322998,-0.1113480077897286,-0.3456123799116294,-9.99965284116232,0.8529492773168258,3.666082845389143,0.13165063692931883
1730865949.084335,-1.6065484285354614,1.3037285804748535,-9.91126537322998,-0.11318689990797165,-0.35207731378224505,-10.16237146408323,0.8486725062368072,3.651365069172669,-0.2057165062779603
1730865949.084335,-1.6464300155639648,1.3352413177490234,-9.848318099975586,-0.11504661828174644,-0.3581984871400586,-10.317327316494236,0.848651167273713,3.6512918641666716,-0.207407360573069
1730865949.1342292,-1.7890230417251587,1.2793657779693604,-9.847938537597656,-0.11692796441827706,-0.36397799554509935,-10.464422524286414,0.8602116282345609,3.635213670303234,0.40581276032998514
1730865949.1843033,-1.7890230417251587,1.2793657779693604,-9.847938537597656,-0.11883153580536768,-0.36942059604527966,-10.603586395423822,0.8560664605359807,3.6187892976903164,0.0614422438249723
1730865949.1843033,-1.9112098217010498,1.1769911050796509,-9.826825141906738,-0.12075873105281781,-0.3745330847245099,-10.734774539622556,0.8560460233668623,3.618708922879365,0.05974002457176535
1730865949.2342906,-1.9112098217010498,1.1769911050796509,-9.826825141906738,-0.12271255755044785,-0.3793234840785205,-10.85796805622969,0.8516156971415227,3.6014135337238398,-0.31005409105337
1730865949.2342906,-1.7468112707138062,1.169215440750122,-9.872337341308594,-0.12469794682492999,-0.3838002698743447,-10.973172722319092,0.8515939873576024,3.601329367823191,-0.3118697954387694
1730865949.2843397,-1.7468112707138062,1.169215440750122,-9.872337341308594,-0.1267212046486936,-0.3879719223712096,-11.080418276769493,0.8619996224904634,3.5823333799993726,0.37675417693956614
1730865949.2843397,-1.7610691785812378,1.1731765270233154,-9.90518856048584,-0.1287889115720477,-0.3918468104247862,-11.179757787323773,0.8619800582481804,3.5822492057599917,0.37508763659089095
1730865949.3341703,-1.7610691785812378,1.1731765270233154,-9.90518856048584,-0.13090720621995344,-0.3954332105112418,-11.271266938895309,0.8574738496397282,3.5630683379619255,-0.008913338506992408
1730865949.3341703,-1.772855281829834,1.1963719129562378,-9.869773864746094,-0.13308165752323525,-0.39873937222824196,-11.355043128203942,0.8574451101198606,3.562947237582452,-0.011363281361140194
1730865949.3842542,-1.7723252773284912,1.1582468748092651,-9.856871604919434,-0.1353173125374076,-0.40177360155469105,-11.431204279478635,0.8525810327536902,3.5426617578108863,-0.4258795133751027
1730865949.4341888,-1.5951693058013916,1.1924304962158203,-9.84045124053955,-0.13761856167451578,-0.4045442888351258,-11.499887429426206,0.8631390538657502,0.8389600624252346,0.32738001608024175
1730865949.4842129,-1.5951693058013916,1.1924304962158203,-9.84045124053955,-0.13998851634900572,-0.4070599087873933,-11.561247288855991,0.8581184014120634,0.7637453451134769,-0.10410611534313705
1730865949.4842129,-1.4303251504898071,1.1096744537353516,-9.871488571166992,-0.1424279963194801,-0.4093290112682352,-11.61545493975989,0.8580881125725744,0.7633041853158923,-0.10670569853230753
1730865949.5342839,-1.4303251504898071,1.1096744537353516,-9.871488571166992,-0.14493456157073054,-0.4113600085136655,-11.662696713873416,0.860862255240578,0.8141423979630557,0.29277099161986525
1730865949.5342839,-1.4494115114212036,1.127644419670105,-9.831385612487793,-0.14750192974162127,-0.41316080433602825,-11.703173123096175,0.8608324080487046,0.8137347904459462,0.29026181580131755
1730865949.5842733,-1.374488115310669,1.0864741802215576,-9.847817420959473,-0.15011997071022182,-0.4147386137877361,-11.737097625794952,0.8554939967752885,0.7428653362043,-0.15742714694365048
1730865949.634126,-1.374488115310669,1.0864741802215576,-9.847817420959473,-0.15277503053883318,-0.41609996187378934,-11.76469528111124,0.8579880061279681,0.8208288661271297,0.26213474060333725
1730865949.634126,-1.4525998830795288,1.0719263553619385,-9.802490234375,-0.1554503059049901,-0.4172506451480325,-11.786201458970488,0.8579607114810138,0.8205077488642183,0.2599096758206672
1730865949.684152,-1.5784028768539429,1.0320987701416016,-9.840079307556152,-0.15812661631680572,-0.4181956581577715,-11.80186056079571,0.8521878876625141,0.7543991762948024,-0.20932842748247263
1730865949.734146,-1.5784028768539429,1.0320987701416016,-9.840079307556152,-0.16078376366128583,-0.41893910213307206,-11.81192477748878,0.8567046373793513,0.8335140184176143,0.23409891520509948
1730865949.734146,-1.5448294878005981,0.9901504516601562,-9.828018188476562,-0.16340183311313314,-0.419484072722261,-11.816652997724459,0.8566727816508585,0.8331868499211038,0.2315528054754342
1730865949.7841535,-1.495914340019226,0.9905200004577637,-9.897010803222656,-0.16596173471305753,-0.4198325760214251,-11.816309810121998,0.8506010967459017,0.7724183302009207,-0.2519432879343402
1730865949.8341901,-1.5989469289779663,0.96947181224823,-9.889765739440918,-0.1684451560059253,-0.4199854993234922,-11.811164603135115,0.8557524903570057,0.8468055420956807,0.20922368848325631
1730865949.8841543,-1.5671354532241821,0.9694827198982239,-9.91878890991211,-0.1708346327364209,-0.4199426572692839,-11.801490773346377,0.8550875017465983,0.8516584073217394,0.19006634363150474
1730865949.9341342,-1.4966825246810913,0.9941743016242981,-9.964380264282227,-0.1731138245788163,-0.41970294374323336,-11.78756492536712,0.8485294007314721,0.7974221591938183,-0.3155872885157818
1730865949.984129,-1.4800490140914917,0.969645619392395,-9.981051445007324,-0.17526746144455402,-0.4192645944650661,-11.769666081678247,0.841512945028938,0.7419597699073406,-0.8524320871582838
1730865950.0342054,-1.4800490140914917,0.969645619392395,-9.981051445007324,-0.17728094760530105,-0.4186254563204949,-11.748074909409166,0.8340920150993566,0.6857326829157279,-1.4159102536029413
1730865950.0342054,-1.459653377532959,1.016774296760559,-9.992463111877441,-0.1791400996758206,-0.41778319754256876,-11.723072820191238,0.8340562409641807,0.6854670425185307,-1.4186165828514303
1730865950.0840492,-1.459653377532959,1.016774296760559,-9.992463111877441,-0.18083112316628172,-0.4167355970558386,-11.69494093402162,0.8552721609189146,0.8652323731754059,0.12363114155866557
1730865950.0840492,-1.5144121646881104,1.049118995666504,-9.973414421081543,-0.18234071901610133,-0.41548095058679063,-11.663959002088498,0.8552327479513849,0.864962464542179,0.1206632918535448
1730865950.1340241,-1.6105612516403198,1.0086636543273926,-9.94045639038086,-0.18365646393253726,-0.4140184011565866,-11.630404270684377,0.8482913578272938,0.8184765894975993,-0.3992958763088944
1730865950.1840804,-1.5536221265792847,1.06661057472229,-9.94149398803711,-0.18476749391957345,-0.41234808683922014,-11.594550269936843,0.8568837302950904,0.8813750888839874,0.1448991560126281
1730865950.2339597,-1.603241205215454,1.065562129020691,-9.964529037475586,-0.18566505845923753,-0.4104712390634563,-11.556665692814178,0.8497179147844923,0.8378127941201098,-0.3850105801700927
1730865950.2839465,-1.879683494567871,1.0326447486877441,-9.866992950439453,-0.18634293272649138,-0.40839031225337746,-11.517013461937665,0.8420265926293512,0.7928568939542161,-0.9482426931078808
1730865950.3339956,-2.0737950801849365,0.9914940595626831,-9.809025764465332,-0.18679854618369662,-0.4061089287700666,-11.475849710270985,0.8587583990927834,0.8916987343197454,0.06194138461704285
1730865950.3840535,-2.0737950801849365,0.9914940595626831,-9.809025764465332,-0.18703489851729754,-0.4036315307574872,-11.433422524785676,0.8514336184978746,0.8525228762773671,-0.4748871969801465
1730865950.3840535,-1.8243703842163086,0.9407444000244141,-9.798154830932617,-0.1870616645996358,-0.40096296536335324,-11.389970849778308,0.8513704369212504,0.8521912847201438,-0.47949361090927134
1730865950.4339852,-1.6435387134552002,1.0102969408035278,-9.805895805358887,-0.18689407516939485,-0.39810821709729494,-11.345723866576517,0.8628445404790612,0.9113067285463653,0.12090318683818467
1730865950.4839067,-1.5730770826339722,1.1460793018341064,-9.76155948638916,-0.18655012298643553,-0.395072537598834,-11.300900668765568,0.8554263510572606,0.8745698130889812,-0.42126057869115974
1730865950.5338778,-1.402429223060608,1.2469379901885986,-9.80485725402832,-0.18604775622888445,-0.3918622618183612,-11.255709994401034,0.8475496500503052,0.8368780041460719,-0.9911224598133164
1730865950.5837739,-1.2801685333251953,1.27745521068573,-9.844583511352539,-0.18540279010443156,-0.3884860413500366,-11.210350096064035,0.8392134079132963,0.7982260819329954,-1.5887548787346288
1730865950.6338754,-1.3144124746322632,1.2810062170028687,-9.876189231872559,-0.18462738615542948,-0.3849557410290058,-11.165008926460587,0.8303707027985805,0.7584055601970483,-2.217497340235116
1730865950.6837897,-1.3720238208770752,1.2254197597503662,-9.91110610961914,-0.18372938439215558,-0.38128656079156664,-11.119864533674122,0.8210706850257812,0.7176451112829252,-2.873856619009627
1730865950.7338083,-1.4993278980255127,1.1518988609313965,-9.931300163269043,-0.1827128603794388,-0.37749643354160944,-11.075085430841847,0.8663200744957421,0.9281752159053067,0.026595260453391802
1730865950.78379,-1.6006672382354736,1.0863429307937622,-9.86929702758789,-0.18157960201436246,-0.37360493610640816,-11.030830780675803,0.858710334449796,0.8976378923053999,-0.515200347536427
1730865950.8337855,-1.81550133228302,1.01986563205719,-9.81452465057373,-0.1803310000096268,-0.3696320295634863,-10.987250201425253,0.8701632252542334,0.9407479911563146,0.052243338639528895
1730865950.8837059,-1.9375649690628052,0.9927679896354675,-9.77560806274414,-0.17897011377469293,-0.3655969326219641,-10.944483168239373,0.8626184114520359,0.9120947438540764,-0.48803779514091006
1730865950.9336746,-2.0457820892333984,0.9714118242263794,-9.726194381713867,-0.17750363930542487,-0.3615173185459353,-10.902658313095493,0.8545951765479389,0.8824116277047057,-1.0579571360051991
1730865950.9836621,-2.0869340896606445,1.0083929300308228,-9.737180709838867,-0.17594330696524407,-0.3574089319678976,-10.86189292788441,0.8739258246176962,0.9566721525981206,0.02480330238529503
1730865951.0336392,-2.0562994480133057,1.051559329032898,-9.758321762084961,-0.17430638939528847,-0.35328566523347243,-10.822292829780363,0.8663529962404615,0.9302638482811677,-0.5189833686674451
1730865951.083622,-1.9736506938934326,1.1039338111877441,-9.822582244873047,-0.17261525689691765,-0.3491600387789504,-10.783952685113977,0.8811817655704324,0.9700967240815592,0.04037257668130155
1730865951.133597,-1.9302725791931152,1.1401413679122925,-9.887577056884766,-0.17089613391401287,-0.3450438848658467,-10.746956764169887,0.873868196228019,0.9452790191228166,-0.5009416294323966
1730865951.1835477,-1.8705997467041016,1.1601102352142334,-9.892549514770508,-0.16917751002053674,-0.34094898067101664,-10.711379911255445,0.8891616911087021,0.9821372191946274,0.036198655884902356
1730865951.233644,-1.852792739868164,1.1702474355697632,-9.919771194458008,-0.16748868677006434,-0.33688746329386293,-10.67728839048945,0.8820304879315222,0.9583876500912275,-0.5108604677880358
1730865951.2836158,-1.850260853767395,1.1229956150054932,-9.914119720458984,-0.16585868799154585,-0.33287194571791373,-10.644740415830018,0.8963353244737072,0.9956723302985715,0.034343379115416225
1730865951.3335752,-1.8229795694351196,1.0839333534240723,-9.910886764526367,-0.16431555578637705,-0.3289152766352625,-10.613786431272796,0.8894415082031422,0.9733120938861104,-0.5101032120815626
1730865951.3836124,-1.7985893487930298,1.0479875802993774,-9.888747215270996,-0.1628858792671144,-0.32502999837246027,-10.584469231068473,0.9044918486259729,1.0092715904554754,0.028205558092829437
1730865951.4335694,-1.7535266876220703,0.9978740811347961,-9.872357368469238,-0.16159434606238746,-0.32122770981868676,-10.556823958155757,0.9124276669634666,1.0181658359902288,0.07203468134355795
1730865951.4836032,-1.7225205898284912,0.9698752164840698,-9.863229751586914,-0.1604632471236865,-0.3175184929443988,-10.530878055550232,0.9059783936901737,0.9973682028137629,-0.47717751257566754
1730865951.533507,-1.668954610824585,0.9353963732719421,-9.8529052734375,-0.15951197725445576,-0.31391045319415123,-10.506651268323758,0.8992138210076134,0.9760510141257657,-1.045527114958404
1730865951.583536,-1.6359572410583496,0.9215210676193237,-9.852986335754395,-0.15875657400250942,-0.3104094136060401,-10.484155750325185,0.8919373598578602,0.9535993025070361,-1.6496180163678082
1730865951.6334298,-1.6144894361495972,0.9229671359062195,-9.850465774536133,-0.15820934955451463,-0.3070187976422924,-10.463396274737077,0.9149960486995713,1.0317096819788674,-0.002426425157893649
1730865951.6834772,-1.6067534685134888,0.9610587358474731,-9.857247352600098,-0.1578787096111512,-0.30373975093627426,-10.44437053187839,0.908325675032833,1.0123307368459755,-0.5548589196334018
1730865951.7344527,-1.5976148843765259,1.0084751844406128,-9.867647171020508,-0.15776920297127411,-0.3005715608682017,-10.427069503243775,0.9130411576829797,1.0459968784738045,0.011176404085524288
1730865951.7843916,-1.6114647388458252,1.0301212072372437,-9.874835968017578,-0.15788175412777752,-0.2975123154542208,-10.411477901024885,0.9061062032535772,1.0275234314992483,-0.5422765645268479
1730865951.8344188,-1.5975745916366577,1.018343448638916,-9.889068603515625,-0.15821401072399127,-0.2945595496406618,-10.397574646864019,0.8988079815426864,1.00839376967954,-1.119215963627944
1730865951.8845086,-1.6075562238693237,0.9683912396430969,-9.893061637878418,-0.1587607293390196,-0.2917105734281639,-10.385333356548937,0.9093751684260873,1.0621839768132209,-0.008066092144769286
1730865951.934418,-1.626556634902954,0.905511736869812,-9.897462844848633,-0.1595141636122984,-0.2889623398737041,-10.37472280042591,0.9020532759169754,1.0447591324890955,-0.5640565182674544
1730865951.9844997,-1.6508206129074097,0.8503293991088867,-9.890620231628418,-0.1604645122951942,-0.28631094912562577,-10.365707306241802,0.9057774188377227,1.0779950649015761,0.012070112875064582
1730865952.034278,-1.668717384338379,0.7852784395217896,-9.882685661315918,-0.16160044995114597,-0.2837510206790841,-10.358247083094607,0.898230958381713,1.0615776678389373,-0.5391865204572864
1730865952.0843859,-1.666137456893921,0.7490000128746033,-9.847501754760742,-0.162909640670769,-0.28127513160773293,-10.35229845039097,0.9015444666173813,1.093509663193515,0.005907960266247675
1730865952.134316,-1.6244356632232666,0.7482098340988159,-9.854060173034668,-0.16437907490523357,-0.27887346591365203,-10.347813976713761,0.8936852201064349,1.077859915768394,-0.5472886585121934
1730865952.1843207,-1.5937052965164185,0.7874472141265869,-9.882034301757812,-0.16599510945979906,-0.27653384074028226,-10.344742658120989,0.8853204993231439,1.0613322951851267,-1.1328477323296666
1730865952.2342668,-1.5707736015319824,0.8576775789260864,-9.910017013549805,-0.16774327119109803,-0.2742422211044327,-10.34303032531298,0.8977062176586651,1.105677478059008,-0.012040346305919816
1730865952.2842512,-1.587791085243225,0.9232023358345032,-9.935588836669922,-0.16960807111366913,-0.27198366298211485,-10.342620278453284,0.8984828009046683,1.1160055878941304,0.048885902016001605
1730865952.3342435,-1.5839658975601196,0.9715844392776489,-9.951668739318848,-0.17157303751247743,-0.2697434433495084,-10.343453968229186,0.8902376694306761,1.1013657190381496,-0.506921068361021
1730865952.3842833,-1.6285433769226074,0.9795622229576111,-9.949352264404297,-0.1736209859621272,-0.26750804880029955,-10.345471568114732,0.8962458729417345,1.1205450293855614,0.0033359070716366696
1730865952.4342704,-1.6731714010238647,0.9589577913284302,-9.931402206420898,-0.1757344781542039,-0.265265755208743,-10.34861235335236,0.8877849021577067,1.106100086310884,-0.5557050321963755
1730865952.4843504,-1.7608195543289185,0.9085907340049744,-9.892904281616211,-0.17789648430365304,-0.2630066917169962,-10.35281484261133,0.8788589826671569,1.090955694513767,-1.1421364371128215
1730865952.5342863,-1.8198007345199585,0.8613375425338745,-9.845653533935547,-0.1800912338745045,-0.26072245968033114,-10.358016707336223,0.8940451275657672,1.1324325581377073,-0.020148511771424384
1730865952.5842535,-1.8743910789489746,0.8098325729370117,-9.812735557556152,-0.1823050995345155,-0.2584055046169942,-10.364154525026647,0.8852925212791342,1.118486022597346,-0.5825744213656178
1730865952.634168,-1.8814746141433716,0.8248398900032043,-9.78154468536377,-0.1845272705627205,-0.25604850652778494,-10.371163524676216,0.8938777673513502,1.1454352232034353,0.0018443216610328356
1730865952.6841817,-1.8178749084472656,0.9012826681137085,-9.799697875976562,-0.18674997399676746,-0.2536441203177455,-10.378977490271392,0.8849359925728837,1.1319608995471748,-0.5639837305290314
1730865952.7341259,-1.7743693590164185,0.9895063042640686,-9.821540832519531,-0.18896809633882702,-0.2511853382594769,-10.387528957101496,0.8926156105574498,1.156354630237516,-0.00035782348658529826
1730865952.7841399,-1.7426655292510986,1.0704177618026733,-9.879551887512207,-0.19117836042530606,-0.24866640052460853,-10.396749753091228,0.8834811305451217,1.1433244914960405,-0.5672104657027932
1730865952.834016,-1.7173658609390259,1.144403100013733,-9.899643898010254,-0.1933784664782638,-0.24608386846782565,-10.406571791576107,0.891178275105637,1.1720173325033034,-0.0010592609141879886
1730865952.884022,-1.7238008975982666,1.201750636100769,-9.902915954589844,-0.1955664767293901,-0.24343752840445632,-10.416927875236034,0.881859443841111,1.1596552058730183,-0.5676274844444632
1730865952.9340377,-1.7645459175109863,1.1820310354232788,-9.86949348449707,-0.19774053002416875,-0.24073093835871087,-10.42775223447032,0.8926218770517655,1.1888078800234128,-0.0054841487889574075
1730865952.9839852,-1.83077871799469,1.1543887853622437,-9.82955265045166,-0.19989895091188797,-0.23797143979120366,-10.438980666356594,0.895365252803428,1.1978640600993056,0.03755600780391277
1730865953.0339887,-1.83077871799469,1.1543887853622437,-9.82955265045166,-0.2020406780250522,-0.23516963300683713,-10.45055038532082,0.8860515548374864,1.1865514624693687,-0.5262288272032409
1730865953.0339887,-1.8594506978988647,1.0799541473388672,-9.79504680633545,-0.20416569794009337,-0.23233858472721314,-10.462399841354504,0.8859840168582633,1.1864695203420197,-0.5303013537832881
1730865953.0839276,-1.8404059410095215,1.018115758895874,-9.759230613708496,-0.20627522641189075,-0.22949291364879987,-10.474468616384051,0.876202573183847,1.1746276891305956,-1.1176830860762066
1730865953.1339393,-1.7897979021072388,0.9865586757659912,-9.764646530151367,-0.20837158634279138,-0.2266477507740575,-10.486697338697606,0.8658271793264394,1.162124014104713,-1.7358182904642174
1730865953.1840162,-1.698754072189331,1.0258070230484009,-9.786855697631836,-0.21045772616567043,-0.22381783981977568,-10.499027698053224,0.8963683582073929,1.215216543610618,-0.0036319797118301647
1730865953.2339149,-1.698754072189331,1.0258070230484009,-9.786855697631836,-0.21253642259531963,-0.22101713058511682,-10.511402705137828,0.8864935476882875,1.2040686915630348,-0.5851778181179572
1730865953.2339149,-1.6195176839828491,1.096706748008728,-9.849236488342285,-0.21460948640728716,-0.21825885947639223,-10.523767142075789,0.886420074338505,1.203985918983728,-0.5894865109925326
1730865953.2839737,-1.5690386295318604,1.1863417625427246,-9.894932746887207,-0.21667715743444743,-0.21555595989797444,-10.536068142454013,0.8760320798369674,1.1923188546427448,-1.195952176735724
1730865953.3338645,-1.5690386295318604,1.1863417625427246,-9.894932746887207,-0.21873762261093377,-0.21292169740171257,-10.548255857264001,0.8966729734084561,1.2320509472624692,0.012115255663553797
1730865953.3338645,-1.5596836805343628,1.2637195587158203,-9.941064834594727,-0.22078675814641052,-0.21037026381791712,-10.560284005599968,0.8966105639556237,1.231985328773249,0.008521720316306026
1730865953.384044,-1.59630286693573,1.3051685094833374,-9.960204124450684,-0.2228182533241196,-0.2079171543325941,-10.572110219239562,0.8862282092373589,1.2211024289048122,-0.5864389882680691
1730865953.4338489,-1.6284863948822021,1.3273265361785889,-9.94701862335205,-0.22482406408696753,-0.20557942656185418,-10.58369625860434,0.8754197289088058,1.2098416103733745,-1.200269733325304
1730865953.4840422,-1.6284863948822021,1.3273265361785889,-9.94701862335205,-0.22679503874066403,-0.20337580445303377,-10.59500804657667,0.8961609270283564,1.2456897847545265,-0.005420490014235547
1730865953.4840422,-1.6553434133529663,1.316172480583191,-9.920696258544922,-0.2287215095513909,-0.2013264801280974,-10.606015464428822,0.8960975619614047,1.245627752649609,-0.008965482143118077
1730865953.5338588,-1.6599690914154053,1.2806527614593506,-9.860176086425781,-0.23059373570453012,-0.19945263088389276,-10.616691957903434,0.8992300947838421,1.2592732461142289,0.0898119801391949
1730865953.583919,-1.6599690914154053,1.2806527614593506,-9.860176086425781,-0.2324022276067411,-0.19777576975870434,-10.627013987864744,0.888264592385916,1.2489730592948032,-0.5175009505677067
1730865953.583919,-1.6765570640563965,1.1801283359527588,-9.819402694702148,-0.23413797151648036,-0.19631702098471404,-10.63696046014991,0.8882111352142551,1.2489229683725203,-0.520448198579683
1730865953.6338382,-1.6765570640563965,1.1801283359527588,-9.819402694702148,-0.23579258469373576,-0.19509631736257713,-10.646512299605796,0.8999471265219329,1.2721677576241193,0.027999672954205725
1730865953.6338382,-1.6720153093338013,1.0732054710388184,-9.787087440490723,-0.23735843458191175,-0.19413154765057183,-10.655652165415352,0.8998960730037671,1.2721222994389745,0.025194941581619494
1730865953.6838663,-1.6663193702697754,0.9791675806045532,-9.763050079345703,-0.2388286852426015,-0.19343768361832095,-10.664364223474712,0.8886776189483997,1.2621572163389247,-0.588063672232461
1730865953.7339408,-1.6707918643951416,0.9239218235015869,-9.750232696533203,-0.2401972682463552,-0.1930258377757982,-10.672633925873416,0.8767170330399119,1.2515821001167968,-1.2357835941523565
1730865953.7837968,-1.6994575262069702,0.9047927856445312,-9.781537055969238,-0.24145887449416603,-0.19290244746488633,-10.680447868098257,0.9024815458839169,1.2828487631919632,-0.018305631364117503
1730865953.8338177,-1.7137017250061035,0.9450106620788574,-9.824131965637207,-0.2426090632792694,-0.19306897382465377,-10.687793898277961,0.8909374757904441,1.2731000500419267,-0.6391767807570466
1730865953.8838098,-1.7199853658676147,1.0237822532653809,-9.900525093078613,-0.2436444554369067,-0.1935222953271131,-10.694661565063244,0.9060547515510872,1.2917656943128528,-0.04719818179171218
1730865953.933771,-1.7121604681015015,1.109671950340271,-9.941783905029297,-0.2445628650386961,-0.19425572455812928,-10.701042809438984,0.911219127661168,1.2988326713683993,-0.004741272567510798
1730865953.9838536,-1.7125602960586548,1.1412822008132935,-9.991416931152344,-0.24536328329926305,-0.19526034454360958,-10.706932678110581,0.9000928592240889,1.2899553988414907,-0.6090573295551431
1730865954.033785,-1.7383090257644653,1.1559922695159912,-9.991555213928223,-0.24604578763234375,-0.19652619104410834,-10.712329828957676,0.8884456370596164,1.280662843897233,-1.2350801099883493
1730865954.0837812,-1.7700742483139038,1.0934906005859375,-9.966474533081055,-0.24661153594047125,-0.19804290805517474,-10.717236672693321,0.9136362193412886,1.3129739665883238,-0.06068516653964317
1730865954.1337168,-1.7931220531463623,1.0574482679367065,-9.924484252929688,-0.24706291699033936,-0.1997997777129106,-10.721659079057881,0.9027286642132482,1.304877590939268,-0.6437316734092338
1730865954.1838078,-1.8051255941390991,0.9757516384124756,-9.861323356628418,-0.24740375300538656,-0.20178528118419609,-10.725605702976607,0.9163448693101391,1.3276176855328334,-0.029084758897591816
1730865954.233678,-1.8243852853775024,0.909440279006958,-9.807530403137207,-0.24763941777556925,-0.20398643891287285,-10.7290870868326,0.90535904192354,1.3200010943325462,-0.6097437255856549
1730865954.2837088,-1.831785798072815,0.8526820540428162,-9.77783489227295,-0.24777684639267367,-0.20638811645350844,-10.732114734092862,0.9174370834879472,1.337440691334821,-0.018942136883330078
1730865954.3335953,-1.7967559099197388,0.8678164482116699,-9.767488479614258,-0.24782443278328853,-0.20897250908563303,-10.73470037459278,0.9064862079023261,1.3301199317908108,-0.588675723516824
1730865954.3836603,-1.7605763673782349,0.9291214346885681,-9.799591064453125,-0.247791720153192,-0.21171911027275045,-10.736855590087627,0.91814135696419,1.3518992673290142,-0.013917860229594192
1730865954.433618,-1.710945725440979,1.0032237768173218,-9.818702697753906,-0.2476888388980308,-0.2146053404650776,-10.73859183795902,0.9069764198079698,1.3448789030839043,-0.5858190329657953
1730865954.4836576,-1.7012803554534912,1.053971767425537,-9.838756561279297,-0.24752583583466245,-0.2176076578614687,-10.739920746367691,0.9187662346307341,1.3373107693683828,-0.010174093597959122
1730865954.5335536,-1.6881037950515747,1.0379717350006104,-9.849413871765137,-0.2473121267439103,-0.2207026803032212,-10.74085445656291,0.9074714481118115,1.3291991352077832,-0.580612849177406
1730865954.5836434,-1.7113316059112549,0.9963055849075317,-9.854170799255371,-0.24705622087912985,-0.22386784625900968,-10.741405863183719,0.9192182113774663,1.3204271655153528,-0.01547838849888615
1730865954.6335702,-1.745736837387085,0.9328804016113281,-9.85682487487793,-0.24676574733498347,-0.22708143384116547,-10.74158872496473,0.907929580772967,1.31130297310168,-0.5785126586558437
1730865954.683587,-1.7479357719421387,0.8603179454803467,-9.831171989440918,-0.2464477149247224,-0.2303220930825838,-10.741417647741402,0.8958719356744411,1.301484098954161,-1.176025965664383
1730865954.733575,-1.7491909265518188,0.843873918056488,-9.839099884033203,-0.24610880787572098,-0.23356820466627393,-10.740907943773436,0.9194926029614789,1.2911471036043998,-0.028871825170132256
1730865954.7836032,-1.719849944114685,0.8954249024391174,-9.856204986572266,-0.24575550545925962,-0.2367974638311077,-10.740075463211891,0.9078365407406683,1.280154682108179,-0.6004220031311761
1730865954.8335345,-1.69038987159729,1.013269066810608,-9.893735885620117,-0.24539396155678844,-0.23998710293617298,-10.73893656870099,0.9219001774077322,1.2686684368186412,-0.008038978595661389
1730865954.8834958,-1.6407148838043213,1.1782209873199463,-9.94733715057373,-0.24502968708107048,-0.2431149403970937,-10.737508335044705,0.9249843629827593,1.2566220939194364,0.03806423109365431
1730865954.9335127,-1.5968351364135742,1.3148117065429688,-9.980710983276367,-0.24466710622330748,-0.24616107347728483,-10.73580891704419,0.9133603798817533,1.243823605009204,-0.5317500194309539
1730865954.9834745,-1.5788203477859497,1.3853707313537598,-9.986942291259766,-0.24430909765587336,-0.2491096918947328,-10.73385791303907,0.9011597726723721,1.2304440515238657,-1.1267096929301232
1730865955.0333755,-1.59587824344635,1.345052719116211,-9.986001014709473,-0.2439567051766291,-0.2519503167776807,-10.731676511134145,0.9261565376315408,1.2165889562992693,-0.032775804935689386
1730865955.0834413,-1.6471034288406372,1.241713523864746,-9.92891788482666,-0.24360921259587223,-0.25467792428407116,-10.729287304144737,0.9143870561298808,1.2019188942250516,-0.6065839768609124
1730865955.1334794,-1.7504501342773438,1.1041513681411743,-9.85863208770752,-0.24326468584687055,-0.2572918711012594,-10.726713737310604,0.9020030337844186,1.1866018136006318,-1.207493539098961
1730865955.1834555,-1.8304283618927002,0.9711137413978577,-9.74976921081543,-0.24292094866596423,-0.2597940150469189,-10.723979183350796,0.9299832060878079,1.1708422730416872,-0.03722048816578524
1730865955.2333221,-1.9156988859176636,0.9128645658493042,-9.670672416687012,-0.2425767707688547,-0.26218666331962165,-10.721105755867601,0.9182569840291588,1.1543359345177886,-0.6092187140386511
1730865955.2834413,-1.9563443660736084,0.903839647769928,-9.61693286895752,-0.24223293629973747,-0.26447098403574604,-10.718113130729973,0.9058186146840363,1.137022597649204,-1.213182761971571
1730865955.3332965,-1.9563443660736084,0.903839647769928,-9.61693286895752,-0.24189292004372048,-0.26664624673413906,-10.715017715141347,0.8928764940173606,1.1191858500622727,-1.8390240766716952
1730865955.3332965,-1.9662718772888184,0.9583784937858582,-9.625625610351562,-0.24156304680042404,-0.2687098225827959,-10.711832384075192,0.8927333118216295,1.1189894212440539,-1.845934620147213
1730865955.3834836,-1.923431158065796,1.0500279664993286,-9.705564498901367,-0.24125220173382883,-0.27065773283694544,-10.708566796101456,0.9368859109629659,1.1008191933452536,-0.011127936262504039
1730865955.4342368,-1.8367159366607666,1.1513241529464722,-9.823517799377441,-0.24097118634634,-0.2724856473159727,-10.70522824891882,0.9246341031806615,1.0812867207249413,-0.6100183585134827
1730865955.4842105,-1.7143102884292603,1.2665013074874878,-9.948857307434082,-0.24073166694731302,-0.2741901915020118,-10.70182303762336,0.9406083997105016,1.0617724882850657,-0.025101084726835664
1730865955.5342638,-1.5934988260269165,1.3747628927230835,-10.055098533630371,-0.2405447203884324,-0.2757703258878217,-10.698358094909917,0.9285584859908811,1.041082222256047,-0.617649587166995
1730865955.5842412,-1.4835880994796753,1.4298890829086304,-10.111140251159668,-0.2404192179989466,-0.2772285607440667,-10.694842498665865,0.9439878867184486,1.0202195562515994,-0.03525306241855919
1730865955.6342456,-1.443881630897522,1.4316983222961426,-10.103753089904785,-0.240360418123606,-0.2785717265402625,-10.691288440994281,0.9320691406196863,0.998217019427517,-0.6240023513796527
1730865955.6842623,-1.4952565431594849,1.3775787353515625,-10.049909591674805,-0.24036917819430337,-0.27981103224378456,-10.687711403818085,0.947479948881597,0.9760075608636896,-0.03924297224429341
1730865955.7341847,-1.6399167776107788,1.2702287435531616,-9.953142166137695,-0.24044216828398607,-0.2809613231829838,-10.684129514233353,0.9356602356844222,0.9526344946560074,-0.6254757612023101
1730865955.7842758,-1.8158236742019653,1.1555479764938354,-9.814238548278809,-0.24057322059590996,-0.282039661042667,-10.680562239262652,0.9493641155898982,0.9290154238929812,-0.04362952727550808
1730865955.8341494,-1.987913966178894,1.0372942686080933,-9.684324264526367,-0.24075551395711237,-0.2830635176754348,-10.677028651748666,0.9513164612261041,0.9049211970947889,0.004572154656534747
1730865955.8841746,-2.1046435832977295,0.9711049795150757,-9.589987754821777,-0.24098396074124426,-0.2840489809249882,-10.673545593154802,0.939490399734118,0.8793657508664215,-0.5795056475537677
1730865955.9341092,-2.1483964920043945,0.9394667744636536,-9.553539276123047,-0.24125712458525117,-0.2850093648521258,-10.670126169456532,0.9271627771891527,0.8533144496114856,-1.1852802676361673
1730865955.9841945,-2.121264934539795,0.9565346837043762,-9.586009979248047,-0.24157819352466806,-0.28595448586560535,-10.66677896779775,0.914108509886537,0.8262919982382714,-1.8237606724232436
1730865956.0340698,-2.039263963699341,0.9619608521461487,-9.645097732543945,-0.24195484724035599,-0.2868906201638947,-10.663508160176338,0.9506329525753646,0.7995971713920386,-0.07646677865887913
1730865956.0840585,-1.9312196969985962,0.9948458671569824,-9.719782829284668,-0.24239816989063806,-0.2878209233990333,-10.660314362687668,0.9385689775020488,0.7711625840704611,-0.6624779763084327
1730865956.1340225,-1.8107657432556152,1.0069457292556763,-9.799466133117676,-0.2429209579909124,-0.2887460462304273,-10.657195910057787,0.9259910020386731,0.7422239463190367,-1.2706425751853572
1730865956.184022,-1.7375962734222412,1.0039891004562378,-9.883305549621582,-0.24353585177359618,-0.28966474846579665,-10.654150228088374,0.9127490750583622,0.712434004214834,-1.908147054838723
1730865956.2339506,-1.6901278495788574,0.9899908900260925,-9.963652610778809,-0.24425372597403416,-0.2905743560928517,-10.651175128451285,0.9555440266783705,0.6831237160810169,-0.07718238924673058
1730865956.2840056,-1.6511867046356201,1.0167818069458008,-10.022025108337402,-0.2450826248561377,-0.29147103395103746,-10.64826992506171,0.9434304347219876,0.6517038962175198,-0.6648034741388766
1730865956.3338845,-1.626352071762085,1.0566904544830322,-10.058816909790039,-0.2460272272363213,-0.2923500596880232,-10.645436264787635,0.9612273542053339,0.6211685923133476,-0.044386003464217866
1730865956.3839247,-1.6089198589324951,1.1275053024291992,-10.08283519744873,-0.24708866713751637,-0.2932063115926622,-10.642678585742235,0.949261827191178,0.588406740916651,-0.6292561643005893
1730865956.433835,-1.548673152923584,1.161179542541504,-10.08017635345459,-0.24826454019243427,-0.2940349758034177,-10.640004200294722,0.9678100446460656,0.5564680974258399,-0.047342871002843234
1730865956.4838657,-1.5168516635894775,1.1840696334838867,-10.051786422729492,-0.2495489216972545,-0.29483225311871164,-10.637423040014466,0.9737330931484758,0.5234998192059874,-0.0037781128396875557
1730865956.533793,-1.4813148975372314,1.1318827867507935,-9.987784385681152,-0.2509323338282136,-0.2955957655478622,-10.634947066745774,0.9622234021167184,0.4890071362978669,-0.5801209378465654
1730865956.5838237,-1.4938756227493286,1.0512200593948364,-9.905617713928223,-0.2524018009155438,-0.2963244266650908,-10.63258934937373,0.9498965228955146,0.45322017335115494,-1.1924235985075338
1730865956.6337664,-1.5253958702087402,0.9455553293228149,-9.82075309753418,-0.25394117867301846,-0.2970177153959206,-10.630362881519858,0.9370897937261088,0.41713287439895785,-1.8237152953427131
1730865956.683823,-1.6069215536117554,0.8572342395782471,-9.72569751739502,-0.2555318649691991,-0.29767454644177815,-10.628279301854114,0.9789286893962393,0.3817544456644672,-0.07719086761527351
1730865956.7337284,-1.7038275003433228,0.803158164024353,-9.66273307800293,-0.25715390815676137,-0.29829210829549413,-10.626347696187842,0.9671081673759295,0.3438788087768816,-0.6638071655505637
1730865956.7837372,-1.8090814352035522,0.8006678223609924,-9.635173797607422,-0.2587874188183926,-0.2988650478614594,-10.624573670660578,0.9837643928924884,0.3075431706144873,-0.035505738379101155
1730865956.8336544,-1.8927173614501953,0.8072279691696167,-9.634767532348633,-0.2604140686380332,-0.2993852311688227,-10.622958887561424,0.9883097463986059,0.270361304101334,0.013432420259061184
1730865956.883653,-1.9440635442733765,0.8602471947669983,-9.668485641479492,-0.26201839262868803,-0.2998420705878756,-10.621501141328833,0.9765898649326188,0.2304602583029504,-0.5682048305918915
1730865956.9336395,-1.9826576709747314,0.9154075980186462,-9.733817100524902,-0.26358866852243773,-0.30022327319815223,-10.62019492249999,0.9642048214491363,0.18978504709558905,-1.1767838476583223
1730865956.9837236,-1.9989776611328125,0.9727869033813477,-9.810914993286133,-0.26511731479176437,-0.30051584379041874,-10.61903237492204,0.9915750796171103,6.7098976391995775,-0.05691491317501559
1730865957.033659,-1.9968469142913818,1.0430967807769775,-9.891023635864258,-0.2666008823289992,-0.3007071595836155,-10.618004501444144,0.9796847320718962,6.792929857160649,-0.6392254471923086
1730865957.083661,-1.9078164100646973,1.1033395528793335,-9.982389450073242,-0.2680396605988123,-0.3007859853089533,-10.617102432813853,0.9670058346208668,6.876007881634426,-1.2539205201554107
1730865957.1336153,-1.9078164100646973,1.1033395528793335,-9.982389450073242,-0.2694368752561247,-0.30074331520010356,-10.61631855150941,0.9957420186432628,6.756110010943848,-0.052818789842366175
1730865957.1336153,-1.811535358428955,1.1505705118179321,-10.037453651428223,-0.27079764904200776,-0.3005728875403291,-10.615647236121404,0.9956711717145743,6.75654458437138,-0.056250444738815825
1730865957.1835968,-1.811535358428955,1.1505705118179321,-10.037453651428223,-0.2721279861083179,-0.30027137146332705,-10.615085169485184,0.9836224664252449,6.828008894774613,-0.6366791659684162
1730865957.1835968,-1.684177279472351,1.158101201057434,-10.068291664123535,-0.2734338508502316,-0.29983835981685814,-10.614631380963065,0.9835531608947501,6.828406688670109,-0.6400005570628338
1730865957.2335598,-1.684177279472351,1.158101201057434,-10.068291664123535,-0.27472029331782377,-0.299276211060846,-10.614287154945686,0.9708077067973439,6.899229908211839,-1.247641309731947
1730865957.2335598,-1.607757568359375,1.1402833461761475,-10.083259582519531,-0.2759906775064382,-0.29858975224950585,-10.61405584396654,0.9707280462179292,6.8996587395357984,-1.2514203358274572
1730865957.2836456,-1.5794684886932373,1.0847864151000977,-10.054425239562988,-0.2772461292056251,-0.29778584215623705,-10.613942590996736,0.9572962715459706,6.96973867787265,-1.8854552452174318
1730865957.3335211,-1.6266781091690063,1.0333889722824097,-10.00820255279541,-0.27848526631114406,-0.2968727255115197,-10.613953891898626,1.0030179736563283,6.714472631176572,0.02897989682392986
1730865957.3835816,-1.7076492309570312,0.985153317451477,-9.948284149169922,-0.2797044023699201,-0.29585920862962367,-10.614096917303094,1.0059609590515504,6.692565563402622,0.016622381341948097
1730865957.4335127,-1.7534598112106323,0.9991579055786133,-9.872818946838379,-0.2808983507650391,-0.29475388733438324,-10.614378622017531,0.9928628251164093,6.745900707630382,-0.5967278885929876
1730865957.4836228,-1.761965274810791,1.019677996635437,-9.80775260925293,-0.2820614654055039,-0.29356471813680773,-10.614804763664779,0.9790057877665508,6.798709512817189,-1.2391715325800818
1730865957.5335631,-1.7332777976989746,1.0601274967193604,-9.740081787109375,-0.2831883652551968,-0.2922990505774767,-10.615378965410127,0.9645226716443525,6.850486881707569,-1.9044355000967952
1730865957.5835302,-1.7332777976989746,1.0601274967193604,-9.740081787109375,-0.28427414454617717,-0.290963955783031,-10.61610198160833,0.9492792089484717,6.9017169676594605,-2.5985810870492645
1730865957.5835302,-1.7360866069793701,1.0578792095184326,-9.706241607666016,-0.28531428829985517,-0.2895665448989644,-10.616971329055296,0.9492007681849626,6.901972702900497,-2.6021383242139997
1730865957.633568,-1.7360866069793701,1.0578792095184326,-9.706241607666016,-0.28630459422560506,-0.28811408891924034,-10.617981286285787,1.0090127392411292,6.645017708700672,-0.055970086237240285
1730865957.633568,-1.7078824043273926,1.0534155368804932,-9.675688743591309,-0.2872411552113918,-0.28661397946151795,-10.619123086186443,1.0089371495258324,6.64522665672796,-0.05940398199494311
1730865957.683474,-1.7233083248138428,1.0290294885635376,-9.678693771362305,-0.28812030250108034,-0.2850736241473495,-10.620385161566634,0.9954784541563824,6.681088743229821,-0.6677464222759192
1730865957.733404,-1.7296462059020996,1.0342074632644653,-9.693284034729004,-0.28893854657187645,-0.2835002908497414,-10.62175345005114,1.0140720519284903,6.605740513476812,0.00870739540213188
1730865957.7834828,-1.7782323360443115,1.0552161931991577,-9.738544464111328,-0.28969266431781754,-0.2819009725118934,-10.623211860448798,1.0003080426113804,6.636012734205379,-0.6077286331802162
1730865957.833414,-1.8271551132202148,1.1032934188842773,-9.756502151489258,-0.29038000721002166,-0.28028243705078515,-10.624742942502744,0.9858579519682159,6.665499876988881,-1.2489864482193413
1730865957.8834038,-1.8970963954925537,1.1459044218063354,-9.80887222290039,-0.2909990127122149,-0.27865153482697713,-10.626328650757163,0.9706486118891217,6.6943537293483475,-1.9182488758527507
1730865957.933347,-1.9201931953430176,1.1988476514816284,-9.833016395568848,-0.2915498059006244,-0.2770156737514147,-10.627951081467973,1.0161284830329047,6.565439549014311,-0.07560538902059281
1730865957.983341,-1.93211030960083,1.2210768461227417,-9.855461120605469,-0.2920346644814715,-0.2753833030014927,-10.629593118086117,1.0024199185228972,6.585056312640422,-0.6756910666609727
1730865958.0332818,-1.8952357769012451,1.1917591094970703,-9.863088607788086,-0.2924581261755521,-0.2737642095459474,-10.631238906698504,1.020425916926212,6.544851290791574,-0.03751261188376595
1730865958.0833924,-1.8420480489730835,1.143674373626709,-9.883455276489258,-0.29282665090351745,-0.27216941215866464,-10.632874131849531,1.0067525756351414,6.560210449213693,-0.6328422169549378
1730865958.1332362,-1.7618697881698608,1.129366159439087,-9.8805570602417,-0.29314787965186095,-0.27061063367544913,-10.634486153961362,1.0234057595583053,6.528713869051223,-0.03023524346782231
1730865958.1833367,-1.694387674331665,1.115341305732727,-9.905627250671387,-0.2934296285349753,-0.26909964489759025,-10.63606406872912,1.0097824771857726,6.540380269478223,-0.6189675082781259
1730865958.2332082,-1.6100733280181885,1.094612956047058,-9.931663513183594,-0.29367881161873033,-0.26764776304241167,-10.637598751754847,0.9955948294047989,6.551237262137601,-1.2269925201280303
1730865958.2832747,-1.5418109893798828,1.0807050466537476,-9.972339630126953,-0.2939004449680748,-0.26626551229532747,-10.639082976004865,1.0268433178681096,6.511335977882422,-0.04568255092166729
1730865958.3331993,-1.499990701675415,1.0729589462280273,-10.015694618225098,-0.294096834109139,-0.2649623635278412,-10.640511633243035,1.030792900656675,6.498925926821367,0.026156160419681312
1730865958.383289,-1.4388550519943237,1.0682786703109741,-10.016959190368652,-0.29426703157469664,-0.2637465573825909,-10.641881979334409,1.017274241610423,6.50452474370942,-0.550891477305235
1730865958.4332135,-1.4234479665756226,1.0768064260482788,-10.036955833435059,-0.2944065737796847,-0.2626250376074991,-10.643193749639206,1.0325573958745549,6.48832657599689,-0.014987418434894309
1730865958.4831707,-1.4432932138442993,1.1116139888763428,-10.005428314208984,-0.29450750479586846,-0.261603520697094,-10.644449044748104,1.0189825342611551,6.491589547145153,-0.5905215175773603
1730865958.5341525,-1.5085569620132446,1.1484904289245605,-9.962830543518066,-0.2945588124547849,-0.2606867491701206,-10.645651961409907,1.0044641046916978,6.494229168655596,-1.201341681750617
1730865958.5831633,-1.5824558734893799,1.1850098371505737,-9.87814998626709,-0.29454735064690474,-0.2598789130451121,-10.646807927642596,1.034519037149113,6.470916490123415,-0.028964003114160614
1730865958.6341417,-1.7026240825653076,1.1562330722808838,-9.797066688537598,-0.29445914164069464,-0.25918406769697944,-10.647922743860208,1.020462695418523,6.471057981701216,-0.6158917866331263
1730865958.6841717,-1.8434793949127197,1.0966352224349976,-9.701960563659668,-0.294280926852853,-0.25860625283507693,-10.649001449289864,1.006000285234114,6.470541932346835,-1.215623550011068
1730865958.7341104,-1.9647480249404907,1.0394996404647827,-9.635427474975586,-0.2940018610921948,-0.25814912962654146,-10.650047200356228,0.9908837342839604,6.46938861184691,-1.8386474046896342
1730865958.7841659,-2.0362460613250732,0.9632866978645325,-9.589738845825195,-0.29361509917385414,-0.2578152640602686,-10.651060361344157,1.0360093953475684,6.451782561564863,-0.04743266783006779
1730865958.8331368,-2.0580220222473145,0.9396564364433289,-9.595098495483398,-0.2931188860432351,-0.2576053513787296,-10.65203799455715,1.0223073953016804,6.448714535955184,-0.6081823659903809
1730865958.8841126,-2.0580220222473145,0.9396564364433289,-9.595098495483398,-0.2925169042676938,-0.2575176669980068,-10.652973851085225,1.0376010814554606,6.435973445865414,-0.022221949907962717
1730865958.8841126,-2.0260348320007324,0.9472898840904236,-9.640368461608887,-0.2918179307813384,-0.25754793809334126,-10.653858804586234,1.0375241409032365,6.4359482732088145,-0.025353448110595683
1730865958.9341154,-1.9630955457687378,1.0134309530258179,-9.721592903137207,-0.29103499650046694,-0.25768964557592333,-10.65468162864213,1.0234726194224224,6.431149135080997,-0.59577395005565
1730865958.984118,-1.895137906074524,1.0919886827468872,-9.815616607666016,-0.2901842040780764,-0.25793470454245304,-10.6554301006795,1.0402169230877651,6.41919214486429,0.040684526448422326
1730865959.0339692,-1.8222602605819702,1.1473636627197266,-9.905097961425781,-0.2892833551744154,-0.258274451773363,-10.656092352620767,1.0257363640048853,6.4128449524386255,-0.5431456214852141
1730865959.0840662,-1.7455374002456665,1.1361726522445679,-9.956357955932617,-0.28835056717051855,-0.2587006353317647,-10.656658209074866,1.0406289515185547,6.402956210856788,-0.01544797037430459
1730865959.1339521,-1.700907826423645,1.1482601165771484,-10.000899314880371,-0.2874030280796346,-0.2592060067720792,-10.657120220066002,1.0261503710011932,6.395242694300395,-0.5977151711739296
1730865959.1839936,-1.7207727432250977,1.1174755096435547,-10.020934104919434,-0.2864560718503918,-0.2597844287052943,-10.657474253095074,1.0108036792542838,6.386799576283674,-1.2126855583241578
1730865959.233999,-1.7523990869522095,1.134559988975525,-9.988039016723633,-0.2855228043812651,-0.260430709482039,-10.657719645951207,1.0410956830325384,6.384949290628329,-0.047771930170821
1730865959.2839696,-1.8286563158035278,1.1376848220825195,-9.950651168823242,-0.2846143473050381,-0.261140405719705,-10.657858911360334,1.0265195123638993,6.375586971425036,-0.6302702731765685
1730865959.3339097,-1.8731988668441772,1.1633003950119019,-9.883402824401855,-0.28374051801986266,-0.2619097422685209,-10.657897025473762,1.0433904920993786,6.370049012377215,-0.02239053596591728
1730865959.3839538,-1.87714421749115,1.2097761631011963,-9.829784393310547,-0.2829106066952479,-0.2627356953721077,-10.657840461237553,1.0458931430434553,6.361954387498685,0.017335508112251832
1730865959.43391,-1.8527741432189941,1.2444229125976562,-9.779115676879883,-0.28213386460365886,-0.26361623349464236,-10.657696174533918,1.0316580274187963,6.351094945611153,-0.5524637112448321
1730865959.483997,-1.7791498899459839,1.2536530494689941,-9.761033058166504,-0.2814194740535345,-0.2645506254322916,-10.657470737213043,1.0163627791168004,6.339303277641912,-1.16313658719592
1730865959.5338774,-1.7433054447174072,1.2289862632751465,-9.7857084274292,-0.2807760473425163,-0.2655395952456369,-10.65716979700235,1.046667043627967,6.332607953489869,-0.032652223073361346
1730865959.583923,-1.7001326084136963,1.2023404836654663,-9.813427925109863,-0.2802109278920697,-0.2665851504743172,-10.656797983133748,1.0320621865222894,6.319740398095147,-0.6166477405287473
1730865959.6338441,-1.7001326084136963,1.2023404836654663,-9.813427925109863,-0.2797296208692513,-0.2676901509297695,-10.65635917324141,1.0488261542094395,6.304872279248801,-0.007397341054969576
1730865959.6338441,-1.658395528793335,1.1724835634231567,-9.855494499206543,-0.27933549760265514,-0.2688578435372849,-10.655856865192249,1.0487199429548957,6.304768063352014,-0.011650441117567651
1730865959.6838272,-1.589672565460205,1.1396898031234741,-9.88569164276123,-0.2790296335331138,-0.2700914562655309,-10.655294536529833,1.0534513694973957,6.284923774638701,0.115167177467043
1730865959.733828,-1.5081108808517456,1.1046420335769653,-9.922158241271973,-0.2788105117191998,-0.271393771401612,-10.654676041428772,1.0388267958682569,6.269839148807025,-0.47044919650400796
1730865959.7838185,-1.4295170307159424,1.1049782037734985,-9.95274543762207,-0.2786735021713847,-0.2727666907435279,-10.654006021064172,1.023448714494605,6.254016374498896,-1.0849538790857398
1730865959.833836,-1.4276865720748901,1.1359474658966064,-9.951932907104492,-0.2786103352667425,-0.2742109803593682,-10.6532902199119,1.0075994983181227,6.237741639149529,-1.7170917596657598
1730865959.8838398,-1.4848183393478394,1.1582427024841309,-9.916403770446777,-0.2786089773042379,-0.27572634862042805,-10.652535574199256,1.0506261880978478,6.24912953425196,-0.04042610410034332
1730865959.9337692,-1.5948827266693115,1.1681678295135498,-9.850994110107422,-0.278654249127985,-0.27731177239260957,-10.651749932626183,1.0536038106754353,6.2276701002243895,0.030043914923828213
1730865959.9839382,-1.7093874216079712,1.1369863748550415,-9.79179573059082,-0.2787291880474128,-0.2789657960264636,-10.650941397084217,1.0388956450089908,6.210136587992144,-0.5571396378354354
1730865960.0338023,-1.8193243741989136,1.1080282926559448,-9.737626075744629,-0.2788168126972871,-0.28068657410360837,-10.650117468526942,1.0541084648838464,6.211639822059648,-0.016871509992937402
1730865960.083812,-1.884267807006836,1.1029753684997559,-9.714607238769531,-0.27890184087849285,-0.28247166817121877,-10.649284266294938,1.039483504670084,6.193683873748541,-0.6015070123163426
1730865960.1337838,-1.9105286598205566,1.1115912199020386,-9.716594696044922,-0.27897197801117934,-0.284317833284668,-10.648446036003293,1.024185610958184,6.175049228336475,-1.2117904656009355
1730865960.1837988,-1.9257912635803223,1.116139531135559,-9.744019508361816,-0.27901857770903155,-0.28622099307473453,-10.647605056597413,1.055278548555821,6.1927974846619,-0.040163767008482995
1730865960.2337227,-1.9447674751281738,1.1083884239196777,-9.78177261352539,-0.2790367528993365,-0.28817636616598885,-10.646761936035716,1.040690697264822,6.174382487551376,-0.6228622455057102
1730865960.28374,-1.942165493965149,1.0875669717788696,-9.824285507202148,-0.2790251829819836,-0.2901785767704995,-10.64591617852921,1.0574320632719647,6.177153182473582,-0.01534072520647345
1730865960.3336928,-1.9253342151641846,1.0885087251663208,-9.844911575317383,-0.27898576352101223,-0.29222166214445044,-10.645066846603338,1.0429181685265396,6.1583025104362195,-0.5954220984364892
1730865960.383695,-1.8715403079986572,1.0781447887420654,-9.8873929977417,-0.2789230720507001,-0.2942990386659402,-10.644213155462307,1.0276985804723426,6.138707754824442,-1.202448131523427
1730865960.4336674,-1.8378441333770752,1.0401469469070435,-9.917705535888672,-0.27884361419955306,-0.29640347776834286,-10.643354952018118,1.0117891751760513,6.118383951640952,-1.8357902315178232
1730865960.48365,-1.7672381401062012,1.032460331916809,-9.951805114746094,-0.27875492631512616,-0.29852703061448627,-10.642493116968563,1.0605672879086936,6.156450420859094,-0.04778676662028629
1730865960.5337403,-1.7021394968032837,1.0370874404907227,-9.975760459899902,-0.27866463223732496,-0.30066092722958393,-10.641629890755182,1.0460140643799671,6.13708560530859,-0.6316115224004296
1730865960.5838394,-1.65043306350708,1.073177456855774,-10.0149564743042,-0.2785795093000657,-0.3027956322958267,-10.64076910592626,1.0649026373394217,6.116874084626394,-0.024900804095643825
1730865960.6337297,-1.6014059782028198,1.14634108543396,-10.020565032958984,-0.27850466765783644,-0.3049212042098496,-10.639916335308936,1.0506699192158648,6.096271828574125,-0.5999083428695939
1730865960.6836996,-1.5850491523742676,1.22859787940979,-9.987622261047363,-0.27844296880691294,-0.30702799313631995,-10.639078887017888,1.0690476785300902,6.074752423791981,-0.023503340007950707
1730865960.733647,-1.6096011400222778,1.2526041269302368,-9.945744514465332,-0.2783947792868419,-0.30910754004779506,-10.638265492696174,1.0547840016350098,6.05242440885983,-0.6042022852179433
1730865960.7837098,-1.665219783782959,1.2559261322021484,-9.857342720031738,-0.2783581642668693,-0.3111533130846451,-10.637485631501782,1.0398367568665017,6.029340339761245,-1.2109927231747142
1730865960.8336103,-1.7471556663513184,1.2027697563171387,-9.769553184509277,-0.27832955635507073,-0.31316094019491497,-10.63674855783997,1.0241898364709876,6.005469886353287,-1.8445314160268187
1730865960.8836133,-1.8258168697357178,1.1118991374969482,-9.667461395263672,-0.27830478038961043,-0.3151278338843402,-10.636062144846488,1.0720577473172122,5.980785073685818,-0.06201421111703584
1730865960.9335773,-1.8815194368362427,1.0185134410858154,-9.608986854553223,-0.2782801906706115,-0.3170522842907026,-10.635431730312057,1.0577468388389442,5.955297944551698,-0.6450350591192228
1730865960.9835758,-1.8734042644500732,0.954424262046814,-9.58102798461914,-0.2782535966558257,-0.3189322729704829,-10.634859231699703,1.0763215696287056,5.9289570202660755,-0.03394902692925909
1730865961.033538,-1.824157476425171,0.9195178747177124,-9.613903045654297,-0.2782246539116624,-0.320764403554774,-10.634342783350066,1.0621866853240851,5.902046881959978,-0.6127515626448274
1730865961.0836797,-1.7324042320251465,0.9404146075248718,-9.695297241210938,-0.27819455818661776,-0.3225432837681011,-10.633877045454625,1.047142860274324,5.8739323270418815,-1.2268564642315416
1730865961.133535,-1.6441199779510498,0.9858413338661194,-9.814929962158203,-0.27816514507628387,-0.3242615121090129,-10.633454196317281,1.0778713040718704,5.845462127585189,-0.05030464742583194
1730865961.1836119,-1.5686087608337402,1.074684739112854,-9.920032501220703,-0.27813770682592387,-0.32591025531711326,-10.633065440388197,1.0635605565802033,5.815928882465824,-0.6343497488087827
1730865961.2334654,-1.542607307434082,1.151999592781067,-10.003628730773926,-0.27811191349981235,-0.32748026660047874,-10.63270266800134,1.0788952168649821,5.785599489102606,-0.029405796101707155
1730865961.283573,-1.5542049407958984,1.2301385402679443,-10.041191101074219,-0.2780851722352576,-0.3289630928623927,-10.632359843826544,1.0645212626731206,5.754416601463391,-0.6134353299051859
1730865961.3333614,-1.6225168704986572,1.2406723499298096,-10.066964149475098,-0.27805261452689756,-0.33035215380218913,-10.632033853276777,1.0495128604826953,5.722540052518302,-1.2215811194461053
1730865961.3834236,-1.7253564596176147,1.2138913869857788,-10.027120590209961,-0.278007742925975,-0.33164336557980156,-10.631724747031974,1.0338053384534214,5.689825293596176,-1.856475679955068
1730865961.4334004,-1.8377536535263062,1.1672279834747314,-9.96264362335205,-0.27794362156430785,-0.3328351197083372,-10.631435403578696,1.0783229733284585,5.656052686248731,-0.06213182814625037
1730865961.4834306,-1.8791604042053223,1.118408203125,-9.90227222442627,-0.2778542903338564,-0.33392772069496773,-10.631170684276903,1.0637705454828292,5.6215700787723595,-0.6475997109377467
1730865961.5334456,-1.8703622817993164,1.049418330192566,-9.87574577331543,-0.2777358832252227,-0.3349225589790471,-10.630936355092143,1.0798605307072353,5.586096857785511,-0.02673598125425899
1730865961.5833516,-1.7904411554336548,0.9940613508224487,-9.860814094543457,-0.27758699289828864,-0.33582121969350665,-10.630738163550017,1.0814438279612035,5.549833594967121,0.02389022563966245
1730865961.6333067,-1.6464136838912964,0.9628157019615173,-9.86606502532959,-0.27740812106001767,-0.3366246608051008,-10.63058128671451,1.0669305682175618,5.512909196902227,-0.5578259962066738
1730865961.683353,-1.5627888441085815,0.9482263922691345,-9.848698616027832,-0.277200385296167,-0.3373326248261215,-10.630470106120152,1.0517114192459205,5.475109631319144,-1.166625488881894
1730865961.7333167,-1.562458872795105,0.9341247081756592,-9.841981887817383,-0.2769640596468075,-0.33794337704401306,-10.630408132394734,1.0357723908236238,5.436400519079575,-1.8030854647019479
1730865961.783527,-1.5797141790390015,0.9555282592773438,-9.840194702148438,-0.27669769317378234,-0.33845372607689855,-10.630397952837045,1.0793940930132984,5.396122032930029,-0.0659724939081162
1730865961.8334281,-1.656130313873291,1.0449622869491577,-9.828990936279297,-0.2763981090992721,-0.3388593351771545,-10.630441199398128,1.0648061037808543,5.3561477506679545,-0.6466510898049405
1730865961.883437,-1.7408385276794434,1.130565881729126,-9.812065124511719,-0.27606109584450345,-0.3391554535016925,-10.630538536926554,1.049364735454244,5.314877564660655,-1.2603884714547684
1730865961.933372,-1.8037424087524414,1.1793253421783447,-9.80042552947998,-0.2756824761457974,-0.33933799392338426,-10.63068962446807,1.0332805251098511,5.272883391165639,-1.8988416306255986
1730865961.9834905,-1.8037424087524414,1.1793253421783447,-9.80042552947998,-0.2752591551187575,-0.3394045231022066,-10.630893063251317,1.0798081891557876,5.229509442399952,-0.05990532789494224
1730865961.9834905,-1.8700915575027466,1.1633671522140503,-9.820185661315918,-0.27478979786687296,-0.3393547437955494,-10.63114642450682,1.079710787301677,5.229217741619378,-0.06376648767784379
1730865962.0333447,-1.9134926795959473,1.100498914718628,-9.80792236328125,-0.2742751923711185,-0.33919038183768835,-10.631446405118231,1.0650103089673901,5.185790216687168,-0.6462169294306069
1730865962.083408,-1.9817607402801514,0.9967160820960999,-9.799867630004883,-0.2737185837440019,-0.3389145666051949,-10.63178901336369,1.0823588426815627,5.140857002970598,0.034907307711773805
1730865962.1332574,-2.009242534637451,0.8998187184333801,-9.762540817260742,-0.2731260377124452,-0.33853079314611834,-10.63216963426203,1.0673579894788785,5.095569885183384,-0.5586191340362716
1730865962.1833553,-2.0146119594573975,0.8520634174346924,-9.732019424438477,-0.27250665655415296,-0.33804170196712247,-10.632582920994192,1.080486938230375,5.0486300391019245,-0.02688639174629194
1730865962.2332752,-2.0146119594573975,0.8520634174346924,-9.732019424438477,-0.2718724851478501,-0.3374481214038083,-10.633022594727377,1.0813634665654117,5.001192269109703,0.010749061027693265
1730865962.2332752,-1.9653370380401611,0.8578269481658936,-9.763777732849121,-0.2712380817193346,-0.33674870773785026,-10.633481362838882,1.0812975254100752,5.000979663751817,0.008146707652197405
1730865962.2832632,-1.8760980367660522,0.9307280778884888,-9.811843872070312,-0.27061975655188086,-0.33594018975573114,-10.633951157289813,1.0662476273053243,4.953125585239056,-0.5857367372581738
1730865962.3331802,-1.7786275148391724,1.0387083292007446,-9.875558853149414,-0.2700344391603873,-0.3350181227939672,-10.634423710537,1.050520878519129,4.904421590249361,-1.2062469187215985
1730865962.3832405,-1.7020138502120972,1.1243410110473633,-9.926508903503418,-0.2694982909598725,-0.33397807859880313,-10.634891325676637,1.03403660460768,4.854626330967035,-1.8566229047452911
1730865962.4332123,-1.7020138502120972,1.1243410110473633,-9.926508903503418,-0.2690254387400587,-0.3328169373889201,-10.635347607442549,1.0804892079333888,4.803654055575199,-0.029104789754796065
1730865962.4332123,-1.6601722240447998,1.1989141702651978,-9.964488983154297,-0.26862720018106623,-0.33153379709280817,-10.635787923691677,1.0804229075703669,4.803428578609797,-0.03172177026562224
1730865962.4832904,-1.6342209577560425,1.2611186504364014,-9.975395202636719,-0.2683117975492928,-0.3301304667228498,-10.636209584229354,1.0650729745699061,4.751960080534857,-0.6376652902888583
1730865962.5331616,-1.622498869895935,1.2675787210464478,-9.962905883789062,-0.2680842847353132,-0.32861183245217995,-10.636611862672918,1.082397016017304,4.699563990939285,0.02553428190468761
1730865962.5832772,-1.639206886291504,1.2061913013458252,-9.937066078186035,-0.267946600377585,-0.3269859928155033,-10.636995840569991,1.0668563318129385,4.646295009407893,-0.588944884858276
1730865962.6331246,-1.6860491037368774,1.1449236869812012,-9.880510330200195,-0.2678978737900308,-0.32526380958158413,-10.637363987941574,1.0507746235390534,4.592648065937584,-1.2249246650473544
1730865962.6834114,-1.7109571695327759,1.0855287313461304,-9.83228588104248,-0.26793502514626716,-0.3234579130645385,-10.637719506005181,1.080831860668159,4.536938283722417,-0.0681314386180665
1730865962.7330935,-1.709753394126892,1.0741137266159058,-9.788422584533691,-0.2680534772551152,-0.3215815870132322,-10.638065558153528,1.0651481389896684,4.480102357401728,-0.6900935429816727
1730865962.7832174,-1.6724727153778076,1.0828081369400024,-9.795247077941895,-0.26824766855071713,-0.3196479477847263,-10.638404599889386,1.0827979034623678,4.424728254514317,-0.031978065085968524
1730865962.8330767,-1.6206578016281128,1.0981696844100952,-9.837224006652832,-0.26851116725292457,-0.31766958678725554,-10.63873805710303,1.067501355234883,4.366654085031857,-0.6406490951458801
1730865962.8830912,-1.5427521467208862,1.13316011428833,-9.84755802154541,-0.268836397835203,-0.31565859086607273,-10.639066459131373,1.0839672798151212,4.309957623673952,-0.018911268838104095
1730865962.933006,-1.5629488229751587,1.1618047952651978,-9.863628387451172,-0.26921418922808316,-0.31362677530954713,-10.63938982933023,1.0691583269075673,4.2514520778085725,-0.6094940527810813
1730865962.9830446,-1.629149079322815,1.215698003768921,-9.845447540283203,-0.26963358400185244,-0.31158602599622104,-10.639708013830214,1.0535989740238931,4.191866320863123,-1.229739375446374
1730865963.0340078,-1.6967530250549316,1.2590280771255493,-9.838217735290527,-0.2700822925438734,-0.309548705641656,-10.640020798346692,1.0370450080143194,4.130340442479546,-1.8893290836860872
1730865963.084012,-1.7413307428359985,1.2730633020401,-9.82457160949707,-0.27054766285341253,-0.3075280521341355,-10.640327849367676,1.083992685969548,4.069110823041165,-0.05540577348934478
1730865963.1339903,-1.7646113634109497,1.2583575248718262,-9.81188678741455,-0.2710176741590215,-0.3055383949530237,-10.640628584869,1.0694160200618672,4.007806914549236,-0.6371682829212353
1730865963.1839724,-1.7786732912063599,1.2127102613449097,-9.802888870239258,-0.27148161676743804,-0.30359501246575465,-10.640922048815192,1.0856493736936697,3.9451927672927636,-0.01962865248330249
1730865963.233917,-1.8130278587341309,1.14822256565094,-9.807696342468262,-0.2719304481771959,-0.3017135919014118,-10.641206827482671,1.071136686781374,3.8822858032428984,-0.5992701175244293
1730865963.2838762,-1.809478998184204,1.100132703781128,-9.810400009155273,-0.2723569724734406,-0.2999094067104512,-10.64148105024909,1.055922644260802,3.8185162757622306,-1.2063585933628482
1730865963.333905,-1.797210454940796,1.1131501197814941,-9.829365730285645,-0.272755887740324,-0.2981964887536181,-10.641742492637688,1.0864559459693681,5.974486397294554,-0.03507732037883065
1730865963.383851,-1.797210454940796,1.1131501197814941,-9.829365730285645,-0.27312364680172324,-0.29658713223252914,-10.641988752522188,1.071907421071345,5.949152886252714,-0.6165347969445664
1730865963.383851,-1.7991148233413696,1.125964879989624,-9.836786270141602,-0.27345820108531727,-0.2950918213288925,-10.642217434437232,1.0718159403893757,5.948994971320886,-0.6201888698307262
1730865963.4338167,-1.7991148233413696,1.125964879989624,-9.836786270141602,-0.27375877264505133,-0.2937193817231827,-10.642426281859048,1.0894528361506985,5.960708348928236,0.04738216545357486
1730865963.4338167,-1.7826963663101196,1.1695894002914429,-9.845488548278809,-0.27402567116380394,-0.2924771927184854,-10.642613256971535,1.0893341051998606,5.960502005414608,0.042634978619941734
1730865963.4838102,-1.7767739295959473,1.2048052549362183,-9.856528282165527,-0.2742600838019015,-0.2913714931165034,-10.642776610202525,1.0746476676528403,5.935208574301655,-0.5441675786084363
1730865963.5337822,-1.8129676580429077,1.1983704566955566,-9.851751327514648,-0.2744638679193317,-0.29040778199835987,-10.642914958193234,1.0897734089116624,5.948251917948565,0.024842274317952658
1730865963.5838563,-1.865580439567566,1.1427628993988037,-9.82577133178711,-0.2746395283950086,-0.2895910686042107,-10.643027307997261,1.0750659511551706,5.923602738648406,-0.5624404848654114
1730865963.633715,-1.881205439567566,1.0834192037582397,-9.824111938476562,-0.2747904652591489,-0.2889256896376032,-10.643112950433208,1.0585312534346214,5.896344344646232,-1.22182181833895
1730865963.68373,-1.863053321838379,1.0553536415100098,-9.826824188232422,-0.2749212573618409,-0.28841475003659256,-10.643171289229953,1.0896837106772628,5.9355996217603995,-0.024350587519505328
1730865963.7337158,-1.8265241384506226,1.0528087615966797,-9.850543975830078,-0.2750376459453559,-0.288059560404086,-10.6432017707004,1.0743022414052783,5.910962650374183,-0.6383024058977333
1730865963.7837036,-1.7715882062911987,1.0776413679122925,-9.877630233764648,-0.2751461206057139,-0.28785940573025914,-10.643203994720565,1.0590442134648679,5.886895998564186,-1.246504431725377
1730865963.8336518,-1.7354477643966675,1.0973707437515259,-9.941924095153809,-0.27525325224595437,-0.28781171234807956,-10.643178004020486,1.0901176586459607,5.924024568905448,-0.04728473752697203
1730865963.8837056,-1.7354477643966675,1.0973707437515259,-9.941924095153809,-0.2753650266475785,-0.2879124428099171,-10.643124698202483,1.0752286561194844,5.9010384486809615,-0.6410171096354397
1730865963.8837056,-1.689695954322815,1.1317925453186035,-9.966397285461426,-0.275486389949401,-0.28815650277682353,-10.643046197007752,1.0751360251553523,5.9008965012938965,-0.6447083699110683
1730865963.9335935,-1.6389662027359009,1.1293141841888428,-9.971222877502441,-0.2756209494914831,-0.2885380904748804,-10.642945993336623,1.059753640971557,5.8774901901859,-1.257261416079602
1730865963.9836588,-1.6623183488845825,1.1505361795425415,-9.938908576965332,-0.275770682715062,-0.2890510019696708,-10.642828895021948,1.0919986008858484,5.914239573681367,0.0046631165572904275
1730865964.0335605,-1.685981035232544,1.114296793937683,-9.907242774963379,-0.27593581628325625,-0.2896888374262693,-10.64270074827876,1.0764672206597357,5.890998895829881,-0.612977504495211
1730865964.0836053,-1.7127622365951538,1.098321795463562,-9.828071594238281,-0.27611508868595785,-0.29044501821766,-10.64256789799217,1.0921336640320813,5.903046491116541,-0.0013013669812797744
1730865964.1335196,-1.7381293773651123,1.0863145589828491,-9.812661170959473,-0.27630626504802985,-0.2913126243954868,-10.64243645897845,1.077101554799541,5.880724186898737,-0.5979753645430455
1730865964.1835907,-1.7394286394119263,1.1070185899734497,-9.751754760742188,-0.2765066446975636,-0.29228423102625695,-10.642311597952078,1.0921033734330243,5.890554269338469,-0.010465021072413294
1730865964.2335656,-1.7783422470092773,1.099996566772461,-9.74980354309082,-0.27671345012143667,-0.2933519135179393,-10.642196995669646,1.0772264994451097,5.868530544719066,-0.5997335417484019
1730865964.2834716,-1.775434136390686,1.1180026531219482,-9.734968185424805,-0.2769241250555351,-0.2945073930958308,-10.642094547773235,1.0616290648229512,5.845730930964936,-1.216733640913866
1730865964.3334875,-1.7961090803146362,1.0978853702545166,-9.74190616607666,-0.27713657207287223,-0.29574219546601943,-10.64200431617602,1.0915723960084471,5.878537447236805,-0.02485843367047949
1730865964.3834748,-1.8024729490280151,1.096219539642334,-9.761283874511719,-0.2773493098211057,-0.29704773585944994,-10.641924700822663,1.0767985353744607,5.8570740298913515,-0.6073707961618178
1730865964.4334664,-1.8615046739578247,1.0873790979385376,-9.789366722106934,-0.2775616063460251,-0.29841531591302317,-10.641852782955558,1.0925062338357976,5.869755844490144,0.008064637476922307
1730865964.4834557,-1.8906596899032593,1.113863468170166,-9.796687126159668,-0.277773716036697,-0.2998361174812503,-10.641784780355373,1.0777925900749978,5.848473381512972,-0.5707819516345616
1730865964.533443,-1.8843986988067627,1.1354656219482422,-9.818350791931152,-0.2779871830617491,-0.3013013191682096,-10.641716495731778,1.0623837741715447,5.826438393971123,-1.176252653728986
1730865964.5834439,-1.8520234823226929,1.1645499467849731,-9.829914093017578,-0.27820494690096875,-0.30280237016070455,-10.64164367770439,1.0462511922250015,5.80360774398419,-1.8094476555700791
1730865964.6334517,-1.8085271120071411,1.176212191581726,-9.861815452575684,-0.2784310583654622,-0.3043313292069932,-10.641562322815588,1.0921910757834348,5.8562712593970705,-0.012806952902592235
1730865964.6834452,-1.7181299924850464,1.1627516746520996,-9.876137733459473,-0.2786700456433826,-0.3058811184362752,-10.64146896699848,1.0774052400062626,5.83531696925952,-0.5920219102757841
1730865964.7333987,-1.6924563646316528,1.1392431259155273,-9.905946731567383,-0.27892607170328676,-0.30744556135772194,-10.641360965516817,1.0932439724998972,5.846071881730519,0.01168715778368087
1730865964.7834475,-1.6710063219070435,1.1597439050674438,-9.915834426879883,-0.2792021411989577,-0.3090192196642731,-10.641236729333041,1.0788473508374652,5.825602014317869,-0.5516490661855743
1730865964.8333828,-1.6623401641845703,1.1732234954833984,-9.910504341125488,-0.2794996365300837,-0.31059724058224014,-10.64109586734531,1.0629453680851606,5.803218286762541,-1.1731379831614221
1730865964.8834436,-1.664509892463684,1.188157320022583,-9.918722152709961,-0.279818211654274,-0.31217537764162984,-10.640939182966942,1.0473592932950937,5.7814781454746225,-1.7815828902688824
1730865964.933397,-1.664509892463684,1.188157320022583,-9.918722152709961,-0.2801559020936776,-0.31375010651711976,-10.640768558077472,1.0932809062503006,5.827023527967946,-0.010976767031159268
1730865964.933397,-1.6572636365890503,1.1673773527145386,-9.908549308776855,-0.2805093326351935,-0.3153186664745553,-10.64058680233671,1.0932133046778512,5.8269269620709245,-0.01361533502549332
1730865964.9834638,-1.6591688394546509,1.130024790763855,-9.90406608581543,-0.280873933347079,-0.31687891681386365,-10.640397471851164,1.0784361575595753,5.805924248474131,-0.5899801991522206
1730865965.0333724,-1.6591688394546509,1.130024790763855,-9.90406608581543,-0.2812441339335605,-0.3184290185101962,-10.640204656554058,1.0963084704008124,5.816430215712055,0.07760427566287707
1730865965.0333724,-1.6374982595443726,1.1253414154052734,-9.897210121154785,-0.28161353898620733,-0.3199671142207819,-10.640012787653475,1.0962184875902428,5.8163010511252,0.07409560171103816
1730865965.0834715,-1.6542800664901733,1.1127800941467285,-9.890379905700684,-0.2819750632218106,-0.3214911574541019,-10.63982647836228,1.0985726100264774,5.805888825457205,0.1417709788800179
1730865965.1333466,-1.6624219417572021,1.1077226400375366,-9.87459659576416,-0.2823210738394235,-0.32299884383533495,-10.639650360082339,1.083366781345114,5.783974932233854,-0.4505080051056948
1730865965.183495,-1.6803877353668213,1.1172305345535278,-9.872438430786133,-0.2826436281106396,-0.3244875718042368,-10.639488899920991,1.067388637335689,5.761156860760004,-1.0719589060581936
1730865965.2333581,-1.6642932891845703,1.1443051099777222,-9.851571083068848,-0.2829347605706053,-0.3259544907231692,-10.639346222845768,1.0951688937834987,5.783756198265206,-0.016702599635685697
1730865965.2835011,-1.6642932891845703,1.1443051099777222,-9.851571083068848,-0.2831866805969876,-0.32739668391615706,-10.639225955055148,1.0798535456143716,5.76150574524943,-0.6117369603702654
1730865965.2835011,-1.676072597503662,1.1518168449401855,-9.866317749023438,-0.28339185540741263,-0.3288113900801285,-10.639131122993907,1.079739522159927,5.761340856733724,-0.6161637012260973
1730865965.3333554,-1.688549518585205,1.173169493675232,-9.839729309082031,-0.28354309856586807,-0.33019616098175764,-10.639064146163737,1.0976553869667802,5.770781398087028,0.05746458748891091
1730865965.3832452,-1.7406500577926636,1.1670211553573608,-9.839791297912598,-0.28363377470000767,-0.3315489773403253,-10.639026849647951,1.0821704223727515,5.7480806044404975,-0.5431561596009624
1730865965.4331973,-1.7592371702194214,1.1434805393218994,-9.807424545288086,-0.2836581441197846,-0.3328683064157554,-10.639020396017102,1.0967565944105322,5.758099231969729,-0.004579818822475032
1730865965.4832108,-1.7919294834136963,1.1425443887710571,-9.786770820617676,-0.28361176760603063,-0.3341530123877069,-10.639045136804398,1.081345046806479,5.7353827890230535,-0.6018654750258694
1730865965.5332005,-1.8289555311203003,1.1339582204818726,-9.734051704406738,-0.2834918546752482,-0.335402170856023,-10.639100392767098,1.0651851284002476,5.711770394146319,-1.2272826846644933
1730865965.5832748,-1.8289555311203003,1.1339582204818726,-9.734051704406738,-0.28329751528653846,-0.33661492478255906,-10.639184182557733,1.0966357146637211,5.739065943191048,-0.033837912995923966
1730865965.5832748,-1.906752586364746,1.1017496585845947,-9.722082138061523,-0.283029932735255,-0.3377903887468588,-10.639293027842566,1.0965471474840325,5.738932956056505,-0.0372652884376172
1730865965.6332035,-1.9440362453460693,1.0649313926696777,-9.711519241333008,-0.2826925574120915,-0.3389274883044688,-10.63942194549809,1.0814164152141568,5.716319074683093,-0.6224244798133002
1730865965.6832056,-1.954621434211731,1.0486096143722534,-9.747272491455078,-0.2822913633336379,-0.3400246793449929,-10.639564604666926,1.0974996769443357,5.724108036354707,0.05518430185829776
1730865965.733109,-1.9300211668014526,1.0519165992736816,-9.785317420959473,-0.2818349329971987,-0.3410796755320893,-10.639713660325008,1.0817298845141603,5.700330254115992,-0.5511735493472601
1730865965.7832572,-1.8917458057403564,1.0662336349487305,-9.863221168518066,-0.28133413515057415,-0.3420893733924801,-10.639861340865332,1.0658193266999527,5.676544222602878,-1.162483164263406
1730865965.8331983,-1.8261340856552124,1.0515388250350952,-9.917787551879883,-0.28080142217684634,-0.34304998996667846,-10.640000258782196,1.0489717952034883,5.6515490990303,-1.8094000102424785
1730865965.8832433,-1.8261340856552124,1.0515388250350952,-9.917787551879883,-0.2802499444091853,-0.3439572480204778,-10.640124230182904,1.0933499724285178,5.702041727453864,-0.027681353547271678
1730865965.8832433,-1.7325536012649536,1.0188775062561035,-9.973783493041992,-0.27969270630330484,-0.34480646673802345,-10.640228833110797,1.0932457794480754,5.70188413320383,-0.031654296381356695
1730865965.9331484,-1.6438817977905273,1.0134690999984741,-9.997303009033203,-0.2791417559320822,-0.34559253908853727,-10.640311692637455,1.077931690302705,5.67881613223914,-0.6155854336805023
1730865965.9832146,-1.6068297624588013,1.0392526388168335,-10.010113716125488,-0.2786072724919573,-0.346309898320744,-10.640372658093572,1.0939602059190112,5.688453038884592,0.05920120404449564
1730865966.0331244,-1.5930547714233398,1.1113393306732178,-9.983500480651855,-0.27809676402450617,-0.3469526957872813,-10.640413830108189,1.078252657969389,5.664612164559471,-0.5374306151807274
1730865966.0831685,-1.6152253150939941,1.2080261707305908,-9.939994812011719,-0.27761474211427506,-0.34751538500903456,-10.640439274295467,1.0909027319318794,5.669721280008009,0.009324113303145523
1730865966.1329873,-1.6628810167312622,1.2549554109573364,-9.904179573059082,-0.2771629466637816,-0.3479936479171881,-10.640454418317344,1.0753390138249201,5.645795313403056,-0.5791913037711608
1730865966.183079,-1.7237470149993896,1.2498868703842163,-9.840123176574707,-0.27674099608343006,-0.3483852711583957,-10.640465280603914,1.0589334379219708,5.620769705219214,-1.1999615777509094
1730865966.232996,-1.7540323734283447,1.1959750652313232,-9.810408592224121,-0.2763472720367201,-0.34869049770240246,-10.64047767994742,1.0882961824761075,5.648932398817284,-0.02023476452427618
1730865966.282932,-1.7761001586914062,1.1373709440231323,-9.77637004852295,-0.2759797635554032,-0.3489116797042273,-10.640496543557598,1.0901566005432979,5.636221755137217,0.04995823194213078
1730865966.3329697,-1.7739691734313965,1.080772876739502,-9.734260559082031,-0.27563664311999997,-0.3490524482290425,-10.64052539551302,1.0747669430510174,5.611755154498001,-0.5306246896598054
1730865966.3838212,-1.7863746881484985,1.0190056562423706,-9.72805404663086,-0.2753165377417316,-0.34911674724857134,-10.640566015498061,1.0891538358254271,5.620872449120247,-0.0014488824913185053
1730865966.4338863,-1.7863746881484985,1.0190056562423706,-9.72805404663086,-0.2750186075798589,-0.34910799592017394,-10.640618275594733,1.0737824830237883,5.5962126172705835,-0.5832543731467363
1730865966.4338863,-1.763444423675537,0.9958710074424744,-9.702902793884277,-0.2747425251808161,-0.3490285594859387,-10.640680185209423,1.07338934256351,5.595584897573052,-0.598142234562778
1730865966.4838243,-1.7485802173614502,0.980993390083313,-9.72205638885498,-0.27448833998285804,-0.34887955320524433,-10.640748057473152,1.0578869008631355,5.570940395729636,-1.1855020981743507
1730865966.5338418,-1.7739217281341553,0.9647471904754639,-9.749009132385254,-0.27425626839850176,-0.3486608125681555,-10.640816758299362,1.0909834637505278,5.603185625734192,0.0343349403512905
1730865966.5839176,-1.776928424835205,1.0090956687927246,-9.792386054992676,-0.2740465875744906,-0.3483709510356095,-10.64088013507958,1.0755302932537742,5.5782610846332075,-0.5536940391039225
1730865966.6337254,-1.7719019651412964,1.0469619035720825,-9.85647201538086,-0.2738596816651096,-0.34800763915394634,-10.64093165278867,1.0912265765128968,5.5852113939914165,0.01229603804238254
1730865966.6840096,-1.742720127105713,1.0767850875854492,-9.918389320373535,-0.2736960600131439,-0.34756815389177653,-10.640965171234896,1.0758105193181793,5.559953221521676,-0.5768573585922081
1730865966.733826,-1.7308605909347534,1.0838773250579834,-9.983128547668457,-0.2735562117255977,-0.3470499845109825,-10.640975776067242,1.0920703264676617,5.573992433225638,0.004633458521125133
1730865966.7839155,-1.7244657278060913,1.1198302507400513,-10.016728401184082,-0.2734403698989554,-0.34645127872655695,-10.640960531911269,1.0768703277985137,5.548980768443312,-0.5790858794537442
1730865966.8337839,-1.7244657278060913,1.1198302507400513,-10.016728401184082,-0.27334833891390015,-0.3457711296969448,-10.640918983443733,1.0932241352484404,5.556125400642701,0.0066375068420643
1730865966.8337839,-1.6922295093536377,1.1217204332351685,-10.01152515411377,-0.2732794168892372,-0.3450097489310586,-10.64085326602876,1.0930862285496603,5.555893205368616,0.0013177659297354393
1730865966.8839517,-1.6949405670166016,1.091368556022644,-10.003122329711914,-0.27323232132148645,-0.34416846779046684,-10.6407678551818,1.0781301028826689,5.530856733913453,-0.5757401871039136
1730865966.9338105,-1.6541407108306885,1.079060673713684,-9.937772750854492,-0.27320507407935496,-0.3432495327932283,-10.64066908380617,1.0960339675957078,5.538090870545811,0.07058811889640432
1730865966.9837117,-1.6971153020858765,1.0559735298156738,-9.882655143737793,-0.2731949103062635,-0.3422557764601145,-10.64056444489599,1.0808955670794858,5.512476208508807,-0.5156152754979898
1730865967.0336804,-1.7184339761734009,1.0200108289718628,-9.829143524169922,-0.2731983557256058,-0.34119026310997413,-10.640461696525822,1.096108995528025,5.52361918174208,0.01512628486827822
1730865967.0837424,-1.7796587944030762,0.9819168448448181,-9.78043270111084,-0.2732115873466089,-0.34005591431004545,-10.640367952322338,1.0809066360304542,5.497817465274747,-0.5765592478263555
1730865967.1336548,-1.7767276763916016,0.9837790727615356,-9.749464988708496,-0.27323097688237996,-0.3388551283684881,-10.640288940679435,1.0652564541203233,5.471564269173269,-1.1856901708320433
1730865967.1838517,-1.7815088033676147,1.03798508644104,-9.75819206237793,-0.2732535404633082,-0.33758958653916776,-10.640228529693095,1.0969744870405387,5.502433161191185,-0.02123200650139911
1730865967.2337184,-1.7619465589523315,1.1153185367584229,-9.77953052520752,-0.2732770980691817,-0.33626050229839927,-10.640188612429323,1.0820739072520809,5.476983774011847,-0.6044899644986519
1730865967.283684,-1.7306779623031616,1.2181533575057983,-9.794438362121582,-0.2733001491722524,-0.3348693686491443,-10.640169353750615,1.066593424919575,5.450869753503778,-1.2103050763442806
1730865967.3336196,-1.73723566532135,1.2622041702270508,-9.825244903564453,-0.27332159060732186,-0.3334189764129221,-10.640169638100025,1.0503869950037348,5.423846653652101,-1.8443912423552933
1730865967.3837023,-1.7728885412216187,1.2536513805389404,-9.841352462768555,-0.2733404914340999,-0.3319142708799492,-10.640187555630915,1.0987443308116718,5.481645835656829,-0.02281146987156983
1730865967.4336104,-1.7957485914230347,1.2329119443893433,-9.852080345153809,-0.2733561334318233,-0.3303626460077768,-10.640220841480314,1.0841230206565953,5.456848544865105,-0.597763095300023
1730865967.4835632,-1.8130037784576416,1.187165379524231,-9.869086265563965,-0.2733682746108075,-0.32877362251556685,-10.640267212351173,1.1011863361738474,5.464252126422875,0.012829747164034804
1730865967.5335834,-1.8130037784576416,1.187165379524231,-9.869086265563965,-0.27337740117090076,-0.3271581875698599,-10.64032459322803,1.086645194711822,5.439266154115438,-0.5611910034478551
1730865967.5335834,-1.8403993844985962,1.1168467998504639,-9.861696243286133,-0.2733848447770524,-0.32552808600697025,-10.640391241828162,1.0865293724848608,5.439068531781679,-0.5657616783340981
1730865967.5836523,-1.8365612030029297,1.1099493503570557,-9.855596542358398,-0.2733928167999282,-0.32389515311697403,-10.64046575170325,1.1056703723260222,5.445246243340596,0.07528451127634082
1730865967.6335382,-1.8015090227127075,1.1125519275665283,-9.858222961425781,-0.2734043657397274,-0.32227073984134175,-10.640546968665163,1.1073285761763945,5.427366989718698,0.0724108581782842
1730865967.683565,-1.7416749000549316,1.0947171449661255,-9.853496551513672,-0.2734231092399507,-0.32066537021340524,-10.640633907256614,1.0926503981790952,5.401396130173129,-0.5127564601174495
1730865967.7336876,-1.7416749000549316,1.0947171449661255,-9.853496551513672,-0.27345270635237356,-0.3190886128367992,-10.64072570117749,1.0771716808344314,5.374422696142482,-1.1291812476460596
1730865967.7336876,-1.707353949546814,1.0896289348602295,-9.870576858520508,-0.27349631729327756,-0.3175490179020083,-10.640821585423538,1.0770773198919135,5.374259457800278,-1.1329371857797683
1730865967.7836096,-1.6856294870376587,1.0882185697555542,-9.87708854675293,-0.27355624244447685,-0.3160540868244396,-10.64092093907272,1.0611837422431698,5.346958147030524,-1.7652593200563071
1730865967.833548,-1.6856732368469238,1.1131680011749268,-9.89499282836914,-0.2736336974637168,-0.3146103093937959,-10.641023394867617,1.108040629959484,5.400179017767715,0.0056429460104911525
1730865967.8835711,-1.6620116233825684,1.1451038122177124,-9.884458541870117,-0.2737286899068301,-0.3132233216276633,-10.641128953344658,1.093128100051621,5.374250178033486,-0.590117886419068
1730865967.9334772,-1.6606212854385376,1.1801331043243408,-9.870457649230957,-0.27383999553531335,-0.3118982246117048,-10.641238008630458,1.1097020048161126,5.382176429593948,-0.0028627530601851355
1730865967.9834714,-1.653437852859497,1.1797866821289062,-9.851520538330078,-0.27396519023124655,-0.3106399727147597,-10.641351226520662,1.0949324057961645,5.35631936911919,-0.5949598851736054
1730865968.0334425,-1.6758476495742798,1.1824043989181519,-9.821070671081543,-0.27410075304540915,-0.3094536419344741,-10.641469298535437,1.0794748234037463,5.329681513517551,-1.2137780542933974
1730865968.0835173,-1.7237505912780762,1.1566532850265503,-9.81063461303711,-0.27424232562608475,-0.30834446398450643,-10.64159264442125,1.0633052448515083,5.302226124580749,-1.86026260829548
1730865968.1334534,-1.7996176481246948,1.1426687240600586,-9.782665252685547,-0.2743852204461324,-0.30731764940594625,-10.641721135939282,1.1111550034542936,5.362002980384183,-0.034518711771067835
1730865968.1835039,-1.8628112077713013,1.1092867851257324,-9.77823543548584,-0.27452518646853036,-0.3063780842953783,-10.641853889351507,1.0965994893305557,5.3370747311463385,-0.6188873861565329
1730865968.2334023,-1.8774480819702148,1.0935637950897217,-9.79169750213623,-0.2746592358693042,-0.30552998308667456,-10.64198916669338,1.1131305472407786,5.347901276868657,0.0014621991327309208
1730865968.2834685,-1.8534674644470215,1.108945369720459,-9.822172164916992,-0.27478617793743954,-0.3047766019348622,-10.642124464795923,1.115543858278639,5.335107620736291,0.051155010253541355
1730865968.3333826,-1.7973651885986328,1.1064001321792603,-9.855999946594238,-0.2749066012740817,-0.3041201356098637,-10.642256831024962,1.101154970545312,5.3100654266825265,-0.5279238283794814
1730865968.3833833,-1.749116063117981,1.0848197937011719,-9.900351524353027,-0.2750223343817385,-0.3035617723975537,-10.642383337093499,1.0862447792594425,5.284549171718679,-1.126932113816727
1730865968.4334073,-1.6887575387954712,1.0780417919158936,-9.944061279296875,-0.2751356336632509,-0.3031017266954322,-10.642501615154579,1.0704333356530344,5.257912111062275,-1.7611186327946975
1730865968.4834383,-1.660573959350586,1.0784896612167358,-9.943114280700684,-0.27524836550382004,-0.3027391975429265,-10.64261034904516,1.1154049479957644,5.308850781724839,-0.02234819870127984
1730865968.5333052,-1.6808581352233887,1.0688133239746094,-9.9386625289917,-0.27536140913802415,-0.3024723569694704,-10.64270955301087,1.118127769846776,5.295869193588584,0.05724734237250182
1730865968.5834394,-1.6925055980682373,1.0484857559204102,-9.91047477722168,-0.27547446482693005,-0.30229838135259984,-10.64280052469237,1.103814959588245,5.271050609172252,-0.5180895492353886
1730865968.6333168,-1.7340891361236572,1.0040960311889648,-9.874168395996094,-0.2755862674622841,-0.3022134152099737,-10.642885516457127,1.1184814992735888,5.280066942227132,0.011396833801300951
1730865968.6832635,-1.7513102293014526,0.9668171405792236,-9.831408500671387,-0.27569502252884137,-0.30221238656107874,-10.642967228040265,1.104222175925056,5.255449426719426,-0.5624059399438057
1730865968.7332773,-1.7555934190750122,0.9132131338119507,-9.825553894042969,-0.275798858265382,-0.30228870055721535,-10.643048246810077,1.0892203475852777,5.229985368818136,-1.1649523689482306
1730865968.783267,-1.7511773109436035,0.8991687297821045,-9.808719635009766,-0.27589612562679355,-0.3024339198790176,-10.643130610141815,1.1192032574466304,5.258212504358165,-0.014357554364721227
1730865968.833155,-1.7669599056243896,0.9138646125793457,-9.811017036437988,-0.27598550764902346,-0.30263760374795257,-10.643215585727111,1.1048825419723183,5.233710657860829,-0.5897840616084827
1730865968.8833268,-1.7647291421890259,0.9623916149139404,-9.817171096801758,-0.27606605022749414,-0.30288749554351235,-10.643303633585646,1.0898512728707725,5.208417197207642,-1.1926410797140168
1730865968.9331322,-1.774051547050476,0.9942019581794739,-9.836055755615234,-0.2761371961569832,-0.30317009953429136,-10.643394505451477,1.120753849348523,5.237271406821462,-0.013983633868677237
1730865968.9830694,-1.7563841342926025,1.0308074951171875,-9.850176811218262,-0.27619879460075314,-0.3034714581474936,-10.643487458962587,1.1064738506251497,5.2130165037608505,-0.587264253443856
1730865969.0331802,-1.7418923377990723,1.052126407623291,-9.863423347473145,-0.276251025965249,-0.30377788579159626,-10.643581527584457,1.0913301000436808,5.187711334321657,-1.1940985341646468
1730865969.0830772,-1.7634446620941162,1.1164103746414185,-9.859697341918945,-0.27629425779756056,-0.3040765759888431,-10.643675758068376,1.0756661223606776,5.1619297085228295,-1.8207154908387233
1730865969.1331055,-1.7613576650619507,1.1499154567718506,-9.857751846313477,-0.276328958951704,-0.3043561600410539,-10.643769342545708,1.1220540133046784,5.213606551464622,-0.026798611570305816
1730865969.1830616,-1.7668864727020264,1.152148723602295,-9.854114532470703,-0.2763557287320756,-0.30460721282593994,-10.643861635292335,1.1258492241749052,5.198486176720123,0.051628585942734596
1730865969.2330203,-1.7597706317901611,1.146106243133545,-9.849930763244629,-0.2763753407709636,-0.30482251924847903,-10.643952106625365,1.1114806498601266,5.173959366302286,-0.525999957127531
1730865969.2830868,-1.7832831144332886,1.1196283102035522,-9.831854820251465,-0.2763887483554878,-0.30499698954713306,-10.644040270292312,1.1265946119874417,5.17192973440796,0.004178660427802943
1730865969.3329446,-1.7911642789840698,1.0579688549041748,-9.824539184570312,-0.2763971202981339,-0.30512727548472823,-10.644125573960464,1.1122701393113121,5.147053069121526,-0.5728451985050831
1730865969.3830001,-1.793712854385376,1.0126854181289673,-9.833224296569824,-0.2764019336945334,-0.30521114639111047,-10.644207282128871,1.129766978232494,5.151213821360127,-0.003407813211519898
1730865969.432937,-1.7517714500427246,1.0202561616897583,-9.849518775939941,-0.27640500339252294,-0.30524678391267734,-10.64428445140758,1.1154769993112281,5.126087335029821,-0.5826564012768886
1730865969.4829564,-1.7155946493148804,1.0792349576950073,-9.881749153137207,-0.27640828974525955,-0.30523235994412334,-10.644356066793067,1.1327630844073713,5.1319917426490385,-0.007013920955289705
1730865969.532836,-1.6973638534545898,1.1483683586120605,-9.885079383850098,-0.2764134963575598,-0.3051661864425702,-10.644421298347917,1.1185574344425993,5.106810114503118,-0.5856515968840794
1730865969.5827827,-1.6990910768508911,1.1914793252944946,-9.90003490447998,-0.27642167966455794,-0.3050473375019305,-10.644479751551277,1.1036304181476164,5.08081101083681,-1.1921387027522328
1730865969.6338701,-1.7048535346984863,1.1952179670333862,-9.894710540771484,-0.2764330776733587,-0.3048763273587376,-10.644531606650796,1.08757863082482,5.053311828568944,-1.8427995517245064
1730865969.6838133,-1.7279154062271118,1.140415906906128,-9.889106750488281,-0.2764471816995788,-0.3046554169947959,-10.644577629914496,1.0713432647159067,5.02592203014939,-2.4994932426880827
1730865969.7338028,-1.727390170097351,1.0967813730239868,-9.850716590881348,-0.27646295714339,-0.3043883555018235,-10.644619051730206,1.1350312450237392,5.114237310488343,-0.05389115253703242
1730865969.7837937,-1.7448590993881226,1.0502889156341553,-9.854978561401367,-0.2764790948814928,-0.30407969813341384,-10.644657313427464,1.1207478285355175,5.0901344212200526,-0.6344360272663528
1730865969.8337355,-1.7205950021743774,1.0371060371398926,-9.837763786315918,-0.2764941944925129,-0.3037340498864814,-10.644693787105897,1.1383754365319543,5.104239994409713,-0.019128700774914374
1730865969.8838043,-1.7044275999069214,1.004769206047058,-9.838481903076172,-0.27650680673966505,-0.30335549551374463,-10.64472958873609,1.124034277155747,5.080158067443072,-0.6035091934127778
1730865969.9337204,-1.6762114763259888,1.0011883974075317,-9.852025985717773,-0.2765153078645738,-0.30294725659026644,-10.644765506057187,1.1090673783880716,5.055427466167121,-1.2118342462872433
1730865969.9836867,-1.6579885482788086,0.9812003374099731,-9.872231483459473,-0.2765176715484632,-0.3025115120290047,-10.644802050807003,1.0933732605368773,5.0298804060628735,-1.8482325779774902
1730865970.0337353,-1.6788157224655151,1.0039273500442505,-9.869159698486328,-0.2765112792126617,-0.3020493530764665,-10.644839623406764,1.1409961416419308,5.082507187200433,-0.06226794758458978
1730865970.0836577,-1.7302862405776978,0.9892690777778625,-9.866273880004883,-0.27649295360836135,-0.3015608756769195,-10.644878668436807,1.1266780933994143,5.058870342021487,-0.6462310002172116
1730865970.1336935,-1.7561147212982178,1.0005706548690796,-9.84821891784668,-0.27645931881918456,-0.30104535735422744,-10.64491970276803,1.143273758217209,5.070182471123155,-0.035003704633207705
1730865970.1836424,-1.7367112636566162,1.0267400741577148,-9.844929695129395,-0.27640729206522074,-0.3005014619356266,-10.64496322030606,1.1434983660900286,5.059676917899859,0.010100138746511974
1730865970.2335315,-1.7292639017105103,1.0034098625183105,-9.847564697265625,-0.2763343546960001,-0.29992747482961557,-10.645009567484683,1.1291505327079046,5.035953200300153,-0.5717050847305069
1730865970.283596,-1.7082710266113281,1.0320013761520386,-9.856908798217773,-0.27623849940252443,-0.2993215173078321,-10.645058891731818,1.1140970271351907,5.0114534496505545,-1.1807373342469347
1730865970.3336132,-1.7297741174697876,1.0265306234359741,-9.872505187988281,-0.27611804907449816,-0.29868169779183057,-10.645111201130417,1.0982327906760991,4.986012862088212,-1.8212402631093996
1730865970.3835676,-1.73284912109375,1.026072382926941,-9.879054069519043,-0.2759715658934609,-0.29800623942555127,-10.645166501754765,1.139324213782762,5.038775667237891,-0.07069940216501573
1730865970.4335475,-1.7507237195968628,1.0402652025222778,-9.899032592773438,-0.2757979107233635,-0.2972935781652767,-10.645224956876472,1.1245966073817992,5.015304980592105,-0.6589771171078115
1730865970.4835615,-1.7441734075546265,1.067531943321228,-9.886956214904785,-0.27559636339491617,-0.29654246053650685,-10.645287019200401,1.109207518730727,4.991136017820391,-1.2727596673236201
1730865970.5335526,-1.7646288871765137,1.0706843137741089,-9.89332103729248,-0.27536670872986496,-0.29575211581545735,-10.645353486111764,1.1412480927470519,5.0243912921500185,-0.07066431718371784
1730865970.583584,-1.8092890977859497,1.0768513679504395,-9.85693645477295,-0.2751093277038573,-0.29492244097321574,-10.645425437043944,1.1267488404857133,5.001560414227354,-0.6505283196370406
1730865970.6335008,-1.8451093435287476,1.0780317783355713,-9.835271835327148,-0.27482541789590864,-0.29405408664205146,-10.64550403206554,1.1113292332509281,4.977624953790673,-1.2663258595085425
1730865970.6835158,-1.8778879642486572,1.068177342414856,-9.794242858886719,-0.27451734142163653,-0.29314843459172985,-10.645590181741092,1.143425867654808,5.010339076098635,-0.06409347566858434
1730865970.7335863,-1.8792659044265747,1.0619271993637085,-9.761591911315918,-0.27418892946937934,-0.2922074953417412,-10.64568414959425,1.1287206609757603,4.987427240793169,-0.6532339105721474
1730865970.7835293,-1.8781741857528687,1.0342954397201538,-9.767451286315918,-0.27384557945866506,-0.2912337320271329,-10.645785197172291,1.1464819060157556,4.9974816919603935,-0.04378213014283694
1730865970.8334446,-1.8452465534210205,1.0448501110076904,-9.792409896850586,-0.273494089915864,-0.2902298372394546,-10.64589143971012,1.1524012004759385,4.986705606920457,0.007679320107415132
1730865970.8834481,-1.7909832000732422,1.0523160696029663,-9.833215713500977,-0.2731422370237666,-0.2891985619796264,-10.646000041783331,1.1380408023418878,4.963674214698111,-0.5779169887990271
1730865970.9334626,-1.7380390167236328,1.0403714179992676,-9.891928672790527,-0.27279811470003856,-0.2881426723082564,-10.64610771842213,1.1229604073188397,4.939861377861831,-1.191658974119701
1730865970.9834626,-1.6841381788253784,1.027842402458191,-9.939653396606445,-0.27246933815639773,-0.28706494221082396,-10.64621141087629,1.1072086764672413,4.915346238129054,-1.8315976111137924
1730865971.0333781,-1.598343849182129,1.0370818376541138,-9.97574520111084,-0.27216223895339897,-0.28596808216994263,-10.646308979843528,1.1577337721562226,4.966572801040845,-0.07665477255007098
1730865971.083417,-1.5712602138519287,1.0332560539245605,-9.993497848510742,-0.271881112069974,-0.2848546688289703,-10.646399744966583,1.1435019276678362,4.943930377970587,-0.6654933571030687
1730865971.133399,-1.550557255744934,1.039259433746338,-9.944525718688965,-0.27162764137837436,-0.283727145353751,-10.646484713445231,1.160998715307805,4.955161566881334,-0.04424558307085885
1730865971.1834455,-1.5575945377349854,1.0153611898422241,-9.915091514587402,-0.2714006913051889,-0.2825878378720887,-10.646566380251134,1.1467685036969804,4.932525488286593,-0.6345921637303528
1730865971.233443,-1.6128383874893188,0.9890211224555969,-9.859123229980469,-0.2711965242875305,-0.281438885588581,-10.646648149448339,1.1319204861212138,4.909279802383015,-1.2490507455488948
1730865971.283348,-1.700724482536316,0.9786924719810486,-9.800239562988281,-0.27100944652697556,-0.2802820506415238,-10.646733581197683,1.1163690149689585,4.885291265480509,-1.891191331097196
1730865971.3333108,-1.7688379287719727,1.0146944522857666,-9.755945205688477,-0.2708328476144678,-0.27911854779066214,-10.646825618629146,1.162392493472759,4.939744256537507,-0.07538598201718966
1730865971.3833656,-1.8208271265029907,1.02140212059021,-9.763900756835938,-0.27066038613490867,-0.27794909678964386,-10.646925943329288,1.1658001375986986,4.931950764286334,0.004478700989018359
1730865971.433279,-1.8217395544052124,1.0340009927749634,-9.765320777893066,-0.27048694628811987,-0.27677417762426315,-10.647034668884983,1.1516407369771677,4.909865935140145,-0.5824513501060703
1730865971.48329,-1.782911777496338,1.0537012815475464,-9.80487060546875,-0.27030908983253443,-0.27559430032982546,-10.647150441934713,1.1665754148113672,4.915891028036773,-0.0432884841539289
1730865971.5332751,-1.7525897026062012,1.0612386465072632,-9.85537052154541,-0.2701249350527485,-0.2744102160536423,-10.647270858936492,1.152356009997487,4.893664060963784,-0.6335087921784175
1730865971.5832372,-1.7406247854232788,1.1116029024124146,-9.87990665435791,-0.2699336711319189,-0.27322312075211896,-10.647393078933659,1.1374188548198096,4.870687860066668,-1.2521112579063238
1730865971.633259,-1.770524501800537,1.115897536277771,-9.90289306640625,-0.2697350943787955,-0.2720348997585547,-10.647514445949767,1.121797712752909,4.84701821575795,-1.897712098860796
1730865971.683197,-1.7900440692901611,1.1545110940933228,-9.899785995483398,-0.2695294425058702,-0.2708483846722888,-10.647632921072994,1.1686092947969782,4.899986984934063,-0.07301590912307598
1730865971.7331789,-1.8505797386169434,1.163799524307251,-9.896068572998047,-0.2693175474650471,-0.2696675498103228,-10.647747256692854,1.1718297967579752,4.8920134227689624,0.001712360301360863
1730865971.783353,-1.8653908967971802,1.1624170541763306,-9.862640380859375,-0.2691011748530234,-0.2684976055809149,-10.647856937082604,1.1576433347099557,4.870215777797433,-0.588128818371983
1730865971.8332534,-1.84821355342865,1.119704008102417,-9.858514785766602,-0.2688833279734679,-0.26734490789576026,-10.647961940555868,1.1428010010492016,4.847775197871066,-1.2038942225122928
1730865971.8832345,-1.8270213603973389,1.114829421043396,-9.805334091186523,-0.26866826211728656,-0.26621661682143827,-10.648062407159113,1.1273939795953172,4.824827266981647,-1.841839249819911
1730865971.9334147,-1.793975830078125,1.0453251600265503,-9.822367668151855,-0.26846115396251313,-0.26512018305396806,-10.64815829213722,1.17259569745322,4.872886113773103,-0.08289749958923812
1730865971.9832606,-1.7209333181381226,1.0137131214141846,-9.828447341918945,-0.26826755050020656,-0.26406275146027236,-10.648249130883235,1.1584433307178408,4.851648983163037,-0.6713763661426995
1730865972.0332992,-1.6012029647827148,0.9719731211662292,-9.870986938476562,-0.26809260072852115,-0.2630505314558343,-10.648334066859594,1.1756496170922799,4.861213075047463,-0.049545793864432024
1730865972.0832047,-1.5673483610153198,0.9927900433540344,-9.874567985534668,-0.2679400527959932,-0.2620882956154559,-10.64841212588103,1.1616419532050546,4.840165841390398,-0.6336278307279615
1730865972.133241,-1.5617990493774414,1.0194441080093384,-9.915316581726074,-0.2678113454866342,-0.26117922173223773,-10.6484825646044,1.1780772163910656,4.847470193665398,-0.04826010734411462
1730865972.1831715,-1.576568603515625,1.0584110021591187,-9.886327743530273,-0.26770524333383716,-0.2603251424537932,-10.64854514607489,1.1639569377219134,4.826180297609004,-0.6388914352174629
1730865972.2332606,-1.631142258644104,1.0728533267974854,-9.91388988494873,-0.26761808789996405,-0.2595270409837957,-10.648600260938522,1.1490722152315218,4.8041002488295135,-1.260117340648251
1730865972.283102,-1.7173388004302979,1.079965353012085,-9.86382007598877,-0.2675445021497243,-0.2587855294766035,-10.648648878678227,1.1796472069490522,4.8313604551551,-0.06320749201381533
1730865972.3331964,-1.82231605052948,1.1077828407287598,-9.826631546020508,-0.26747845550566907,-0.2581011678583372,-10.64869231893229,1.1654078461530668,4.8101261346958655,-0.6584122150532769
1730865972.383157,-1.8533849716186523,1.1184059381484985,-9.800682067871094,-0.26741451182350584,-0.2574746762212034,-10.64873183096994,1.1834380763412577,4.817995998819014,-0.04294050336379702
1730865972.4330823,-1.8954871892929077,1.0949914455413818,-9.761144638061523,-0.267348879248007,-0.2569070827205139,-10.648768106465504,1.1693900531102093,4.796905077768023,-0.6336117843515341
1730865972.4830406,-1.8989217281341553,1.0262970924377441,-9.779446601867676,-0.2672799857474052,-0.2563996560115342,-10.648800912734,1.1547331782076866,4.775259958330769,-1.248413338703887
1730865972.5331557,-1.8536771535873413,1.0082930326461792,-9.78778076171875,-0.26720856954213074,-0.25595349952075913,-10.64882897054193,1.1391402431700044,4.752585318652194,-1.9010496179873375
1730865972.5831227,-1.783974289894104,1.004658818244934,-9.84261703491211,-0.2671372952822747,-0.2555690208537274,-10.648850142963799,1.186020123137999,4.801299658975552,-0.07301759623365382
1730865972.6330674,-1.783974289894104,1.004658818244934,-9.84261703491211,-0.26706998666742177,-0.25524562373692017,-10.64886186717288,1.1899233824159352,4.792145060529397,-0.0006034577555930534
1730865972.6330674,-1.7528783082962036,1.0574264526367188,-9.855023384094238,-0.2670108399556328,-0.2549817376963411,-10.64886160853954,1.1898108922040578,4.791976152623793,-0.005363285177942023
1730865972.6830595,-1.7219197750091553,1.080628514289856,-9.910914421081543,-0.26696388198593335,-0.254775134982157,-10.648847193478126,1.1949009879377017,4.780259362914283,0.09527641841831164
1730865972.7331333,-1.7219197750091553,1.080628514289856,-9.910914421081543,-0.26693259901821237,-0.2546233912819908,-10.648817106625916,1.180793774526627,4.759047162167896,-0.5026328474988767
1730865972.7331333,-1.704637885093689,1.1132997274398804,-9.919187545776367,-0.26691967342943484,-0.25452425916368043,-10.648770772443662,1.1806738959035126,4.758868455340072,-0.5077066808541665
1730865972.7830756,-1.6880874633789062,1.1303209066390991,-9.951221466064453,-0.266926846207036,-0.25447590280169186,-10.648708700542493,1.1661140694025223,4.737340588460817,-1.1231473927896103
1730865972.8330402,-1.6892642974853516,1.1353075504302979,-9.929433822631836,-0.26695484716214624,-0.2544770916209923,-10.648632515602905,1.1507102288062607,4.714914135388947,-1.772682606914759
1730865972.8830557,-1.6928538084030151,1.1137971878051758,-9.93874454498291,-0.2670033827823344,-0.25452730242202004,-10.64854491060705,1.1346796831391888,4.691910343129737,-2.4471231144799654
1730865972.9329422,-1.7044410705566406,1.0738990306854248,-9.894899368286133,-0.26707123674011873,-0.25462659353961187,-10.648449459472248,1.1947195488629438,4.759311001238406,-0.04110840479955782
1730865972.9829872,-1.7288248538970947,1.0470776557922363,-9.854463577270508,-0.2671564844236516,-0.25477523577322525,-10.648350252989603,1.1802232176620444,4.738425227326747,-0.6526875147724905
1730865973.0330038,-1.782965898513794,1.0143132209777832,-9.822835922241211,-0.26725682488447017,-0.25497323225412527,-10.648251378310226,1.1650240088604842,4.716854345767817,-1.2923470390622254
1730865973.082945,-1.8363450765609741,1.0109021663665771,-9.767317771911621,-0.26737007436257887,-0.2552198991805472,-10.64815634038794,1.1960077795015756,4.7460169613326775,-0.06503037618549062
1730865973.132889,-1.8869452476501465,0.9894759058952332,-9.760782241821289,-0.2674947930962902,-0.2555136058271189,-10.648067546131413,1.1816795226555017,4.7256173319975305,-0.6685587008565508
1730865973.1829495,-1.8473352193832397,1.0347927808761597,-9.739604949951172,-0.2676308321497234,-0.2558517095461297,-10.647985947319949,1.1666352521903425,4.704511687386398,-1.3006899968432042
1730865973.232936,-1.816389560699463,1.0465000867843628,-9.774761199951172,-0.26777947428073545,-0.2562307265027086,-10.647910938700996,1.1977781221095023,4.732785060455294,-0.06999010553529017
1730865973.2828844,-1.783855676651001,1.0769073963165283,-9.79489803314209,-0.26794306789986566,-0.2566467056485139,-10.647840555277543,1.2013480579759666,4.7244449575149945,0.013029983829164598
1730865973.3328242,-1.7646828889846802,1.053520679473877,-9.82564926147461,-0.26812442824820104,-0.2570956148731641,-10.647771907930581,1.1872099739982618,4.704160425346653,-0.5832430020207765
1730865973.3828576,-1.7351040840148926,1.0145779848098755,-9.854711532592773,-0.26832630189579354,-0.2575735042148525,-10.647701710907452,1.1725660286330428,4.683467220142153,-1.1991976575574563
1730865973.432912,-1.683071255683899,0.9749651551246643,-9.900102615356445,-0.26855092780687184,-0.2580763357449102,-10.64762679863483,1.1570959681436954,4.661911789545321,-1.8482844367371374
1730865973.4828544,-1.6453770399093628,0.9578630328178406,-9.910890579223633,-0.2687995920832795,-0.25859959970448554,-10.647544607861883,1.1410770281574734,4.639881027493858,-2.5188407330415323
1730865973.532847,-1.649688720703125,0.9565423130989075,-9.945751190185547,-0.26907220343668925,-0.25913798406491617,-10.647453569839044,1.1243471152976148,4.617149330152353,-3.2176364198914427
1730865973.5828483,-1.6442580223083496,0.9954084157943726,-9.940225601196289,-0.26936707883712574,-0.2596853045390076,-10.64735335293398,1.2019271249959487,4.701931663355276,-0.0628264932125588
1730865973.632834,-1.6689367294311523,1.0497392416000366,-9.937795639038086,-0.2696810314447986,-0.2602347829538729,-10.647244931539324,1.187878570977666,4.682490558334929,-0.6502922720740575
1730865973.682793,-1.6859419345855713,1.0834542512893677,-9.915569305419922,-0.2700096777017785,-0.26077962523727244,-10.647130459294035,1.2053547075881688,4.693311297707462,-0.018372454968214345
1730865973.7328548,-1.71327543258667,1.1262437105178833,-9.893120765686035,-0.27034786152884827,-0.2613136921327418,-10.647012967852591,1.1912784422805702,4.673791129084843,-0.6082387244294708
1730865973.782775,-1.7269731760025024,1.1472166776657104,-9.872698783874512,-0.2706901094822762,-0.2618320576899269,-10.646895968036754,1.1766929839472124,4.653847394044723,-1.2177282557959959
1730865973.8327966,-1.735066294670105,1.1401067972183228,-9.833118438720703,-0.27103102507648624,-0.26233135663621054,-10.646783024028151,1.2062925414458188,4.6747109337100845,-0.04246241820214037
1730865973.8827624,-1.717958927154541,1.1496965885162354,-9.815305709838867,-0.2713655395527167,-0.26280987299808306,-10.64667733230559,1.192260857789649,4.655188252897447,-0.6282153271631299
1730865973.9327734,-1.6673269271850586,1.18075430393219,-9.812365531921387,-0.27168893311173004,-0.26326745425049247,-10.646581362239182,1.2083946962998684,4.663353299677702,-0.021623669713241023
1730865973.9827108,-1.718985915184021,1.200554609298706,-9.816550254821777,-0.27199665478345103,-0.26370545642514487,-10.646496668522943,1.1943317394045632,4.643712127401413,-0.608260212502893
1730865974.032757,-1.777178168296814,1.1863377094268799,-9.796299934387207,-0.2722842675726524,-0.2641267582142678,-10.646423886888648,1.2098597197066008,4.651671678938661,-0.01960621506242482
1730865974.0837018,-1.8267006874084473,1.1075407266616821,-9.833602905273438,-0.2725478274111771,-0.264535604216199,-10.646362816387729,1.195530247357389,4.631613506507336,-0.6164915598366907
1730865974.1328225,-1.8129234313964844,1.0744457244873047,-9.833734512329102,-0.27278448608041717,-0.26493705746297813,-10.646312579999545,1.1810843069368984,4.611679510098287,-1.2164813073864613
1730865974.1827915,-1.7848941087722778,1.034195899963379,-9.854951858520508,-0.272992819925449,-0.26533619938790354,-10.64627188367683,1.1656617280818107,4.590674508764552,-1.8553265185624135
1730865974.2327878,-1.7069191932678223,1.0519814491271973,-9.866008758544922,-0.27317263011220244,-0.2657374579434445,-10.646239292990625,1.211046995164078,4.634965757262386,-0.05308170117872883
1730865974.2827125,-1.7330290079116821,1.0380792617797852,-9.891645431518555,-0.27332436069980326,-0.2661442905468781,-10.646213478676543,1.1969723304686846,4.615566577352885,-0.636151041711537
1730865974.333654,-1.723747968673706,1.0607243776321411,-9.90710735321045,-0.27344856211584356,-0.2665591718860506,-10.646193455262464,1.212734998426163,4.622229612239017,-0.029885603663761546
1730865974.383695,-1.6333900690078735,1.1029419898986816,-9.92292594909668,-0.27354560343519246,-0.26698377419197244,-10.646178804658385,1.1985675681750636,4.602586725129611,-0.6154820826275896
1730865974.4336932,-1.7185343503952026,1.0912126302719116,-9.885492324829102,-0.27361543531864463,-0.267419285986419,-10.646169801021781,1.1837348596671986,4.582301635833721,-1.2269226907269006
1730865974.4835937,-1.7632367610931396,1.0811116695404053,-9.884361267089844,-0.27365751800550714,-0.26786670354811193,-10.646167327759729,1.214111841403991,4.606598613262262,-0.04327389051691225
1730865974.533778,-1.7660847902297974,1.066494345664978,-9.817702293395996,-0.27367120685752455,-0.2683268939688067,-10.646172575754683,1.1997624129766942,4.586741122922103,-0.6346744151375974
1730865974.583637,-1.76335608959198,1.0730304718017578,-9.786660194396973,-0.27365626601812093,-0.2688004847941887,-10.646186583892607,1.21587269262372,4.593640873818547,-0.01925949585101697
1730865974.6336203,-1.755035638809204,1.0663394927978516,-9.755593299865723,-0.27361306151090037,-0.2692877699000472,-10.646209707637846,1.201671359774699,4.573846285395461,-0.6036111175732144
1730865974.683558,-1.7797462940216064,1.05051851272583,-9.727736473083496,-0.2735425107439443,-0.2697886768303597,-10.646241167958916,1.216873342879468,4.579230570565353,-0.019373596612517446
1730865974.7336075,-1.7905184030532837,1.0506978034973145,-9.733460426330566,-0.27344605122522336,-0.27030272559640645,-10.646278793370097,1.2025656734493069,4.5591345656691,-0.6069431822151687
1730865974.7834837,-1.7196898460388184,1.0897799730300903,-9.776664733886719,-0.27332563678903127,-0.270829013458378,-10.646319022692014,1.2172974939512533,4.56054448093559,-0.022169369861347352
1730865974.8335426,-1.7713710069656372,1.1019127368927002,-9.835098266601562,-0.2731835826854435,-0.27136636465165154,-10.6463572672261,1.202900146050007,4.5400226702148245,-0.6114736978234967
1730865974.8835092,-1.8028919696807861,1.1387075185775757,-9.852670669555664,-0.2730223905663605,-0.27191364560415976,-10.646388576896687,1.2157554504633634,4.540862526610944,-0.022536446811031643
1730865974.9336016,-1.8285831212997437,1.182466745376587,-9.922863006591797,-0.27284487348589603,-0.27247013622272603,-10.646408360280782,1.201288823688127,4.520041535853948,-0.6093116420981483
1730865974.9834633,-1.8077365159988403,1.2220063209533691,-9.935257911682129,-0.27265445231441826,-0.27303593250974756,-10.64641299939867,1.1861583740467512,4.498564754641132,-1.2219702997695239
1730865975.0335941,-1.8268399238586426,1.19771409034729,-9.958266258239746,-0.2724552729090961,-0.2736123075625331,-10.646400314231233,1.170306016610852,4.476348144314245,-1.8628823088231667
1730865975.0834959,-1.7553056478500366,1.1827597618103027,-9.942646980285645,-0.2722520666457477,-0.27420180614786605,-10.646369785219672,1.1538915919266157,4.453611646677693,-2.5256120249833955
