Timestamp,IMU_Linear_Acc_X,IMU_Linear_Acc_Y,IMU_Linear_Acc_Z,Filtered_X,Filtered_Y,Filtered_Z,Pose_X,Pose_Y,Pose_Z
1730865946.8840554,-1.6525182723999023,1.072100281715393,-9.886634826660156,-0.0004941178176420211,-0.000393936991067901,-0.06090279618859634,0.8822838248435984,3.832473257353535,0.8989995511121293
1730865946.9339588,-1.6460669040679932,1.1705397367477417,-9.888028144836426,-0.000715198438992586,-0.0006340396150118331,-0.08425857540921607,0.898799463467138,3.8328172014033286,0.8989989896969192
1730865946.9839773,-1.5448205471038818,1.3515266180038452,-9.916738510131836,-0.001000188129101328,-0.0009704040792964995,-0.11317902620634604,0.8989456385053409,3.8328670571376766,0.8989988824645171
1730865947.0338826,-1.4505513906478882,1.3764179944992065,-9.885746955871582,-0.0013582744280504814,-0.0014238356481908196,-0.14825067490781463,0.8995780619664034,3.8330694222695088,0.892985095970286
1730865947.083904,-1.4505513906478882,1.3764179944992065,-9.885746955871582,-0.001797211312439513,-0.0020175576347838276,-0.19002765889815676,0.9046634154966339,3.8347788920034285,0.8792299133871246
1730865947.083904,-1.483825922012329,1.3574954271316528,-9.83907413482666,-0.0023225407813822446,-0.0027773291604247996,-0.23902529210233542,0.9047883673872829,3.834820893552647,0.8788916993452077
1730865947.1338828,-1.5220105648040771,1.4168083667755127,-9.791072845458984,-0.002937526790797156,-0.0037308781699439443,-0.29571447970574194,0.9305430430017878,3.8434572765196586,0.8737583884729739
1730865947.1838188,-1.466209888458252,1.5062932968139648,-9.781386375427246,-0.003643581288619815,-0.0049073540318083555,-0.3605169680617162,0.956574183255936,3.852190089788609,0.8558951762264243
1730865947.2339377,-1.466209888458252,1.5062932968139648,-9.781386375427246,-0.004440589181225956,-0.006337185010568814,-0.43380154711251173,0.9825808112530177,3.8609039753228322,0.8370452983188067
1730865947.2339377,-1.6475468873977661,1.4503509998321533,-9.745635986328125,-0.0053271057221554625,-0.008051975376411807,-0.515881295919819,0.9827196520781775,3.8609504631866756,0.8369417194997442
1730865947.2838902,-1.7597566843032837,1.3032793998718262,-9.741059303283691,-0.006301096751590375,-0.010083794689440208,-0.6070117004639999,0.8902546551574877,3.8695711980733822,0.878776614863993
1730865947.3337905,-1.6816997528076172,1.2365984916687012,-9.753911018371582,-0.007361248192613811,-0.012463694449690092,-0.7073894803254237,0.8831159240083029,3.8781044403967484,0.8811905013240101
1730865947.3838024,-1.757475733757019,1.2633165121078491,-9.788309097290039,-0.008507851624316574,-0.015220038739445437,-0.8171521886408522,0.8818490999928376,3.886740494260944,0.8755451886243844
1730865947.4338114,-1.9410609006881714,1.2342725992202759,-9.715015411376953,-0.009743073355560279,-0.018377439500765647,-0.9363785298936262,0.8759964368546327,0.44022012922466025,0.8812160621449361
1730865947.4836771,-1.7980672121047974,1.2204742431640625,-9.816902160644531,-0.011071334882073075,-0.021956402300733202,-1.0650891387777905,0.8734143777055089,0.008937426977976561,0.8753221640190209
1730865947.5337312,-1.6201061010360718,1.2407430410385132,-9.861479759216309,-0.012499362428569792,-0.025973250236996204,-1.2032478879113166,0.8707767335719545,-0.4267630717668442,0.866530236210217
1730865947.5837328,-1.6417081356048584,1.2559638023376465,-9.932706832885742,-0.014035014418857506,-0.03044017789580568,-1.3507639661169009,0.8746429979613088,0.5887988574475147,0.8801103322148766
1730865947.6336718,-1.4783844947814941,1.2720919847488403,-9.962823867797852,-0.015685552368811265,-0.035365504661840665,-1.5074945065979315,0.8736631490579863,0.5016832355085465,0.8724617186481769
1730865947.6836586,-1.4127205610275269,1.249739170074463,-9.95790958404541,-0.01745625486117496,-0.040754002846580976,-1.6732473154160792,0.872649267278688,0.4151216901711541,0.8609032195773443
1730865947.7336457,-1.4345476627349854,1.2176520824432373,-9.960887908935547,-0.019349379152827785,-0.04660708003095222,-1.847783471493295,0.8714440512830307,0.7428341748766402,0.8783058279283181
1730865947.7836764,-1.6071974039077759,1.2252144813537598,-9.856568336486816,-0.02136380473834119,-0.05292275903491855,-2.0308197321914045,0.8701363416084209,0.7260539521677747,0.8682198480604402
1730865947.8337014,-1.532752275466919,1.1856809854507446,-9.923158645629883,-0.02349574730934258,-0.05969560671327787,-2.2220308029942943,0.8687570604988272,0.7089397066976306,0.8526509871358334
1730865947.8835726,-1.49844229221344,1.2116985321044922,-9.878271102905273,-0.025739760698096168,-0.06691674588706191,-2.421051778428697,0.8681077152203747,0.6919613448445954,0.8758598099425041
1730865947.9345996,-1.521494746208191,1.106750726699829,-9.946966171264648,-0.028089093184011208,-0.07457390376540857,-2.6274810387275283,0.8667821601166386,0.6742913483562739,0.862338706538861
1730865947.9846032,-1.521494746208191,1.106750726699829,-9.946966171264648,-0.030535657381040728,-0.08265133847973599,-2.840883544379261,0.8693513538311065,0.6567435014682478,0.8738698763150455
1730865947.9846032,-1.521235466003418,1.066617727279663,-9.89339542388916,-0.033070172596512994,-0.09112965034005382,-3.0607942609371044,0.8693505016955568,0.6566567704849874,0.87381240611168
1730865948.034629,-1.6524330377578735,0.9745575785636902,-9.893824577331543,-0.03568253938255323,-0.0999856346956968,-3.2867214004861345,0.8704479924108423,0.8208930256537719,0.8755554981853734
1730865948.0845356,-1.714928388595581,0.9513433575630188,-9.833707809448242,-0.03836255008259407,-0.1091921297363969,-3.518149403218583,0.8705046949652704,0.8207161978343548,0.8599734969039293
1730865948.1347377,-1.714928388595581,0.9513433575630188,-9.833707809448242,-0.04110088203012085,-0.11871788456858548,-3.7545418508082213,0.8704613399537569,0.8202482333160617,0.8349802975080675
1730865948.1347377,-1.6118273735046387,0.9223973155021667,-9.884674072265625,-0.043889718803635194,-0.12852771640530705,-3.9953445145617774,0.8704608919346171,0.8202453402294057,0.8348412480477958
1730865948.1846237,-1.6118273735046387,0.9223973155021667,-9.884674072265625,-0.046722519343094765,-0.13858295598961207,-4.239988710300569,0.8703097471067693,0.8194691642153383,0.8005009736590321
1730865948.1846237,-1.3661701679229736,0.9260615110397339,-9.857068061828613,-0.04959311741993677,-0.14884198345457036,-4.487894825479671,0.8703088289153726,0.8194649961260255,0.8003267778339461
1730865948.2345996,-1.3661701679229736,0.9260615110397339,-9.857068061828613,-0.05249442295230904,-0.1592608229266222,-4.738475623953742,0.8686506339150344,0.8183158679624285,0.8698410595969639
1730865948.2345996,-1.2212275266647339,0.8862243294715881,-9.932165145874023,-0.05541704113781268,-0.16979374783278356,-4.991139327327186,0.8686479959878013,0.8183093344258151,0.8697594840196471
1730865948.2835228,-1.0323896408081055,0.8774198889732361,-9.941996574401855,-0.058348107565550304,-0.18039374494402877,-5.245292815075283,0.8680449160807169,0.8167728304513143,0.8470027918800909
1730865948.3344536,-1.0323896408081055,0.8774198889732361,-9.941996574401855,-0.06127024191808045,-0.19101284501661053,-5.500344916721438,0.8689382814356592,0.8480384455253641,0.868690991213813
1730865948.3344536,-1.2495695352554321,0.9381879568099976,-9.924843788146973,-0.06416106216003384,-0.20160254973692057,-5.75570940580006,0.8689373575399415,0.8480457732658527,0.868608919075413
1730865948.3844686,-1.2495695352554321,0.9381879568099976,-9.924843788146973,-0.06699416191308466,-0.21211451613766955,-6.0108075515523645,0.8686284327253898,0.8495707473806371,0.8410922115589763
1730865948.3844686,-1.4342632293701172,1.0002256631851196,-9.9284086227417,-0.06974120031715,-0.2225013892584929,-6.265070413050537,0.8686267748352676,0.8495760754174418,0.8409443102541743
1730865948.4344435,-1.4342632293701172,1.0002256631851196,-9.9284086227417,-0.07237399386998475,-0.232717592070702,-6.517941042584907,0.8681439691855756,0.8505477647211803,0.7977964848562803
1730865948.4344435,-1.6491162776947021,1.1198151111602783,-9.88106918334961,-0.07486624717551307,-0.24272005837192467,-6.768876564841539,0.8681410405929371,0.8505512460135447,0.7975344402689524
1730865948.4846096,-1.6491162776947021,1.1198151111602783,-9.88106918334961,-0.07719506813621824,-0.2524690086873692,-7.017349996348003,0.8674697817022586,0.8509177243685917,0.7373337842775239
1730865948.4846096,-1.8150001764297485,1.2128596305847168,-9.911548614501953,-0.07934226538498182,-0.26192872691447255,-7.2628518720579445,0.8674657052000084,0.8509179889174642,0.7369675613611466
1730865948.5345068,-1.8150001764297485,1.2128596305847168,-9.911548614501953,-0.08129530052127766,-0.2710681751993727,-7.504891916964434,0.8666038080340612,0.8506332641523155,0.8648287775293538
1730865948.5345068,-1.8747748136520386,1.2866096496582031,-9.855307579040527,-0.08304781032364446,-0.2798613927559298,-7.743000699315527,0.8665994860482111,0.8506304843203081,0.8647145416488441
1730865948.5845046,-1.8747748136520386,1.2866096496582031,-9.855307579040527,-0.08459965153732996,-0.2882877169496676,-7.976730947078027,0.860427613656457,0.8496494615694062,0.8651269564043201
1730865948.5845046,-1.8972151279449463,1.2438414096832275,-9.890105247497559,-0.08595654682448978,-0.2963317672479982,-8.205658568058004,0.860417233470241,0.8496439845986153,0.8650190911566046
1730865948.6345894,-1.8972151279449463,1.2438414096832275,-9.890105247497559,-0.08712951665686242,-0.30398305057557085,-8.429383718184601,0.8577497629160834,0.8479108694339038,0.8278035020978353
1730865948.6345894,-1.8699368238449097,1.2726092338562012,-9.829380989074707,-0.08813418387891639,-0.3112353291087769,-8.64753188139791,0.8577353519116389,0.8478998840960454,0.8275551390659331
1730865948.6844258,-1.8699368238449097,1.2726092338562012,-9.829380989074707,-0.08898995349893223,-0.3180861296929598,-8.859754601647218,0.8579384626147426,0.8641126722582002,0.8611907715438574
1730865948.6844258,-1.9649289846420288,1.1705948114395142,-9.842905044555664,-0.08971923747298893,-0.32453636441016265,-9.065729885526732,0.8579299906367716,0.8641193033321276,0.8610597952209604
1730865948.7343395,-1.9649289846420288,1.1705948114395142,-9.842905044555664,-0.09034703405693513,-0.3305896845197643,-9.26516261480922,0.8558744522402228,0.8652307123814897,0.8195276068046766
1730865948.7343395,-1.755480170249939,1.117276906967163,-9.814167976379395,-0.09090058240030155,-0.336251593818296,-9.457784998793636,0.8558646865566901,0.8652338727918355,0.8192887263533785
1730865948.7843802,-1.755480170249939,1.117276906967163,-9.814167976379395,-0.09140831669060773,-0.3415286899690212,-9.643356833494106,0.8582957508381879,0.8655119266696374,0.8586294585224821
1730865948.7843802,-1.648979902267456,1.0715574026107788,-9.870731353759766,-0.09189822014977791,-0.34642814722599535,-9.821665591070175,0.8582922685048177,0.8655113113670122,0.8584900451056879
1730865948.8343627,-1.648979902267456,1.0715574026107788,-9.870731353759766,-0.09239642167051298,-0.3509573359792128,-9.99252658025842,0.8573542358195028,0.8649307062998113,0.8131343569950761
1730865948.8343627,-1.619248390197754,1.0923936367034912,-9.766934394836426,-0.09292635859062999,-0.3551235788419811,-10.155783045413658,0.8573490031717023,0.8649256555735071,0.8128472689463909
1730865948.8843756,-1.619248390197754,1.0923936367034912,-9.766934394836426,-0.09350838421375202,-0.3589341314286638,-10.31130575676813,0.8561752719904278,0.863456956948454,0.8563064691711076
1730865948.8843756,-1.5719029903411865,1.1600306034088135,-9.814069747924805,-0.09415965066670579,-0.36239638918553146,-10.458992218703127,0.8561690496965457,0.8634477118170647,0.8561344829972154
1730865948.9342463,-1.4718180894851685,1.2043366432189941,-9.855443000793457,-0.09489396890959263,-0.3655182876521843,-10.598766145925495,0.8547648787192835,0.8610825459442976,0.8074177529744361
1730865948.9843962,-1.5622344017028809,1.2559999227523804,-9.844598770141602,-0.09572152775899706,-0.3683088670394278,-10.730577325474188,0.8649696815215024,0.8577854571147102,0.8526401869605839
1730865949.0343103,-1.5622344017028809,1.2559999227523804,-9.844598770141602,-0.09664886778186166,-0.37077881600238405,-10.85440138073105,0.8663642016691956,0.8535679964030601,0.7993600827847559
1730865949.0343103,-1.6065484285354614,1.3037285804748535,-9.91126537322998,-0.09767940791530652,-0.3729407852284514,-10.970239225758505,0.8663697371933355,0.8535476369281976,0.7990692055758306
1730865949.084335,-1.6065484285354614,1.3037285804748535,-9.91126537322998,-0.09881419601410192,-0.374809482394756,-11.07811645501662,0.8675184019975405,0.8483973189292747,0.718311059391011
1730865949.084335,-1.6464300155639648,1.3352413177490234,-9.848318099975586,-0.10005253406579839,-0.37640165844107365,-11.1780826808704,0.867522953145039,0.8483723580239771,0.7178907013941142
1730865949.1342292,-1.7890230417251587,1.2793657779693604,-9.847938537597656,-0.10139260356967547,-0.37773596788754976,-11.270210484743997,0.8676258967073146,0.842318532219214,0.6098360003734679
1730865949.1843033,-1.7890230417251587,1.2793657779693604,-9.847938537597656,-0.10283234597177202,-0.3788325974032182,-11.354594024949513,0.8681214874154085,0.8353037975057664,0.4733395739514174
1730865949.1843033,-1.9112098217010498,1.1769911050796509,-9.826825141906738,-0.10437046698091451,-0.3797126317781503,-11.431347683534344,0.8681229777443613,0.8352734182039081,0.4727282764791778
1730865949.2342906,-1.9112098217010498,1.1769911050796509,-9.826825141906738,-0.1060072444696836,-0.38039723535233255,-11.500604829094758,0.868357771977177,0.8273348202601442,0.30821524604398043
1730865949.2342906,-1.7468112707138062,1.169215440750122,-9.872337341308594,-0.10774484503837198,-0.38090687825694347,-11.562516627100281,0.8683582626211823,0.8272948263721361,0.3073650892970375
1730865949.2843397,-1.7468112707138062,1.169215440750122,-9.872337341308594,-0.10958677619493928,-0.38126089204317387,-11.617250992838859,0.8688805907636734,0.8964139220657694,0.11349212695590515
1730865949.2843397,-1.7610691785812378,1.1731765270233154,-9.90518856048584,-0.11153678972581635,-0.38147736291664786,-11.66499167315659,0.8688817589737294,0.8964194304502217,0.11260784091923447
1730865949.3341703,-1.7610691785812378,1.1731765270233154,-9.90518856048584,-0.11359816850675357,-0.3815731643096947,-11.70593729427603,0.8690152446038187,0.8972390074997215,-0.10903980182008735
1730865949.3341703,-1.772855281829834,1.1963719129562378,-9.869773864746094,-0.11577360283537633,-0.3815640400450997,-11.740300259650079,0.8690152105406661,0.8972407335912871,-0.11021034889218427
1730865949.3842542,-1.772855281829834,1.1963719129562378,-9.869773864746094,-0.11806524333085847,-0.38146474332601404,-11.76830542292446,0.8688605327868665,0.8971137245320995,-0.36259754619747986
1730865949.3842542,-1.7723252773284912,1.1582468748092651,-9.856871604919434,-0.12047473171653801,-0.38128915613603814,-11.790188607276054,0.8688591934783232,0.8971110483808934,-0.3637805804217498
1730865949.4341888,-1.7723252773284912,1.1582468748092651,-9.856871604919434,-0.12300319504479214,-0.38105024612160143,-11.806195165694469,0.870272811360576,0.8960345633399227,0.8523145080861676
1730865949.4341888,-1.5951693058013916,1.1924304962158203,-9.84045124053955,-0.12565105277959576,-0.3807599341255994,-11.816578642563211,0.8702735447148272,0.8960265936122739,0.8520933146033618
1730865949.4842129,-1.5951693058013916,1.1924304962158203,-9.84045124053955,-0.12841737256541402,-0.3804291280777993,-11.82159948223875,0.8702566193603233,0.8940050748794635,0.7944191041733674
1730865949.4842129,-1.4303251504898071,1.1096744537353516,-9.871488571166992,-0.13129887377726368,-0.3800678480980053,-11.821523807822604,0.8702558566150533,0.8939942862308341,0.7941061057879562
1730865949.5342839,-1.4303251504898071,1.1096744537353516,-9.871488571166992,-0.1342889852159574,-0.3796850877803317,-11.816622358776952,0.8699096543427642,0.8910079955134331,0.863899464692188
1730865949.5342839,-1.4494115114212036,1.127644419670105,-9.831385612487793,-0.1373772861502207,-0.379288479297461,-11.807169508875083,0.8699071118395633,0.8909908962134236,0.8637004109182358
1730865949.5842733,-1.4494115114212036,1.127644419670105,-9.831385612487793,-0.14054959022111446,-0.3788841879219768,-11.793442145053948,0.8692232172914963,0.8870906260891106,0.8091812464779429
1730865949.5842733,-1.374488115310669,1.0864741802215576,-9.847817420959473,-0.14378848070511568,-0.3784770551997122,-11.775718444546179,0.8692196829063978,0.8870726195361492,0.8088964999802194
1730865949.634126,-1.374488115310669,1.0864741802215576,-9.847817420959473,-0.14707372496976323,-0.3780706648085448,-11.754276805210221,0.8641659558333429,0.8822394482852439,0.8688263228523795
1730865949.634126,-1.4525998830795288,1.0719263553619385,-9.802490234375,-0.15038255556327712,-0.37766727611356393,-11.729394923133809,0.864159246826597,0.8822166539203035,0.8686571535277154
1730865949.684152,-1.4525998830795288,1.0719263553619385,-9.802490234375,-0.15369028046398675,-0.3772678011144097,-11.701348790244959,0.8624007030065919,0.8764222356003539,0.814569854959291
1730865949.684152,-1.5784028768539429,1.0320987701416016,-9.840079307556152,-0.15697129403021717,-0.3768718496889474,-11.67041165693653,0.8623924092542236,0.8763955917958964,0.814277832426983
1730865949.734146,-1.5784028768539429,1.0320987701416016,-9.840079307556152,-0.16020022730220332,-0.3764777397396464,-11.636853235237405,0.8639388571021095,0.8696684227680265,0.8683468624038415
1730865949.734146,-1.5448294878005981,0.9901504516601562,-9.828018188476562,-0.16335292212484015,-0.37608245238731214,-11.600939124834955,0.8639348229825167,0.8696345741222886,0.8681559233546109
1730865949.7841535,-1.5448294878005981,0.9901504516601562,-9.828018188476562,-0.16640687149999916,-0.3756815835173232,-11.562930195525535,0.8628648656218514,0.8619370075279928,0.8128882032374972
1730865949.7841535,-1.495914340019226,0.9905200004577637,-9.897010803222656,-0.16934114438820902,-0.3752693544255018,-11.52308193751961,0.862859662207435,0.8619037642212767,0.8126042908588644
1730865949.8341901,-1.495914340019226,0.9905200004577637,-9.897010803222656,-0.17213613215698098,-0.37483875322398064,-11.481644026688755,0.8636396889539363,0.9352721119704892,0.8683678650155809
1730865949.8341901,-1.5989469289779663,0.96947181224823,-9.889765739440918,-0.17477342599354198,-0.374381768970636,-11.438860053391387,0.8636361817560905,0.9352823415947176,0.8681968997949598
1730865949.8841543,-1.5989469289779663,0.96947181224823,-9.889765739440918,-0.1772361071148959,-0.37388958780581966,-11.394967110793889,0.8632774612424376,0.935328452291852,0.8139364278294065
1730865949.8841543,-1.5671354532241821,0.9694827198982239,-9.91878890991211,-0.17950927574139186,-0.3733527359648121,-11.350195229102809,0.8632733870893513,0.9353307358902792,0.8136200771876126
1730865949.9341342,-1.5671354532241821,0.9694827198982239,-9.91878890991211,-0.18158025993616167,-0.37276125282702366,-11.304766888891363,0.8621601374306229,0.9353609140733837,0.7306740906119111
1730865949.9341342,-1.4966825246810913,0.9941743016242981,-9.964380264282227,-0.18343837789992906,-0.3721049291994493,-11.258896692036677,0.862154196784738,0.935358980925255,0.7302438036359449
1730865949.984129,-1.4966825246810913,0.9941743016242981,-9.964380264282227,-0.18507449609785068,-0.3713736048636367,-11.212791136501279,0.8605867091599794,0.9344615448051171,0.6194374583428103
1730865949.984129,-1.4800490140914917,0.969645619392395,-9.981051445007324,-0.18648058823927022,-0.37055744977345295,-11.166648425152292,0.8605793921340964,0.9344560113309904,0.6189296900773499
1730865950.0342054,-1.4800490140914917,0.969645619392395,-9.981051445007324,-0.1876494659511635,-0.36964709511871646,-11.120658226031075,0.8585405667827762,0.9326288632039955,0.47982566813838046
1730865950.0342054,-1.459653377532959,1.016774296760559,-9.992463111877441,-0.18857468936414512,-0.3686336774749842,-11.075001376974281,0.858530617628187,0.9326188424222212,0.4791560872235984
1730865950.0840492,-1.459653377532959,1.016774296760559,-9.992463111877441,-0.18925052763273068,-0.3675090257127806,-11.029849591666355,0.8652738904447922,0.9298966093446698,0.8601726036473739
1730865950.0840492,-1.5144121646881104,1.049118995666504,-9.973414421081543,-0.1896719811446272,-0.3662659974326528,-10.985365171942854,0.8652727376511655,0.9298831426017695,0.8600000112739924
1730865950.1340241,-1.5144121646881104,1.049118995666504,-9.973414421081543,-0.18983499726335176,-0.364898782369295,-10.941700686760072,0.8647626978952234,0.9262338119225406,0.8054217168664077
1730865950.1340241,-1.6105612516403198,1.0086636543273926,-9.94045639038086,-0.18973688775187417,-0.3634030435994587,-10.89899862248631,0.8647591059609842,0.9262140698230696,0.8050935656856526
1730865950.1840804,-1.6105612516403198,1.0086636543273926,-9.94045639038086,-0.1893768508389831,-0.3617758143537319,-10.85739104667552,0.8672886529466343,0.9216502547081123,0.8597282437088463
1730865950.1840804,-1.5536221265792847,1.06661057472229,-9.94149398803711,-0.18875636958504385,-0.360015289636177,-10.816999349452368,0.8672890539984128,0.9216267709297601,0.8595416585658334
1730865950.2339597,-1.603241205215454,1.065562129020691,-9.964529037475586,-0.18787919420306393,-0.3581208371628372,-10.777934165156417,0.8671430887286339,0.9162150509610473,0.8067963984464652
1730865950.2839465,-1.879683494567871,1.0326447486877441,-9.866992950439453,-0.18675132169476205,-0.3560931754823973,-10.74029541790393,0.8665284813314599,0.9098456007621482,0.7265772661656777
1730865950.3339956,-1.879683494567871,1.0326447486877441,-9.866992950439453,-0.18538180164894993,-0.3539343518361336,-10.704172217638737,0.8654521812023462,0.902616188665459,0.8531211760839665
1730865950.3339956,-2.0737950801849365,0.9914940595626831,-9.809025764465332,-0.18378411664406696,-0.351647457507068,-10.669642557823618,0.865446629283078,0.9025836189869237,0.8529373947155661
1730865950.3840535,-2.0737950801849365,0.9914940595626831,-9.809025764465332,-0.18197723910157998,-0.34923627264179774,-10.636773081385199,0.8639051085475794,0.894444449439237,0.7961046727272018
1730865950.3840535,-1.8243703842163086,0.9407444000244141,-9.798154830932617,-0.1799857884065847,-0.3467049262108272,-10.605619085354101,0.8638971871919284,0.8944060689394252,0.7957905092869306
1730865950.4339852,-1.8243703842163086,0.9407444000244141,-9.798154830932617,-0.17783881450625116,-0.34405756928149317,-10.5762247680413,0.8619170966392499,0.8854580994205685,0.8534430896407649
1730865950.4339852,-1.6435387134552002,1.0102969408035278,-9.805895805358887,-0.17556756335703125,-0.34129817896628883,-10.548623666030135,0.8619076965299268,0.8854180480235814,0.8532746116436516
1730865950.4839067,-1.6435387134552002,1.0102969408035278,-9.805895805358887,-0.17320332407690642,-0.33843070910833256,-10.522839201486939,0.8595054794996589,0.8756739518446354,0.8011016414444592
1730865950.4839067,-1.5730770826339722,1.1460793018341064,-9.76155948638916,-0.1707758687511365,-0.3354596014523384,-10.498885232899777,0.8594943359444432,0.8756306572694599,0.8008242071171385
1730865950.5338778,-1.5730770826339722,1.1460793018341064,-9.76155948638916,-0.1683124895962165,-0.3323904989907803,-10.476766480396954,0.8566428625013227,0.8649551435911208,0.7219556917818803
1730865950.5338778,-1.402429223060608,1.2469379901885986,-9.80485725402832,-0.16583740410595096,-0.32923098196204764,-10.456478906757166,0.8566299074800187,0.8649082200601854,0.7215665098350822
1730865950.5837739,-1.2801685333251953,1.27745521068573,-9.844583511352539,-0.16337099290023022,-0.3259911585506797,-10.438010348116062,0.8534076334336015,0.8535615289452875,0.6180142318617066
1730865950.6338754,-1.3144124746322632,1.2810062170028687,-9.876189231872559,-0.16092877203219177,-0.322684031409888,-10.421341461489677,0.8497279915519688,0.8412189239039124,0.4867571158694114
1730865950.6837897,-1.3720238208770752,1.2254197597503662,-9.91110610961914,-0.1585208648809878,-0.31932547816922047,-10.406446751296848,0.8456522708822023,0.8280863719093162,0.32954296823577306
1730865950.7338083,-1.4993278980255127,1.1518988609313965,-9.931300163269043,-0.15615262393168183,-0.3159336552841334,-10.393295485396969,0.841184522882781,0.8141715396188619,0.8538607529956961
1730865950.78379,-1.6006672382354736,1.0863429307937622,-9.86929702758789,-0.153826171640917,-0.31252791818797504,-10.381852387486557,0.8363326985546314,0.7994755711691596,0.7992072254092788
1730865950.8337855,-1.81550133228302,1.01986563205719,-9.81452465057373,-0.15154235426191742,-0.30912757369265376,-10.372077912109424,0.8837047318788612,0.7839765047696501,0.8482871871042917
1730865950.8837059,-1.9375649690628052,0.9927679896354675,-9.77560806274414,-0.1493028701860239,-0.3057507680010128,-10.363928076071137,0.8843845684591558,0.7678211960927329,0.7924017498539714
1730865950.9336746,-2.0457820892333984,0.9714118242263794,-9.726194381713867,-0.14711229928299008,-0.30241370051304806,-10.357354149420328,0.8846982482985623,0.7508522238293833,0.7105516224550451
1730865950.9836621,-2.0869340896606445,1.0083929300308228,-9.737180709838867,-0.14497956100128434,-0.2991302594834355,-10.352302510743627,0.8876069769069331,0.733089554523781,0.8401932341623048
1730865951.0336392,-2.0562994480133057,1.051559329032898,-9.758321762084961,-0.14291848135109228,-0.29591211889576163,-10.348714826206628,0.8881696121520688,0.7146289800797342,0.7814836959055376
1730865951.083622,-1.9736506938934326,1.1039338111877441,-9.822582244873047,-0.1409474060057535,-0.29276924079370314,-10.346528649005235,0.8883788393591484,0.6953907542831599,0.8417608895805598
1730865951.133597,-1.9302725791931152,1.1401413679122925,-9.887577056884766,-0.13908801304883764,-0.28971058214643064,-10.345678412227901,0.8882378559139894,0.6754758991829154,0.7841487997140292
1730865951.1835477,-1.8705997467041016,1.1601102352142334,-9.892549514770508,-0.13736377867958546,-0.2867447520140425,-10.346096600177919,0.8877520603613333,0.6548562063083475,0.8416477950820465
1730865951.233644,-1.852792739868164,1.1702474355697632,-9.919771194458008,-0.13579857714829816,-0.2838804513557778,-10.347714759422821,0.8869228314008542,0.6334341170561438,0.7838723678371712
1730865951.2836158,-1.850260853767395,1.1229956150054932,-9.914119720458984,-0.1344156424284835,-0.28112661431321817,-10.350464159014642,0.8857589399573944,0.6114181354072246,0.8417577132496186
1730865951.3335752,-1.8229795694351196,1.0839333534240723,-9.910886764526367,-0.13323691381109917,-0.27849219368535716,-10.354276166834632,0.8842617200632757,0.5886657412600046,0.7842546443941147
1730865951.3836124,-1.7985893487930298,1.0479875802993774,-9.888747215270996,-0.13228261239920958,-0.2759856446557031,-10.359082433022813,0.8824267196924278,0.5651934009017046,0.8418332301124045
1730865951.4335694,-1.7535266876220703,0.9978740811347961,-9.872357368469238,-0.13157083847327725,-0.2736143135067085,-10.364814919880349,0.9296312258279885,0.5411382538566127,0.8474047158265431
1730865951.4836032,-1.7225205898284912,0.9698752164840698,-9.863229751586914,-0.1311171202160638,-0.2713838897567823,-10.371405854248739,0.934241778459232,0.5162293973716642,0.7920432427164708
1730865951.533507,-1.668954610824585,0.9353963732719421,-9.8529052734375,-0.13093395617841028,-0.26929797186289883,-10.378787701327429,0.9385115179372849,0.49071473304753105,0.7108844351249772
1730865951.583536,-1.6359572410583496,0.9215210676193237,-9.852986335754395,-0.13103039409518147,-0.26735778621251105,-10.386893215462685,0.942458828897628,0.46449631978136263,0.6036375602274404
1730865951.6334298,-1.6144894361495972,0.9229671359062195,-9.850465774536133,-0.13141170066567398,-0.26556209427212873,-10.395655568431362,0.9284440150976541,0.4378848428781706,0.8364299211752595
1730865951.6834772,-1.6067534685134888,0.9610587358474731,-9.857247352600098,-0.1320792162597787,-0.2639073379918981,-10.405008540097638,0.9286734163740361,0.4103059113769714,0.7761616609865715
1730865951.7344527,-1.5976148843765259,1.0084751844406128,-9.867647171020508,-0.13303043826784408,-0.26238808228338684,-10.414886761932763,0.9285657357463901,0.3817470186926526,0.8404327665916626
1730865951.7843916,-1.6114647388458252,1.0301212072372437,-9.874835968017578,-0.13425928539329296,-0.2609976959706374,-10.425226004166642,0.9281240247596877,0.35296191615034156,0.7819178933215217
1730865951.8344188,-1.5975745916366577,1.018343448638916,-9.889068603515625,-0.13575647473968888,-0.2597290192317795,-10.435963481861744,0.9273434975062567,0.3234484419145306,0.6971610809022687
1730865951.8845086,-1.6075562238693237,0.9683912396430969,-9.893061637878418,-0.13750993516979246,-0.25857471189108067,-10.447038148168199,0.9262179972423664,0.29337286413921787,0.8376240839081689
1730865951.934418,-1.626556634902954,0.905511736869812,-9.897462844848633,-0.13950522096202825,-0.25752714055394066,-10.458390946090507,0.9247518593783729,0.26264500073557334,0.7778958716565444
1730865951.9844997,-1.626556634902954,0.905511736869812,-9.897462844848633,-0.1417259615722224,-0.2565779502738612,-10.469964993174901,0.9149491018642542,0.23131114141976764,0.8408346800618421
1730865951.9844997,-1.6508206129074097,0.8503293991088867,-9.890620231628418,-0.14415433594674848,-0.25571765278873837,-10.481705691605779,0.9149390963120133,0.23117886872396484,0.840644977489029
1730865952.034278,-1.668717384338379,0.7852784395217896,-9.882685661315918,-0.14677153292707018,-0.254935346153105,-10.493560766328311,0.9123845059323703,0.1994762305847231,0.782744261368115
1730865952.0843859,-1.668717384338379,0.7852784395217896,-9.882685661315918,-0.1495581938581858,-0.25421843908743347,-10.505480248929832,0.9102574874411525,0.16688257680393326,0.8490511742771174
1730865952.0843859,-1.666137456893921,0.7490000128746033,-9.847501754760742,-0.1524947728338183,-0.2535524501408376,-10.517416426668323,0.9102424969191402,0.16669194745352078,0.8488113728888412
1730865952.134316,-1.6244356632232666,0.7482098340988159,-9.854060173034668,-0.15556171191741944,-0.25292103505703023,-10.529323743201788,0.9074735409276748,0.13361691495666853,0.7945563861458469
1730865952.1843207,-1.6244356632232666,0.7482098340988159,-9.854060173034668,-0.15873941242480766,-0.2523061992350305,-10.541158697165304,0.9042886904075026,0.0996273212351504,0.7135505630667502
1730865952.1843207,-1.5937052965164185,0.7874472141265869,-9.882034301757812,-0.16200810689825962,-0.2516886657682567,-10.552879864863481,0.9042730170202503,0.09946845461214986,0.7131140120629513
1730865952.2342668,-1.5707736015319824,0.8576775789260864,-9.910017013549805,-0.16534774119420595,-0.25104848265798024,-10.564448103713403,0.9079901780631416,0.065346394517835,0.8508649811418997
1730865952.2842512,-1.587791085243225,0.9232023358345032,-9.935588836669922,-0.16873790156459684,-0.2503659116325443,-10.575826884836856,0.9095425022144469,1.1463301482022876,0.8526991887057145
1730865952.3342435,-1.5839658975601196,0.9715844392776489,-9.951668739318848,-0.1721578622409613,-0.24962246838333044,-10.586982645101148,0.9085710289826214,1.1499309881025983,0.7990974736669942
1730865952.3842833,-1.6285433769226074,0.9795622229576111,-9.949352264404297,-0.17558682562045888,-0.24880182506754328,-10.597885034172348,0.9074689446015974,1.1481519416143928,0.8439337665896418
1730865952.4342704,-1.6731714010238647,0.9589577913284302,-9.931402206420898,-0.17900435117360083,-0.24789030823119776,-10.608506966530332,0.9056176713368793,1.1494346671144928,0.7858495518462989
1730865952.4843504,-1.7608195543289185,0.9085907340049744,-9.892904281616211,-0.1823909879074358,-0.24687688528350774,-10.618824435724974,0.9033002290963908,1.1501031707047151,0.7007026332844584
1730865952.5342863,-1.8198007345199585,0.8613375425338745,-9.845653533935547,-0.18572909518727243,-0.24575271001384658,-10.628816097148956,0.9061008998751736,1.1501526094456571,0.8378498860632679
1730865952.5842535,-1.8743910789489746,0.8098325729370117,-9.812735557556152,-0.18900369688881472,-0.24451042506019405,-10.6384626967694,0.9045313343118944,1.1495911320419143,0.7773699507694668
1730865952.634168,-1.8814746141433716,0.8248398900032043,-9.78154468536377,-0.1922031251662236,-0.24314348656053625,-10.64774649518446,0.9064303947002582,1.148423201930819,0.8403161442453952
1730865952.6841817,-1.8178749084472656,0.9012826681137085,-9.799697875976562,-0.195319212183437,-0.24164584258995536,-10.656650853979148,0.9052236893254032,1.1466373099516256,0.7806227742605608
1730865952.7341259,-1.7743693590164185,0.9895063042640686,-9.821540832519531,-0.19834688268663125,-0.2400122371969365,-10.665160120139662,0.9051141777755856,1.14427007249535,0.8403745138676768
1730865952.7841399,-1.7426655292510986,1.0704177618026733,-9.879551887512207,-0.20128330208054337,-0.23823906594283542,-10.673259861679064,0.9034902376314762,1.1412937418238311,0.7810260511111187
1730865952.834016,-1.7173658609390259,1.144403100013733,-9.899643898010254,-0.20412698908218993,-0.2363253975094895,-10.680937361769109,0.9038181001193824,1.1377305088507248,0.8401675779955515
1730865952.884022,-1.7238008975982666,1.201750636100769,-9.902915954589844,-0.2068771723964134,-0.23427382899949636,-10.688182131900529,0.9021304628094102,1.1335740091739812,0.7806866401921527
1730865952.9340377,-1.7645459175109863,1.1820310354232788,-9.86949348449707,-0.2095334778721862,-0.2320909872925145,-10.6949861680948,0.907135599946263,1.1288416547055837,0.8407713921485201
1730865952.9839852,-1.83077871799469,1.1543887853622437,-9.82955265045166,-0.21209601069420103,-0.22978749835503548,-10.70134381698245,0.910243677888292,1.123490495178483,0.8467220162882951
1730865953.0339887,-1.8594506978988647,1.0799541473388672,-9.79504680633545,-0.21456578322094705,-0.22737735621743216,-10.707251332478098,0.9105226816322323,1.1176101306942792,0.7899626656771094
1730865953.0839276,-1.8404059410095215,1.018115758895874,-9.759230613708496,-0.21694517912526923,-0.22487684853622478,-10.712706321335116,0.9102668408276386,1.1112003626018128,0.7070100985215652
1730865953.1339393,-1.7897979021072388,0.9865586757659912,-9.764646530151367,-0.21923805060557275,-0.22230333135021524,-10.717707269395943,0.9094653005409916,1.104185919548829,0.5967289390553365
1730865953.1840162,-1.698754072189331,1.0258070230484009,-9.786855697631836,-0.22144926295879372,-0.21967423242044695,-10.722253306220429,0.9114033126513319,1.096617591970644,0.8358352676363552
1730865953.2339149,-1.6195176839828491,1.096706748008728,-9.849236488342285,-0.22358378405994128,-0.21700664465252656,-10.726344323497615,0.9106492022492184,1.08852281359597,0.7739388006865611
1730865953.2839737,-1.6195176839828491,1.096706748008728,-9.849236488342285,-0.22564564802724282,-0.21431752764231626,-10.72998139874839,0.9093266180400889,1.0798410034857138,0.6847461647010659
1730865953.2839737,-1.5690386295318604,1.1863417625427246,-9.894932746887207,-0.22763721524066324,-0.2116241487672575,-10.733167277197424,0.9093176742711014,1.0797912172072064,0.68417462091417
1730865953.3338645,-1.5596836805343628,1.2637195587158203,-9.941064834594727,-0.22955885315861663,-0.20894455001874906,-10.735906753114497,0.9111714305296846,1.070718408608863,0.8414662270307073
1730865953.384044,-1.59630286693573,1.3051685094833374,-9.960204124450684,-0.2314089028001991,-0.20629810452548894,-10.738207007723155,0.9100965450723671,1.0609678054688134,0.7836675909867674
1730865953.4338489,-1.6284863948822021,1.3273265361785889,-9.94701862335205,-0.23318394960027855,-0.20370600677156508,-10.740077853577134,0.9084564125625746,1.0508174777267731,0.6998281286852046
1730865953.4840422,-1.6553434133529663,1.316172480583191,-9.920696258544922,-0.2348794071737371,-0.20119139686540732,-10.741531679582558,0.911105454103328,1.0400483995129737,0.8405350086530284
1730865953.5338588,-1.6599690914154053,1.2806527614593506,-9.860176086425781,-0.23649016985690657,-0.19877904202246752,-10.742583023037632,0.9098777649590244,1.028893337907348,0.8484642300792988
1730865953.583919,-1.6765570640563965,1.1801283359527588,-9.819402694702148,-0.23801110442211484,-0.19649460345786265,-10.74324786131601,0.908049529820887,1.0171657065350326,0.7913139222394516
1730865953.6338382,-1.6720153093338013,1.0732054710388184,-9.787087440490723,-0.23943735297621693,-0.19436347886993655,-10.743542807539281,0.9152530479532267,1.2940794653807803,0.8431008197399035
1730865953.6838663,-1.6663193702697754,0.9791675806045532,-9.763050079345703,-0.24076449366885125,-0.19240932704840943,-10.743484425554188,0.9147777734105694,1.299679349381571,0.7836781485524819
1730865953.7339408,-1.6707918643951416,0.9239218235015869,-9.750232696533203,-0.2419885898728124,-0.1906526118282649,-10.743088770338867,0.9136915383829974,1.3048376870015572,0.6967860244859173
1730865953.7837968,-1.6707918643951416,0.9239218235015869,-9.750232696533203,-0.2431061909199301,-0.18910956765649806,-10.742371144275364,0.9120138987220611,1.309469311219731,0.8389221454578435
1730865953.7837968,-1.6994575262069702,0.9047927856445312,-9.781537055969238,-0.24411437173935135,-0.18779179163764215,-10.741346067194208,0.9120038050666682,1.3094917269650892,0.8386793661768106
1730865953.8338177,-1.7137017250061035,0.9450106620788574,-9.824131965637207,-0.24501086485733298,-0.18670637701506446,-10.740027495909965,0.9097161112431578,1.313661603963259,0.7776150270099017
1730865953.8838098,-1.7199853658676147,1.0237822532653809,-9.900525093078613,-0.24579425597031335,-0.1858564518146034,-10.73842930926854,0.9256665527506261,1.3173854363784028,0.8499377860187184
1730865953.933771,-1.7121604681015015,1.109671950340271,-9.941783905029297,-0.24646412197247686,-0.18524212459158992,-10.736565991397075,0.9312413469925959,1.3206407553450747,0.8522930060889373
1730865953.9838536,-1.7125602960586548,1.1412822008132935,-9.991416931152344,-0.24702102562825204,-0.18486170088946227,-10.734453331659648,0.9331938107226908,1.3234423094298577,0.7967231713012696
1730865954.033785,-1.7383090257644653,1.1559922695159912,-9.991555213928223,-0.24746643509553848,-0.1847127549679131,-10.732108924980508,0.9345198806513522,1.325768153957579,0.7147495186671603
1730865954.0837812,-1.7700742483139038,1.0934906005859375,-9.966474533081055,-0.24780272838749248,-0.18479268367809262,-10.729552316259124,0.9328959733773227,1.3276441076973549,0.8406206953670928
1730865954.1337168,-1.7931220531463623,1.0574482679367065,-9.924484252929688,-0.24803335362822101,-0.18509864332673306,-10.726804716783855,0.9327117835255303,1.3290566214708595,0.7796309573993058
1730865954.1838078,-1.8051255941390991,0.9757516384124756,-9.861323356628418,-0.24816304123677588,-0.1856270257535908,-10.723888347643925,0.9345923282401276,1.3300023999899824,0.8424627132688768
1730865954.233678,-1.8243852853775024,0.909440279006958,-9.807530403137207,-0.24819793134192045,-0.1863727216413168,-10.72082556585733,0.9344253897005741,1.3304827654606883,0.782953517077394
1730865954.2837088,-1.831785798072815,0.8526820540428162,-9.77783489227295,-0.24814559253822654,-0.18732835694043093,-10.717637968015126,0.9348786839250406,1.3304994902594747,0.8423443276279066
1730865954.3335953,-1.7967559099197388,0.8678164482116699,-9.767488479614258,-0.24801492815759632,-0.18848371525692453,-10.714345691308896,0.9341261373950334,1.3300484439811167,0.7829084555690122
1730865954.3836603,-1.7605763673782349,0.9291214346885681,-9.799591064453125,-0.24781587517174491,-0.18982565092536147,-10.710967080111853,0.9352966768684656,1.3291213881957626,0.8421203122631791
1730865954.433618,-1.710945725440979,1.0032237768173218,-9.818702697753906,-0.24755885028216776,-0.19133866892928766,-10.70751875556523,0.9343512167501754,1.3277200552961241,0.7823899488291072
1730865954.4836576,-1.7012803554534912,1.053971767425537,-9.838756561279297,-0.2472540870535153,-0.19300599295189913,-10.704015961028453,0.9359995541915862,1.3259736075528659,0.8421761905012727
1730865954.5335536,-1.6881037950515747,1.0379717350006104,-9.849413871765137,-0.2469110960826281,-0.19481065040214318,-10.700472958675569,0.9350587326378282,1.3236150583208746,0.7823865863218108
1730865954.5836434,-1.7113316059112549,0.9963055849075317,-9.854170799255371,-0.24653839685912507,-0.19673610205330141,-10.696903327651317,0.9368536700446624,1.3209877045230805,0.8421774143398074
1730865954.6335702,-1.745736837387085,0.9328804016113281,-9.85682487487793,-0.24614355121346482,-0.1987662349177311,-10.693320135785378,0.9359800092570495,1.3176633632346688,0.7824947735215764
1730865954.683587,-1.7479357719421387,0.8603179454803467,-9.831171989440918,-0.245733430002365,-0.2008848732764876,-10.689735986354115,0.9344953385709898,1.3138480325447008,0.6962953805141358
1730865954.733575,-1.7491909265518188,0.843873918056488,-9.839099884033203,-0.24531451534300555,-0.2030751207515767,-10.68616294351264,0.9373886760807005,1.3097233630093472,0.8387375208899647
1730865954.7836032,-1.719849944114685,0.8954249024391174,-9.856204986572266,-0.24489302651381553,-0.20531893184672062,-10.682612431837706,0.9362613434331606,1.3048890386802718,0.777583160448922
1730865954.8335345,-1.69038987159729,1.013269066810608,-9.893735885620117,-0.24447480552602863,-0.20759732614825335,-10.679095280598991,0.9345210882586663,1.299915655837817,0.8419492492177463
1730865954.8834958,-1.6407148838043213,1.1782209873199463,-9.94733715057373,-0.2440650052865291,-0.20989143261586915,-10.67562199432796,0.9444070731816796,8.141032366226048,0.8481372769270974
1730865954.9335127,-1.5968351364135742,1.3148117065429688,-9.980710983276367,-0.2436676513254047,-0.21218418116996451,-10.672203192442668,0.9454344091137497,9.300768345518682,0.7912570522762994
1730865954.9834745,-1.5788203477859497,1.3853707313537598,-9.986942291259766,-0.24328518822035405,-0.2144621182675849,-10.668850045127872,0.945852298460605,10.458508146574594,0.7077959914023563
1730865955.0333755,-1.59587824344635,1.345052719116211,-9.986001014709473,-0.24291819520666308,-0.21671665073964472,-10.665574492132617,0.9459864684765673,11.614754239026418,0.8392814729558058
1730865955.0834413,-1.6471034288406372,1.241713523864746,-9.92891788482666,-0.24256546577677982,-0.2189441769516356,-10.662389130214383,0.9455905016261924,12.773425797787011,0.7784048817904895
1730865955.1334794,-1.7504501342773438,1.1041513681411743,-9.85863208770752,-0.24222455425365153,-0.22114502225995258,-10.659306732990764,0.9445861660834509,13.932599211326764,0.6907319093283615
1730865955.1834555,-1.8304283618927002,0.9711137413978577,-9.74976921081543,-0.24189275568727134,-0.22332157174879402,-10.656339397498089,0.942975159802575,15.090691817452836,0.8386194128356721
1730865955.2333221,-1.9156988859176636,0.9128645658493042,-9.670672416687012,-0.24156829800476654,-0.22547623256871324,-10.653497428207904,0.9407734459380013,16.241180901954564,0.7779319745775404
1730865955.2834413,-1.9156988859176636,0.9128645658493042,-9.670672416687012,-0.24125137767524885,-0.22760986940351374,-10.65078827617528,0.937939363010452,17.403872858532505,0.6897461746098698
1730865955.2834413,-1.9563443660736084,0.903839647769928,-9.61693286895752,-0.24094473586023796,-0.22972108531448565,-10.64821591315643,0.9379214522529157,17.41050060748972,0.6891660349945687
1730865955.3332965,-1.9563443660736084,0.903839647769928,-9.61693286895752,-0.2406537625845398,-0.23180620261434007,-10.645780692311039,0.9345440528303347,18.550811926741375,0.576274763185645
1730865955.3332965,-1.9662718772888184,0.9583784937858582,-9.625625610351562,-0.24038632987977523,-0.2338595861554535,-10.643479493982255,0.9345217604778894,18.557731905657857,0.5755102610993622
1730865955.3834836,-1.923431158065796,1.0500279664993286,-9.705564498901367,-0.24015245376769145,-0.23587424305726334,-10.64130615431785,0.9305076156218528,19.709920146628168,0.8420619836335174
1730865955.4342368,-1.8367159366607666,1.1513241529464722,-9.823517799377441,-0.23996368999018036,-0.2378428130989762,-10.639252349595859,0.9258049414265056,20.882771090170227,0.7847100423043244
1730865955.4842105,-1.7143102884292603,1.2665013074874878,-9.948857307434082,-0.23983212012273217,-0.23975886985615422,-10.637308982832124,0.920601126026199,22.030071668773363,0.8454322480552301
1730865955.5342638,-1.5934988260269165,1.3747628927230835,-10.055098533630371,-0.23976893289843584,-0.24161829601636095,-10.635467851678543,0.9147635385376376,23.18443343012067,0.7874996124291938
1730865955.5842412,-1.4835880994796753,1.4298890829086304,-10.111140251159668,-0.23978284173051323,-0.24342049586000994,-10.63372318290055,0.964241265233787,7.198083133040778,0.8439539800326433
1730865955.6342456,-1.443881630897522,1.4316983222961426,-10.103753089904785,-0.23987870889145826,-0.24516916496511856,-10.632072627315692,0.9647004260796591,7.2502843306842975,0.785138493925774
1730865955.6842623,-1.4952565431594849,1.3775787353515625,-10.049909591674805,-0.24005678733522218,-0.246872349193175,-10.6305174602054,0.9674532416547876,7.3019279729951085,0.6996734451921361
1730865955.7341847,-1.6399167776107788,1.2702287435531616,-9.953142166137695,-0.24031296216663925,-0.2485417044832753,-10.629061960243977,0.9675182847244899,7.35286253086434,0.5878392144871509
1730865955.7842758,-1.8158236742019653,1.1555479764938354,-9.814238548278809,-0.24064012626693995,-0.25019107987211997,-10.62771212648629,0.9689092584639024,7.403425674951598,0.4487406078999721
1730865955.8341494,-1.987913966178894,1.0372942686080933,-9.684324264526367,-0.24103038920011954,-0.25183471528081447,-10.626473965059542,0.9693372089245337,6.737701467335313,0.820916615221271
1730865955.8841746,-2.1046435832977295,0.9711049795150757,-9.589987754821777,-0.24147748688126625,-0.2534854521300472,-10.625351671244731,0.9687927687966799,6.741657631019495,0.7561304558939015
1730865955.9341092,-2.1483964920043945,0.9394667744636536,-9.553539276123047,-0.24197872042732974,-0.25515334904770903,-10.624346143063907,0.967647866053343,6.744965718900282,0.6650990701764266
1730865955.9841945,-2.121264934539795,0.9565346837043762,-9.586009979248047,-0.2425359488710681,-0.2568449640522186,-10.623454213992776,0.9658813083254139,6.747658713023745,0.5464279391665217
1730865956.0340698,-2.039263963699341,0.9619608521461487,-9.645097732543945,-0.2431554744869043,-0.2585633185062611,-10.622668771020242,0.9695773304180704,6.749677723295412,0.8175585452234974
1730865956.0840585,-1.9312196969985962,0.9948458671569824,-9.719782829284668,-0.24384697225842963,-0.2603083236482775,-10.621979626552905,0.9684883245392639,6.751059563761486,0.754628862022026
1730865956.1340225,-1.9312196969985962,0.9948458671569824,-9.719782829284668,-0.24462192123144455,-0.26207739240135014,-10.62137473228228,0.966789875247916,6.751790172311845,0.6651914560854543
1730865956.1340225,-1.8107657432556152,1.0069457292556763,-9.799466133117676,-0.2454921224407422,-0.2638660326369226,-10.620841282458777,0.9667777360516886,6.751792603993183,0.6645693959905281
1730865956.184022,-1.7375962734222412,1.0039891004562378,-9.883305549621582,-0.2464684782681564,-0.265668316948215,-10.620366633175381,0.9644769409029987,6.751862343391046,0.5491624714207447
1730865956.2339506,-1.6901278495788574,0.9899908900260925,-9.963652610778809,-0.24755986825536663,-0.2674772096354454,-10.619939273962654,0.961553152175903,6.751268903296684,0.8180340619801332
1730865956.2840056,-1.6511867046356201,1.0167818069458008,-10.022025108337402,-0.24877223198553994,-0.26928479136357464,-10.619549853907964,0.9579892004758225,6.74999955426828,0.7582062630011234
1730865956.3338845,-1.626352071762085,1.0566904544830322,-10.058816909790039,-0.25010806490811616,-0.2710825207712432,-10.619192000421577,0.9538170152307645,6.7480584451691685,0.8227011430319753
1730865956.3839247,-1.6089198589324951,1.1275053024291992,-10.08283519744873,-0.25156626724567815,-0.2728617107244643,-10.618862764816772,0.949021394890929,6.745441559311062,0.76420487271579
1730865956.433835,-1.548673152923584,1.161179542541504,-10.08017635345459,-0.2531421762067043,-0.2746142246415436,-10.618562691847337,0.9436167328612757,6.742153118053986,0.8230033654530744
1730865956.4838657,-1.5168516635894775,1.1840696334838867,-10.051786422729492,-0.2548276075090993,-0.27633317304855687,-10.618295550432167,0.9965504875093827,6.738149054411895,0.7640707329284377
1730865956.533793,-1.4813148975372314,1.1318827867507935,-9.987784385681152,-0.25661084382970767,-0.27801331044210686,-10.618067729785496,0.9992442761833524,6.733459487384457,0.6786360678654001
1730865956.5838237,-1.4938756227493286,1.0512200593948364,-9.905617713928223,-0.25847670917589505,-0.27965089646484864,-10.61788730054031,1.001286955033226,6.728091440981002,0.5670407189571053
1730865956.6337664,-1.5253958702087402,0.9455553293228149,-9.82075309753418,-0.26040691517789993,-0.28124296097084334,-10.617762816135974,1.0026859926434082,6.722015583286202,0.42879330442161756
1730865956.683823,-1.6069215536117554,0.8572342395782471,-9.72569751739502,-0.26238078698721656,-0.2827861661387996,-10.617702016193508,1.0010591004795,6.650496666444833,0.26324890746280666
1730865956.7337284,-1.7038275003433228,0.803158164024353,-9.66273307800293,-0.26437638489516335,-0.28427563654242716,-10.617710611084352,1.0015349486732816,6.650494286902933,0.07160685705732733
1730865956.7837372,-1.8090814352035522,0.8006678223609924,-9.635173797607422,-0.2663719276264343,-0.2857041361522521,-10.617791337050061,1.001349474161649,6.651477876655841,0.8264485699561368
1730865956.8336544,-1.8927173614501953,0.8072279691696167,-9.634767532348633,-0.2683473011111325,-0.2870618217217181,-10.617943473461576,1.008417223393526,6.648343569221492,0.8444566378373132
1730865956.883653,-1.9440635442733765,0.8602471947669983,-9.668485641479492,-0.27028536905957784,-0.28833656293578724,-10.61816289981219,1.0091552867063007,6.647340158095856,0.7895210923689661
1730865956.9336395,-1.9826576709747314,0.9154075980186462,-9.733817100524902,-0.27217285923682394,-0.28951468394205093,-10.618442640267963,1.0092138488777098,6.645612764085532,0.707976974582241
1730865956.9837236,-1.9989776611328125,0.9727869033813477,-9.810914993286133,-0.2740007669954644,-0.2905819597212237,-10.61877380114198,1.0085862137522328,6.6441047108932745,0.8411064260163146
1730865957.033659,-1.9968469142913818,1.0430967807769775,-9.891023635864258,-0.2757643511810691,-0.2915246843557807,-10.61914675656689,1.0072723625385533,6.641904482938586,0.7820837668139649
1730865957.083661,-1.9078164100646973,1.1033395528793335,-9.982389450073242,-0.27746274331069765,-0.2923306798294506,-10.619552397145434,1.0052695021365259,6.638977939858242,0.696618479803437
1730865957.1336153,-1.811535358428955,1.1505705118179321,-10.037453651428223,-0.279098060593117,-0.29299017431598584,-10.619983282841755,1.0164311935437382,6.641145584019076,0.8397599313192343
1730865957.1835968,-1.684177279472351,1.158101201057434,-10.068291664123535,-0.2806740079501805,-0.2934964378292197,-10.620434534843163,1.0163026265566844,6.63879265828994,0.7796971251751349
1730865957.2335598,-1.607757568359375,1.1402833461761475,-10.083259582519531,-0.2821942372832644,-0.29384603066604376,-10.620904309970227,1.0154709811051699,6.635691227428733,0.6927322121043352
1730865957.2836456,-1.5794684886932373,1.0847864151000977,-10.054425239562988,-0.2836609091774756,-0.2940385837774333,-10.6213938198736,1.013932563643158,6.631857305133656,0.5792796973161151
1730865957.3335211,-1.6266781091690063,1.0333889722824097,-10.00820255279541,-0.28507388724482474,-0.2940761548616589,-10.621906930985027,1.0116807466840232,6.627283155568083,0.8368311532925645
1730865957.3835816,-1.7076492309570312,0.985153317451477,-9.948284149169922,-0.2864307994874157,-0.2939623412358363,-10.622449400513272,1.008725725721382,6.6219935261197245,0.8476368984817649
1730865957.4335127,-1.7534598112106323,0.9991579055786133,-9.872818946838379,-0.28772783518045664,-0.29370143964930623,-10.62302787281195,1.00503338844152,6.615936462254599,0.7905528234151328
1730865957.4836228,-1.761965274810791,1.019677996635437,-9.80775260925293,-0.2889607783165892,-0.29329795192658575,-10.62364879037258,1.0006357639428711,6.609171078617466,0.7071549600614594
1730865957.5335631,-1.7332777976989746,1.0601274967193604,-9.740081787109375,-0.29012572497315314,-0.29275655431470554,-10.624317354198798,0.9955169174176345,6.6016761933552015,0.5972804255454803
1730865957.5835302,-1.7360866069793701,1.0578792095184326,-9.706241607666016,-0.2912192889967359,-0.29208236352652744,-10.625036661885252,0.9896605456902291,6.593434519567067,0.4606070333301741
1730865957.633568,-1.7078824043273926,1.0534155368804932,-9.675688743591309,-0.292238492420704,-0.29128118740589276,-10.625807133116044,1.029543827484856,6.584465402629825,0.8351384547505448
1730865957.683474,-1.7233083248138428,1.0290294885635376,-9.678693771362305,-0.2931806006803332,-0.29035954912057776,-10.626626278004926,1.028806015984202,6.574791304097298,0.7729647891762775
1730865957.733404,-1.7296462059020996,1.0342074632644653,-9.693284034729004,-0.29404304376262835,-0.2893245044120574,-10.627488804554169,1.0273309510262774,6.564359720678666,0.8419474545635962
1730865957.7834828,-1.7782323360443115,1.0552161931991577,-9.738544464111328,-0.29482350728926354,-0.2881834443247175,-10.628387038612065,1.025129431832577,6.553257119809489,0.7826816380857023
1730865957.833414,-1.8271551132202148,1.1032934188842773,-9.756502151489258,-0.29552024131946253,-0.28694408795752147,-10.62931158480515,1.022184480227614,6.541402754580677,0.6967070173241959
1730865957.8834038,-1.8970963954925537,1.1459044218063354,-9.80887222290039,-0.29613257215344213,-0.28561473530879655,-10.63025208328434,1.0185020384401804,6.52883902532331,0.5842229910158903
1730865957.933347,-1.9201931953430176,1.1988476514816284,-9.833016395568848,-0.29666150411228276,-0.284204690253404,-10.63119794114666,1.0376303328162069,6.515573067863559,0.8369243213870377
1730865957.983341,-1.93211030960083,1.2210768461227417,-9.855461120605469,-0.2971101845129965,-0.28272469459151855,-10.632138973994202,1.0367970762906245,6.5015595524535525,0.7751538879492315
1730865958.0332818,-1.8952357769012451,1.1917591094970703,-9.863088607788086,-0.2974840108325652,-0.28118717733394766,-10.633065878947287,1.0427630191678647,6.486800956482418,0.8423537275514419
1730865958.0833924,-1.8952357769012451,1.1917591094970703,-9.863088607788086,-0.29779034030603624,-0.2796061470712322,-10.633970491166489,1.0429733784415272,6.471448300999985,0.7830916674304371
1730865958.0833924,-1.8420480489730835,1.143674373626709,-9.883455276489258,-0.2980379558423338,-0.27799675710882304,-10.63484587234102,1.042972454685657,6.471358619630864,0.7826773046554093
1730865958.1332362,-1.7618697881698608,1.129366159439087,-9.8805570602417,-0.2982363892313856,-0.2763747168704475,-10.635686331757354,1.0458421759848053,6.499775048919431,0.8475614704187434
1730865958.1833367,-1.694387674331665,1.115341305732727,-9.905627250671387,-0.29839504926917937,-0.2747556981889703,-10.636487443447418,1.0458608218346344,6.493352575199264,0.7923550677470934
1730865958.2332082,-1.6100733280181885,1.094612956047058,-9.931663513183594,-0.2985222054783983,-0.2731548533916446,-10.637246090851612,1.0451368060394206,6.486267567160762,0.7108469115645301
1730865958.2832747,-1.5418109893798828,1.0807050466537476,-9.972339630126953,-0.29862401277161466,-0.27158646532295116,-10.637960593347001,1.0497848051688672,6.47847205284534,0.8416860268858134
1730865958.3331993,-1.5418109893798828,1.0807050466537476,-9.972339630126953,-0.2987037559139638,-0.27006368435725986,-10.638630898696253,1.0520046725777843,6.46996837888851,0.8480068405315252
1730865958.3331993,-1.499990701675415,1.0729589462280273,-10.015694618225098,-0.2987614868358007,-0.2685983666085658,-10.639258727549942,1.0520061007679549,6.469920576206247,0.8477702015085551
1730865958.383289,-1.4388550519943237,1.0682786703109741,-10.016959190368652,-0.29879399929030853,-0.2672010129847755,-10.639847626360808,1.0518978948415754,6.460859705469777,0.7914079306192661
1730865958.4332135,-1.4234479665756226,1.0768064260482788,-10.036955833435059,-0.29879485508456977,-0.2658807640513875,-10.640402954872407,1.0554920484711325,6.451087618902966,0.8500654430172232
1730865958.4831707,-1.4432932138442993,1.1116139888763428,-10.005428314208984,-0.2987544526862176,-0.2646454780031869,-10.640931764249352,1.0558331038783793,6.44060618294644,0.7947062148294798
1730865958.5341525,-1.5085569620132446,1.1484904289245605,-9.962830543518066,-0.2986604370422764,-0.2635019781502548,-10.64144246295546,1.0554098778850636,6.429241751441486,0.7108219835907784
1730865958.5831633,-1.5824558734893799,1.1850098371505737,-9.87814998626709,-0.2984985967426294,-0.2624564691905992,-10.64194418626569,1.0568499134468539,6.417718653983467,0.841897526641066
1730865958.6341417,-1.7026240825653076,1.1562330722808838,-9.797066688537598,-0.2982541423362387,-0.2615149504360431,-10.642445871209475,1.0560780341007092,6.40503686842794,0.7810751545006733
1730865958.6841717,-1.8434793949127197,1.0966352224349976,-9.701960563659668,-0.2979132342148036,-0.26068333071466754,-10.642955156185769,1.0545694284242366,6.391942451647921,0.6945937662399008
1730865958.7341104,-1.9647480249404907,1.0394996404647827,-9.635427474975586,-0.29746465506874603,-0.25996706195576375,-10.64347729189408,1.0523097375519888,6.378156475320738,0.5811629101615076
1730865958.7841659,-2.0362460613250732,0.9632866978645325,-9.589738845825195,-0.29690137579364473,-0.25937041953419027,-10.644014263860416,1.0584260379585781,6.363755045680896,0.8358253608291234
1730865958.8331368,-2.0580220222473145,0.9396564364433289,-9.595098495483398,-0.29622162596707846,-0.258895724182303,-10.644564313745303,1.0573890458037751,6.349046120467281,0.7758403020604581
1730865958.8841126,-2.0580220222473145,0.9396564364433289,-9.595098495483398,-0.2954292227335097,-0.2585427908702979,-10.645121960518377,1.0594352129469349,6.333053993344498,0.8401655960165416
1730865958.8841126,-2.0260348320007324,0.9472898840904236,-9.640368461608887,-0.2945332099613991,-0.25830879881227853,-10.645678463876235,1.0594319888889712,6.332987417389945,0.8399722108135753
1730865958.9341154,-1.9630955457687378,1.0134309530258179,-9.721592903137207,-0.29354700126807926,-0.25818859230342117,-10.646222630439198,1.0582950199675887,6.316723626462686,0.7804284075447111
1730865958.984118,-1.895137906074524,1.0919886827468872,-9.815616607666016,-0.2924871821580726,-0.2581753604490885,-10.646741945692405,1.0609057593163624,6.299749954219346,0.849184445168814
1730865959.0339692,-1.8222602605819702,1.1473636627197266,-9.905097961425781,-0.2913721226283722,-0.2582616243408652,-10.647223951815684,1.0599905773950984,6.282172500206947,0.7941602251660459
1730865959.0840662,-1.7455374002456665,1.1361726522445679,-9.956357955932617,-0.29022058014350727,-0.2584402267104633,-10.64765761219079,1.063628235283706,6.263850943894084,0.8455391760567024
1730865959.1339521,-1.700907826423645,1.1482601165771484,-10.000899314880371,-0.2890504417105829,-0.2587049245492296,-10.64803436956676,1.0633439732243326,6.2449674116594025,0.7877407213809504
1730865959.1839936,-1.7207727432250977,1.1174755096435547,-10.020934104919434,-0.28787778722285057,-0.25905049741890485,-10.648348762661996,1.0623342612603548,6.225333021861934,0.7029098404887186
1730865959.233999,-1.7523990869522095,1.134559988975525,-9.988039016723633,-0.28671650436558216,-0.2594725831935367,-10.648598602606748,1.0643402009080503,6.20515968819295,0.5919079846407552
1730865959.2839696,-1.8286563158035278,1.1376848220825195,-9.950651168823242,-0.28557852211669515,-0.2599674819375467,-10.648784700301432,1.0632683375438028,6.184301875240752,0.4541821636324158
1730865959.3339097,-1.8731988668441772,1.1633003950119019,-9.883402824401855,-0.28447448129208286,-0.2605320774937518,-10.648910176684257,1.0664128642623831,6.162765900336097,0.8411007301360333
1730865959.3839538,-1.87714421749115,1.2097761631011963,-9.829784393310547,-0.2834145028369892,-0.2611639225159359,-10.648979516941923,1.0681491047489406,6.140491495990848,0.8549399591293521
1730865959.43391,-1.87714421749115,1.2097761631011963,-9.829784393310547,-0.2824086900829999,-0.26186145026777474,-10.648997622074678,1.0676300546942736,6.117877147207959,0.799692278076892
1730865959.43391,-1.8527741432189941,1.2444229125976562,-9.779115676879883,-0.2814672196706931,-0.26262418847327484,-10.648969106229583,1.0676256559252857,6.117760821633608,0.7993454827831539
1730865959.483997,-1.7791498899459839,1.2536530494689941,-9.761033058166504,-0.28060008344486903,-0.26345287315305577,-10.648897860293527,1.0663975422028866,6.09427695059857,0.7169398401900292
1730865959.5338774,-1.7791498899459839,1.2536530494689941,-9.761033058166504,-0.2798165718845279,-0.26434946803342013,-10.648786753854056,1.0700468079996794,6.070203191745023,0.8562641768221907
1730865959.5338774,-1.7433054447174072,1.2289862632751465,-9.7857084274292,-0.279124713393471,-0.26531705440529507,-10.648637522489036,1.0700449404407553,6.07009508334819,0.8560753979247049
1730865959.583923,-1.7433054447174072,1.2289862632751465,-9.7857084274292,-0.2785309091909205,-0.2663595448228526,-10.648450921000837,1.0692799525280083,6.04545735108975,0.8004368624815819
1730865959.583923,-1.7001326084136963,1.2023404836654663,-9.813427925109863,-0.2780397552401854,-0.2674813024407394,-10.648227028953215,1.0692751064279555,6.045348348501318,0.8001363692080435
1730865959.6338441,-1.7001326084136963,1.2023404836654663,-9.813427925109863,-0.2776539230826706,-0.26868677305857835,-10.64796556524145,1.0719517320012766,6.020069791283928,0.8687672836946333
1730865959.6338441,-1.658395528793335,1.1724835634231567,-9.855494499206543,-0.27737406053167313,-0.26998015987125484,-10.647666181198668,1.071951018667276,6.019948935841602,0.86859299686174
1730865959.6838272,-1.658395528793335,1.1724835634231567,-9.855494499206543,-0.2771987273432489,-0.27136513627059045,-10.647328752288296,1.0737212164008796,5.993993041969447,0.8728615860742202
1730865959.6838272,-1.589672565460205,1.1396898031234741,-9.88569164276123,-0.27712434492426574,-0.27284459381587917,-10.646953651529088,1.0737217539173083,5.993878599706332,0.8727049515790382
1730865959.733828,-1.5081108808517456,1.1046420335769653,-9.922158241271973,-0.2771450355057861,-0.2744203925224437,-10.646541989460658,1.0734965726271173,5.9669754364939696,0.8229154479000922
1730865959.7838185,-1.4295170307159424,1.1049782037734985,-9.95274543762207,-0.2772522141755338,-0.2760930863938995,-10.646095875348417,1.0725833158703564,5.939575915284569,0.7469873234420537
1730865959.833836,-1.4295170307159424,1.1049782037734985,-9.95274543762207,-0.2774340818869542,-0.2778617283321343,-10.645618681894495,1.0709730380804676,5.911351914695135,0.6441058761626172
1730865959.833836,-1.4276865720748901,1.1359474658966064,-9.951932907104492,-0.27767542898248065,-0.2797239017817847,-10.645115160319984,1.0709638323938935,5.911217654007745,0.6435595540453339
1730865959.8838398,-1.4276865720748901,1.1359474658966064,-9.951932907104492,-0.2779579357588168,-0.28167597228276026,-10.644591336320048,1.0740172576739064,5.882507442275975,0.8637259001362159
1730865959.8838398,-1.4848183393478394,1.1582427024841309,-9.916403770446777,-0.27826080851248713,-0.2837134227975424,-10.644054254496377,1.0740137391924858,5.882366748657821,0.8635259740205927
1730865959.9337692,-1.4848183393478394,1.1582427024841309,-9.916403770446777,-0.27856158901395806,-0.28583115451362917,-10.643511623423686,1.075705954987939,5.85304335048668,0.8709184458660999
1730865959.9337692,-1.5948827266693115,1.1681678295135498,-9.850994110107422,-0.2788370812066042,-0.28802371647500913,-10.642971381571872,1.0757051540348788,5.852943881304925,0.8707947466088666
1730865959.9839382,-1.5948827266693115,1.1681678295135498,-9.850994110107422,-0.27906435606289315,-0.2902854656770219,-10.642441209778365,1.0751118453182247,5.82254676282432,0.8200433577449255
1730865959.9839382,-1.7093874216079712,1.1369863748550415,-9.79179573059082,-0.27922176175632246,-0.29261063726605524,-10.641928041093456,1.0751074659757702,5.8224042383076275,0.8197460455058437
1730865960.0338023,-1.7093874216079712,1.1369863748550415,-9.79179573059082,-0.27928983851480355,-0.29499328612174985,-10.641437639535818,1.0775435430252778,5.791677450381513,0.869921118799314
1730865960.0338023,-1.8193243741989136,1.1080282926559448,-9.737626075744629,-0.2792520888290344,-0.2974271333114872,-10.640974274397617,1.0775428182492581,5.79153735342606,0.8697532035746449
1730865960.083812,-1.8193243741989136,1.1080282926559448,-9.737626075744629,-0.2790955978987626,-0.2999054118343215,-10.64054047826583,1.0770328701115335,5.759846158526318,0.8189524801755137
1730865960.083812,-1.884267807006836,1.1029753684997559,-9.714607238769531,-0.27881147315001353,-0.30242077242764187,-10.64013690240179,1.0770290257024269,5.7597024655456135,0.8186653831131826
1730865960.1337838,-1.884267807006836,1.1029753684997559,-9.714607238769531,-0.2783950500289901,-0.3049652808901048,-10.639762304518003,1.0758202478443182,5.727176047079342,0.7411117271058602
1730865960.1337838,-1.9105286598205566,1.1115912199020386,-9.716594696044922,-0.27784586392091104,-0.3075305038325227,-10.639413668121687,1.0758134603805336,5.727032635563506,0.7407156743545721
1730865960.1837988,-1.9105286598205566,1.1115912199020386,-9.716594696044922,-0.2771674328508866,-0.310107650442347,-10.639086422088806,1.0790845929517379,5.6940643890774485,0.8688412061956
1730865960.1837988,-1.9257912635803223,1.116139531135559,-9.744019508361816,-0.27636691042981143,-0.3126877352606059,-10.638774738464331,1.0790831295973538,5.693917762436508,0.8686754275808889
1730865960.2337227,-1.9447674751281738,1.1083884239196777,-9.78177261352539,-0.27545469748096635,-0.3152617182209296,-10.638471928540827,1.0784057045887159,5.659971418788177,0.8175088050531615
1730865960.28374,-1.9447674751281738,1.1083884239196777,-9.78177261352539,-0.2744440764155521,-0.317820593560609,-10.638170938857044,1.0807703102212418,5.625198297316784,0.8677806337385788
1730865960.28374,-1.942165493965149,1.0875669717788696,-9.824285507202148,-0.2733508404255849,-0.32035542176997056,-10.63786483556535,1.080769297082004,5.625014229979734,0.8675720563860175
1730865960.3336928,-1.942165493965149,1.0875669717788696,-9.824285507202148,-0.27219285809299754,-0.32285730700491144,-10.637547190939427,1.0802384315651887,5.5895385304988325,0.8146250087250624
1730865960.3336928,-1.9253342151641846,1.0885087251663208,-9.844911575317383,-0.2709895846026023,-0.3253173632897254,-10.637212377646268,1.0802341191015745,5.5893604025641626,0.8142965956029614
1730865960.383695,-1.9253342151641846,1.0885087251663208,-9.844911575317383,-0.2697615592896282,-0.32772673842142214,-10.636855757552288,1.0790293767451453,5.553042066714477,0.7348654412184211
1730865960.383695,-1.8715403079986572,1.0781447887420654,-9.8873929977417,-0.26852988293716323,-0.3300766882400459,-10.636473793594789,1.0790224396038435,5.55287662247742,0.734448075075369
1730865960.4336674,-1.8715403079986572,1.0781447887420654,-9.8873929977417,-0.2673156427500895,-0.3323586333750512,-10.636064173024806,1.0771528142698705,5.515779730190906,0.6287169835411219
1730865960.4336674,-1.8378441333770752,1.0401469469070435,-9.917705535888672,-0.26613933045339366,-0.33456415607773615,-10.635625946854518,1.0771417236761374,5.51559074288888,0.6281177921942636
1730865960.48365,-1.8378441333770752,1.0401469469070435,-9.917705535888672,-0.2650203642048572,-0.3366849169371544,-10.635159619440724,1.074612541070193,5.47783534817056,0.4960382332385498
1730865960.48365,-1.7672381401062012,1.032460331916809,-9.951805114746094,-0.26397670479510416,-0.3387125420895568,-10.634667177580026,1.0745997608629994,5.477663923382312,0.4953885895237936
1730865960.5337403,-1.7672381401062012,1.032460331916809,-9.951805114746094,-0.263024454663209,-0.34063859102467586,-10.63415209570233,1.0713819597314282,5.438529468515848,0.3352779618593483
1730865960.5337403,-1.7021394968032837,1.0370874404907227,-9.975760459899902,-0.2621774349386432,-0.3424546292261491,-10.633619321620895,1.0713669908221573,5.438362641069815,0.33454620764523063
1730865960.5838394,-1.7021394968032837,1.0370874404907227,-9.975760459899902,-0.2614468263234817,-0.34415235666499355,-10.63307521999169,1.0675144302186674,5.3978929622159155,0.14888319296647398
1730865960.5838394,-1.65043306350708,1.073177456855774,-10.0149564743042,-0.26084091507885887,-0.345723783204178,-10.632527489945762,1.0674954832666539,5.397710706302373,0.14798125177189217
1730865960.6337297,-1.6014059782028198,1.14634108543396,-10.020565032958984,-0.260364902968093,-0.34716154176290936,-10.631985111571352,1.0630139051653318,5.357267225327275,-0.06317961912710085
1730865960.6836996,-1.6014059782028198,1.14634108543396,-10.020565032958984,-0.26002072890988837,-0.348459402303596,-10.631458300625502,1.094025545703235,5.314712290809169,0.8554215944785913
1730865960.6836996,-1.5850491523742676,1.22859787940979,-9.987622261047363,-0.2598070028107674,-0.34961283619767924,-10.630958337451633,1.0940306625808216,5.314519288354341,0.8552303213796851
1730865960.733647,-1.5850491523742676,1.22859787940979,-9.987622261047363,-0.25971917212761997,-0.3506194721642584,-10.630497197398773,1.0948195321235232,5.272096675420589,0.8003505128312056
1730865960.733647,-1.6096011400222778,1.2526041269302368,-9.945744514465332,-0.25974987369517033,-0.3514794002249993,-10.630087074077323,1.0948215147081743,5.271913834766581,0.8000598011621566
1730865960.7837098,-1.6096011400222778,1.2526041269302368,-9.945744514465332,-0.2598894085846976,-0.35219525297914334,-10.629739905599049,1.0949622001159431,5.22868141637195,0.7187930556491665
1730865960.7837098,-1.665219783782959,1.2559261322021484,-9.857342720031738,-0.26012631566138356,-0.3527720686605297,-10.629466901911478,1.0949612754124487,5.228460639274777,0.7183153031600894
1730865960.8336103,-1.665219783782959,1.2559261322021484,-9.857342720031738,-0.2604480054407099,-0.35321703671589544,-10.62927801151272,1.0944557968937938,5.184442404846125,0.610829399596932
1730865960.8336103,-1.7471556663513184,1.2027697563171387,-9.769553184509277,-0.26084142515036435,-0.35353914701684447,-10.629181352368297,1.0944522696353824,5.184253062932655,0.6103155165407163
1730865960.8836133,-1.7471556663513184,1.2027697563171387,-9.769553184509277,-0.2612937341260301,-0.3537486960551115,-10.629182705009617,1.096522335275631,5.137980717993358,0.852307096098805
1730865960.8836133,-1.8258168697357178,1.1118991374969482,-9.667461395263672,-0.2617929489872828,-0.3538566615599715,-10.62928509477834,1.0965226272136053,5.137780632748087,0.8521324630291078
1730865960.9335773,-1.8258168697357178,1.1118991374969482,-9.667461395263672,-0.2623285018387979,-0.353874006215551,-10.629488429547237,1.0962691460511969,5.092404301485054,0.7999755959586469
1730865960.9335773,-1.8815194368362427,1.0185134410858154,-9.608986854553223,-0.2628916729487024,-0.3538109779997419,-10.629789229370546,1.096266566106813,5.092197898780711,0.7996823223912805
1730865960.9835758,-1.8815194368362427,1.0185134410858154,-9.608986854553223,-0.2634758753399493,-0.35367647966667964,-10.630180543527647,1.1001907764328596,5.044011604474865,0.8512367931808318
1730865960.9835758,-1.8734042644500732,0.954424262046814,-9.58102798461914,-0.2640767547222621,-0.35347756541626896,-10.63065206997967,1.1001926342898822,5.043808243730118,0.8510702133043008
1730865961.033538,-1.8734042644500732,0.954424262046814,-9.58102798461914,-0.2646920568553437,-0.3532191097372546,-10.631190423695255,1.1002953854322186,4.996198410235207,0.7992480169811657
1730865961.033538,-1.824157476425171,0.9195178747177124,-9.613903045654297,-0.2653212816530089,-0.35290365604849666,-10.631779545504271,1.1002943213798833,4.995971778280665,0.7989413806865701
1730865961.0836797,-1.824157476425171,0.9195178747177124,-9.613903045654297,-0.2659652002720466,-0.35253142086429046,-10.632401281508614,1.0997336289795931,4.947199719728907,0.7202070764074574
1730865961.0836797,-1.7324042320251465,0.9404146075248718,-9.695297241210938,-0.26662528019029036,-0.35210045505000925,-10.633036117849093,1.0997291214260378,4.946951745077343,0.7197431058192475
1730865961.133535,-1.7324042320251465,0.9404146075248718,-9.695297241210938,-0.2673030362859658,-0.35160698554844705,-10.63366401733032,1.1011892252218807,1.303700940390604,0.6154454038905031
1730865961.133535,-1.6441199779510498,0.9858413338661194,-9.814929962158203,-0.26799936702178895,-0.35104590303723704,-10.63426531261893,1.1011877282144185,1.3023715154257087,0.6149392199945493
1730865961.1836119,-1.5686087608337402,1.074684739112854,-9.920032501220703,-0.2687139011610049,-0.35041139198084603,-10.634821712636619,1.1005021050816397,0.9912639450688249,0.4833608068812267
1730865961.2334654,-1.542607307434082,1.151999592781067,-10.003628730773926,-0.26944432055260753,-0.34969781252544724,-10.63531750514946,1.1012097653468502,1.4933878487765535,0.32540681538949684
1730865961.283573,-1.5542049407958984,1.2301385402679443,-10.041191101074219,-0.27018585594826655,-0.3489007889799013,-10.635740715817594,1.100164472434377,1.429411058883397,0.14010264364899996
1730865961.3333614,-1.5542049407958984,1.2301385402679443,-10.041191101074219,-0.27093124973065047,-0.3480181893248959,-10.636083794527373,1.098456011675362,1.3650555094038628,-0.07017685687993516
1730865961.3333614,-1.6225168704986572,1.2406723499298096,-10.066964149475098,-0.2716711704564502,-0.3470506622895342,-10.636343699307757,1.0984471269135645,1.364773984750691,-0.07114794730728173
1730865961.3834236,-1.7253564596176147,1.2138913869857788,-10.027120590209961,-0.2723949889252793,-0.34600163588923727,-10.636521562221258,1.0960553747050943,1.2993377367095336,-0.30865940548419507
1730865961.4334004,-1.7253564596176147,1.2138913869857788,-10.027120590209961,-0.2730918509500274,-0.3448769482920285,-10.6366221182891,1.1010925687767987,1.5888735919937615,0.8592674978185434
1730865961.4334004,-1.8377536535263062,1.1672279834747314,-9.96264362335205,-0.2737517497233656,-0.3436843238415208,-10.636652965945565,1.1010893857168158,1.588840638621772,0.8591355859184484
1730865961.4834306,-1.8791604042053223,1.118408203125,-9.90227222442627,-0.27436640310159505,-0.34243275210757035,-10.636623675410583,1.0997327227976657,1.5779413843134134,0.8038367787819781
1730865961.5334456,-1.8703622817993164,1.049418330192566,-9.87574577331543,-0.274929949688275,-0.3411317265205435,-10.636544785267256,1.1024476458509211,1.620824522479648,0.8634056513648825
1730865961.5833516,-1.7904411554336548,0.9940613508224487,-9.860814094543457,-0.27543919879264617,-0.3397903718605663,-10.636426892078223,1.1028387179576142,1.6274953104669128,0.8662132145014543
1730865961.6333067,-1.6464136838912964,0.9628157019615173,-9.86606502532959,-0.27589307476249014,-0.338416615861228,-10.636280070633946,1.101813952523624,1.625100799616624,0.8143234865295412
1730865961.683353,-1.5627888441085815,0.9482263922691345,-9.848698616027832,-0.27629131747222635,-0.33701659732034794,-10.636113622916628,1.1000973696562992,1.6218589219769555,0.7357697912174963
1730865961.7333167,-1.562458872795105,0.9341247081756592,-9.841981887817383,-0.27663301628169135,-0.3355944035059119,-10.63593597848065,1.097687267032305,1.6177727967916657,0.6305284802080791
1730865961.783527,-1.562458872795105,0.9341247081756592,-9.841981887817383,-0.2769157062361545,-0.33415207327508484,-10.635754621082718,1.1025277733927068,1.6310001012740716,0.8491098533230896
1730865961.783527,-1.5797141790390015,0.9555282592773438,-9.840194702148438,-0.2771352474960049,-0.33268977773985453,-10.635576050380333,1.1025217105925202,1.6309921429263374,0.848855335439796
1730865961.8334281,-1.5797141790390015,0.9555282592773438,-9.840194702148438,-0.2772861485875716,-0.3312061468514711,-10.635405806884316,1.1010514105884468,1.6291025833050583,0.7883720867348534
1730865961.8334281,-1.656130313873291,1.0449622869491577,-9.828990936279297,-0.27736203697991074,-0.32969873626568125,-10.635248521848244,1.1010433782239402,1.6290923979607637,0.7880458765457017
1730865961.883437,-1.7408385276794434,1.130565881729126,-9.812065124511719,-0.2773563252555643,-0.328164730493789,-10.635107931586028,1.0988642728111102,1.6263587971900164,0.7003389921969461
1730865961.933372,-1.8037424087524414,1.1793253421783447,-9.80042552947998,-0.2772631596689127,-0.32660192366205365,-10.634986826663466,1.0960124267447195,1.6228320596410257,0.5868598912663876
1730865961.9834905,-1.8700915575027466,1.1633671522140503,-9.820185661315918,-0.277078449386881,-0.32500963702228103,-10.634886996054684,1.1031073493741286,1.6329602045201992,0.8592925957688433
1730865962.0333447,-1.9134926795959473,1.100498914718628,-9.80792236328125,-0.2768006948488985,-0.32338907302790565,-10.634809272501167,1.1017576590586686,1.6313878528831796,0.8031852851844447
1730865962.083408,-1.9134926795959473,1.100498914718628,-9.80792236328125,-0.276431487640324,-0.3217429958175713,-10.63475366085813,1.1032209207154071,1.6336922279882822,0.8563223245175369
1730865962.083408,-1.9817607402801514,0.9967160820960999,-9.799867630004883,-0.27597567198216055,-0.320075054008178,-10.634719438526814,1.1032160787508265,1.633687237002268,0.8561171808861823
1730865962.1332574,-2.009242534637451,0.8998187184333801,-9.762540817260742,-0.27544133607550203,-0.3183889388759142,-10.634705173600357,1.1018241907009276,1.6322096118266878,0.7984340748452912
1730865962.1833553,-2.0146119594573975,0.8520634174346924,-9.732019424438477,-0.27483978678571513,-0.3166873608280302,-10.634708622206736,1.1027696385241457,1.6345275434317277,0.8604606038823055
1730865962.2332752,-1.9653370380401611,0.8578269481658936,-9.763777732849121,-0.2741853413932397,-0.31497113673904537,-10.634726556986653,1.1028016690532154,1.6351579668150718,0.8612972248551063
1730865962.2832632,-1.8760980367660522,0.9307280778884888,-9.811843872070312,-0.2734946700193249,-0.31323888729753596,-10.634754797884455,1.1013135433793089,1.6338685623116138,0.805382985446157
1730865962.3331802,-1.7786275148391724,1.0387083292007446,-9.875558853149414,-0.27278563816371715,-0.31148755199154604,-10.634788658697026,1.099205562217347,1.6318567010387937,0.725268429396569
1730865962.3832405,-1.7020138502120972,1.1243410110473633,-9.926508903503418,-0.2720758573292539,-0.30971355298359615,-10.634823697419687,1.0963744045406267,1.6290288512674425,0.6169702524265996
1730865962.4332123,-1.6601722240447998,1.1989141702651978,-9.964488983154297,-0.2713813170645183,-0.30791417964379153,-10.634856493966724,1.1026799927456055,1.6349186375577909,0.8468048758730006
1730865962.4832904,-1.6342209577560425,1.2611186504364014,-9.975395202636719,-0.270715420501198,-0.30608876988829187,-10.634885230879169,1.1011490447986478,1.6332440945809177,0.7854732701012198
1730865962.5331616,-1.622498869895935,1.2675787210464478,-9.962905883789062,-0.2700885140135087,-0.30423948556037683,-10.634909947703319,1.1034628074779063,1.6351419035510684,0.8509893684960236
1730865962.5832772,-1.639206886291504,1.2061913013458252,-9.937066078186035,-0.2695078246541578,-0.30237154739765904,-10.634932434236344,1.1021306586952673,1.633520347265033,0.7915898315202938
1730865962.6331246,-1.6860491037368774,1.1449236869812012,-9.880510330200195,-0.26897773434227956,-0.30049279588978844,-10.634955807034416,1.1001313934237857,1.6311523914588055,0.7058644644660187
1730865962.6834114,-1.7109571695327759,1.0855287313461304,-9.83228588104248,-0.26850035103682734,-0.29861270733635503,-10.634983848843271,1.1043108469287928,1.6354573534354553,0.847267242725919
1730865962.7330935,-1.709753394126892,1.0741137266159058,-9.788422584533691,-0.2680761941320088,-0.2967412901213654,-10.635020236983793,1.1030255370472628,1.6338609931165626,0.7861043037725549
1730865962.7832174,-1.6724727153778076,1.0828081369400024,-9.795247077941895,-0.26770468359967026,-0.29488827579328086,-10.635067871350815,1.105808626376083,1.6315637169004582,0.6996159535535826
1730865962.8330767,-1.6206578016281128,1.0981696844100952,-9.837224006652832,-0.2673842327356205,-0.2930627738251588,-10.635128551369707,1.1048318181209007,1.628462008432632,0.5840826600441446
1730865962.8830912,-1.5427521467208862,1.13316011428833,-9.84755802154541,-0.2671119555483322,-0.2912733046233222,-10.635203108308671,1.1067045280866317,1.6247473618969825,0.44575090489784763
1730865962.933006,-1.5629488229751587,1.1618047952651978,-9.863628387451172,-0.2668831981192491,-0.28952804536306526,-10.635291795637762,1.1056924174143063,1.6202399737892108,0.27883844161224614
1730865962.9830446,-1.629149079322815,1.215698003768921,-9.845447540283203,-0.2666913330797219,-0.28783518507923417,-10.635394618065435,1.104008031151416,1.6149953768457033,0.08476384695947463
1730865963.0340078,-1.629149079322815,1.215698003768921,-9.845447540283203,-0.26652814038035966,-0.2862033049521526,-10.63551145558026,1.1016147878468319,1.6089380399768556,-0.13942345046140142
1730865963.0340078,-1.6967530250549316,1.2590280771255493,-9.838217735290527,-0.26638455405619843,-0.28464166654662026,-10.635642036474048,1.1016008087091995,1.6089052339450565,-0.14063791646093715
1730865963.084012,-1.7413307428359985,1.2730633020401,-9.82457160949707,-0.2662514300423454,-0.2831603656431,-10.635785864571869,1.1072663976815154,1.602299464303389,0.8433992044147182
1730865963.1339903,-1.7646113634109497,1.2583575248718262,-9.81188678741455,-0.2661202698101332,-0.28177037708452846,-10.635942133700318,1.1060504944424119,1.594905459526722,0.7819503252903282
1730865963.1839724,-1.7786732912063599,1.2127102613449097,-9.802888870239258,-0.2659838060386568,-0.2804833927349387,-10.636109621690943,1.1081556777418342,1.58687289948026,0.8554401547100796
1730865963.233917,-1.8130278587341309,1.14822256565094,-9.807696342468262,-0.2658363372437281,-0.2793113175553366,-10.636286607316027,1.1070459408423086,1.5781621231330951,0.7967901563654346
1730865963.2838762,-1.809478998184204,1.100132703781128,-9.810400009155273,-0.2656738881636175,-0.27826548141847024,-10.636470872017643,1.105266800427796,1.5686957354785664,0.7112477438165357
1730865963.333905,-1.797210454940796,1.1131501197814941,-9.829365730285645,-0.2654942405175851,-0.2773558440877576,-10.636659804186532,1.1092497327685735,1.558632949920018,0.8528716536050072
1730865963.383851,-1.7991148233413696,1.125964879989624,-9.836786270141602,-0.2652967810399664,-0.2765905417745602,-10.636850583532379,1.1080841115920697,1.5477832323284808,0.7921078604127851
1730865963.4338167,-1.7826963663101196,1.1695894002914429,-9.845488548278809,-0.265082223145676,-0.2759759160536768,-10.637040393851972,1.1102206004915023,1.5363387996877247,0.8518068510506227
1730865963.4838102,-1.7767739295959473,1.2048052549362183,-9.856528282165527,-0.26485230907168056,-0.2755168907389208,-10.637226606204209,1.109164743619284,1.5241055636054477,0.7909789699640002
1730865963.5337822,-1.8129676580429077,1.1983704566955566,-9.851751327514648,-0.2646095637376151,-0.27521745640132544,-10.637406907875352,1.1110535171078946,1.5110332738201977,0.8470254022190353
1730865963.5838563,-1.865580439567566,1.1427628993988037,-9.82577133178711,-0.2643572446798521,-0.27508095955572553,-10.637579340349971,1.110026434039625,1.497663368521719,0.7867508798256693
1730865963.633715,-1.881205439567566,1.0834192037582397,-9.824111938476562,-0.2640995629967875,-0.27510994441718495,-10.637742198424524,1.1082649625468592,1.4829311036537722,0.6959903709240938
1730865963.68373,-1.863053321838379,1.0553536415100098,-9.826824188232422,-0.26384194291180485,-0.27530561683763854,-10.637893864945347,1.1121090224393568,1.4685561949091308,0.8463544838512242
1730865963.7337158,-1.8265241384506226,1.0528087615966797,-9.850543975830078,-0.2635909836908228,-0.2756673036184756,-10.63803274589357,1.1109352605422826,1.4524878847702345,0.7840325684402817
1730865963.7837036,-1.7715882062911987,1.0776413679122925,-9.877630233764648,-0.26335402627179133,-0.2761922418386967,-10.638157386582037,1.1091780027501632,1.4365432172975865,0.6988906188731242
1730865963.8336518,-1.7354477643966675,1.0973707437515259,-9.941924095153809,-0.2631384690830396,-0.27687576514982754,-10.638266765960156,1.1131389191692598,1.4196959040471833,0.8462763465181049
1730865963.8837056,-1.689695954322815,1.1317925453186035,-9.966397285461426,-0.2629510454467194,-0.2777117476664205,-10.638360737421667,1.1120139096416846,1.4019209621664133,0.7854215174428915
1730865963.9335935,-1.6389662027359009,1.1293141841888428,-9.971222877502441,-0.26279719379794464,-0.2786931131833139,-10.638440463342935,1.1102345879841107,1.3834986183079165,0.6981286164123887
1730865963.9836588,-1.6623183488845825,1.1505361795425415,-9.938908576965332,-0.26268058320492227,-0.2798122549831116,-10.638508585552975,1.113649440167536,1.3646172988387615,0.584458336056703
1730865964.0335605,-1.685981035232544,1.114296793937683,-9.907242774963379,-0.2626029515723409,-0.2810612838017019,-10.638569002165413,1.1123385238790493,1.3441883796696432,0.43937787694600017
1730865964.0836053,-1.685981035232544,1.114296793937683,-9.907242774963379,-0.26256434290287867,-0.2824320788015998,-10.638626384975815,1.1141013465976783,1.3245138693402905,0.2770338243181945
1730865964.0836053,-1.7127622365951538,1.098321795463562,-9.828071594238281,-0.2625635310598389,-0.2839161947647303,-10.638685652913065,1.1140971093678915,1.3244157001859356,0.2761855502319021
1730865964.1335196,-1.7381293773651123,1.0863145589828491,-9.812661170959473,-0.26259843002933664,-0.2855047468696619,-10.638751431758623,1.1128612108707272,1.3031102195839928,0.08175854385121326
1730865964.1835907,-1.7394286394119263,1.1070185899734497,-9.751754760742188,-0.2626664860920003,-0.2871883580781892,-10.638827472310588,1.1146697866078117,1.2816605540098889,-0.13628937025624055
1730865964.2335656,-1.7783422470092773,1.099996566772461,-9.74980354309082,-0.2627650319539456,-0.28895721375318817,-10.638916142047687,1.1135209516819247,1.258898055097204,-0.38419986398746847
1730865964.2834716,-1.775434136390686,1.1180026531219482,-9.734968185424805,-0.2628915765824324,-0.2908012169055144,-10.639018122057491,1.1117215970292442,1.2355414753016436,-0.6572865203926965
1730865964.3334875,-1.775434136390686,1.1180026531219482,-9.734968185424805,-0.2630440173742706,-0.2927101735947499,-10.639132348360157,1.11437546142456,1.2118145389375066,-0.956616904067559
1730865964.3334875,-1.7961090803146362,1.0978853702545166,-9.74190616607666,-0.26322073346359687,-0.29467393832201894,-10.6392561448334,1.1143705972203117,1.2117064722121538,-0.9580003546542352
1730865964.3834748,-1.8024729490280151,1.096219539642334,-9.761283874511719,-0.2634206202651306,-0.2966824541930355,-10.639385479743332,1.1129485108893291,1.1870058238650354,-1.282702418708979
1730865964.4334664,-1.8024729490280151,1.096219539642334,-9.761283874511719,-0.26364314001455436,-0.29872570828073197,-10.639515308585075,1.1149699063432963,1.161740577630436,0.8674862487368206
1730865964.4334664,-1.8615046739578247,1.0873790979385376,-9.789366722106934,-0.26388838770153716,-0.3007937075912179,-10.63963994114059,1.1149660096454892,1.1616265918041027,0.8672879571359517
1730865964.4834557,-1.8906596899032593,1.113863468170166,-9.796687126159668,-0.264157257107184,-0.3028765210864792,-10.639753392927112,1.1137519819593706,1.1353750769226139,0.8090053732907654
1730865964.533443,-1.8906596899032593,1.113863468170166,-9.796687126159668,-0.26445172007843737,-0.30496439823791655,-10.639849702373038,1.1118812538289007,1.1083662305119684,0.724285923388294
1730865964.533443,-1.8843986988067627,1.1354656219482422,-9.818350791931152,-0.26477498387911685,-0.3070479574339835,-10.63992316814968,1.1118680835157106,1.1082023490741078,0.7236994730334227
1730865964.5834439,-1.8520234823226929,1.1645499467849731,-9.829914093017578,-0.26513134996396215,-0.30911840750997416,-10.639968530989327,1.1093427589189269,1.0804967264215273,0.6127007743736417
1730865964.6334517,-1.8085271120071411,1.176212191581726,-9.861815452575684,-0.2655258086569092,-0.3111677981289943,-10.63998117987283,1.1153853735472314,1.0522821028131049,0.8882350869988366
1730865964.6834452,-1.7181299924850464,1.1627516746520996,-9.876137733459473,-0.26596341181138844,-0.313189235973294,-10.63995739641599,1.1141320889996515,1.0229274236847377,0.8336250573908186
1730865964.7333987,-1.6924563646316528,1.1392431259155273,-9.905946731567383,-0.2664484663266873,-0.315176912853816,-10.639894597649125,1.1159604033545152,0.9928336619281934,0.8873276600043638
1730865964.7834475,-1.6710063219070435,1.1597439050674438,-9.915834426879883,-0.26698377578275556,-0.3171259323739964,-10.639791537331796,1.114792027413756,0.9622934168407904,0.831019961330109
1730865964.8333828,-1.6623401641845703,1.1732234954833984,-9.910504341125488,-0.2675702098400572,-0.31903214694076654,-10.639648415180924,1.112898464099264,0.9298663182194318,0.7455005408069401
1730865964.8834436,-1.6623401641845703,1.1732234954833984,-9.910504341125488,-0.2682066280457768,-0.3208921546299751,-10.63946683503981,1.1104360636600725,0.8980871594040408,0.6378421006053266
1730865964.8834436,-1.664509892463684,1.188157320022583,-9.918722152709961,-0.2688900148585632,-0.32270336638946223,-10.639249638783964,1.1104205528184465,0.8979079208722432,0.6371711997273922
1730865964.933397,-1.664509892463684,1.188157320022583,-9.918722152709961,-0.26961572036474235,-0.32446403730808043,-10.639000727508389,1.116332262114463,0.8654601389763352,0.8773233113304206
1730865964.933397,-1.6572636365890503,1.1673773527145386,-9.908549308776855,-0.2703777264930486,-0.3261732380636274,-10.63872490623421,1.116326598671688,0.8652645097526351,0.8770614894732744
1730865964.9834638,-1.6591688394546509,1.130024790763855,-9.90406608581543,-0.27116887856810024,-0.32783069356226785,-10.6384276973237,1.1150110902093122,0.8311494797037162,0.8186229780509479
1730865965.0333724,-1.6374982595443726,1.1253414154052734,-9.897210121154785,-0.2719810661359612,-0.32943645649702513,-10.638115111859975,1.1175557385988262,0.7968784132730619,0.8854150995820743
1730865965.0834715,-1.6542800664901733,1.1127800941467285,-9.890379905700684,-0.2728053635909886,-0.3309905599709566,-10.637793424658755,1.1181744278152577,0.7619029571897004,0.8848568822541747
1730865965.1333466,-1.6624219417572021,1.1077226400375366,-9.87459659576416,-0.27363219414487866,-0.3324928000040706,-10.637468967189243,1.1171808166159167,0.7254046255000811,0.8290048994569843
1730865965.183495,-1.6624219417572021,1.1077226400375366,-9.87459659576416,-0.27445157483323246,-0.33394264628348536,-10.63714792624267,1.1154990759530794,0.6879404411451344,0.7463790668750984
1730865965.183495,-1.6803877353668213,1.1172305345535278,-9.872438430786133,-0.275253392592246,-0.3353392396633561,-10.636836175669291,1.1154880284604243,0.6877339654930666,0.745855811886757
1730865965.2333581,-1.6642932891845703,1.1443051099777222,-9.851571083068848,-0.2760276398259271,-0.33668149240861406,-10.636539162201293,1.1185080373648257,0.6505193083778681,0.8739509414728279
1730865965.2835011,-1.676072597503662,1.1518168449401855,-9.866317749023438,-0.276764581713636,-0.33796829917782084,-10.636261812164848,1.1172695865374753,0.6115184936708415,0.8167822134902573
1730865965.3333554,-1.688549518585205,1.173169493675232,-9.839729309082031,-0.2774548755253464,-0.3391987932528985,-10.636008451898723,1.1191317905307534,0.5725807384599051,0.8747629052196783
1730865965.3832452,-1.7406500577926636,1.1670211553573608,-9.839791297912598,-0.2780897553353854,-0.34037255363330315,-10.635782742838352,1.1179295569978593,0.532138916560527,0.8169022344763391
1730865965.4331973,-1.7592371702194214,1.1434805393218994,-9.807424545288086,-0.27866137330255547,-0.3414896820475254,-10.635587586959067,1.1199711449247083,0.4916999703871094,0.8735027890576426
1730865965.4832108,-1.7919294834136963,1.1425443887710571,-9.786770820617676,-0.27916321700055835,-0.3425507044282127,-10.63542497471153,1.1188311901316708,0.4491998442088523,0.8143462923682228
1730865965.5332005,-1.8289555311203003,1.1339582204818726,-9.734051704406738,-0.2795904690966186,-0.3435563768655913,-10.635295762523034,1.1169960009893123,0.40593057266456317,0.7287559086485623
1730865965.5832748,-1.8289555311203003,1.1339582204818726,-9.734051704406738,-0.27994026937867744,-0.34450753337376416,-10.635199399442108,1.1204122435148731,0.3630828699898929,0.8689686385949746
1730865965.5832748,-1.906752586364746,1.1017496585845947,-9.722082138061523,-0.2802118969114076,-0.34540498235481454,-10.63513373091813,1.1204068397050082,0.3628392362760266,0.86870835559465
1730865965.6332035,-1.9440362453460693,1.0649313926696777,-9.711519241333008,-0.28040697203650555,-0.34624933855992457,-10.635094990302015,1.1190749358062477,0.3180724110083819,0.8081236137405713
1730865965.6832056,-1.954621434211731,1.0486096143722534,-9.747272491455078,-0.2805297201609919,-0.3470407354530478,-10.635077955805524,1.1181211456570461,0.2738509011479558,0.8799022548070835
1730865965.733109,-1.9300211668014526,1.0519165992736816,-9.785317420959473,-0.28058706292482993,-0.3477785460658584,-10.635076284528154,1.1158857931140258,0.2262697129558792,0.8232729649187095
1730865965.7832572,-1.8917458057403564,1.0662336349487305,-9.863221168518066,-0.28058830137776736,-0.34846130191571745,-10.635083101015107,1.1130323233235087,0.1793986103446667,0.7422891190023677
1730865965.8331983,-1.8261340856552124,1.0515388250350952,-9.917787551879883,-0.28054441790520657,-0.34908682490224724,-10.635091809389406,1.109443622646189,0.13099831605869772,0.633821709799313
1730865965.8832433,-1.7325536012649536,1.0188775062561035,-9.973783493041992,-0.2804671101775426,-0.34965237783700037,-10.635096965057008,1.1160068788751893,0.08371688702484395,0.8698454299113793
1730865965.9331484,-1.7325536012649536,1.0188775062561035,-9.973783493041992,-0.2803677118142474,-0.35015466699867626,-10.635094977981904,1.1139654215718997,0.03363259778233613,0.8091561630892875
1730865965.9331484,-1.6438817977905273,1.0134690999984741,-9.997303009033203,-0.28025626997363356,-0.35058977517741274,-10.635084468681917,1.1139524548888946,0.033358788750221385,0.808755071576224
1730865965.9832146,-1.6068297624588013,1.0392526388168335,-10.010113716125488,-0.2801408796602269,-0.3509532096995653,-10.635066301624207,1.1143780894512179,-0.015621995047653927,0.8769568994584386
1730865966.0331244,-1.5930547714233398,1.1113393306732178,-9.983500480651855,-0.28002717747114697,-0.3512401796012635,-10.635043438864859,1.1121367938358053,-0.06737697131315132,0.8218116449625273
1730865966.0831685,-1.6152253150939941,1.2080261707305908,-9.939994812011719,-0.27991809815682483,-0.3514462049138852,-10.635020608364908,1.1123909733379107,-0.11777939670510926,0.8746918143695406
1730865966.1329873,-1.6628810167312622,1.2549554109573364,-9.904179573059082,-0.2798140824688676,-0.35156803424473987,-10.635003714667457,1.1099708451059482,-0.1712651304685231,0.8168091312289519
1730865966.183079,-1.7237470149993896,1.2498868703842163,-9.840123176574707,-0.27971371073681717,-0.35160451310506746,-10.63499908090929,1.106836261941578,-0.2259122529251855,0.7319452219301541
1730865966.232996,-1.7540323734283447,1.1959750652313232,-9.810408592224121,-0.2796145713308366,-0.351556928207184,-10.635012671366654,1.1106453528868687,-0.27862485623754446,0.8688484865069757
1730865966.282932,-1.7761001586914062,1.1373709440231323,-9.77637004852295,-0.2795140888410763,-0.3514286536644305,-10.635049412107987,1.1116781862378826,-0.3317077711723724,0.876879466265908
1730865966.3329697,-1.7739691734313965,1.080772876739502,-9.734260559082031,-0.27941008458459077,-0.351224314682736,-10.635112691674598,1.110081089890595,-0.38883471929352087,0.8200458075333454
1730865966.3838212,-1.7863746881484985,1.0190056562423706,-9.72805404663086,-0.2793010324906035,-0.35094881613250445,-10.635204031666648,1.1123733821045463,-0.4447862368190726,0.8702718177211968
1730865966.4338863,-1.7863746881484985,1.0190056562423706,-9.72805404663086,-0.27918612291206296,-0.35060649999118754,-10.635322934992697,1.111001002167683,-0.5037888280951249,0.8101606483043189
1730865966.4338863,-1.763444423675537,0.9958710074424744,-9.702902793884277,-0.2790652274629777,-0.3502006119724367,-10.635466941853206,1.110956878838795,-0.505302258560318,0.8082804562720638
1730865966.4838243,-1.7485802173614502,0.980993390083313,-9.72205638885498,-0.27893874953743425,-0.34973310173334715,-10.635631806788277,1.1089431801911627,-0.563217020373154,0.7239858687940909
1730865966.5338418,-1.7739217281341553,0.9647471904754639,-9.749009132385254,-0.27880740083380207,-0.349204589884755,-10.635811757966595,1.1133776495189032,-0.6205558757044048,0.872147048649192
1730865966.5839176,-1.776928424835205,1.0090956687927246,-9.792386054992676,-0.27867208199406757,-0.3486144230277767,-10.635999935690219,1.1120996944938277,-0.6818782497731348,0.8146729221751436
1730865966.6337254,-1.7719019651412964,1.0469619035720825,-9.85647201538086,-0.2785339162032955,-0.347960950641089,-10.636189037882389,1.1143248466475455,-0.7401815103695579,0.8726143187149491
1730865966.6840096,-1.742720127105713,1.0767850875854492,-9.918389320373535,-0.2783942551515988,-0.34724207264367823,-10.636372106290398,1.1131554808478041,-0.8035931919455003,0.813781848282988
1730865966.733826,-1.7308605909347534,1.0838773250579834,-9.983128547668457,-0.2782545218527258,-0.34645584392145395,-10.63654336601389,1.115436748028484,-0.8632195819148307,0.8709067878576323
1730865966.7839155,-1.7244657278060913,1.1198302507400513,-10.016728401184082,-0.27811596357991275,-0.3456009195489702,-10.636698986729112,1.1143969102919935,-0.9278328321865447,0.8118899447968022
1730865966.8337839,-1.6922295093536377,1.1217204332351685,-10.01152515411377,-0.2779794393798589,-0.34467684292276995,-10.636837586744504,1.1163584519282972,-0.9888392692369059,0.8700331290211311
1730865966.8839517,-1.6949405670166016,1.091368556022644,-10.003122329711914,-0.2778452524853381,-0.3436841960178896,-10.636960330054642,1.1152240462929595,-1.0555707926127458,0.8103397174202858
1730865966.9338105,-1.6541407108306885,1.079060673713684,-9.937772750854492,-0.2777129970406055,-0.342624514941317,-10.637070596131661,1.1174254778204589,-1.1177168463445628,0.8703069402411576
1730865966.9837117,-1.6971153020858765,1.0559735298156738,-9.882655143737793,-0.27758145618126995,-0.34149999162690403,-10.637173290899673,1.1163760471310318,-1.1854694685655607,0.8114562707217746
1730865967.0336804,-1.7184339761734009,1.0200108289718628,-9.829143524169922,-0.27744867552860997,-0.3403131128874055,-10.637273925642798,1.119577181740915,-1.2489609336168805,0.8708555906545753
1730865967.0837424,-1.7796587944030762,0.9819168448448181,-9.78043270111084,-0.27731232032939995,-0.3390662795790639,-10.637377682583923,1.1190703785449376,-1.3190742271508216,0.8113734621476694
1730865967.1336548,-1.7767276763916016,0.9837790727615356,-9.749464988708496,-0.27717021555608035,-0.33776142024732897,-10.63748865036145,1.117880952670436,-1.38907220412289,0.7262464035375066
1730865967.1838517,-1.7815088033676147,1.03798508644104,-9.75819206237793,-0.27702079255262485,-0.3363997919052509,-10.63760932634691,1.120841640274334,-1.4549667710179042,0.8669579985081519
1730865967.2337184,-1.7815088033676147,1.03798508644104,-9.75819206237793,-0.27686326322702337,-0.33498215480292765,-10.637740461211887,1.1198538247880037,-1.5267290897880086,0.8063917340510736
1730865967.2337184,-1.7619465589523315,1.1153185367584229,-9.77953052520752,-0.27669757106797876,-0.33350922565410185,-10.637881217518634,1.119846254508292,-1.5271388919810007,0.8059724864742923
1730865967.283684,-1.7306779623031616,1.2181533575057983,-9.794438362121582,-0.2765242043299204,-0.33198229577474647,-10.638029506378732,1.1181746936041508,-1.5994814284853593,0.7191967406860957
1730865967.3336196,-1.7306779623031616,1.2181533575057983,-9.794438362121582,-0.2763439010362577,-0.33040401702963074,-10.638182372249247,1.1158074909822324,-1.6730277669813727,0.6055321549416048
1730865967.3336196,-1.73723566532135,1.2622041702270508,-9.825244903564453,-0.27615737585719385,-0.32877908813704115,-10.638336339909353,1.1157927674522152,-1.6734291093448583,0.6048430623019735
1730865967.3837023,-1.7728885412216187,1.2536513805389404,-9.841352462768555,-0.27596524693381913,-0.3271145279447446,-10.638487730410116,1.1223681886462482,-1.7410198808120105,0.8725604101715893
1730865967.4336104,-1.7957485914230347,1.2329119443893433,-9.852080345153809,-0.27576820495931903,-0.325419566446221,-10.638632982889185,1.1213792157954725,-1.816029622782041,0.8166894287392772
1730865967.4835632,-1.8130037784576416,1.187165379524231,-9.869086265563965,-0.2755673129408158,-0.3237052365998177,-10.638768932769178,1.1239258874100455,-1.8850851863401796,0.8741961703589567
1730865967.5335834,-1.8130037784576416,1.187165379524231,-9.869086265563965,-0.2753642613284358,-0.32198373598816643,-10.638892998130073,1.123014973865336,-1.9615898894361314,0.8165529367364255
1730865967.5335834,-1.8403993844985962,1.1168467998504639,-9.861696243286133,-0.27516148848892,-0.320267739365761,-10.639003266009357,1.1230078810739663,-1.9620245449366052,0.8161520238461971
1730865967.5836523,-1.8365612030029297,1.1099493503570557,-9.855596542358398,-0.2749622181697462,-0.31856975210938365,-10.639098459482291,1.1275791738571868,-2.0314052087917007,0.8766327659854188
1730865967.6335382,-1.8015090227127075,1.1125519275665283,-9.858222961425781,-0.2747704201694158,-0.3169015554143786,-10.639177820133337,1.129512588642012,-2.1017231156263065,0.8791361769759047
1730865967.683565,-1.7416749000549316,1.0947171449661255,-9.853496551513672,-0.2745905456176738,-0.31527388305816906,-10.639240992577502,1.1294620792213692,-2.180529340656602,0.8241803846732377
1730865967.7336876,-1.707353949546814,1.0896289348602295,-9.870576858520508,-0.2744269716865959,-0.31369630694795314,-10.63928796022705,1.1287176434084976,-2.260811965746485,0.7418711234998308
1730865967.7836096,-1.6856294870376587,1.0882185697555542,-9.87708854675293,-0.27428335767540063,-0.31217717785915583,-10.639319048676423,1.1273032472822124,-2.3406950219503373,0.6343642571667576
1730865967.833548,-1.6856732368469238,1.1131680011749268,-9.89499282836914,-0.2741621901593561,-0.31072362495564054,-10.639334995687198,1.1309191258130677,-2.412747542801696,0.8651327927868177
1730865967.8835711,-1.6620116233825684,1.1451038122177124,-9.884458541870117,-0.2740646037465624,-0.30934171339050354,-10.63933703554468,1.1300199235421335,-2.494437185735562,0.8038210144158621
1730865967.9334772,-1.6606212854385376,1.1801331043243408,-9.870457649230957,-0.27399036474194793,-0.3080367810430213,-10.639326901800144,1.1329751635336966,-2.567159038445455,0.8689928932391722
1730865967.9834714,-1.653437852859497,1.1797866821289062,-9.851520538330078,-0.2739379102818442,-0.30681384389875777,-10.639306683948838,1.1324298072277188,-2.650567961419324,0.8093219125224652
1730865968.0334425,-1.653437852859497,1.1797866821289062,-9.851520538330078,-0.2739044383262511,-0.3056778784803304,-10.639278589036293,1.1312012852830642,-2.734569902237109,0.7231956764747479
1730865968.0334425,-1.6758476495742798,1.1824043989181519,-9.821070671081543,-0.2738860738829675,-0.30463388811584613,-10.639244712846551,1.1311925879233258,-2.735036724753896,0.722645377682065
1730865968.0835173,-1.7237505912780762,1.1566532850265503,-9.81063461303711,-0.2738781664795492,-0.303686816033032,-10.639206835733278,1.1292903302894945,-2.8192915364442035,0.6105788392851962
1730865968.1334534,-1.7996176481246948,1.1426687240600586,-9.782665252685547,-0.2738758127234815,-0.3028413602556466,-10.639166207863303,1.1346361368713755,-2.893798448420361,0.8668189690183175
1730865968.1835039,-1.8628112077713013,1.1092867851257324,-9.77823543548584,-0.27387461911243116,-0.30210169695177314,-10.639123346335305,1.1336639802121788,-2.9796274764108657,0.8083900295861365
1730865968.2334023,-1.8774480819702148,1.0935637950897217,-9.79169750213623,-0.273871519013856,-0.3014711580357909,-10.63907792237288,1.1356276316593172,-3.0545977240734468,0.8698103790893018
1730865968.2834685,-1.8534674644470215,1.108945369720459,-9.822172164916992,-0.27386529751315414,-0.3009519679684587,-10.639028837549137,1.1372008570194783,-3.1292883290442823,0.8744696463198056
1730865968.3333826,-1.8534674644470215,1.108945369720459,-9.822172164916992,-0.2738566156333604,-0.3005451649801302,-10.638974497560161,1.1366263552498883,-3.2174422936512412,0.8178691595046093
1730865968.3333826,-1.7973651885986328,1.1064001321792603,-9.855999946594238,-0.27384764947357754,-0.3002507025469988,-10.638913149594458,1.1366215600120155,-3.217904444506457,0.8175039133495609
1730865968.3833833,-1.749116063117981,1.0848197937011719,-9.900351524353027,-0.27384151663876116,-0.3000675655560055,-10.638843215618348,1.1353670306008612,-3.306359621378799,0.7346587772832482
1730865968.4334073,-1.749116063117981,1.0848197937011719,-9.900351524353027,-0.27384159687092835,-0.2999937895445444,-10.638763660207374,1.1334243301374436,-3.395972253407332,0.6249200229316932
1730865968.4334073,-1.6887575387954712,1.0780417919158936,-9.944061279296875,-0.27385093175235486,-0.3000264340027865,-10.638674327633336,1.1334146984465,-3.396351388707659,0.6244014691835182
1730865968.4834383,-1.660573959350586,1.0784896612167358,-9.943114280700684,-0.2738717674229725,-0.30016159951914145,-10.638576163546741,1.1384870597278056,-3.471752224114289,0.8705600427252879
1730865968.5333052,-1.6808581352233887,1.0688133239746094,-9.9386625289917,-0.2739051889813009,-0.30039449555305187,-10.638471311350516,1.1391862194158273,-3.5475136760188635,0.8768771913067145
1730865968.5834394,-1.6925055980682373,1.0484857559204102,-9.91047477722168,-0.2739509898348408,-0.3007194981733883,-10.6383630208703,1.1382096464744935,-3.6393752955349328,0.8219554017102737
1730865968.6333168,-1.7340891361236572,1.0040960311889648,-9.874168395996094,-0.27400789499750305,-0.30113011652164984,-10.638255322870389,1.1408572357708922,-3.7156026616713613,0.8701386017455299
1730865968.6832635,-1.7513102293014526,0.9668171405792236,-9.831408500671387,-0.27407400635528,-0.30161881002524077,-10.638152525373211,1.140106049893824,-3.808268418529591,0.8118367496750188
1730865968.7332773,-1.7513102293014526,0.9668171405792236,-9.831408500671387,-0.27414725989464833,-0.302176731261737,-10.63805866331483,1.1386640588765224,-3.902137080567919,0.7265847726314524
1730865968.7332773,-1.7555934190750122,0.9132131338119507,-9.825553894042969,-0.2742257272500148,-0.3027935558877604,-10.637977095499764,1.138654186118048,-3.902657396703701,0.7260399340052597
1730865968.783267,-1.7511773109436035,0.8991687297821045,-9.808719635009766,-0.2743077250674337,-0.3034574092164679,-10.637910337782786,1.14201947585123,-3.978981195807509,0.8680502107511839
1730865968.833155,-1.7669599056243896,0.9138646125793457,-9.811017036437988,-0.27439183195713457,-0.30415484836517453,-10.637860024107102,1.1410714507866304,-4.073921180063804,0.8111671037471722
1730865968.8833268,-1.7669599056243896,0.9138646125793457,-9.811017036437988,-0.2744769119351387,-0.30487101768587493,-10.637826907835228,1.139437704105649,-4.16960549848909,0.7277070574751133
1730865968.8833268,-1.7647291421890259,0.9623916149139404,-9.817171096801758,-0.274562154247693,-0.3055900459273291,-10.637810928564782,1.139425890853904,-4.170179023760218,0.7271289702302854
1730865968.9331322,-1.7647291421890259,0.9623916149139404,-9.817171096801758,-0.2746470773704026,-0.30629559520108407,-10.637811341583504,1.1435521495499597,-4.246848693605815,0.8693446473725005
1730865968.9331322,-1.774051547050476,0.9942019581794739,-9.836055755615234,-0.2747314944866315,-0.3069714309846178,-10.63782687317949,1.143548957900115,-4.24737025428926,0.8691120608662333
1730865968.9830694,-1.7563841342926025,1.0308074951171875,-9.850176811218262,-0.2748154798170197,-0.3076019326709356,-10.637855909842013,1.1426277769148814,-4.343204964004481,0.8134970452083332
1730865969.0331802,-1.7418923377990723,1.052126407623291,-9.863423347473145,-0.2748992989665787,-0.3081725732965137,-10.637896730990475,1.1409978981661535,-4.441705671772877,0.7300589488678565
1730865969.0830772,-1.7634446620941162,1.1164103746414185,-9.859697341918945,-0.27498328115252246,-0.30867040292107006,-10.637947726859545,1.1387043911548898,-4.539726311366356,0.6212020653149476
1730865969.1331055,-1.7613576650619507,1.1499154567718506,-9.857751846313477,-0.27506774661285205,-0.3090845384346836,-10.638007518569529,1.1452393511352623,-4.617674009877173,0.8731990417557927
1730865969.1830616,-1.7668864727020264,1.152148723602295,-9.854114532470703,-0.2751530482818295,-0.30940660393677594,-10.638074963847785,1.147712292919125,-4.695109011507808,0.8773230913427421
1730865969.2330203,-1.7597706317901611,1.146106243133545,-9.849930763244629,-0.27523962750530695,-0.3096309351401807,-10.638149100812406,1.1472955570093242,-4.795757182795107,0.8216054568121235
1730865969.2830868,-1.7832831144332886,1.1196283102035522,-9.831854820251465,-0.2753280305276806,-0.309754435927644,-10.638229066128925,1.1494963146756638,-4.873175061429985,0.869479536664081
1730865969.3329446,-1.7911642789840698,1.0579688549041748,-9.824539184570312,-0.2754189548613416,-0.3097761390170079,-10.638313977099667,1.1488938921240779,-4.974627241970146,0.810883558516048
1730865969.3830001,-1.793712854385376,1.0126854181289673,-9.833224296569824,-0.2755133518992692,-0.3096965296274611,-10.638402806961542,1.1476008325369595,-5.0523022154015,0.7255032631002026
1730865969.432937,-1.7517714500427246,1.0202561616897583,-9.849518775939941,-0.27561246561206976,-0.30951679092607814,-10.638494353291659,1.1456178571401252,-5.155352022306296,0.6134910816493214
1730865969.4829564,-1.7155946493148804,1.0792349576950073,-9.881749153137207,-0.2757176489197659,-0.3092383356529571,-10.638587368105847,1.1559489284067153,-5.232575135312856,0.8548912362527668
1730865969.532836,-1.6973638534545898,1.1483683586120605,-9.885079383850098,-0.27582996946526495,-0.30886291254697973,-10.638680809015783,1.15578477566287,-5.336497815836102,0.7921239423326191
1730865969.5827827,-1.6990910768508911,1.1914793252944946,-9.90003490447998,-0.27594982664658085,-0.30839318787082076,-10.638774084670146,1.1549319533827016,-5.441460596838676,0.7026537958482993
1730865969.6338701,-1.7048535346984863,1.1952179670333862,-9.894710540771484,-0.2760767872566536,-0.30783338562618207,-10.638867189770988,1.153337915667557,-5.550090122496504,0.5830688324692404
1730865969.6838133,-1.7279154062271118,1.140415906906128,-9.889106750488281,-0.276209663580998,-0.30718955904339074,-10.638960712525556,1.1510921463014923,-5.6564019140660555,0.4400315402257825
1730865969.7338028,-1.7279154062271118,1.140415906906128,-9.889106750488281,-0.2763467404881872,-0.30646933863344716,-10.63905574393739,1.1585738662983671,-5.733196004010235,0.2701296623759927
1730865969.7338028,-1.727390170097351,1.0967813730239868,-9.850716590881348,-0.2764860178070431,-0.3056813731863259,-10.639153715777038,1.1585701982728143,-5.733856267827293,0.26900273808615843
1730865969.7837937,-1.7448590993881226,1.0502889156341553,-9.854978561401367,-0.27662537634459883,-0.30483472927910904,-10.639256169413631,1.1576380965587534,-5.840596588464404,0.07433925814235329
1730865969.8337355,-1.7205950021743774,1.0371060371398926,-9.837763786315918,-0.2767626784428464,-0.3039383009954544,-10.639364504285618,1.1616978899388886,-5.916983469455487,-0.14864166650625993
1730865969.8838043,-1.7044275999069214,1.004769206047058,-9.838481903076172,-0.2768957864924621,-0.3030002861752497,-10.639479801208367,1.1614706362020268,-6.026179748924941,-0.39879598799058297
1730865969.9337204,-1.6762114763259888,1.0011883974075317,-9.852025985717773,-0.2770224374416197,-0.30202783333806005,-10.639602754566836,1.1605523300112883,-6.135779044557101,-0.6747179130889087
1730865969.9836867,-1.6579885482788086,0.9812003374099731,-9.872231483459473,-0.27714001475077715,-0.3010268536278539,-10.63973372884246,1.158944120023006,-6.2460697452275555,-0.976999961397199
1730865970.0337353,-1.6788157224655151,1.0039273500442505,-9.869159698486328,-0.2772453584788478,-0.3000019687359022,-10.639872927577533,1.1646918063604215,-6.321464737149888,0.834790610865063
1730865970.0836577,-1.7302862405776978,0.9892690777778625,-9.866273880004883,-0.27733479846406983,-0.29895659761619275,-10.64002055309586,1.1639718882330048,-6.432850153014504,0.7712706062677778
1730865970.1336935,-1.7302862405776978,0.9892690777778625,-9.866273880004883,-0.27740449052984595,-0.29789311891422865,-10.640176855050322,1.1660766364669506,-6.507892276339452,0.8410520787732774
1730865970.1336935,-1.7561147212982178,1.0005706548690796,-9.84821891784668,-0.27745085915444,-0.2968130203599091,-10.640342088253414,1.166074379967177,-6.508516020064268,0.8407889351104003
1730865970.1836424,-1.7367112636566162,1.0267400741577148,-9.844929695129395,-0.2774708921914135,-0.2957170727317379,-10.640516420244003,1.1653295462131346,-6.581698974420601,0.8504457067539197
1730865970.2335315,-1.7292639017105103,1.0034098625183105,-9.847564697265625,-0.27746221622763567,-0.29460557492824174,-10.640699825278713,1.1638870146540785,-6.694832917989244,0.7963775814336285
1730865970.283596,-1.7082710266113281,1.0320013761520386,-9.856908798217773,-0.27742298811435157,-0.2934785703900227,-10.6408920412319,1.161757074021483,-6.8084114758335375,0.7159419608885241
1730865970.3336132,-1.7297741174697876,1.0265306234359741,-9.872505187988281,-0.27735171260595104,-0.29233598678243017,-10.641092634428931,1.1589125642237814,-6.923605927058168,0.6081042295195743
1730865970.3835676,-1.73284912109375,1.026072382926941,-9.879054069519043,-0.2772471502054152,-0.2911777536460605,-10.641301141942382,1.16190245984086,-6.99542428517706,0.837449865612727
1730865970.4335475,-1.7507237195968628,1.0402652025222778,-9.899032592773438,-0.27710837528509524,-0.29000389215380484,-10.641517235540176,1.1600130912996,-7.111101839725705,0.7766730544825168
1730865970.4835615,-1.7441734075546265,1.067531943321228,-9.886956214904785,-0.276934895085979,-0.2888146060322212,-10.641740858441455,1.157431470743321,-7.227474459481756,0.6893008546289535
1730865970.5335526,-1.7646288871765137,1.0706843137741089,-9.89332103729248,-0.27672673444813034,-0.28761044831481797,-10.641972284858095,1.154114207227013,-7.299682057673814,0.8362301159410551
1730865970.583584,-1.8092890977859497,1.0768513679504395,-9.85693645477295,-0.2764845256771802,-0.28639250217682727,-10.642212061428934,1.1501921198178116,-7.415665942390414,0.7760651931677921
1730865970.6335008,-1.8451093435287476,1.0780317783355713,-9.835271835327148,-0.27620972770078317,-0.28516246402427536,-10.642460809643733,1.1455272624437167,-7.533964670083692,0.688551385003641
1730865970.6835158,-1.8778879642486572,1.068177342414856,-9.794242858886719,-0.2759049727177847,-0.2839226192403874,-10.642718899310594,1.1401859385039472,-7.602812089057845,0.8360559144163519
1730865970.7335863,-1.8792659044265747,1.0619271993637085,-9.761591911315918,-0.2755743694644603,-0.28267573913240496,-10.642986054395763,1.1341405876625796,-7.722044458664457,0.7751016537271386
1730865970.7835293,-1.8781741857528687,1.0342954397201538,-9.767451286315918,-0.27522359912221045,-0.2814249051157369,-10.643261001235693,1.1274301765119916,-7.7894781869756216,0.839635833142508
1730865970.8334446,-1.8781741857528687,1.0342954397201538,-9.767451286315918,-0.2748597785511413,-0.2801732772951246,-10.643541304696106,1.178651166009981,-7.856149561393015,0.8457736235744279
1730865970.8334446,-1.8452465534210205,1.0448501110076904,-9.792409896850586,-0.2744911682933038,-0.27892389186888167,-10.643823466263314,1.1786631840073831,-7.85678030273146,0.8455456302673062
1730865970.8834481,-1.7909832000732422,1.0523160696029663,-9.833215713500977,-0.27412673745803073,-0.27767959942743187,-10.644103240478369,1.180592777592976,-7.976249701195609,0.7892768391425906
1730865970.9334626,-1.7380390167236328,1.0403714179992676,-9.891928672790527,-0.27377552931443483,-0.27644312156657996,-10.644376136158225,1.181853412272387,-8.097378158286244,0.7059539198314665
1730865970.9834626,-1.6841381788253784,1.027842402458191,-9.939653396606445,-0.2734458880994798,-0.2752170746152087,-10.644638071760648,1.1824278454455566,-8.219345562172897,0.5957759524653207
1730865971.0333781,-1.598343849182129,1.0370818376541138,-9.97574520111084,-0.27314467497835115,-0.2740039005707275,-10.644886055038052,1.183879883694486,-8.282859439803566,0.8446487434499635
1730865971.083417,-1.598343849182129,1.0370818376541138,-9.97574520111084,-0.2728765592013857,-0.27280580324659276,-10.64511869361468,1.1842928039477676,-8.404970050266044,0.7865031728412631
1730865971.083417,-1.5712602138519287,1.0332560539245605,-9.993497848510742,-0.27264354982337863,-0.2716247566456431,-10.645336409986498,1.184293194078479,-8.405634174713349,0.7861156704863085
1730865971.133399,-1.550557255744934,1.039259433746338,-9.944525718688965,-0.2724448843631648,-0.2704625364392702,-10.645541359511256,1.1847980707309826,-8.467302360163854,0.8480528860909852
1730865971.1834455,-1.5575945377349854,1.0153611898422241,-9.915091514587402,-0.27227714943710907,-0.2693207219665944,-10.64573707200882,1.1845815451981985,-8.590618769013632,0.7935057854137334
1730865971.233443,-1.6128383874893188,0.9890211224555969,-9.859123229980469,-0.27213457398803353,-0.2682006203766704,-10.645927847080813,1.1836840708001357,-8.714618576011178,0.7123229786690305
1730865971.283348,-1.6128383874893188,0.9890211224555969,-9.859123229980469,-0.2720095814748672,-0.2671030900680114,-10.64611806562629,1.1821109662808569,-8.838962301622557,0.6048231705641169
1730865971.283348,-1.700724482536316,0.9786924719810486,-9.800239562988281,-0.27189353023722396,-0.26602836907405614,-10.646311617555117,1.182100418973771,-8.839649556334239,0.6041571821535084
1730865971.3333108,-1.7688379287719727,1.0146944522857666,-9.755945205688477,-0.2717775580245013,-0.264976047360605,-10.646511445207457,1.1856610177336544,-8.89689275378557,0.8398165888531044
1730865971.3833656,-1.7688379287719727,1.0146944522857666,-9.755945205688477,-0.2716534927661811,-0.2639452220510127,-10.646719117710266,1.1874484626728858,-8.954074549928503,0.8476746007902168
1730865971.3833656,-1.8208271265029907,1.02140212059021,-9.763900756835938,-0.2715145834656173,-0.26293474828842234,-10.646934569079054,1.18744761987399,-8.954728027689107,0.8474539928813187
1730865971.433279,-1.8217395544052124,1.0340009927749634,-9.765320777893066,-0.271355888977285,-0.26194344796358177,-10.647156156781602,1.1869503801602013,-9.079431427780948,0.7922490590768562
1730865971.48329,-1.782911777496338,1.0537012815475464,-9.80487060546875,-0.2711743875490824,-0.26097026359906705,-10.647380957388593,1.1896886796059523,-9.13458036557595,0.8496303965107673
1730865971.5332751,-1.7525897026062012,1.0612386465072632,-9.85537052154541,-0.27096876369285083,-0.2600144259340412,-10.647605214681711,1.1893613461444879,-9.260812026665574,0.7948063433764666
1730865971.5832372,-1.7406247854232788,1.1116029024124146,-9.87990665435791,-0.27073890371548964,-0.25907565308082803,-10.647824937441495,1.1883600624194683,-9.387340585786946,0.7136044582165415
1730865971.633259,-1.770524501800537,1.115897536277771,-9.90289306640625,-0.27048541420954375,-0.2581543912968404,-10.64803650743883,1.1866724857933535,-9.515334198867816,0.6051291887776727
1730865971.683197,-1.7900440692901611,1.1545110940933228,-9.899785995483398,-0.2702094396699646,-0.25725206875385087,-10.648237097682397,1.19189935899262,-9.564886434670965,0.8385303158541654
1730865971.7331789,-1.8505797386169434,1.163799524307251,-9.896068572998047,-0.2699127997134605,-0.2563712894805953,-10.648424833376723,1.193387634093459,-9.614641319869254,0.8464637975626544
1730865971.783353,-1.8653908967971802,1.1624170541763306,-9.862640380859375,-0.2695983138824508,-0.2555159247765041,-10.648598719775917,1.1927855217186318,-9.74338272423965,0.7893818047520399
1730865971.8332534,-1.84821355342865,1.119704008102417,-9.858514785766602,-0.2692700920903528,-0.254691021154851,-10.648758392153226,1.1915163749908138,-9.871727579643325,0.706204090085401
1730865971.8832345,-1.8270213603973389,1.114829421043396,-9.805334091186523,-0.2689335362389713,-0.25390245796098443,-10.6489037718395,1.1895732262957868,-10.001026649035913,0.5962726730364992
