Timestamp,IMU_Linear_Acc_X,IMU_Linear_Acc_Y,IMU_Linear_Acc_Z,Filtered_X,Filtered_Y,Filtered_Z,Pose_X,Pose_Y,Pose_Z
1730865946.8840554,-1.6525182723999023,1.072100281715393,-9.886634826660156,-0.0004941178176420211,-0.000393936991067901,-0.06090279618859634,0.8698176649724364,3.831000101100424,0.8989996672943589
1730865946.9339588,-1.6460669040679932,1.1705397367477417,-9.888028144836426,-0.000715198438992586,-0.0006340396150118331,-0.08425857540921607,0.9033634453888008,3.8310001044003177,0.8989991128711902
1730865946.9839773,-1.5448205471038818,1.3515266180038452,-9.916738510131836,-0.001000188129101328,-0.0009704040792964995,-0.11317902620634604,0.9038322635768766,3.831000104198881,0.8989990001874849
1730865947.0338826,-1.4505513906478882,1.3764179944992065,-9.885746955871582,-0.0013582744280504814,-0.0014238356481908196,-0.14825067490781463,0.8913845560496813,3.8309896940366253,0.8989984207807236
1730865947.083904,-1.4505513906478882,1.3764179944992065,-9.885746955871582,-0.001797211312439513,-0.0020175576347838276,-0.19002765889815676,0.8474778461102853,3.8309619708102187,0.8989770294809586
1730865947.083904,-1.483825922012329,1.3574954271316528,-9.83907413482666,-0.0023225407813822446,-0.0027773291604247996,-0.23902529210233542,0.8464182490224419,3.8309612979408127,0.8989761535903853
1730865947.1338828,-1.5220105648040771,1.4168083667755127,-9.791072845458984,-0.002937526790797156,-0.0037308781699439443,-0.29571447970574194,0.8854936728310254,3.8308288674154345,0.8984660422470839
1730865947.1838188,-1.466209888458252,1.5062932968139648,-9.781386375427246,-0.003643581288619815,-0.0049073540318083555,-0.3605169680617162,0.8803264312624655,3.830694991601315,0.8971297405832062
1730865947.2339377,-1.466209888458252,1.5062932968139648,-9.781386375427246,-0.004440589181225956,-0.006337185010568814,-0.43380154711251173,0.8751596472918229,3.830547307403761,0.8948013427194017
1730865947.2339377,-1.6475468873977661,1.4503509998321533,-9.745635986328125,-0.0053271057221554625,-0.008051975376411807,-0.515881295919819,0.8751267595751322,3.830546317552983,0.8947830605798204
1730865947.2838902,-1.7597566843032837,1.3032793998718262,-9.741059303283691,-0.006301096751590375,-0.010083794689440208,-0.6070117004639999,0.8838142735322245,3.830345401884335,0.8911386966109582
1730865947.3337905,-1.6816997528076172,1.2365984916687012,-9.753911018371582,-0.007361248192613811,-0.012463694449690092,-0.7073894803254237,0.8796341899007687,3.830097962402915,0.8859230859180518
1730865947.3838024,-1.757475733757019,1.2633165121078491,-9.788309097290039,-0.008507851624316574,-0.015220038739445437,-0.8171521886408522,0.8773998477469185,3.82985691296672,0.8786690625735721
1730865947.4338114,-1.9410609006881714,1.2342725992202759,-9.715015411376953,-0.009743073355560279,-0.018377439500765647,-0.9363785298936262,0.8747678250095046,3.8294920187835513,0.8693805381782358
1730865947.4836771,-1.7980672121047974,1.2204742431640625,-9.816902160644531,-0.011071334882073075,-0.021956402300733202,-1.0650891387777905,0.8716887844901442,3.8291544528049304,0.8575409761390493
1730865947.5337312,-1.6201061010360718,1.2407430410385132,-9.861479759216309,-0.012499362428569792,-0.025973250236996204,-1.2032478879113166,0.8685749138472416,3.828756435870694,0.8428477906704875
1730865947.5837328,-1.6417081356048584,1.2559638023376465,-9.932706832885742,-0.014035014418857506,-0.03044017789580568,-1.3507639661169009,0.8757202763600859,3.828225871428486,0.8249548433195177
1730865947.6336718,-1.4783844947814941,1.2720919847488403,-9.962823867797852,-0.015685552368811265,-0.035365504661840665,-1.5074945065979315,0.8752052566556118,3.82767417081126,0.8034937909081319
1730865947.6836586,-1.4127205610275269,1.249739170074463,-9.95790958404541,-0.01745625486117496,-0.040754002846580976,-1.6732473154160792,0.8746483700491929,3.8270267877324557,0.7780357682646979
1730865947.7336457,-1.4345476627349854,1.2176520824432373,-9.960887908935547,-0.019349379152827785,-0.04660708003095222,-1.847783471493295,0.8714827242475419,3.826193771700049,0.74821977904049
1730865947.7836764,-1.6071974039077759,1.2252144813537598,-9.856568336486816,-0.02136380473834119,-0.05292275903491855,-2.0308197321914045,0.8701160889503085,3.82531382375273,0.7136030655227164
1730865947.8337014,-1.532752275466919,1.1856809854507446,-9.923158645629883,-0.02349574730934258,-0.05969560671327787,-2.2220308029942943,0.868685196341819,3.824287299145352,0.673443338865392
1730865947.8835726,-1.49844229221344,1.2116985321044922,-9.878271102905273,-0.025739760698096168,-0.06691674588706191,-2.421051778428697,0.8682285764696136,3.8230179406235343,0.6279265905108079
1730865947.9345996,-1.521494746208191,1.106750726699829,-9.946966171264648,-0.028089093184011208,-0.07457390376540857,-2.6274810387275283,0.8669590289275751,3.821631663244743,0.5747825821159154
1730865947.9846032,-1.521494746208191,1.106750726699829,-9.946966171264648,-0.030535657381040728,-0.08265133847973599,-2.840883544379261,0.870307790996296,3.819954017800948,0.5153905701331583
1730865947.9846032,-1.521235466003418,1.066617727279663,-9.89339542388916,-0.033070172596512994,-0.09112965034005382,-3.0607942609371044,0.87030957142148,3.8199429658848016,0.514974862280061
1730865948.034629,-1.6524330377578735,0.9745575785636902,-9.893824577331543,-0.03568253938255323,-0.0999856346956968,-3.2867214004861345,0.8708799285498431,3.818049814444557,0.4488781986782489
1730865948.0845356,-1.6524330377578735,0.9745575785636902,-9.893824577331543,-0.03836249393138713,-0.10919215059405288,-3.518149457232666,0.8710702060664038,3.8160016079786083,0.3738300076940606
1730865948.0845356,-1.714928388595581,0.9513433575630188,-9.833707809448242,-0.04110044203905936,-0.11871804800553884,-3.7545422740531538,0.8710711421992623,3.8159872239261534,0.3733069490840715
1730865948.1347377,-1.6118273735046387,0.9223973155021667,-9.884674072265625,-0.043888004168100035,-0.12852835331553666,-3.995346163938014,0.8711584096344683,3.813640594462194,0.2888238657165868
1730865948.1846237,-1.3661701679229736,0.9260615110397339,-9.857068061828613,-0.04671772767469726,-0.13858465718439283,-4.239993082474719,0.8711327803977641,3.81095823025614,0.1939762798970147
1730865948.2345996,-1.2212275266647339,0.8862243294715881,-9.932165145874023,-0.04958162727357556,-0.14884555071953387,-4.4879039624592565,0.8684932686683078,3.8077663728973827,0.08849608811347917
1730865948.2835228,-1.0323896408081055,0.8774198889732361,-9.941996574401855,-0.05246897219144292,-0.15926705908022634,-4.738492200192825,0.8678719211735678,3.8044095657382213,-0.026316698114036002
1730865948.3344536,-1.2495695352554321,0.9381879568099976,-9.924843788146973,-0.055364536538463134,-0.16980311546634075,-4.991167121197816,0.8692184912989501,3.8003297015308917,-0.15784529685499799
1730865948.3844686,-1.4342632293701172,1.0002256631851196,-9.9284086227417,-0.0582486052110825,-0.1804063053636232,-5.2453371533132955,0.8690937463245193,3.7960434640778056,-0.30021738024279154
1730865948.4344435,-1.6491162776947021,1.1198151111602783,-9.88106918334961,-0.061099076918538706,-0.19102904489763534,-5.5004125946766,0.8688211195343332,3.791313808857419,-0.4553385766101284
1730865948.4846096,-1.8150001764297485,1.2128596305847168,-9.911548614501953,-0.06389460007314063,-0.20162507801697863,-5.755808113817572,0.8683855536643844,3.7860126427614618,-0.6271436193260334
1730865948.5345068,-1.8747748136520386,1.2866096496582031,-9.855307579040527,-0.06661737722140973,-0.21215102278496478,-6.010945132480513,0.866529391970213,3.7800873632759733,-0.8098421040500106
1730865948.5845046,-1.8972151279449463,1.2438414096832275,-9.890105247497559,-0.06925491338539624,-0.22256756577975884,-6.265254132161138,0.8602549014627023,3.7735481256083596,-1.0096236482341656
1730865948.6345894,-1.8699368238449097,1.2726092338562012,-9.829380989074707,-0.0718005440383795,-0.23283994855921816,-6.518176853318526,0.857517088905822,3.766630647338258,-1.2266640525500425
1730865948.6844258,-1.8699368238449097,1.2726092338562012,-9.829380989074707,-0.07425303679898407,-0.24293785745145602,-6.769168330783368,0.8583850387846904,3.7589569256657716,-1.4570978455532797
1730865948.6844258,-1.9649289846420288,1.1705948114395142,-9.842905044555664,-0.07661587543882607,-0.2528350507993072,-7.017698769972888,0.8583740696004797,3.7589072439537405,-1.458635637992341
1730865948.7343395,-1.755480170249939,1.117276906967163,-9.814167976379395,-0.07889659704491728,-0.2625086858844756,-7.263255375803412,0.8565761875990623,3.7508811320938062,-1.7060048445017841
1730865948.7843802,-1.648979902267456,1.0715574026107788,-9.870731353759766,-0.08110574098486348,-0.27193831585706374,-7.505344170319498,0.8590228881009112,3.741814090192443,-1.974189647209431
1730865948.8343627,-1.619248390197754,1.0923936367034912,-9.766934394836426,-0.08325507915708065,-0.2811049820849159,-7.743491682563969,0.8584403966288205,3.7323295428379617,-2.261943886379784
1730865948.8843756,-1.5719029903411865,1.1600306034088135,-9.814069747924805,-0.08535589956715169,-0.28999084630778704,-7.977246345956235,0.8608244560750429,3.7218442291966083,-2.568091507384651
1730865948.9342463,-1.4718180894851685,1.2043366432189941,-9.855443000793457,-0.08741794945065381,-0.2985794564427712,-8.206179686206543,0.8610334613622816,3.7109818294051085,-2.893374617342701
1730865948.9843962,-1.5622344017028809,1.2559999227523804,-9.844598770141602,-0.08944880708461356,-0.30685639027061506,-8.429887614748642,0.8656884469619753,3.698822112800337,-3.2447074160993408
1730865949.0343103,-1.6065484285354614,1.3037285804748535,-9.91126537322998,-0.09145373566441067,-0.31480991503472033,-8.647991790522799,0.8675086679166023,3.6864760443047673,-3.6104364642058697
1730865949.084335,-1.6464300155639648,1.3352413177490234,-9.848318099975586,-0.09343623663720756,-0.3224314951616326,-8.86014075989767,0.8691283124203532,3.673110955462929,-4.004629797745776
1730865949.1342292,-1.7890230417251587,1.2793657779693604,-9.847938537597656,-0.09539900397762141,-0.3297160415218976,-9.066010703755547,0.8675336715550106,3.6586260820493632,-4.417705697767228
1730865949.1843033,-1.9112098217010498,1.1769911050796509,-9.826825141906738,-0.09734507483645323,-0.3366616381439837,-9.26530575445476,0.8680224504819298,3.6437964987541593,-4.851567084541313
1730865949.2342906,-1.7468112707138062,1.169215440750122,-9.872337341308594,-0.09927896576008598,-0.3432686627701114,-9.457758119221687,0.8682690172751648,3.628057553043169,-5.310580200772641
1730865949.2843397,-1.7610691785812378,1.1731765270233154,-9.90518856048584,-0.10120700212457942,-0.34953878863393906,-9.643128323510508,0.8689010573193413,3.610891136818042,-5.7956200166919185
1730865949.3341703,-1.772855281829834,1.1963719129562378,-9.869773864746094,-0.10313668597608175,-0.35547444936820705,-9.82120554946115,0.8691418983133441,3.5935007151688265,-6.299782479865476
1730865949.3842542,-1.7723252773284912,1.1582468748092651,-9.856871604919434,-0.10507603579829032,-0.3610787546198733,-9.991807730676353,0.8691248872500291,3.575027510868844,-6.834134467382829
1730865949.4341888,-1.5951693058013916,1.1924304962158203,-9.84045124053955,-0.10703318348995053,-0.36635548864628575,-10.154781221560876,0.8704268860363137,3.5552123081102307,-7.390025438637136
1730865949.4842129,-1.4303251504898071,1.1096744537353516,-9.871488571166992,-0.1090154875221933,-0.3713090073444267,-10.310000265843764,0.8705835700897251,3.534908891681669,-7.974782490719926
1730865949.5342839,-1.4303251504898071,1.1096744537353516,-9.871488571166992,-0.11102797883080527,-0.3759439868345466,-10.457366535325521,0.8661261972135086,3.5131424731367984,-8.583247473897737
1730865949.5342839,-1.4494115114212036,1.127644419670105,-9.831385612487793,-0.11307209705150657,-0.38026509601790004,-10.596808691790914,0.8661159220428357,3.513004168339378,-8.587219625151072
1730865949.5842733,-1.374488115310669,1.0864741802215576,-9.847817420959473,-0.11514541876485337,-0.384276822870982,-10.72828175007872,0.8643745423808837,3.491009271430244,-9.218536900016115
1730865949.634126,-1.374488115310669,1.0864741802215576,-9.847817420959473,-0.11724191060769731,-0.38798344474216034,-10.851766261998012,0.8638086990369999,3.4673579596724413,-9.877601643164587
1730865949.634126,-1.4525998830795288,1.0719263553619385,-9.802490234375,-0.11935224039688143,-0.3913889626041621,-10.967267473165766,0.8637981451400342,3.467196029674805,-9.882239580245761
1730865949.684152,-1.5784028768539429,1.0320987701416016,-9.840079307556152,-0.12146449317158889,-0.39449700115854225,-11.07481440980228,0.8621324422245352,3.443434814049632,-10.562524952252792
1730865949.734146,-1.5448294878005981,0.9901504516601562,-9.828018188476562,-0.12356545115431665,-0.39731065443741986,-11.174458913490977,0.8644847856115722,3.4176332817149686,-11.279881720344662
1730865949.7841535,-1.495914340019226,0.9905200004577637,-9.897010803222656,-0.12564172212077288,-0.3998322424796009,-11.266274792381608,0.8638593521743542,3.3915278577913113,-12.025893928831868
1730865949.8341901,-1.5989469289779663,0.96947181224823,-9.889765739440918,-0.12768017095072498,-0.40206313457946363,-11.35035711632779,0.8640218071651324,3.3639421756275363,-12.791377755448485
1730865949.8841543,-1.5671354532241821,0.9694827198982239,-9.91878890991211,-0.12966810319926503,-0.40400375396311505,-11.426821508134896,0.8635283053407946,3.3352157126205966,-13.587653516270725
1730865949.9341342,-1.4966825246810913,0.9941743016242981,-9.964380264282227,-0.1315935251134439,-0.40565372974268255,-11.495803315784164,0.8627309853891458,3.3061106818092885,-14.41758466175823
1730865949.984129,-1.4800490140914917,0.969645619392395,-9.981051445007324,-0.13344507851925574,-0.40701215894035936,-11.557456727227619,0.8615965189070968,3.275834801766635,-15.28075198017246
1730865950.0342054,-1.459653377532959,1.016774296760559,-9.992463111877441,-0.1352116191772189,-0.40807791698552004,-11.611953848575832,0.8601308699234308,3.2446728927439907,-16.169093800404355
1730865950.0840492,-1.5144121646881104,1.049118995666504,-9.973414421081543,-0.1368819482300444,-0.4088500152700978,-11.659483596933306,0.8659042686116012,3.2118403958878203,-17.07764737813512
1730865950.1340241,-1.6105612516403198,1.0086636543273926,-9.94045639038086,-0.1384450386124032,-0.4093280207395744,-11.700250307533441,0.8658665153720416,3.1787355057603937,-18.020920075747238
1730865950.1840804,-1.6105612516403198,1.0086636543273926,-9.94045639038086,-0.13989073541395633,-0.40951231799834725,-11.734472113310986,0.8678546706760137,3.143522998140489,-18.99501297857039
1730865950.1840804,-1.5536221265792847,1.06661057472229,-9.94149398803711,-0.14121044034474817,-0.4094041420484201,-11.762379299523309,0.867857784649089,3.1432939870093404,-19.00153635627149
1730865950.2339597,-1.603241205215454,1.065562129020691,-9.964529037475586,-0.14239726953587098,-0.4090056976568508,-11.784212840374014,0.8681499210622377,3.1085073343896323,-19.99259666720662
1730865950.2839465,-1.879683494567871,1.0326447486877441,-9.866992950439453,-0.1434461440088805,-0.40832040347814136,-11.80022305659324,0.8680908578379349,3.0720928219077877,-21.030407362665624
1730865950.3339956,-1.879683494567871,1.0326447486877441,-9.866992950439453,-0.14435469972384196,-0.40735292821559566,-11.810668106858332,0.8713191728458477,3.034111925277169,-22.080412113901986
1730865950.3339956,-2.0737950801849365,0.9914940595626831,-9.809025764465332,-0.14512476574109895,-0.40610895703855715,-11.815812270459716,0.8713229640636561,3.0338461199599234,-22.08798861958664
1730865950.3840535,-2.0737950801849365,0.9914940595626831,-9.809025764465332,-0.14576351244778007,-0.4045948806936411,-11.815924293834945,0.8716792579466981,2.9955088970271637,-23.181107402262356
1730865950.3840535,-1.8243703842163086,0.9407444000244141,-9.798154830932617,-0.14628369378020478,-0.4028174934177431,-11.811275977166263,0.8716803668581492,2.995260099112409,-23.188203691703844
1730865950.4339852,-1.6435387134552002,1.0102969408035278,-9.805895805358887,-0.14670234730287407,-0.4007837607478986,-11.80214101732366,0.8756632502100417,2.9553876339540657,-24.29072554464325
1730865950.4839067,-1.5730770826339722,1.1460793018341064,-9.76155948638916,-0.14703810853981011,-0.39850094923752805,-11.788794025618827,0.8769632130662124,2.9153086105632218,-25.434734776401488
1730865950.5338778,-1.402429223060608,1.2469379901885986,-9.80485725402832,-0.14730850857012967,-0.3959774419867481,-11.771509588512398,0.8779043907730413,2.874041452781055,-26.61375386171041
1730865950.5837739,-1.2801685333251953,1.27745521068573,-9.844583511352539,-0.14752798582225793,-0.39322397077543825,-11.75056145543083,0.878479230924508,2.831734460877888,-27.823696222104783
1730865950.6338754,-1.3144124746322632,1.2810062170028687,-9.876189231872559,-0.14770646151858893,-0.3902545109605906,-11.726222034583994,0.8786858244315008,2.7882248898369393,-29.069376788994134
1730865950.6837897,-1.3720238208770752,1.2254197597503662,-9.91110610961914,-0.1478487638867701,-0.3870864011848927,-11.698762093964207,0.8785222099027223,2.744036436340523,-30.335953181682072
1730865950.7338083,-1.4993278980255127,1.1518988609313965,-9.931300163269043,-0.14795527325403954,-0.38373973868719596,-11.668450435244182,0.8795127890617047,0.9840415642291946,0.8729249104571806
1730865950.78379,-1.6006672382354736,1.0863429307937622,-9.86929702758789,-0.14802348276275895,-0.38023628734413534,-11.635553383810967,0.8798496398199669,0.985094425593626,0.8293194811069797
1730865950.8337855,-1.81550133228302,1.01986563205719,-9.81452465057373,-0.14804996873112666,-0.37659821476954036,-11.600333904212636,0.8841826896283914,0.9921078958312296,0.8729714275317053
1730865950.8837059,-1.9375649690628052,0.9927679896354675,-9.77560806274414,-0.14803253236931238,-0.37284696219855806,-11.563050317516852,0.8851879720986231,0.9936668426595024,0.8296762578970522
1730865950.9336746,-2.0457820892333984,0.9714118242263794,-9.726194381713867,-0.14797223948829685,-0.3690024376860451,-11.523954926142743,0.8858278374424419,0.9943076345510633,0.7575826085410394
1730865950.9836621,-2.0869340896606445,1.0083929300308228,-9.737180709838867,-0.14787488611915114,-0.36508262900765964,-11.483292853007399,0.887969230267168,1.0081507786328672,0.873045403927218
1730865951.0336392,-2.0562994480133057,1.051559329032898,-9.758321762084961,-0.14775157032281303,-0.3611036759436111,-11.441301256215723,0.8887617486093656,1.0115700545648594,0.8298372707217383
1730865951.083622,-1.9736506938934326,1.1039338111877441,-9.822582244873047,-0.14761830758378836,-0.35708034648357123,-11.398209017463008,0.8989829787074677,1.018817847987731,0.8734196183224796
1730865951.133597,-1.9302725791931152,1.1401413679122925,-9.887577056884766,-0.14749484347248934,-0.3530267163120901,-11.354236878372488,0.9028223639210653,1.0229761855425306,0.8307167442891964
1730865951.1835477,-1.8705997467041016,1.1601102352142334,-9.892549514770508,-0.14740311704576245,-0.34895679760636356,-11.309597810763982,0.9072559998700951,1.0291651533668147,0.8735395041530033
1730865951.233644,-1.852792739868164,1.1702474355697632,-9.919771194458008,-0.14736585641286157,-0.34488494973928874,-11.264497282802111,0.9113836162673545,1.0337090777689237,0.8309777847269081
1730865951.2836158,-1.850260853767395,1.1229956150054932,-9.914119720458984,-0.1474055341277496,-0.34082599095457344,-11.219133230893691,0.912118926648471,1.0406498947028682,0.8739809874164123
1730865951.3335752,-1.8229795694351196,1.0839333534240723,-9.910886764526367,-0.14754370474511877,-0.3367949539499406,-11.173695804468643,0.914489533316665,1.0446911799036211,0.8320711109145261
1730865951.3836124,-1.7985893487930298,1.0479875802993774,-9.888747215270996,-0.14780057166807892,-0.33280653963262596,-11.128366974551199,0.9218678287028007,1.0539011014258506,0.8741890161428647
1730865951.4335694,-1.7535266876220703,0.9978740811347961,-9.872357368469238,-0.14819457340457373,-0.32887447597166586,-11.083320045232929,0.9314559903480687,1.0566410811252906,0.8740678955278833
1730865951.4836032,-1.7225205898284912,0.9698752164840698,-9.863229751586914,-0.14874191986520258,-0.3250109405569134,-11.03871914356381,0.9367295855991864,1.059255820495652,0.8325780380491004
1730865951.533507,-1.668954610824585,0.9353963732719421,-9.8529052734375,-0.14945612122396093,-0.321226097168303,-10.994718786135802,0.9416603758842251,1.061073733552386,0.7631205757008798
1730865951.583536,-1.6359572410583496,0.9215210676193237,-9.852986335754395,-0.15034755208767392,-0.317527786225757,-10.951463577017456,0.9461730331797996,1.0620801440935594,0.6669876988688689
1730865951.6334298,-1.6144894361495972,0.9229671359062195,-9.850465774536133,-0.15142310572088913,-0.31392140412033853,-10.909088036513982,0.926122130412062,1.069734236494465,0.8744517471381201
1730865951.6834772,-1.6067534685134888,0.9610587358474731,-9.857247352600098,-0.15268603241571865,-0.31041002164618925,-10.867716544419135,0.9256598150953762,1.0721092958427723,0.8335771377323437
1730865951.7344527,-1.5976148843765259,1.0084751844406128,-9.867647171020508,-0.15413600584829007,-0.30699480045802297,-10.82746338688732,0.9213165534789448,1.0871269489058588,0.8739595532046641
1730865951.7843916,-1.6114647388458252,1.0301212072372437,-9.874835968017578,-0.15576936983989204,-0.30367564904959926,-10.788432896195422,0.9190664103396579,1.0933831081104768,0.8327691343276722
1730865951.8344188,-1.6114647388458252,1.0301212072372437,-9.874835968017578,-0.15757950996879888,-0.3004518769362179,-10.750719644272682,0.9164283840300393,1.0988693184275493,0.764679111865464
1730865951.8344188,-1.5975745916366577,1.018343448638916,-9.889068603515625,-0.15955727508233447,-0.2973225951995923,-10.714408642244141,0.9164132687248683,1.0988965411116256,0.7642441596061803
1730865951.8845086,-1.6075562238693237,0.9683912396430969,-9.893061637878418,-0.16169134690279902,-0.29428678038132117,-10.679575550915397,0.9191797319311914,1.0982165338586323,0.8746815348474021
1730865951.934418,-1.626556634902954,0.905511736869812,-9.897462844848633,-0.16396857420266991,-0.29134301633200316,-10.6462869190186,0.917760271523816,1.1010956477724398,0.8350266775929943
1730865951.9844997,-1.6508206129074097,0.8503293991088867,-9.890620231628418,-0.1663743876916364,-0.28848897230619824,-10.614600415767255,0.9140960679270664,1.1168814038884338,0.8745945696988598
1730865952.034278,-1.668717384338379,0.7852784395217896,-9.882685661315918,-0.16889331105568506,-0.28572077259049217,-10.584565016051606,0.9113971164360471,1.1237801819420499,0.8350117127652469
1730865952.0843859,-1.666137456893921,0.7490000128746033,-9.847501754760742,-0.17150945396394865,-0.2830324324890318,-10.556221114015118,0.9102840799158846,1.1315032481098597,0.874610654563548
1730865952.134316,-1.6244356632232666,0.7482098340988159,-9.854060173034668,-0.17420682725965408,-0.2804155057961984,-10.529600569302835,0.9075628867571996,1.1384231627072894,0.8351342181312542
1730865952.1843207,-1.5937052965164185,0.7874472141265869,-9.882034301757812,-0.17696936048865025,-0.277859109488321,-10.50472681482995,0.9043738349137368,1.1447096992759505,0.7688476686858731
1730865952.2342668,-1.5707736015319824,0.8576775789260864,-9.910017013549805,-0.17978068241895465,-0.27535043727715586,-10.481615214779424,0.9087593774276587,1.136523300950312,0.8748309774772297
1730865952.2842512,-1.587791085243225,0.9232023358345032,-9.935588836669922,-0.1826239113645852,-0.272875701846117,-10.460273670836242,0.9110045502159407,1.1473719806705378,0.8749454671122033
1730865952.3342435,-1.5839658975601196,0.9715844392776489,-9.951668739318848,-0.18548166401580998,-0.2704212643564194,-10.440703294422072,0.9107547294651618,1.151461477560821,0.8360711522508639
1730865952.3842833,-1.6285433769226074,0.9795622229576111,-9.949352264404297,-0.18833630077926267,-0.2679746228299092,-10.422898989031872,0.9075652289642991,1.1469296657637045,0.8744847071480681
1730865952.4342704,-1.6731714010238647,0.9589577913284302,-9.931402206420898,-0.19117035962918968,-0.2655249918631968,-10.406849857293528,0.9056621791170627,1.147781389876679,0.8351841099448484
1730865952.4843504,-1.7608195543289185,0.9085907340049744,-9.892904281616211,-0.19396719333742019,-0.26306336693668597,-10.392539387784762,0.903272070078794,1.1479730074275623,0.769733223174846
1730865952.5342863,-1.8198007345199585,0.8613375425338745,-9.845653533935547,-0.19671179491568094,-0.2605821439369859,-10.379945425672858,0.9069311380758499,1.161492588771266,0.8746674185444154
1730865952.5842535,-1.8743910789489746,0.8098325729370117,-9.812735557556152,-0.19939165626958286,-0.25807449192424126,-10.369040002451655,0.9057601978444594,1.1643694735609682,0.83561671482858
1730865952.634168,-1.8814746141433716,0.8248398900032043,-9.78154468536377,-0.20199741637428023,-0.25553374449415234,-10.3597891720227,0.9073466361137094,1.1768908889838428,0.8746322196663455
1730865952.6841817,-1.8178749084472656,0.9012826681137085,-9.799697875976562,-0.20452305734080312,-0.2529531414517645,-10.352153018030325,0.9065846500031023,1.182558982848401,0.8357345979647932
1730865952.7341259,-1.7743693590164185,0.9895063042640686,-9.821540832519531,-0.2069655012699418,-0.2503261927212601,-10.346085966205429,0.9054754080476035,1.1855440604057892,0.8747233280237569
1730865952.7841399,-1.7426655292510986,1.0704177618026733,-9.879551887512207,-0.2093237625728669,-0.24764759050307827,-10.341537452931487,0.9040213336379391,1.1901006152535238,0.8358040136782555
1730865952.834016,-1.7173658609390259,1.144403100013733,-9.899643898010254,-0.21159806484609955,-0.2449142843476886,-10.338452855457952,0.904368161024541,1.203958959642691,0.8747107379482075
1730865952.884022,-1.7238008975982666,1.201750636100769,-9.902915954589844,-0.2137892017570983,-0.24212638687210675,-10.336774442487286,0.9030120388248377,1.2106982989022745,0.8362670970363137
1730865952.9340377,-1.7645459175109863,1.1820310354232788,-9.86949348449707,-0.21589822840912726,-0.23928772258154082,-10.336442067439979,0.9088995942869472,1.221048755849777,0.8755856804279012
1730865952.9839852,-1.83077871799469,1.1543887853622437,-9.82955265045166,-0.21792654774770936,-0.23640584179033858,-10.337393469574073,0.9118546287121055,1.2231681710926359,0.8762033120298647
1730865953.0339887,-1.8594506978988647,1.0799541473388672,-9.79504680633545,-0.21987634262581712,-0.23349143145064805,-10.33956426213407,0.9127608156107786,1.2265396091549916,0.8378017585628663
1730865953.0839276,-1.8404059410095215,1.018115758895874,-9.759230613708496,-0.22175104418806305,-0.23055727989941052,-10.342887804341633,0.913115457874888,1.2293275941973558,0.7737003602578209
1730865953.1339393,-1.7897979021072388,0.9865586757659912,-9.764646530151367,-0.22355543334476613,-0.2276170882232401,-10.347295147660844,0.912913167930426,1.2315562793633819,0.6832667342978593
1730865953.1840162,-1.698754072189331,1.0258070230484009,-9.786855697631836,-0.2252951896283045,-0.22468450772042386,-10.352715212725133,0.9116459133681228,1.2392662959330951,0.8763812277052563
1730865953.2339149,-1.698754072189331,1.0258070230484009,-9.786855697631836,-0.2269760561693485,-0.22177270134392557,-10.359075255077023,0.9111238670133918,1.2427939908319303,0.8375143153522344
1730865953.2339149,-1.6195176839828491,1.096706748008728,-9.849236488342285,-0.22860300957558277,-0.218894394008661,-10.36630152326519,0.9111195443253175,1.2428113372435128,0.8372366833112445
1730865953.2839737,-1.6195176839828491,1.096706748008728,-9.849236488342285,-0.23017966624769898,-0.21606217389139326,-10.374320005878738,0.9100328333275881,1.245758551864779,0.7729091987550195
1730865953.2839737,-1.5690386295318604,1.1863417625427246,-9.894932746887207,-0.23170789685710785,-0.2132888722562728,-10.383057188808136,0.9100252696473581,1.245773319386698,0.7724837009365313
1730865953.3338645,-1.5596836805343628,1.2637195587158203,-9.941064834594727,-0.23318759971195513,-0.2105880229386167,-10.392440756909329,0.9115919086713257,1.2571378955611308,0.877021790350992
1730865953.384044,-1.5596836805343628,1.2637195587158203,-9.941064834594727,-0.23461663078573566,-0.20797441331558936,-10.402400246064921,0.9107942630954212,1.2626499588848343,0.8381869604183891
1730865953.384044,-1.59630286693573,1.3051685094833374,-9.960204124450684,-0.2359909490944211,-0.2054644782600573,-10.412867568790519,0.910788016811636,1.262679873280173,0.8378902415028163
1730865953.4338489,-1.6284863948822021,1.3273265361785889,-9.94701862335205,-0.23730504671284808,-0.20307635434624946,-10.423777297492933,0.9094180461845655,1.2675931420160904,0.7738561020712106
1730865953.4840422,-1.6553434133529663,1.316172480583191,-9.920696258544922,-0.23855258279858457,-0.20082972795209444,-10.435066714159978,0.9117653683665249,1.2680837284386874,0.8769080272888334
1730865953.5338588,-1.6599690914154053,1.2806527614593506,-9.860176086425781,-0.23972701334042304,-0.1987455078774296,-10.446675625912523,0.9148573880155284,1.2839560370293066,0.8770075271566697
1730865953.583919,-1.6765570640563965,1.1801283359527588,-9.819402694702148,-0.24082205196364598,-0.19684516053338652,-10.458545933411308,0.9151209446438977,1.2906675379589274,0.8378053176178636
1730865953.6338382,-1.6720153093338013,1.0732054710388184,-9.787087440490723,-0.24183194366263425,-0.19514961610331957,-10.470621087311628,0.9167875536678457,1.296328170931511,0.8769336428775871
1730865953.6838663,-1.6663193702697754,0.9791675806045532,-9.763050079345703,-0.2427515980399518,-0.19367785235923712,-10.482845647850189,0.9169723149471161,1.3025740632078762,0.8377916876270867
1730865953.7339408,-1.6707918643951416,0.9239218235015869,-9.750232696533203,-0.24357661266690064,-0.19244549350517093,-10.495165053529007,0.9165484254662111,1.3083630954089411,0.7721915983287359
1730865953.7837968,-1.6707918643951416,0.9239218235015869,-9.750232696533203,-0.24430324960085037,-0.19146382646479468,-10.507525589243366,0.9209272443996054,1.3025828664377515,0.8768952164005908
1730865953.7837968,-1.6994575262069702,0.9047927856445312,-9.781537055969238,-0.24492845235756994,-0.1907394396291942,-10.519874551735779,0.9209316567053094,1.302599723490833,0.8767544636945652
1730865953.8338177,-1.7137017250061035,0.9450106620788574,-9.824131965637207,-0.24544995674851242,-0.19027439917144529,-10.532160648134372,0.9214466084386757,1.3054980448549862,0.8374571839788021
1730865953.8838098,-1.7199853658676147,1.0237822532653809,-9.900525093078613,-0.24586646674527618,-0.19006682680379164,-10.54433464369623,0.9269298780641414,1.3138383767307424,0.8767839004683874
1730865953.933771,-1.7121604681015015,1.109671950340271,-9.941783905029297,-0.246177774202619,-0.1901118810671042,-10.556350191603494,0.9331690979618088,1.3194918129914726,0.8767898677970875
1730865953.9838536,-1.7125602960586548,1.1412822008132935,-9.991416931152344,-0.24638473658042576,-0.19040300590874523,-10.568164663526224,0.9359339959417462,1.3233212354507415,0.8370751511868603
1730865954.033785,-1.7383090257644653,1.1559922695159912,-9.991555213928223,-0.24648918082027907,-0.19093303125381722,-10.579739764875107,0.9380756822531308,1.3266643389678174,0.7710080853420793
1730865954.0837812,-1.7700742483139038,1.0934906005859375,-9.966474533081055,-0.24649389341429434,-0.19169475259332897,-10.591041778776951,0.9323684174035619,1.333781339785946,0.8766691459463222
1730865954.1337168,-1.7931220531463623,1.0574482679367065,-9.924484252929688,-0.24640276747146958,-0.19268089057596696,-10.602041367032312,0.9321186768409606,1.3374681819254106,0.8369503058235056
1730865954.1838078,-1.8051255941390991,0.9757516384124756,-9.861323356628418,-0.24622100286599638,-0.1938835869713379,-10.612712983447853,0.9351009753046113,1.3516721725840983,0.8767133339144155
1730865954.233678,-1.8243852853775024,0.909440279006958,-9.807530403137207,-0.24595522272029124,-0.1952936851657473,-10.62303405569131,0.9353882164517636,1.35885275471182,0.8369940667846484
1730865954.2837088,-1.831785798072815,0.8526820540428162,-9.77783489227295,-0.24561348228391253,-0.19689998121346386,-10.6329841309333,0.9351048273659175,1.3558627660183367,0.8767295721720343
1730865954.3335953,-1.7967559099197388,0.8678164482116699,-9.767488479614258,-0.2452051663334561,-0.1986886584294221,-10.6425442056372,0.9345977930792486,1.3592337602831768,0.8369450421889889
1730865954.3836603,-1.7605763673782349,0.9291214346885681,-9.799591064453125,-0.2447406801604367,-0.20064321038265423,-10.651696408188883,0.9358607639393488,1.3742313318661126,0.8766197814948338
1730865954.433618,-1.710945725440979,1.0032237768173218,-9.818702697753906,-0.2442308886556923,-0.20274502858651156,-10.660424072363364,0.9353091349800694,1.380562712135682,0.8365419001791373
1730865954.4836576,-1.7012803554534912,1.053971767425537,-9.838756561279297,-0.2436864472988623,-0.2049744763005496,-10.668712075052834,0.9367366876933999,1.3863670934183066,0.8766841540179081
1730865954.5335536,-1.6881037950515747,1.0379717350006104,-9.849413871765137,-0.24311725699850095,-0.20731197741869464,-10.676547214122127,0.9362675884053474,1.3916579691709188,0.8367963207260092
1730865954.5836434,-1.6881037950515747,1.0379717350006104,-9.849413871765137,-0.24253217052290768,-0.20973868564401388,-10.683918473129049,0.9376210181119536,1.396469976697092,0.8765050568990465
1730865954.5836434,-1.7113316059112549,0.9963055849075317,-9.854170799255371,-0.2419389320162655,-0.21223664097480602,-10.690817139560814,0.9376205597025538,1.3964941993160642,0.8763607571755049
1730865954.6335702,-1.745736837387085,0.9328804016113281,-9.85682487487793,-0.2413443225705691,-0.21478855727706903,-10.697236813917105,0.9372377669648174,1.400706475968679,0.836476458550035
1730865954.683587,-1.7479357719421387,0.8603179454803467,-9.831171989440918,-0.24075447215471207,-0.21737732966113604,-10.703173345881833,0.936247609806835,1.4044285830968468,0.769358034072612
1730865954.733575,-1.7479357719421387,0.8603179454803467,-9.831171989440918,-0.2401751664112728,-0.21998540339803457,-10.708624679738405,0.9381179305607888,1.407618547264592,0.8766645873911374
1730865954.733575,-1.7491909265518188,0.843873918056488,-9.839099884033203,-0.2396119882863404,-0.22259433494497685,-10.713590649390975,0.9381158829393661,1.4076339908257494,0.8765214680980337
1730865954.7836032,-1.719849944114685,0.8954249024391174,-9.856204986572266,-0.23907029664280866,-0.2251847817633374,-10.71807285998409,0.9374362673598371,1.4102319269186896,0.8364873171979517
1730865954.8335345,-1.69038987159729,1.013269066810608,-9.893735885620117,-0.23855506725542808,-0.22773698399543285,-10.722074732813315,0.9419430107314078,1.4123580125692303,0.8765342537660428
1730865954.8834958,-1.69038987159729,1.013269066810608,-9.893735885620117,-0.23807062288679562,-0.23023169535885374,-10.725601667011944,0.9460761955450742,1.4139758254779717,0.8766680144772058
1730865954.8834958,-1.6407148838043213,1.1782209873199463,-9.94733715057373,-0.23762036097101555,-0.23265129054247424,-10.728661219928123,0.9460890281147141,1.4139822957669053,0.876524211072739
1730865954.9335127,-1.6407148838043213,1.1782209873199463,-9.94733715057373,-0.2372065282934326,-0.23498080526741408,-10.731263260119324,0.9481731035876718,1.4148895890766546,0.8365133237820367
1730865954.9335127,-1.5968351364135742,1.3148117065429688,-9.980710983276367,-0.23683001900102085,-0.23720885175200848,-10.733420079730305,0.9481820145067862,1.4148926525810703,0.8362475815682736
1730865954.9834745,-1.5788203477859497,1.3853707313537598,-9.986942291259766,-0.23649019982800634,-0.2393283895190147,-10.735146425193111,0.9496755816042571,1.4152101201231204,0.7696412859350745
1730865955.0333755,-1.5788203477859497,1.3853707313537598,-9.986942291259766,-0.23618478665177997,-0.2413373234080607,-10.736459423375289,0.9459262241177073,1.41503235011391,0.8766208459200157
1730865955.0333755,-1.59587824344635,1.345052719116211,-9.986001014709473,-0.23590986704806768,-0.24323865074507964,-10.737378388203116,0.9459263295036484,1.4150303642245106,0.8765288762967676
1730865955.0834413,-1.59587824344635,1.345052719116211,-9.986001014709473,-0.23566013765680546,-0.24503992059363763,-10.737924520741704,0.9456626426614397,1.4141458893996912,0.8363294300415256
1730865955.0834413,-1.6471034288406372,1.241713523864746,-9.92891788482666,-0.23542928986878112,-0.2467522384962072,-10.738120525030979,0.9456602951048348,1.4141408821446917,0.8361039498787577
1730865955.1334794,-1.6471034288406372,1.241713523864746,-9.92891788482666,-0.23521047631604594,-0.2483891040998133,-10.737990097883262,0.9448077299228553,1.4126391942681389,0.7690407279167384
1730865955.1334794,-1.7504501342773438,1.1041513681411743,-9.85863208770752,-0.23499685599986506,-0.24996518835960685,-10.737557311582641,0.9448029665317689,1.4126316659473872,0.7687063681060257
1730865955.1834555,-1.7504501342773438,1.1041513681411743,-9.85863208770752,-0.23478223189098935,-0.2514951251623171,-10.736845989790563,0.9509838278335582,1.4106400231754155,0.8765297331493096
1730865955.1834555,-1.8304283618927002,0.9711137413978577,-9.74976921081543,-0.23456170728037562,-0.2529923903468778,-10.735879100842775,0.9509878657308048,1.410628899241186,0.8764071817686472
1730865955.2333221,-1.8304283618927002,0.9711137413978577,-9.74976921081543,-0.23433221373583046,-0.2544683385969786,-10.73467812773639,0.9515775627932864,1.407902734237555,0.836665428484387
1730865955.2333221,-1.9156988859176636,0.9128645658493042,-9.670672416687012,-0.2340928806057698,-0.25593148500124363,-10.733262465145431,0.9515788320563562,1.4078900100296066,0.8364439319417016
1730865955.2834413,-1.9156988859176636,0.9128645658493042,-9.670672416687012,-0.2338453158168845,-0.257387130740525,-10.731648970437504,0.9515924167850061,1.4044929141914642,0.7694736715139979
1730865955.2834413,-1.9563443660736084,0.903839647769928,-9.61693286895752,-0.23359378742524964,-0.25883732728834047,-10.729851709498268,0.9515912367765951,1.4044772121690299,0.7691341869386423
1730865955.3332965,-1.9563443660736084,0.903839647769928,-9.61693286895752,-0.23334522743535518,-0.2602810842209492,-10.727881864448598,0.9510256826539194,1.4004641117235666,0.6760712884913921
1730865955.3332965,-1.9662718772888184,0.9583784937858582,-9.625625610351562,-0.2331090507489083,-0.26171477292589806,-10.725747810727917,0.9510217441235816,1.4004441158704106,0.6755808551274479
1730865955.3834836,-1.9662718772888184,0.9583784937858582,-9.625625610351562,-0.23289684284454554,-0.26313271900201207,-10.72345540509852,0.9576487741834934,1.3959259065593255,0.8764411715784645
1730865955.3834836,-1.923431158065796,1.0500279664993286,-9.705564498901367,-0.23272193110848566,-0.26452793797814556,-10.721008491749409,0.957653576135368,1.3959048607891418,0.876328177222324
1730865955.4342368,-1.923431158065796,1.0500279664993286,-9.705564498901367,-0.23259882180607713,-0.2658929370486377,-10.718409604286252,0.9585130883899895,1.3905041925679211,0.8355233439166676
1730865955.4342368,-1.8367159366607666,1.1513241529464722,-9.823517799377441,-0.23254251715607374,-0.2672205150608655,-10.715660804213524,0.9585155634830205,1.3904789999817302,0.8352843944064235
1730865955.4842105,-1.8367159366607666,1.1513241529464722,-9.823517799377441,-0.23256775442796884,-0.26850450189504127,-10.71276456559402,0.9624139060876237,1.3846971593797441,0.8766427362379803
1730865955.4842105,-1.7143102884292603,1.2665013074874878,-9.948857307434082,-0.23268820339024912,-0.26974041605997157,-10.709724630505606,0.9624219539967379,1.384667463289282,0.8765178113509419
1730865955.5342638,-1.7143102884292603,1.2665013074874878,-9.948857307434082,-0.2329156532869742,-0.2709260516002945,-10.706546773507256,0.9638465733213353,1.378014929426598,0.8367185019480644
1730865955.5342638,-1.5934988260269165,1.3747628927230835,-10.055098533630371,-0.23325924257321273,-0.2720619817231329,-10.703239427035705,0.9638513399623454,1.377985642013865,0.8364962826998537
1730865955.5842412,-1.5934988260269165,1.3747628927230835,-10.055098533630371,-0.2337248026934721,-0.2731519466459773,-10.699814131942734,0.96540660698023,1.370843374893457,0.8764650511649993
1730865955.5842412,-1.4835880994796753,1.4298890829086304,-10.111140251159668,-0.23431435030046271,-0.2742030763797527,-10.69628578046913,0.9654119838549438,1.3708114826576199,0.8763538315551597
1730865955.6342456,-1.4835880994796753,1.4298890829086304,-10.111140251159668,-0.2350257305144024,-0.2752258856066406,-10.692672622084647,0.9664114598046807,1.3628389917459385,0.8366314789533927
1730865955.6342456,-1.443881630897522,1.4316983222961426,-10.103753089904785,-0.23585245678638422,-0.2762340314132351,-10.688996025984501,0.9664144546995365,1.3628040213070174,0.8364091984586243
1730865955.6842623,-1.443881630897522,1.4316983222961426,-10.103753089904785,-0.23678382872092152,-0.27724387037697995,-10.685280014077176,0.9681430387388553,1.3543804009539693,0.8706294189075084
1730865955.6842623,-1.4952565431594849,1.3775787353515625,-10.049909591674805,-0.23780535898588617,-0.27827384644677655,-10.681550606357899,0.9681463572956981,1.354333645261415,0.8704835852133085
1730865955.7341847,-1.4952565431594849,1.3775787353515625,-10.049909591674805,-0.23889949725362072,-0.27934373649349326,-10.677835043982942,0.9684917547864067,1.3449774128406735,0.8292218260385784
1730865955.7341847,-1.6399167776107788,1.2702287435531616,-9.953142166137695,-0.24004662018319256,-0.2804737832549359,-10.674160935311955,0.9684919712076231,1.344936584085007,0.8289928427035618
1730865955.7842758,-1.6399167776107788,1.2702287435531616,-9.953142166137695,-0.2412262405939411,-0.28168374753474185,-10.670555352681856,0.9692876676818358,1.335194616878562,0.8647982561746069
1730865955.7842758,-1.8158236742019653,1.1555479764938354,-9.814238548278809,-0.2424183350022112,-0.2829919470448792,-10.667043902137323,0.9692894071602831,1.3351474369001561,0.8646642885844187
1730865955.8341494,-1.8158236742019653,1.1555479764938354,-9.814238548278809,-0.2436046440247932,-0.2844143786348017,-10.663649783402997,0.9696269738327817,1.3248088669142186,0.8607927389415478
1730865955.8341494,-1.987913966178894,1.0372942686080933,-9.684324264526367,-0.24476984596948656,-0.28596396766899473,-10.660392900693788,0.9696266630646129,1.3247618766377516,0.8606692773485253
1730865955.8841746,-1.987913966178894,1.0372942686080933,-9.684324264526367,-0.24590254407789608,-0.28764994276271183,-10.657289120959819,0.9692463009892189,1.3132468678717735,0.8180698715544191
1730865955.8841746,-2.1046435832977295,0.9711049795150757,-9.589987754821777,-0.24699600372262748,-0.2894773798667679,-10.654349738189229,0.9692434398843808,1.3131974141166258,0.8178371059400784
1730865955.9341092,-2.1046435832977295,0.9711049795150757,-9.589987754821777,-0.24804857323664564,-0.2914469979141007,-10.651581169345882,0.9682512087686502,1.3009986132583475,0.7489210925441009
1730865955.9341092,-2.1483964920043945,0.9394667744636536,-9.553539276123047,-0.24906376610041245,-0.29355520719499517,-10.648984897238716,0.9682457050409456,1.300945423811677,0.7485733447597317
1730865955.9841945,-2.121264934539795,0.9565346837043762,-9.586009979248047,-0.2500499956787629,-0.2957943580289639,-10.64655769574175,0.9666259831648483,1.2879481297813276,0.6526858552331245
1730865956.0340698,-2.121264934539795,0.9565346837043762,-9.586009979248047,-0.25101997704084295,-0.29815317117853474,-10.644292153796314,0.9701105641370096,1.2747682382896104,0.8581726554995546
1730865956.0340698,-2.039263963699341,0.9619608521461487,-9.645097732543945,-0.25198985406192553,-0.30061730384408836,-10.642177434525484,0.9701088822883117,1.2747094749634738,0.8580569739876089
1730865956.0840585,-2.039263963699341,0.9619608521461487,-9.645097732543945,-0.25297811749448174,-0.30316994319878143,-10.640200164267885,0.9693914648233489,1.2602729453897927,0.8171297433256729
1730865956.0840585,-1.9312196969985962,0.9948458671569824,-9.719782829284668,-0.25400443675755174,-0.30579237025715783,-10.638345342083486,0.9693868966924047,1.2602074051802847,0.8168900377919036
1730865956.1340225,-1.9312196969985962,0.9948458671569824,-9.719782829284668,-0.2550885228257348,-0.30846453494609494,-10.636597204210487,0.9680392003640516,1.2450332271800297,0.7495848346971185
1730865956.1340225,-1.8107657432556152,1.0069457292556763,-9.799466133117676,-0.25624906914613893,-0.3111656265537848,-10.63494002105474,0.9680311894710145,1.2449583566613598,0.7491973361065012
1730865956.184022,-1.8107657432556152,1.0069457292556763,-9.799466133117676,-0.25750279644005647,-0.3138745473853123,-10.63335880841943,0.9660368464794574,1.2289410320692402,0.6550110062647635
1730865956.184022,-1.7375962734222412,1.0039891004562378,-9.883305549621582,-0.25886366404017763,-0.31657026080810524,-10.631839946834413,0.9660261729848753,1.2288654326423165,0.6545157493561155
1730865956.2339506,-1.7375962734222412,1.0039891004562378,-9.883305549621582,-0.2603423407900297,-0.3192320390484447,-10.630371713275336,0.9769852008781336,1.212906861677888,0.8544899122965794
1730865956.2339506,-1.6901278495788574,0.9899908900260925,-9.963652610778809,-0.26194593862390997,-0.3218396317869602,-10.628944723522979,0.9769889168705069,1.2128337423444924,0.8543732471466617
1730865956.2840056,-1.6511867046356201,1.0167818069458008,-10.022025108337402,-0.26367790047794515,-0.3243733968006556,-10.627552330802287,0.9775331742651615,1.1951609885761902,0.8134047257601276
1730865956.3338845,-1.6511867046356201,1.0167818069458008,-10.022025108337402,-0.26553795279946213,-0.3268144709896914,-10.626191009953242,0.9831766709721185,1.1776908209686998,0.8560907520459432
1730865956.3338845,-1.626352071762085,1.0566904544830322,-10.058816909790039,-0.26752216740949397,-0.3291450301964809,-10.624860565397755,0.9831829686328533,1.1776098752152595,0.8559778793619615
1730865956.3839247,-1.626352071762085,1.0566904544830322,-10.058816909790039,-0.2696231898283474,-0.33134860621829604,-10.6235640445892,0.9843107826337059,1.158320509607669,0.8162519102510427
1730865956.3839247,-1.6089198589324951,1.1275053024291992,-10.08283519744873,-0.2718305645280884,-0.3334104264944653,-10.622307481119817,0.9843146107429337,1.1582246736122777,0.8159934744366238
1730865956.433835,-1.6089198589324951,1.1275053024291992,-10.08283519744873,-0.27413108574910194,-0.335317787524361,-10.621099582588535,0.9918816944699618,1.1393106521218082,0.8566698539278451
1730865956.433835,-1.548673152923584,1.161179542541504,-10.08017635345459,-0.27650911640415143,-0.33706040619656497,-10.61995136911792,0.9918969876327987,1.1392125151718493,0.8565448897064156
1730865956.4838657,-1.548673152923584,1.161179542541504,-10.08017635345459,-0.2789467874383009,-0.33863062456960663,-10.618875747888191,0.9979719819257511,1.1192290965584584,0.8641390833860135
1730865956.4838657,-1.5168516635894775,1.1840696334838867,-10.051786422729492,-0.2814241137776419,-0.34002344893420844,-10.617887025611747,0.9979880962688784,1.1191391293138249,0.8640419625077183
1730865956.533793,-1.5168516635894775,1.1840696334838867,-10.051786422729492,-0.28391916762953945,-0.3412364936597327,-10.617000374939767,1.0014108629107652,1.0976658915697468,0.8282853344362744
1730865956.533793,-1.4813148975372314,1.1318827867507935,-9.987784385681152,-0.28640833492477,-0.34226980935371376,-10.6162312595004,1.0014247899431175,1.0975667162677123,0.8280643157198905
1730865956.5838237,-1.4813148975372314,1.1318827867507935,-9.987784385681152,-0.28886658276636257,-0.34312549798531244,-10.615594812661467,1.004164667382875,1.0750596876690854,0.7656083353291572
1730865956.5838237,-1.4938756227493286,1.0512200593948364,-9.905617713928223,-0.29126775183608766,-0.3438071347827869,-10.615105191336593,1.0041745114931857,1.0749647987314432,0.7652951306238158
1730865956.6337664,-1.5253958702087402,0.9455553293228149,-9.82075309753418,-0.29358498889092755,-0.34431902107364526,-10.614774871923428,1.006186858844145,1.0516095993125312,0.676386888434278
1730865956.683823,-1.5253958702087402,0.9455553293228149,-9.82075309753418,-0.29579134237065974,-0.3446652523032861,-10.614613859804045,1.0003814425832172,1.0284119990511558,0.865821789651957
1730865956.683823,-1.6069215536117554,0.8572342395782471,-9.72569751739502,-0.2978604255608356,-0.3448488522930533,-10.614629007522637,1.000384889731969,1.0283060029206335,0.8657123535663236
1730865956.7337284,-1.6069215536117554,0.8572342395782471,-9.72569751739502,-0.2997671190865797,-0.34487122141942805,-10.614823585702073,1.0008113779604464,1.0034291188298612,0.8274083482024595
1730865956.7337284,-1.7038275003433228,0.803158164024353,-9.66273307800293,-0.30148830594918,-0.3447318395531176,-10.615197033103748,1.0008116416525348,1.0033133559499685,0.8271733338475006
1730865956.7837372,-1.8090814352035522,0.8006678223609924,-9.635173797607422,-0.3030036680577167,-0.3444281455674928,-10.61574484136877,1.0052014594988268,0.9787034016381475,0.8708356699182398
1730865956.8336544,-1.8090814352035522,0.8006678223609924,-9.635173797607422,-0.3042965810785684,-0.3439555978937551,-10.616458574015189,1.0095373630616165,0.9534653041263874,0.8750776928713693
1730865956.8336544,-1.8927173614501953,0.8072279691696167,-9.634767532348633,-0.3053548587418454,-0.3433079329577839,-10.617326081416236,1.0095438553448253,0.9533530402198409,0.8749778116542349
1730865956.883653,-1.9440635442733765,0.8602471947669983,-9.668485641479492,-0.30617116228904806,-0.3424776270965326,-10.618331981589899,1.0107308045153371,0.9258030182644464,0.8376119661599283
1730865956.9336395,-1.9440635442733765,0.8602471947669983,-9.668485641479492,-0.3067432147745357,-0.34145652082126815,-10.619458335389428,1.011157205681993,0.8972576296795612,0.7734940190265968
1730865956.9336395,-1.9826576709747314,0.9154075980186462,-9.733817100524902,-0.30707380842123416,-0.3402364990406632,-10.620685403979774,1.0111573817698047,0.897130366942316,0.7731536671331448
1730865956.9837236,-1.9826576709747314,0.9154075980186462,-9.733817100524902,-0.3071705375257424,-0.33881011104854547,-10.621992440102671,1.0130110709661455,0.8694652511954777,0.8782663994808354
1730865956.9837236,-1.9989776611328125,0.9727869033813477,-9.810914993286133,-0.30704538295169953,-0.33717109774099574,-10.623358478846193,1.0130145812231754,0.8693391860789595,0.87816020533824
1730865957.033659,-1.9968469142913818,1.0430967807769775,-9.891023635864258,-0.30671422911814933,-0.3353149023169794,-10.624763154775062,1.0134575991528396,0.8392847389538275,0.8399552677312885
1730865957.083661,-1.9078164100646973,1.1033395528793335,-9.982389450073242,-0.3061962400337859,-0.3332392868340283,-10.626187659826945,1.0131383294865761,0.8083219352505492,0.7751852871354041
1730865957.1336153,-1.811535358428955,1.1505705118179321,-10.037453651428223,-0.3055128872270178,-0.33094501020907413,-10.62761579038962,1.0170161457051523,0.7784301273400449,0.8767186541873236
1730865957.1835968,-1.684177279472351,1.158101201057434,-10.068291664123535,-0.3046865126490055,-0.328436331202102,-10.629034802150327,1.0172711531524852,0.7458534631624697,0.8369293071682397
1730865957.2335598,-1.607757568359375,1.1402833461761475,-10.083259582519531,-0.3037386537802165,-0.3257211331970075,-10.63043584721448,1.016762661410774,0.7122835571487582,0.7702062954589544
1730865957.2836456,-1.5794684886932373,1.0847864151000977,-10.054425239562988,-0.3026885759779424,-0.3228105896937056,-10.631813955825368,1.0154973249201056,0.6780537087882799,0.6771685442192019
1730865957.3335211,-1.6266781091690063,1.0333889722824097,-10.00820255279541,-0.3015524421042889,-0.31971841407531953,-10.63316759874381,1.023028064382487,0.6455632798593869,0.876869168980158
1730865957.3835816,-1.7076492309570312,0.985153317451477,-9.948284149169922,-0.30034335364817577,-0.3164598744677968,-10.634497885667836,1.0279460363750308,0.61210883501929,0.8766409035972939
1730865957.4335127,-1.7076492309570312,0.985153317451477,-9.948284149169922,-0.29907209050823175,-0.3130508510259514,-10.635807591910854,1.0291462737614998,0.575449966276304,0.8365244521061731
1730865957.4335127,-1.7534598112106323,0.9991579055786133,-9.872818946838379,-0.2977480082559382,-0.30950720532596765,-10.637100282810088,1.0291504051042895,0.5752637179163734,0.8362551946956276
1730865957.4836228,-1.761965274810791,1.019677996635437,-9.80775260925293,-0.2963796958823377,-0.3058445694350384,-10.638379555613623,1.029597003509977,0.538043306525192,0.7696988566370762
1730865957.5335631,-1.7332777976989746,1.0601274967193604,-9.740081787109375,-0.2949753576592278,-0.30207845531936395,-10.639648225130788,1.029307501941155,0.5000366687353023,0.6765915820552519
1730865957.5835302,-1.7332777976989746,1.0601274967193604,-9.740081787109375,-0.29354292045619823,-0.29822450565669606,-10.640907530833019,1.028280882982847,0.46117195360328234,0.5565976507898911
1730865957.5835302,-1.7360866069793701,1.0578792095184326,-9.706241607666016,-0.2920899361594491,-0.29429869326094876,-10.642156650887607,1.0282751115483146,0.461009714452089,0.556046181544583
1730865957.633568,-1.7360866069793701,1.0578792095184326,-9.706241607666016,-0.29062349434394935,-0.29031733137497107,-10.643392588999086,1.0307900097275629,0.4246442968630917,0.8767818304052131
1730865957.633568,-1.7078824043273926,1.0534155368804932,-9.675688743591309,-0.2891501992282032,-0.2862969340395491,-10.64461025931128,1.0307910232978337,0.42446786942147385,0.8766642443621182
1730865957.683474,-1.7078824043273926,1.0534155368804932,-9.675688743591309,-0.2876760969587438,-0.28225404176605,-10.645802626289987,1.0306615447554877,0.38447255769302857,0.8370219595204119
1730865957.683474,-1.7233083248138428,1.0290294885635376,-9.678693771362305,-0.2862065727695537,-0.27820504009250535,-10.64696089055604,1.0306593238415136,0.38428846595903643,0.8367807518011071
1730865957.733404,-1.7233083248138428,1.0290294885635376,-9.678693771362305,-0.2847463582661562,-0.2741659423381849,-10.648074767005884,1.0363220945807747,0.34693776637378326,0.8768578815722325
1730865957.733404,-1.7296462059020996,1.0342074632644653,-9.693284034729004,-0.2832996520808101,-0.27015217315464635,-10.649132846338954,1.0363296065854872,0.3467420762012434,0.8767319541675529
1730865957.7834828,-1.7296462059020996,1.0342074632644653,-9.693284034729004,-0.28187024078299994,-0.26617844442608485,-10.650122984309569,1.037553285367222,0.3053865466793151,0.8370666809430976
1730865957.7834828,-1.7782323360443115,1.0552161931991577,-9.738544464111328,-0.28046161748390797,-0.2622587433668674,-10.651032707790652,1.0375568831313438,0.30521471027590014,0.8368485285974636
1730865957.833414,-1.7782323360443115,1.0552161931991577,-9.738544464111328,-0.2790771894159455,-0.25840639151239525,-10.651849664842754,1.0380822392865061,0.2632145227422876,0.7706814878981466
1730865957.833414,-1.8271551132202148,1.1032934188842773,-9.756502151489258,-0.2777205669631509,-0.25463416110579223,-10.652562071830028,1.0380830293055479,0.26302667088094217,0.7703289443759699
1730865957.8834038,-1.8271551132202148,1.1032934188842773,-9.756502151489258,-0.27639584281607754,-0.2509544591067727,-10.653159048267842,1.0379188331535276,0.2205503150741522,0.6780318300459317
1730865957.8834038,-1.8970963954925537,1.1459044218063354,-9.80887222290039,-0.27510783994503685,-0.24737954724885014,-10.653630855333649,1.0379166772324242,0.22036788672085056,0.6775821888997036
1730865957.933347,-1.8970963954925537,1.1459044218063354,-9.80887222290039,-0.2738623667747815,-0.24392173146012633,-10.653969160111432,1.0391578235995291,0.1811308438403012,0.8770646906469232
1730865957.933347,-1.9201931953430176,1.1988476514816284,-9.833016395568848,-0.27266643232412363,-0.2405935077491716,-10.654167316936741,1.0391587310068477,0.18095017663157986,0.8769550550857518
1730865957.983341,-1.9201931953430176,1.1988476514816284,-9.833016395568848,-0.27152830201433753,-0.2374076974779566,-10.654220546391173,1.0390359129252489,0.13685452083922642,0.8369281134859705
1730865957.983341,-1.93211030960083,1.2210768461227417,-9.855461120605469,-0.27045738781767653,-0.23437754892896007,-10.654125991809078,1.039033830457508,0.13665600187568486,0.8366889651535244
1730865958.0332818,-1.93211030960083,1.2210768461227417,-9.855461120605469,-0.2694640624515635,-0.23151673484023194,-10.653882717747798,1.0444530375270837,0.09709891504162975,0.8775871973216477
1730865958.0332818,-1.8952357769012451,1.1917591094970703,-9.863088607788086,-0.2685594089165987,-0.22883920565163823,-10.653491670169524,1.0444604711246959,0.09688422958703911,0.8774616337709262
1730865958.0833924,-1.8952357769012451,1.1917591094970703,-9.863088607788086,-0.2677548500476851,-0.2263588842958233,-10.652955579933103,1.0456787846932,0.051597915109896024,0.8376237023339743
1730865958.0833924,-1.8420480489730835,1.143674373626709,-9.883455276489258,-0.2670616757693138,-0.2240892407841643,-10.652278831244587,1.0456824784646623,0.051406341839823275,0.8373994411457781
1730865958.1332362,-1.8420480489730835,1.143674373626709,-9.883455276489258,-0.26649054756090884,-0.22204282892867733,-10.651467350460067,1.0465326637489842,0.011106212034182814,0.8768272438199277
1730865958.1332362,-1.7618697881698608,1.129366159439087,-9.8805570602417,-0.2660510093971533,-0.22023087357090143,-10.650528504932836,1.0465352372453467,0.010962279437558798,0.8767439063974374
1730865958.1833367,-1.7618697881698608,1.129366159439087,-9.8805570602417,-0.2657509914441126,-0.218663000709923,-10.649470945966259,1.0470219992249394,-0.03541164992398303,0.8365320436466972
1730865958.1833367,-1.694387674331665,1.115341305732727,-9.905627250671387,-0.26559634052162495,-0.21734711007333346,-10.648304419052556,1.0470227885155368,-0.035659453165055414,0.8362464678907702
1730865958.2332082,-1.694387674331665,1.115341305732727,-9.905627250671387,-0.2655904514221992,-0.21628931081215708,-10.64703963994064,1.0468436511736963,-0.08165616032379584,0.7705226432466838
1730865958.2332082,-1.6100733280181885,1.094612956047058,-9.931663513183594,-0.2657339987940026,-0.21549387612609253,-10.645688249118418,1.04684152818513,-0.08185119794592752,0.7701907191830794
1730865958.2832747,-1.6100733280181885,1.094612956047058,-9.931663513183594,-0.2660247061264075,-0.21496320295700938,-10.644262784157211,1.0506286256106037,-0.1235683985072932,0.8762014887991036
1730865958.2832747,-1.5418109893798828,1.0807050466537476,-9.972339630126953,-0.26645715379133034,-0.21469778340561912,-10.642776654869705,1.0506326475246899,-0.12378009409561555,0.8760818545697531
1730865958.3331993,-1.5418109893798828,1.0807050466537476,-9.972339630126953,-0.2670226835579631,-0.21469621184887905,-10.641244145026565,1.0530972559587117,6.47752662770288,0.87572559632127
1730865958.3331993,-1.499990701675415,1.0729589462280273,-10.015694618225098,-0.2677094270239872,-0.21495523495156882,-10.63968043741259,1.0531004358206288,6.47750198143098,0.8756142913529794
1730865958.383289,-1.4388550519943237,1.0682786703109741,-10.016959190368652,-0.26850240463612285,-0.21546983320503804,-10.638101637283691,1.0535293486130424,6.471321252115532,0.8356805195802659
1730865958.4332135,-1.4388550519943237,1.0682786703109741,-10.016959190368652,-0.2693835987317529,-0.2162333217529756,-10.636524743577558,1.0562500634904242,6.473404168227503,0.8748831899988312
1730865958.4332135,-1.4234479665756226,1.0768064260482788,-10.036955833435059,-0.27033207440168394,-0.21723748214166613,-10.634967509482959,1.056255977613139,6.473383162443057,0.8747615738489628
1730865958.4831707,-1.4432932138442993,1.1116139888763428,-10.005428314208984,-0.2713243275729128,-0.21847277760821596,-10.633448210774786,1.057229689125111,6.4684491521551335,0.8345012281301094
1730865958.5341525,-1.4432932138442993,1.1116139888763428,-10.005428314208984,-0.27233485279762243,-0.21992868272124486,-10.631985340277108,1.0575270118194917,6.462868011916905,0.766391095278234
1730865958.5341525,-1.5085569620132446,1.1484904289245605,-9.962830543518066,-0.27333684086651866,-0.22159406262508333,-10.630597202369195,1.05752665794683,6.462830591702364,0.7658687543870427
1730865958.5831633,-1.5085569620132446,1.1484904289245605,-9.962830543518066,-0.2743029841352415,-0.22345751959184368,-10.629301447369604,1.0571133872128875,6.460754244329529,0.8751538922338857
1730865958.5831633,-1.5824558734893799,1.1850098371505737,-9.87814998626709,-0.27520632640560316,-0.22550769167417753,-10.628114587130082,1.05711331887928,6.460734382006369,0.875036251481095
1730865958.6341417,-1.5824558734893799,1.1850098371505737,-9.87814998626709,-0.276021060543495,-0.22773351053454066,-10.627051463226868,1.0567403274500486,6.4559494015161905,0.8346769212716137
1730865958.6341417,-1.7026240825653076,1.1562330722808838,-9.797066688537598,-0.27672327253628337,-0.23012436096654018,-10.626124695320055,1.0567368049340802,6.45592491114652,0.834415966110208
1730865958.6841717,-1.7026240825653076,1.1562330722808838,-9.797066688537598,-0.277291697940641,-0.2326700382555228,-10.62534420257775,1.0556766011778287,6.450660796997988,0.7681995474022193
1730865958.6841717,-1.8434793949127197,1.0966352224349976,-9.701960563659668,-0.27770848925523217,-0.235360507047501,-10.624716819550377,1.0556706397738809,6.450637228795533,0.7678625043073487
1730865958.7341104,-1.8434793949127197,1.0966352224349976,-9.701960563659668,-0.27795993554634435,-0.23818555670863503,-10.624245966889958,1.0539155157917206,6.444772852909178,0.6749870404772408
1730865958.7341104,-1.9647480249404907,1.0394996404647827,-9.635427474975586,-0.27803707143995415,-0.2411344341616489,-10.623931396986038,1.0539067954085093,6.444747291313624,0.6745467360869762
1730865958.7841659,-1.9647480249404907,1.0394996404647827,-9.635427474975586,-0.2779361098361531,-0.24419552234513486,-10.623769084945604,1.0592525346918276,6.447963158744313,0.8750495761975632
1730865958.7841659,-2.0362460613250732,0.9632866978645325,-9.589738845825195,-0.2776586535207627,-0.24735607251015965,-10.623751277817194,1.0592520955646199,6.4479437998799645,0.8749262007180433
1730865958.8331368,-2.0362460613250732,0.9632866978645325,-9.589738845825195,-0.2772116591847593,-0.25060194758609716,-10.623866665894798,1.0588283076142224,6.443587196331033,0.8363579565753704
1730865958.8331368,-2.0580220222473145,0.9396564364433289,-9.595098495483398,-0.2766071614852048,-0.25391742409854895,-10.624100677965918,1.058825112282355,6.443567499163184,0.8361410516365615
1730865958.8841126,-2.0580220222473145,0.9396564364433289,-9.595098495483398,-0.2758617937880446,-0.2572851760977781,-10.624435934538312,1.060325467327005,6.431597802237802,0.8748440142955414
1730865958.8841126,-2.0260348320007324,0.9472898840904236,-9.640368461608887,-0.2749961356899823,-0.2606864601428093,-10.62485284863996,1.0603243562036135,6.431567146618512,0.874712236961088
1730865958.9341154,-2.0260348320007324,0.9472898840904236,-9.640368461608887,-0.2740339116096701,-0.2641014314348258,-10.625330326108383,1.0597589385751496,6.42502135844487,0.8347984701549087
1730865958.9341154,-1.9630955457687378,1.0134309530258179,-9.721592903137207,-0.2730010874153096,-0.2675095736537031,-10.625846529426628,1.05975477510734,6.424989748885788,0.8345543011918759
1730865958.984118,-1.9630955457687378,1.0134309530258179,-9.721592903137207,-0.2719249308009618,-0.27089026970610314,-10.626379679853706,1.0616853622866884,6.415702682076264,0.8755438967584108
1730865958.984118,-1.895137906074524,1.0919886827468872,-9.815616607666016,-0.2708330949470217,-0.2742234685415152,-10.62690885823783,1.0616851148487165,6.415664637948518,0.875419589017084
1730865959.0339692,-1.8222602605819702,1.1473636627197266,-9.905097961425781,-0.269752713556626,-0.2774903922845462,-10.627414833583652,1.0612988924744275,6.407299947564087,0.8360506009784918
1730865959.0840662,-1.8222602605819702,1.1473636627197266,-9.905097961425781,-0.2687094743477621,-0.28067424488160997,-10.6278809484212,1.064815483254756,6.398813211797402,0.8755526068089771
1730865959.0840662,-1.7455374002456665,1.1361726522445679,-9.956357955932617,-0.26772681366008194,-0.2837606892331876,-10.628293814071249,1.064819547862181,6.398763392410161,0.8754289040345917
1730865959.1339521,-1.7455374002456665,1.1361726522445679,-9.956357955932617,-0.26682535314059264,-0.28673789057523424,-10.628643593469285,1.0653566019479157,6.387777658945237,0.8358761633559053
1730865959.1339521,-1.700907826423645,1.1482601165771484,-10.000899314880371,-0.2660225222237007,-0.28959630231067,-10.628924011171742,1.0653574935036672,6.387728792661624,0.8356490625573894
1730865959.1839936,-1.700907826423645,1.1482601165771484,-10.000899314880371,-0.2653323479814994,-0.2923284667273913,-10.629132270840985,1.0652330960405583,6.375946355426081,0.7692678977270117
1730865959.1839936,-1.7207727432250977,1.1174755096435547,-10.020934104919434,-0.2647654527320217,-0.29492885094358506,-10.62926890555526,1.065231196511778,6.375895861334967,0.7689366173771696
1730865959.233999,-1.7207727432250977,1.1174755096435547,-10.020934104919434,-0.2643292880281506,-0.2973935948219004,-10.629337539018957,1.0648369165669376,6.390559903495975,0.8792087783241818
1730865959.233999,-1.7523990869522095,1.134559988975525,-9.988039016723633,-0.26402854986432306,-0.29972020841686486,-10.62934453068889,1.0648356916408261,6.3905389953705685,0.8791016703588254
1730865959.2839696,-1.7523990869522095,1.134559988975525,-9.988039016723633,-0.26386564939903756,-0.301907392565136,-10.629298473939357,1.0642189527055124,6.385191034921253,0.8405104649229226
1730865959.2839696,-1.8286563158035278,1.1376848220825195,-9.950651168823242,-0.26384120852537474,-0.3039549914475874,-10.629209592166546,1.0642149360300317,6.385166643972308,0.8402900424611498
1730865959.3339097,-1.8286563158035278,1.1376848220825195,-9.950651168823242,-0.2639546306140545,-0.3058639459432406,-10.62908914155809,1.0675316458158846,6.373409936408867,0.8824113302502687
1730865959.3339097,-1.8731988668441772,1.1633003950119019,-9.883402824401855,-0.2642046897765693,-0.307636224765743,-10.628948846727727,1.0675333700251588,6.373375084795735,0.8823047665203898
1730865959.3839538,-1.87714421749115,1.2097761631011963,-9.829784393310547,-0.2645899954328945,-0.3092748442129223,-10.62880027688281,1.0692907844880113,6.369193992934765,0.8848657431202785
1730865959.43391,-1.87714421749115,1.2097761631011963,-9.829784393310547,-0.2651092725162978,-0.31078403525843906,-10.628654147131332,1.069318466359557,6.363879835531438,0.8468079716177441
1730865959.43391,-1.8527741432189941,1.2444229125976562,-9.779115676879883,-0.26576143329484003,-0.3121694358009035,-10.628519742239064,1.0693171266436492,6.36385434541274,0.8465790336049237
1730865959.483997,-1.8527741432189941,1.2444229125976562,-9.779115676879883,-0.2665454419264189,-0.3134381760465756,-10.628404580465379,1.0686803132227647,6.357712870094612,0.7816079966377768
1730865959.483997,-1.7791498899459839,1.2536530494689941,-9.761033058166504,-0.2674600370072526,-0.3145988526371906,-10.628314242730376,1.0686762769422782,6.357685717740412,0.7812826071182338
1730865959.5338774,-1.7791498899459839,1.2536530494689941,-9.761033058166504,-0.2685033395303125,-0.3156614063054412,-10.628252338031439,1.0707415271305607,6.350831447064864,0.8873327239128111
1730865959.5338774,-1.7433054447174072,1.2289862632751465,-9.7857084274292,-0.2696724281371475,-0.316636898398025,-10.628220621760185,1.070741582692916,6.350795929120431,0.8872094853688123
1730865959.583923,-1.7433054447174072,1.2289862632751465,-9.7857084274292,-0.270963048817364,-0.3175371882419977,-10.628219261663041,1.0704143216492727,6.343098033104489,0.8485920845958164
1730865959.583923,-1.7001326084136963,1.2023404836654663,-9.813427925109863,-0.27236948072485845,-0.31837455070798415,-10.628247200239485,1.0704113195687033,6.343061536539551,0.8483580937093562
1730865959.6338441,-1.7001326084136963,1.2023404836654663,-9.813427925109863,-0.2738844559755483,-0.31916130460388126,-10.62830252394132,1.072536528863018,6.3345727496176085,0.8902003913823908
1730865959.6338441,-1.658395528793335,1.1724835634231567,-9.855494499206543,-0.27549909457675287,-0.3199094821354852,-10.628382808663648,1.0725374330358866,6.334531510384499,0.8900841024254662
1730865959.6838272,-1.658395528793335,1.1724835634231567,-9.855494499206543,-0.2772028698030514,-0.3206305350051353,-10.628485461569994,1.0744046300632348,6.325310318566145,0.888956753095629
1730865959.6838272,-1.589672565460205,1.1396898031234741,-9.88569164276123,-0.2789835832776606,-0.32133507447897613,-10.628608042395523,1.0744067953107004,6.325265434424047,0.8888348121264278
1730865959.733828,-1.5081108808517456,1.1046420335769653,-9.922158241271973,-0.2808272253873205,-0.32203261277286327,-10.62874854903847,1.0745229812574397,6.3151659435167815,0.8491851743183964
1730865959.7838185,-1.5081108808517456,1.1046420335769653,-9.922158241271973,-0.28271765524023296,-0.3227312785692863,-10.628905694663374,1.0739356495461936,6.304248081295611,0.7829400502886829
1730865959.7838185,-1.4295170307159424,1.1049782037734985,-9.95274543762207,-0.2846363075071005,-0.3234376107236268,-10.629079135623936,1.0739316951146032,6.304200552791662,0.7826060002032159
1730865959.833836,-1.4295170307159424,1.1049782037734985,-9.95274543762207,-0.286562103455538,-0.3241565508572539,-10.629269588912909,1.0726370922089272,6.292522336576954,0.6901367955794816
1730865959.833836,-1.4276865720748901,1.1359474658966064,-9.951932907104492,-0.28847155686212317,-0.32489160575160453,-10.629478847101996,1.0726291454634658,6.292464195917842,0.6896281319589456
1730865959.8838398,-1.4276865720748901,1.1359474658966064,-9.951932907104492,-0.2903391166079038,-0.3256451146422712,-10.629709686734268,1.0742852873592088,6.279974201805062,0.8885400296063821
1730865959.8838398,-1.4848183393478394,1.1582427024841309,-9.916403770446777,-0.29213775783840235,-0.3264185633455368,-10.629965660892811,1.0742832699130598,6.279919575408586,0.888427845702592
1730865959.9337692,-1.4848183393478394,1.1582427024841309,-9.916403770446777,-0.29383974613204,-0.3272128641562762,-10.630250789538792,1.0764930663439227,6.266651574661161,0.8883656673665374
1730865959.9337692,-1.5948827266693115,1.1681678295135498,-9.850994110107422,-0.2954175186053878,-0.32802856498865024,-10.630569167893036,1.0764934857139943,6.266607617956106,0.8882808599430961
1730865959.9839382,-1.5948827266693115,1.1681678295135498,-9.850994110107422,-0.29684464301675234,-0.3288659895007957,-10.630924518611913,1.0762518424003151,6.252412179025356,0.8483274033359997
1730865959.9839382,-1.7093874216079712,1.1369863748550415,-9.79179573059082,-0.29809678215241353,-0.329725287941424,-10.631319738639839,1.0762492913392814,6.252351593076217,0.8481062408523863
1730865960.0338023,-1.7093874216079712,1.1369863748550415,-9.79179573059082,-0.2991525629832875,-0.33060636008239525,-10.631756512338466,1.0780688634588358,6.237399940770291,0.8880777178438448
1730865960.0338023,-1.8193243741989136,1.1080282926559448,-9.737626075744629,-0.2999943013836326,-0.33150868380370896,-10.632235017597791,1.0780693055030077,6.237329158429133,0.887955299213887
1730865960.083812,-1.8193243741989136,1.1080282926559448,-9.737626075744629,-0.3006085774084589,-0.33243114381534977,-10.632753713164412,1.0777933017535577,6.221621958786403,0.8483586949294663
1730865960.083812,-1.884267807006836,1.1029753684997559,-9.714607238769531,-0.3009866300719164,-0.33337192134752347,-10.633309220900195,1.0777901606577225,6.221543782621025,0.8481028910649595
1730865960.1337838,-1.884267807006836,1.1029753684997559,-9.714607238769531,-0.30112451893674547,-0.3343284763124062,-10.633896338083922,1.0767614717597827,6.204905108319096,0.7817159427141855
1730865960.1337838,-1.9105286598205566,1.1115912199020386,-9.716594696044922,-0.3010230524624205,-0.33529761889037873,-10.634508179001106,1.0767544149444086,6.204819480205441,0.7813158371333427
1730865960.1837988,-1.9105286598205566,1.1115912199020386,-9.716594696044922,-0.30068752786322506,-0.33627563815975625,-10.6351364145633,1.0794545754106066,6.1874691420852335,0.888036583597543
1730865960.1837988,-1.9257912635803223,1.116139531135559,-9.744019508361816,-0.3001273420280116,-0.3372584527947089,-10.63577158803189,1.0794540761621205,6.187392901207362,0.8879238250344546
1730865960.2337227,-1.9257912635803223,1.116139531135559,-9.744019508361816,-0.299355544970734,-0.33824174706395593,-10.636403493058491,1.0789650170885507,6.169134485988671,0.8483157633208261
1730865960.2337227,-1.9447674751281738,1.1083884239196777,-9.78177261352539,-0.29838838570690657,-0.3392210695730118,-10.637021587413834,1.0789611833606123,6.169051349999578,0.8480806002932171
1730865960.28374,-1.9447674751281738,1.1083884239196777,-9.78177261352539,-0.2972448815500332,-0.3401918845448977,-10.637615405177481,1.0813137751878488,6.14995374252968,0.8876986949152842
1730865960.28374,-1.942165493965149,1.0875669717788696,-9.824285507202148,-0.2959464011127412,-0.34114957423043846,-10.63817494414798,1.0813144292240273,6.149865248371366,0.8875784696116468
1730865960.3336928,-1.942165493965149,1.0875669717788696,-9.824285507202148,-0.2945162168691006,-0.34208939854889586,-10.638691017392627,1.0810932210977393,6.12994328105592,0.8478939189721965
1730865960.3336928,-1.9253342151641846,1.0885087251663208,-9.844911575317383,-0.2929790197500247,-0.34300644967011423,-10.639155540814052,1.0810906329983212,6.1298534907680295,0.8476605596902135
1730865960.383695,-1.9253342151641846,1.0885087251663208,-9.844911575317383,-0.29136041943433694,-0.3438956656186277,-10.639561714524291,1.0801412446972218,6.1090551514869835,0.7814911601279508
1730865960.383695,-1.8715403079986572,1.0781447887420654,-9.8873929977417,-0.2896864238378967,-0.34475189554435404,-10.63990412661673,1.0801346208172733,6.1089479728970515,0.7810902162294141
1730865960.4336674,-1.8715403079986572,1.0781447887420654,-9.8873929977417,-0.2879828658090129,-0.34556994874536445,-10.64017886770093,1.0784662454386134,6.087310518540241,0.6885382309988051
1730865960.4336674,-1.8378441333770752,1.0401469469070435,-9.917705535888672,-0.28627482255432557,-0.34634458502384496,-10.640383661091986,1.0784571891747583,6.087211871756412,0.688065443048882
1730865960.48365,-1.8378441333770752,1.0401469469070435,-9.917705535888672,-0.2845861385562115,-0.34707042613984557,-10.640517942643772,1.0852941250628565,6.064751705084177,0.8837398118200177
1730865960.48365,-1.7672381401062012,1.032460331916809,-9.951805114746094,-0.28293904252060115,-0.3477418389364566,-10.640582879658693,1.0852947296028732,6.064654149961229,0.8836246726720428
1730865960.5337403,-1.7021394968032837,1.0370874404907227,-9.975760459899902,-0.28135368845406705,-0.3483529043574861,-10.640581387040156,1.0850853165436996,6.041195592990565,0.8431370965864063
1730865960.5838394,-1.7021394968032837,1.0370874404907227,-9.975760459899902,-0.279847567249327,-0.3488975000272773,-10.640518163190745,1.0905845280102549,6.016282087160232,0.8787989637964178
1730865960.5838394,-1.65043306350708,1.073177456855774,-10.0149564743042,-0.27843502206659965,-0.3493694660122366,-10.640399686734632,1.090590633837566,6.016174814425421,0.8786748428541172
1730865960.6337297,-1.65043306350708,1.073177456855774,-10.0149564743042,-0.27712703351006557,-0.34976286025498404,-10.640234159842768,1.0916507123496118,5.991099155799914,0.8370078324286787
1730865960.6337297,-1.6014059782028198,1.14634108543396,-10.020565032958984,-0.2759311721711027,-0.35007230230005354,-10.64003141538645,1.091653974342109,5.990983177768145,0.8367585689767134
1730865960.6836996,-1.6014059782028198,1.14634108543396,-10.020565032958984,-0.27485161295840277,-0.35029339069529636,-10.63980273632643,1.0946104408099357,5.9647070205591115,0.8759568181215137
1730865960.6836996,-1.5850491523742676,1.22859787940979,-9.987622261047363,-0.27388922092561413,-0.35042315724031925,-10.63956055348085,1.0946178188852247,5.964575302256436,0.8758170790864734
1730865960.733647,-1.5850491523742676,1.22859787940979,-9.987622261047363,-0.2730417525383641,-0.35046049591695944,-10.63931803398949,1.0957629552057422,5.937599184412626,0.834361819619922
1730865960.733647,-1.6096011400222778,1.2526041269302368,-9.945744514465332,-0.27230418865028394,-0.3504064784141768,-10.63908860355195,1.0957671249403813,5.93745695521641,0.8340777201627616
1730865960.7837098,-1.6096011400222778,1.2526041269302368,-9.945744514465332,-0.2716691916972075,-0.3502644472933074,-10.638885471141839,1.0962312214931822,5.909579582174488,0.7659425492843361
1730865960.7837098,-1.665219783782959,1.2559261322021484,-9.857342720031738,-0.2711276627674213,-0.3500398912111083,-10.638721154361615,1.096231842045448,5.909437694211103,0.765534363840259
1730865960.8336103,-1.665219783782959,1.2559261322021484,-9.857342720031738,-0.27066936013565057,-0.34974020289540136,-10.638606943776725,1.096019438428923,5.880830063158843,0.6712915734540273
1730865960.8336103,-1.7471556663513184,1.2027697563171387,-9.769553184509277,-0.2702835501514438,-0.34937434094149644,-10.63855233110077,1.0960169256663057,5.880696868897257,0.6707988632959392
1730865960.8836133,-1.7471556663513184,1.2027697563171387,-9.769553184509277,-0.26995966959166684,-0.34895234873526865,-10.63856449925947,1.0965604250626104,5.850834271356576,0.8730922322515465
1730865960.8836133,-1.8258168697357178,1.1118991374969482,-9.667461395263672,-0.26968795890199104,-0.3484847418986351,-10.638647901343464,1.0965614069489977,5.8507048783233,0.8729742456164138
1730865960.9335773,-1.8258168697357178,1.1118991374969482,-9.667461395263672,-0.26946000954874305,-0.34798182489292406,-10.638803894824104,1.096454429880048,5.820340565362404,0.8324884552016855
1730865960.9335773,-1.8815194368362427,1.0185134410858154,-9.608986854553223,-0.269269186906821,-0.34745300426056336,-10.639030467526506,1.0964525016633844,5.82020594826192,0.8322538133912147
1730865960.9835758,-1.8815194368362427,1.0185134410858154,-9.608986854553223,-0.26911090609131055,-0.3469061709869406,-10.6393221508627,1.1008922849651455,5.7882312839110455,0.8690309081312929
1730865960.9835758,-1.8734042644500732,0.954424262046814,-9.58102798461914,-0.26898272413017976,-0.3463472099870984,-10.639670135381216,1.1008957034068179,5.7880879671816485,0.8689053685210639
1730865961.033538,-1.8734042644500732,0.954424262046814,-9.58102798461914,-0.26888420053683837,-0.34577968166636414,-10.640062535123784,1.1013179813936902,5.755976311432868,0.8279581607482246
1730865961.033538,-1.824157476425171,0.9195178747177124,-9.613903045654297,-0.2688165455587598,-0.3452046831437135,-10.640484792480134,1.1013184252061934,5.755813468523287,0.8276871891209958
1730865961.0836797,-1.7324042320251465,0.9404146075248718,-9.695297241210938,-0.26878204987211024,-0.3446208836049083,-10.640920326731656,1.101070291493497,5.722651613666988,0.7598705152584884
1730865961.133535,-1.7324042320251465,0.9404146075248718,-9.695297241210938,-0.2687832717861909,-0.3440247510121628,-10.64135147223587,1.1013544701225015,5.687914068935212,0.8744532132083337
1730865961.133535,-1.6441199779510498,0.9858413338661194,-9.814929962158203,-0.2688221938742814,-0.34341097209968363,-10.64176051785572,1.1013537087129237,5.687768736231686,0.8743458068952771
1730865961.1836119,-1.6441199779510498,0.9858413338661194,-9.814929962158203,-0.2688995722687185,-0.34277301271130073,-10.64213068776276,1.1008339437303405,5.652780980929261,0.8354021102999983
1730865961.1836119,-1.5686087608337402,1.074684739112854,-9.920032501220703,-0.26901446346204433,-0.34210374874190136,-10.642447033177357,1.100829352241732,5.652591627691512,0.8351221731382653
1730865961.2334654,-1.5686087608337402,1.074684739112854,-9.920032501220703,-0.2691638809497421,-0.34139615235755283,-10.64269717157778,1.1014907249935397,5.6166972595130025,0.8782440751260894
1730865961.2334654,-1.542607307434082,1.151999592781067,-10.003628730773926,-0.26934260881832617,-0.3406439844437017,-10.642871832510577,1.1014888987564266,5.616548411495593,0.878142617031514
1730865961.283573,-1.542607307434082,1.151999592781067,-10.003628730773926,-0.2695432181623353,-0.33984238483149837,-10.642965218451257,1.1007086427730526,5.579985718860235,0.8402086009572487
1730865961.283573,-1.5542049407958984,1.2301385402679443,-10.041191101074219,-0.26975627911733246,-0.33898832961872427,-10.642975174098439,1.100704009824516,5.579832326643104,0.8399961179745363
1730865961.3333614,-1.5542049407958984,1.2301385402679443,-10.041191101074219,-0.2699707162110633,-0.3380809913342062,-10.642903144890257,1.0992624453846485,5.542697259930771,0.7760228651422729
1730865961.3333614,-1.6225168704986572,1.2406723499298096,-10.066964149475098,-0.2701742886089836,-0.3371219606363631,-10.642753963776784,1.0992543163443695,5.542525209545926,0.7756696704763323
1730865961.3834236,-1.6225168704986572,1.2406723499298096,-10.066964149475098,-0.27035420571817503,-0.33611522342708633,-10.642535554336199,1.0971299572948243,5.504292574546918,0.684748693020584
1730865961.3834236,-1.7253564596176147,1.2138913869857788,-10.027120590209961,-0.2704978479263631,-0.3350668949778052,-10.642258546994425,1.0971197456995387,5.504132257271063,0.684316453838926
1730865961.4334004,-1.7253564596176147,1.2138913869857788,-10.027120590209961,-0.2705935280223018,-0.33398480419353865,-10.641935727706656,1.1017539051571594,5.464511961088784,0.8800814134452772
1730865961.4334004,-1.8377536535263062,1.1672279834747314,-9.96264362335205,-0.2706312351529362,-0.3328779975207343,-10.64158133818107,1.1017519006810086,5.464376273642404,0.8799928058434863
1730865961.4834306,-1.8377536535263062,1.1672279834747314,-9.96264362335205,-0.2706033092313658,-0.33175621117250725,-10.64121033120977,1.10082971322844,5.424434091761721,0.8408786206822643
1730865961.4834306,-1.8791604042053223,1.118408203125,-9.90227222442627,-0.27050495207832903,-0.33062935391981463,-10.640837658955306,1.1008234067795162,5.424232253540937,0.840616371736883
1730865961.5334456,-1.8791604042053223,1.118408203125,-9.90227222442627,-0.2703344474783757,-0.32950703673374404,-10.640477649265462,1.1032136827301906,5.382954172436883,0.8844051891260875
1730865961.5334456,-1.8703622817993164,1.049418330192566,-9.87574577331543,-0.2700930760951471,-0.32839814766743264,-10.640143516952156,1.1032131770150375,5.382782768177992,0.8843024510140146
1730865961.5833516,-1.8703622817993164,1.049418330192566,-9.87574577331543,-0.2697848080744272,-0.32731043820797023,-10.639847049424633,1.1034039551512431,5.340628281113946,0.888537497459414
1730865961.5833516,-1.7904411554336548,0.9940613508224487,-9.860814094543457,-0.26941580898743167,-0.32625013911789824,-10.639598451478257,1.1034027369666524,5.340474021611707,0.888450320534766
1730865961.6333067,-1.7904411554336548,0.9940613508224487,-9.860814094543457,-0.26899375441857776,-0.3252216675016947,-10.639406287812392,1.1027346665815068,5.298051529723605,0.8514054555599316
1730865961.6333067,-1.6464136838912964,0.9628157019615173,-9.86606502532959,-0.2685269770119163,-0.32422745561652677,-10.63927749773244,1.1027304155556528,5.297870281540459,0.8511923694840049
1730865961.683353,-1.6464136838912964,0.9628157019615173,-9.86606502532959,-0.2680234938037392,-0.32326790501909874,-10.639217487206235,1.1013982375227807,5.254834812810176,0.7878812175659926
1730865961.683353,-1.5627888441085815,0.9482263922691345,-9.848698616027832,-0.26749006201526687,-0.32234145151878985,-10.639230255520628,1.1013913365861139,5.254654712856788,0.7875640367727956
1730865961.7333167,-1.5627888441085815,0.9482263922691345,-9.848698616027832,-0.2669314948280631,-0.3214447111407749,-10.639318473614294,1.0993765020441508,5.210446653160523,0.697011934641021
1730865961.7333167,-1.562458872795105,0.9341247081756592,-9.841981887817383,-0.26635033957361953,-0.32057267294427744,-10.639483512625905,1.0993666294343365,5.2102593304659885,0.6965754156961179
1730865961.783527,-1.562458872795105,0.9341247081756592,-9.841981887817383,-0.2657469097778892,-0.3197189012269289,-10.639725490369324,1.1033262211243038,5.1646534043520225,0.8855200226468712
1730865961.783527,-1.5797141790390015,0.9555282592773438,-9.840194702148438,-0.26511957991045215,-0.3188757610995222,-10.640043357936813,1.1033235108143062,5.164451029110282,0.8854011340270661
1730865961.8334281,-1.5797141790390015,0.9555282592773438,-9.840194702148438,-0.2644651825532611,-0.3180347248899294,-10.64043500971913,1.1023952427134145,5.119114592318964,0.8458676772065186
1730865961.8334281,-1.656130313873291,1.0449622869491577,-9.828990936279297,-0.2637794669201987,-0.31718680474723204,-10.64089739457867,1.1023896526795518,5.118910841599455,0.8456330295644722
1730865961.883437,-1.656130313873291,1.0449622869491577,-9.828990936279297,-0.2630576792762742,-0.31632314592969846,-10.641426601468016,1.1007932683875052,5.072372276207779,0.7791266451965285
1730865961.883437,-1.7408385276794434,1.130565881729126,-9.812065124511719,-0.26229523176529246,-0.3154357139508698,-10.642017913312701,1.1007845064467834,5.07215884920103,0.7787634315486048
1730865961.933372,-1.7408385276794434,1.130565881729126,-9.812065124511719,-0.2614883467017883,-0.31451792353749586,-10.642665840487572,1.098554883617425,5.025305228088598,0.686580360445162
1730865961.933372,-1.8037424087524414,1.1793253421783447,-9.80042552947998,-0.26063459906161957,-0.3135651156015116,-10.64336415031085,1.0985438241399113,5.025100466389433,0.6861240080196241
1730865961.9834905,-1.8037424087524414,1.1793253421783447,-9.80042552947998,-0.2597333111699329,-0.31257483907513794,-10.644105913105665,1.1037871444311855,4.9760963508522265,0.8852466485004855
1730865961.9834905,-1.8700915575027466,1.1633671522140503,-9.820185661315918,-0.25878581181737526,-0.31154690778294164,-10.644883595620811,1.1037842678704977,4.975837462648892,0.8851040195792079
1730865962.0333447,-1.8700915575027466,1.1633671522140503,-9.820185661315918,-0.2577956213756295,-0.3104832143237576,-10.64568924089055,1.1029320347735156,4.927387601763947,0.8454847832176968
1730865962.0333447,-1.9134926795959473,1.100498914718628,-9.80792236328125,-0.2567685695167063,-0.309387329736153,-10.646514686099959,1.1029263900520245,4.927152045118204,0.8452303319287693
1730865962.083408,-1.9134926795959473,1.100498914718628,-9.80792236328125,-0.2557128054556378,-0.3082639572157922,-10.647351696324591,1.103978818923349,4.876058989990463,0.8847444719088301
1730865962.083408,-1.9817607402801514,0.9967160820960999,-9.799867630004883,-0.25463873464590925,-0.30711828927430224,-10.648192000991646,1.103976381422542,4.875834173065939,0.884623183773314
1730865962.1332574,-1.9817607402801514,0.9967160820960999,-9.799867630004883,-0.2535589782904879,-0.30595530117589054,-10.649027312600158,1.1031384001810869,4.82638582741494,0.8452998906432728
1730865962.1332574,-2.009242534637451,0.8998187184333801,-9.762540817260742,-0.25248833520310066,-0.30477904726436655,-10.649849332760871,1.1031334609515653,4.826170693012022,0.8450746173339547
1730865962.1833553,-2.009242534637451,0.8998187184333801,-9.762540817260742,-0.25144362666661235,-0.30359205465462563,-10.65064968736474,1.1032874257813874,4.773931965462486,0.8847859884125703
1730865962.1833553,-2.0146119594573975,0.8520634174346924,-9.732019424438477,-0.25044340025839956,-0.30239488866870773,-10.651419804897492,1.103283985184613,4.773717588785254,0.8846747635720739
1730865962.2332752,-2.0146119594573975,0.8520634174346924,-9.732019424438477,-0.24950754987762663,-0.30118594634933693,-10.65215081305542,1.103489006656538,4.720772338554666,0.8845984829795794
1730865962.2332752,-1.9653370380401611,0.8578269481658936,-9.763777732849121,-0.2486568557526704,-0.2999614892024721,-10.652833534706193,1.103486189830019,4.720535896531194,0.884477643736345
1730865962.2832632,-1.9653370380401611,0.8578269481658936,-9.763777732849121,-0.24791240285341432,-0.2987158877061553,-10.653458668193922,1.102562945448539,4.668296693705143,0.8448490298634276
1730865962.2832632,-1.8760980367660522,0.9307280778884888,-9.811843872070312,-0.24729488665915586,-0.2974420599010664,-10.6540171306272,1.102557818226472,4.668077117803721,0.844628889448553
1730865962.3331802,-1.8760980367660522,0.9307280778884888,-9.811843872070312,-0.246823858074118,-0.2961320947705204,-10.654500452695071,1.1010202069499697,4.61494914556052,0.778540181994804
1730865962.3331802,-1.7786275148391724,1.0387083292007446,-9.875558853149414,-0.2465169679554245,-0.2947780088908194,-10.65490117028381,1.101012365225292,4.614721562439906,0.7782028927301942
1730865962.3832405,-1.7786275148391724,1.0387083292007446,-9.875558853149414,-0.24638927835529487,-0.29337254953750097,-10.655213206964342,1.0988520138792455,4.560598047141935,0.685209735129606
1730865962.3832405,-1.7020138502120972,1.1243410110473633,-9.926508903503418,-0.2464526946708386,-0.2919099467449639,-10.655432217248757,1.0988416877939768,4.5603700988736,0.684764987040239
1730865962.4332123,-1.7020138502120972,1.1243410110473633,-9.926508903503418,-0.2467155612214698,-0.2903865089494798,-10.655555840386521,1.1037486505964282,4.5044757670330045,0.8847823592605794
1730865962.4332123,-1.6601722240447998,1.1989141702651978,-9.964488983154297,-0.24718244100591774,-0.2888010360629386,-10.655583848332045,1.1037458085440748,4.504195353508391,0.8846475907158998
1730865962.4832904,-1.6601722240447998,1.1989141702651978,-9.964488983154297,-0.24785408156335803,-0.2871550914628856,-10.655518200506233,1.102877980449918,4.44870421837262,0.8448640294919308
1730865962.4832904,-1.6342209577560425,1.2611186504364014,-9.975395202636719,-0.24872753692100943,-0.28545315829661605,-10.655363004642616,1.102872113218905,4.44842578013483,0.8445994543424419
1730865962.5331616,-1.6342209577560425,1.2611186504364014,-9.975395202636719,-0.24979638877721494,-0.28370269160278405,-10.655124371759552,1.1045192340654388,4.39114089682136,0.8851053965371564
1730865962.5331616,-1.622498869895935,1.2675787210464478,-9.962905883789062,-0.2510510328680401,-0.28191403940651694,-10.654810172428462,1.1045174243223728,4.390879232860404,0.8849834427689646
1730865962.5832772,-1.622498869895935,1.2675787210464478,-9.962905883789062,-0.2524790161826722,-0.2801001738073079,-10.654429717713729,1.1038111994513449,4.333940420218523,0.8453225801718549
1730865962.5832772,-1.639206886291504,1.2061913013458252,-9.937066078186035,-0.2540654263430095,-0.27827621253373075,-10.653993391419485,1.1038069675054454,4.333702950296044,0.8451031303446572
1730865962.6331246,-1.639206886291504,1.2061913013458252,-9.937066078186035,-0.25579334769083784,-0.27645874528460446,-10.65351226275515,1.1024632692942615,4.27593211661036,0.7786941145341973
1730865962.6331246,-1.6860491037368774,1.1449236869812012,-9.880510330200195,-0.25764438414866736,-0.2746650516900088,-10.652997679948387,1.102456238158961,4.275686558267862,0.7783571426663326
1730865962.6834114,-1.6860491037368774,1.1449236869812012,-9.880510330200195,-0.2595992365882116,-0.2729123582784786,-10.652460821090358,1.1053599145247712,4.216050882571749,0.8852116088144317
1730865962.6834114,-1.7109571695327759,1.0855287313461304,-9.83228588104248,-0.26163827499917713,-0.2712171999840951,-10.651912233559022,1.1053583846714408,4.215804066474953,0.8851003123623243
1730865962.7330935,-1.7109571695327759,1.0855287313461304,-9.83228588104248,-0.26374200621364374,-0.2695948814237638,-10.651361439721402,1.1046480573017925,4.155754604993852,0.8444364744155118
1730865962.7330935,-1.709753394126892,1.0741137266159058,-9.788422584533691,-0.26589139699283637,-0.2680590728705969,-10.650816635638487,1.1046437611619147,4.15550762935237,0.8442139986797687
1730865962.7832174,-1.709753394126892,1.0741137266159058,-9.788422584533691,-0.26806806295899316,-0.2666216090367754,-10.650284465865228,1.1068934848314134,4.09855244667597,0.8906193291666206
1730865962.7832174,-1.6724727153778076,1.0828081369400024,-9.795247077941895,-0.2702543285757567,-0.2652924796789652,-10.649769904419928,1.1068933809755224,4.098304101079126,0.8905190963764515
1730865962.8330767,-1.6724727153778076,1.0828081369400024,-9.795247077941895,-0.2724331589119754,-0.2640799339398737,-10.649276311439127,1.1065136110388387,4.036721034030605,0.8519582201621146
1730865962.8330767,-1.6206578016281128,1.0981696844100952,-9.837224006652832,-0.2745879937079845,-0.26299064371306746,-10.64880566678272,1.1065102974160104,4.036441512481356,0.8517216468159345
1730865962.8830912,-1.5427521467208862,1.13316011428833,-9.84755802154541,-0.27670246922892217,-0.262029923217382,-10.648358933101955,1.1075058549774985,3.979263248910091,0.8939800965847479
1730865962.933006,-1.5427521467208862,1.13316011428833,-9.84755802154541,-0.2787599873696376,-0.26120202532647563,-10.647936460250452,1.1069325272215438,3.9176197879859678,0.8566918857517467
1730865962.933006,-1.5629488229751587,1.1618047952651978,-9.863628387451172,-0.28074336811846223,-0.2605104547055675,-10.647538286777513,1.1069280553673027,3.9173193380114064,0.8564464665281356
1730865962.9830446,-1.5629488229751587,1.1618047952651978,-9.863628387451172,-0.28263490689891363,-0.2599582115265454,-10.647164310767277,1.1056537184243975,3.8550958023232837,0.7925851311396328
1730865962.9830446,-1.629149079322815,1.215698003768921,-9.845447540283203,-0.2844167935585476,-0.2595479924204471,-10.646814383193288,1.1056450555576167,3.8547628833411474,0.7921744007821301
1730865963.0340078,-1.629149079322815,1.215698003768921,-9.845447540283203,-0.2860716932947924,-0.25928242341981267,-10.646488300279195,1.1036179286991175,3.7907580333282858,0.6998390984100215
1730865963.0340078,-1.6967530250549316,1.2590280771255493,-9.838217735290527,-0.2875833710346736,-0.2591643134341626,-10.646185714973344,1.1036069706033964,3.790463932636663,0.6993540616029298
1730865963.084012,-1.7413307428359985,1.2730633020401,-9.82457160949707,-0.2889373046117472,-0.2591968701844579,-10.645906049915965,1.1080548950553835,3.7291031012760802,0.8913866895504021
1730865963.1339903,-1.7413307428359985,1.2730633020401,-9.82457160949707,-0.2901212582370523,-0.25938384498726363,-10.64564842561993,1.107187167750574,3.6647789086042635,0.8515520135693172
1730865963.1339903,-1.7646113634109497,1.2583575248718262,-9.81188678741455,-0.29112567102181097,-0.25972953033158613,-10.645411596798029,1.1071818583785495,3.664500336051078,0.8513227458136453
1730865963.1839724,-1.7646113634109497,1.2583575248718262,-9.81188678741455,-0.29194376278806894,-0.26023856481720886,-10.645193913016653,1.1090121356011593,3.6035512433096106,0.8907285097183172
1730865963.1839724,-1.7786732912063599,1.2127102613449097,-9.802888870239258,-0.29257147032110287,-0.26091561417853104,-10.644993303310935,1.1090105432369277,3.6032573619496375,0.8906075778204022
1730865963.233917,-1.7786732912063599,1.2127102613449097,-9.802888870239258,-0.2930073214349683,-0.2617649859244423,-10.644807279996218,1.108299428425816,3.5383455003850814,0.8509088652885592
1730865963.233917,-1.8130278587341309,1.14822256565094,-9.807696342468262,-0.29325229367455763,-0.2627902013657317,-10.6446329705415,1.1082941595733888,3.538024991799224,0.8506493333407412
1730865963.2838762,-1.8130278587341309,1.14822256565094,-9.807696342468262,-0.29330971328326766,-0.2639935588291604,-10.644467191316746,1.1068538944561455,3.4722365841357847,0.7844270243837694
1730865963.2838762,-1.809478998184204,1.100132703781128,-9.810400009155273,-0.2931851623734338,-0.26537573790640673,-10.644306551002119,1.106844901191653,3.471907065435735,0.784031105869432
1730865963.333905,-1.809478998184204,1.100132703781128,-9.810400009155273,-0.2928862882107244,-0.26693550758159157,-10.644147549493887,1.110182648502022,3.4093396656569483,0.890364866758182
1730865963.333905,-1.797210454940796,1.1131501197814941,-9.829365730285645,-0.2924225043689407,-0.2686695990108936,-10.643986674110039,1.1101807718987162,3.4090126023151877,0.8902342210143522
1730865963.383851,-1.797210454940796,1.1131501197814941,-9.829365730285645,-0.2918046550333819,-0.2705728011395175,-10.643820525398125,1.109439795175717,3.342223452504419,0.8505692564312723
1730865963.383851,-1.7991148233413696,1.125964879989624,-9.836786270141602,-0.2910446979061313,-0.2726382305410401,-10.643645958035663,1.1094351743252597,3.3419415843926092,0.8503476387919165
1730865963.4338167,-1.7991148233413696,1.125964879989624,-9.836786270141602,-0.29015544705929097,-0.27485763672250274,-10.643460182756128,1.1110839212653076,5.987149321223118,0.885295214506583
1730865963.4338167,-1.7826963663101196,1.1695894002914429,-9.845488548278809,-0.2891503604652852,-0.2772217075141006,-10.643260820339087,1.1110826946584098,5.987119269236994,0.8851697653493839
1730865963.4838102,-1.7767739295959473,1.2048052549362183,-9.856528282165527,-0.2880433037317808,-0.27972045894799136,-10.643045947032721,1.110447860055036,5.979987152696265,0.8436237168862737
1730865963.5337822,-1.8129676580429077,1.1983704566955566,-9.851751327514648,-0.2868483199690405,-0.28234371112232515,-10.642814150017509,1.1118756039551312,5.975978340919572,0.8810116455191475
1730865963.5838563,-1.8129676580429077,1.1983704566955566,-9.851751327514648,-0.2855795401371952,-0.2850814545551775,-10.642564553995637,1.111249381866274,5.969002625548298,0.839886879178116
1730865963.5838563,-1.865580439567566,1.1427628993988037,-9.82577133178711,-0.2842512659319501,-0.28792392078561535,-10.642296762776976,1.111245245953114,5.9689713297759255,0.8396566537165537
1730865963.633715,-1.865580439567566,1.1427628993988037,-9.82577133178711,-0.2828781380511622,-0.2908613711073107,-10.64201070537131,1.1098346118496403,5.96079436074046,0.7680250751811961
1730865963.633715,-1.881205439567566,1.0834192037582397,-9.824111938476562,-0.28147528331533106,-0.29388375371038145,-10.641706456528134,1.1098282832917394,5.960764102688108,0.7677214469994582
1730865963.68373,-1.881205439567566,1.0834192037582397,-9.824111938476562,-0.2800583402666234,-0.2969803669365101,-10.641384129408866,1.1129994708253477,5.967076601732049,0.8851324530144165
1730865963.68373,-1.863053321838379,1.0553536415100098,-9.826824188232422,-0.2786433357156719,-0.3001396046240873,-10.641043853724078,1.1129980654486598,5.967059637529983,0.8850261296714924
1730865963.7337158,-1.863053321838379,1.0553536415100098,-9.826824188232422,-0.27724644161964057,-0.3033488378151348,-10.640685790798583,1.1122919871687387,5.962524322415541,0.8451495927686234
1730865963.7337158,-1.8265241384506226,1.0528087615966797,-9.850543975830078,-0.275883649768735,-0.30659444067305913,-10.640310176791623,1.1122875739702947,5.962503964829188,0.844927481944113
1730865963.7837036,-1.8265241384506226,1.0528087615966797,-9.850543975830078,-0.2745704082241956,-0.3098619288883015,-10.639917419131004,1.1109500185716492,5.957461417353073,0.7813563604064223
1730865963.7837036,-1.7715882062911987,1.0776413679122925,-9.877630233764648,-0.2733212436164458,-0.31313618906131957,-10.639508235923408,1.1109403449393171,5.9574299307929595,0.7809131484776229
1730865963.8336518,-1.7715882062911987,1.0776413679122925,-9.877630233764648,-0.272149376302665,-0.3164017864227195,-10.639083798248825,1.114048521490633,5.953604734811405,0.8843675609049977
1730865963.8336518,-1.7354477643966675,1.0973707437515259,-9.941924095153809,-0.2710663681053215,-0.319643308187529,-10.638645887450458,1.1140473063657566,5.953581977468831,0.8842569865626315
1730865963.8837056,-1.7354477643966675,1.0973707437515259,-9.941924095153809,-0.2700818696239964,-0.3228456748229923,-10.638197123670695,1.1134179032065952,5.947744425437106,0.8444971375307364
1730865963.8837056,-1.689695954322815,1.1317925453186035,-9.966397285461426,-0.2692034639851496,-0.3259944089376899,-10.637741212740632,1.113413828616331,5.9477181666460845,0.8442736870451936
1730865963.9335935,-1.689695954322815,1.1317925453186035,-9.966397285461426,-0.2684365443712451,-0.3290759003767441,-10.637283066543914,1.112117420320398,5.941103081638779,0.7782501370219254
1730865963.9335935,-1.6389662027359009,1.1293141841888428,-9.971222877502441,-0.26778420153923815,-0.332077636002027,-10.636828762698366,1.1121100733234692,5.941071419498531,0.7778929545030109
1730865963.9836588,-1.6389662027359009,1.1293141841888428,-9.971222877502441,-0.2672471308050344,-0.33498830354727993,-10.636385403862072,1.1144708722121917,5.941645389025754,0.8888154861125648
1730865963.9836588,-1.6623183488845825,1.1505361795425415,-9.938908576965332,-0.2668236332589658,-0.33779779491434425,-10.635960895280789,1.11446888887577,5.941623948198369,0.8887070290326332
1730865964.0335605,-1.6623183488845825,1.1505361795425415,-9.938908576965332,-0.26650984041614256,-0.34049723243991864,-10.635563623642572,1.1136441845385474,5.936051166222431,0.848790431689355
1730865964.0335605,-1.685981035232544,1.114296793937683,-9.907242774963379,-0.2663001318109388,-0.3430789952713431,-10.63520207391679,1.1136404804452809,5.936032187432913,0.8486205291890089
1730865964.0836053,-1.685981035232544,1.114296793937683,-9.907242774963379,-0.26618757978645047,-0.3455365990459433,-10.634884465943632,1.114899476656673,5.926836089293922,0.8935265276361078
1730865964.0836053,-1.7127622365951538,1.098321795463562,-9.828071594238281,-0.266164349066343,-0.34786444889318435,-10.634618402915383,1.11489666498284,5.926786046275028,0.893369012099198
1730865964.1335196,-1.7381293773651123,1.0863145589828491,-9.812661170959473,-0.26622208158904226,-0.3500576163852044,-10.634410434086666,1.114134647655313,5.918735810747403,0.8560555079023133
1730865964.1835907,-1.7394286394119263,1.1070185899734497,-9.751754760742188,-0.26635228700205027,-0.3521117022043955,-10.6342655386651,1.1152795660998576,5.914532768349222,0.9017349619189804
1730865964.2335656,-1.7783422470092773,1.099996566772461,-9.74980354309082,-0.2665466941977238,-0.35402280694333543,-10.634186680205312,1.1144864149406324,5.906667096653767,0.8653489516315033
1730865964.2834716,-1.775434136390686,1.1180026531219482,-9.734968185424805,-0.2667975376928305,-0.35578760368343443,-10.634174563323594,1.1130426568948106,5.8980344056159435,0.8030874085331167
1730865964.3334875,-1.775434136390686,1.1180026531219482,-9.734968185424805,-0.26709776553596987,-0.35740344211002806,-10.634227631918506,1.115066473676532,5.90764816485051,0.90661044761016
1730865964.3334875,-1.7961090803146362,1.0978853702545166,-9.74190616607666,-0.26744112760458594,-0.3588684142193093,-10.634342256158344,1.115062113549687,5.907623387785422,0.9064492199462274
1730865964.3834748,-1.7961090803146362,1.0978853702545166,-9.74190616607666,-0.26782219872401736,-0.3601813180933646,-10.634513022885699,1.1140637417991959,5.90339429458555,0.8686227194665463
1730865964.3834748,-1.8024729490280151,1.096219539642334,-9.761283874511719,-0.26823640664433135,-0.3613415416092697,-10.63473307764833,1.1140551218127677,5.903364012819437,0.868292203009646
1730865964.4334664,-1.8615046739578247,1.0873790979385376,-9.789366722106934,-0.26868008327586035,-0.36234896669463595,-10.63499451403395,1.115643588087136,5.895517713808854,0.9142992416046449
1730865964.4834557,-1.8906596899032593,1.113863468170166,-9.796687126159668,-0.26915063993160776,-0.3632039355529882,-10.635288819216358,1.1148163897993921,5.889519238741135,0.8774598173560799
1730865964.533443,-1.8906596899032593,1.113863468170166,-9.796687126159668,-0.26964685871032307,-0.3639072949817897,-10.635607293017863,1.1133189041265106,5.882622336277101,0.8141637158887302
1730865964.533443,-1.8843986988067627,1.1354656219482422,-9.818350791931152,-0.2701690469948368,-0.3644605169193266,-10.635941340430897,1.113307068331515,5.882574920248054,0.8136695958655654
1730865964.5834439,-1.8520234823226929,1.1645499467849731,-9.829914093017578,-0.27071888630289676,-0.3648658565442102,-10.63628268587425,1.1111441285789145,5.87480335414805,0.7241976141420079
1730865964.6334517,-1.8085271120071411,1.176212191581726,-9.861815452575684,-0.27129901675513735,-0.36512654198716477,-10.636623609644687,1.1159860680349571,5.884129420473872,0.9157719504568587
1730865964.6834452,-1.8085271120071411,1.176212191581726,-9.861815452575684,-0.2719124805023361,-0.36524694478853503,-10.636957207585446,1.1150922883451624,5.8789361934809685,0.8769115396631109
1730865964.6834452,-1.7181299924850464,1.1627516746520996,-9.876137733459473,-0.2725621579821157,-0.36523260850623407,-10.637277596689005,1.1150841736853698,5.878899093569223,0.876568533643787
1730865964.7333987,-1.6924563646316528,1.1392431259155273,-9.905946731567383,-0.2732501936366014,-0.3650900813088306,-10.637580038223945,1.1167643642224676,5.869343400329106,0.9165148251383257
1730865964.7834475,-1.6710063219070435,1.1597439050674438,-9.915834426879883,-0.27397741114453367,-0.36482663305417473,-10.637861049945244,1.116059850241062,5.861782198122173,0.8779402782558792
1730865964.8333828,-1.6623401641845703,1.1732234954833984,-9.910504341125488,-0.274742921976858,-0.36445004279228804,-10.638118509434747,1.1146145211537801,5.852934221733692,0.810128756230599
1730865964.8834436,-1.664509892463684,1.188157320022583,-9.918722152709961,-0.27554404381739483,-0.3639685744780175,-10.638351645482862,1.1125679886164572,5.843635589677282,0.7196649647597119
1730865964.933397,-1.664509892463684,1.188157320022583,-9.918722152709961,-0.2763764333979576,-0.3633910502629467,-10.638560916768622,1.1171934613367307,5.853679653955038,0.9135262891655914
1730865964.933397,-1.6572636365890503,1.1673773527145386,-9.908549308776855,-0.2772343152985254,-0.3627268519559002,-10.638747855836673,1.1171897064284217,5.853645715756326,0.9133427035184776
1730865964.9834638,-1.6591688394546509,1.130024790763855,-9.90406608581543,-0.2781107173880494,-0.3619857400843134,-10.638914882368429,1.1162830139837607,5.848173154728518,0.8727555971782909
1730865965.0333724,-1.6591688394546509,1.130024790763855,-9.90406608581543,-0.2789976829813084,-0.361177500787064,-10.639065085117188,1.1182892066236643,5.836485491807105,0.9103932431099628
1730865965.0333724,-1.6374982595443726,1.1253414154052734,-9.897210121154785,-0.27988646232530223,-0.3603115937229622,-10.639202023870846,1.1182874654768005,5.836428618268673,0.9102057088054142
1730865965.0834715,-1.6374982595443726,1.1253414154052734,-9.897210121154785,-0.2807676474822282,-0.35939696308286884,-10.639329570802198,1.1188678210796175,5.820606665082688,0.9079110687892743
1730865965.0834715,-1.6542800664901733,1.1127800941467285,-9.890379905700684,-0.2816312778797705,-0.35844197861092786,-10.639451772699704,1.1188660052378128,5.820539212810169,0.9077307676755908
1730865965.1333466,-1.6624219417572021,1.1077226400375366,-9.87459659576416,-0.2824670324234918,-0.35745439179950506,-10.639572713416783,1.1182368472454123,5.8096892538996165,0.8667646510303768
1730865965.183495,-1.6624219417572021,1.1077226400375366,-9.87459659576416,-0.28326451382484474,-0.35644127858579655,-10.639696358001638,1.1168934858692736,5.7978193191016425,0.7987306190052388
1730865965.183495,-1.6803877353668213,1.1172305345535278,-9.872438430786133,-0.28401351749586434,-0.35540902139748937,-10.639826407654873,1.1168819518140183,5.797735810635627,0.7981782631069451
1730865965.2333581,-1.6642932891845703,1.1443051099777222,-9.851571083068848,-0.2847042381326914,-0.35436339178489695,-10.639966199809555,1.1192277501301038,5.81007948261213,0.9064791415812569
1730865965.2835011,-1.676072597503662,1.1518168449401855,-9.866317749023438,-0.2853274091875379,-0.3533097465075968,-10.640118627474859,1.1183480276804703,5.804087176130837,0.8661586739039776
1730865965.3333554,-1.676072597503662,1.1518168449401855,-9.866317749023438,-0.2858743842881153,-0.35225325230655763,-10.64028609462776,1.1199708346583963,5.790999831720496,0.9068770383367186
1730865965.3333554,-1.688549518585205,1.173169493675232,-9.839729309082031,-0.2863372178136263,-0.35119903437154476,-10.640470528600568,1.1199682727181544,5.790938351436491,0.9067002551500821
1730865965.3832452,-1.688549518585205,1.173169493675232,-9.839729309082031,-0.2867087703140865,-0.35015226234158203,-10.64067335502612,1.1192300725584357,5.781300068093339,0.867070368475169
1730865965.3832452,-1.7406500577926636,1.1670211553573608,-9.839791297912598,-0.2869828456024343,-0.349118207891575,-10.640895412845364,1.119222937056526,5.781234304827853,0.8667256695786605
1730865965.4331973,-1.7406500577926636,1.1670211553573608,-9.839791297912598,-0.2871544080866496,-0.34810222741009,-10.641136923235036,1.120882964173409,5.78450825153379,0.9067265037017971
1730865965.4331973,-1.7592371702194214,1.1434805393218994,-9.807424545288086,-0.2872198342104352,-0.34710965313394754,-10.641397513025947,1.1208811285421865,5.784467221844527,0.9065489306286935
1730865965.4832108,-1.7919294834136963,1.1425443887710571,-9.786770820617676,-0.28717708696304206,-0.34614562518551945,-10.641676159706767,1.120252504589062,5.777931030847367,0.8669462527342944
1730865965.5332005,-1.7919294834136963,1.1425443887710571,-9.786770820617676,-0.2870258285411566,-0.34521491971662055,-10.641971038971379,1.1188972435261884,5.770448756739596,0.800208878761308
1730865965.5332005,-1.8289555311203003,1.1339582204818726,-9.734051704406738,-0.28676750889212144,-0.3443218426592052,-10.642279379537893,1.1188852005692265,5.770393280816378,0.799646871260285
1730865965.5832748,-1.906752586364746,1.1017496585845947,-9.722082138061523,-0.28640548070454136,-0.34347015527173175,-10.64259732436763,1.1212672127658128,5.7648847851772445,0.9065885952527853
1730865965.6332035,-1.906752586364746,1.1017496585845947,-9.722082138061523,-0.2859452448464427,-0.3426629362088447,-10.64291978594074,1.1204182567850152,5.756847019342881,0.8666714309685417
1730865965.6332035,-1.9440362453460693,1.0649313926696777,-9.711519241333008,-0.28539470816267304,-0.3419023956382259,-10.643240423573538,1.1204116182841566,5.75680054086818,0.866378695850246
1730865965.6832056,-1.954621434211731,1.0486096143722534,-9.747272491455078,-0.28476424013116797,-0.3411896931998094,-10.643551810363228,1.1182669249731898,5.743431797657438,0.9064130173938179
1730865965.733109,-1.9300211668014526,1.0519165992736816,-9.785317420959473,-0.284066516621416,-0.3405247822622617,-10.643845783697735,1.116165642205197,5.731883479404827,0.8655843189315806
1730865965.7832572,-1.8917458057403564,1.0662336349487305,-9.863221168518066,-0.28331613432992014,-0.339906379289532,-10.644114023148,1.1134289868584684,5.719861122308275,0.7997050837129893
1730865965.8331983,-1.8917458057403564,1.0662336349487305,-9.863221168518066,-0.28252898565133033,-0.339332126039273,-10.644348790556272,1.1099673842655695,5.706885565394358,0.7069035375490541
1730865965.8331983,-1.8261340856552124,1.0515388250350952,-9.917787551879883,-0.28172155820384176,-0.3387988246343943,-10.644543589744332,1.10994280377932,5.706799220143914,0.7062198508242369
1730865965.8832433,-1.7325536012649536,1.0188775062561035,-9.973783493041992,-0.28091018853345673,-0.3383025595669059,-10.64469363833781,1.117071429935533,5.693021414048821,0.9061899753963133
1730865965.9331484,-1.7325536012649536,1.0188775062561035,-9.973783493041992,-0.2801101763285717,-0.3378386556777266,-10.644796255595104,1.1156407718245391,5.678317220935019,0.8664143804732752
1730865965.9331484,-1.6438817977905273,1.0134690999984741,-9.997303009033203,-0.2793349407341645,-0.3374016039703468,-10.644851121954249,1.1156290927390122,5.6782181067848985,0.8660661491387514
1730865965.9832146,-1.6068297624588013,1.0392526388168335,-10.010113716125488,-0.27859539178302306,-0.33698511849248486,-10.644860298699687,1.114981588107845,5.662801698655954,0.9059943172216325
1730865966.0331244,-1.6068297624588013,1.0392526388168335,-10.010113716125488,-0.2778994725660842,-0.33658235842097084,-10.6448280920516,1.1130563300291278,5.646381329377043,0.8661092753077548
1730865966.0331244,-1.5930547714233398,1.1113393306732178,-9.983500480651855,-0.277251965938546,-0.33618627720399896,-10.64476081521723,1.1130405730533075,5.646264711542915,0.8657401263554988
1730865966.0831685,-1.6152253150939941,1.2080261707305908,-9.939994812011719,-0.27665465373844333,-0.33579017476251016,-10.64466636170894,1.1131232079711728,5.629147191102663,0.9054440232493535
1730865966.1329873,-1.6152253150939941,1.2080261707305908,-9.939994812011719,-0.27610670109137236,-0.3353884912828703,-10.644553599139893,1.1111571254268777,5.611134991466491,0.865670591789745
1730865966.1329873,-1.6628810167312622,1.2549554109573364,-9.904179573059082,-0.2756051547418251,-0.33497753348802173,-10.64443176405294,1.1111422015613026,5.611015969736723,0.8653278675770439
1730865966.183079,-1.7237470149993896,1.2498868703842163,-9.840123176574707,-0.2751455731038837,-0.3345558244521315,-10.64430993448665,1.1085008557650473,5.592253436582547,0.7993137272552842
1730865966.232996,-1.7540323734283447,1.1959750652313232,-9.810408592224121,-0.2747228104652007,-0.33412407140870704,-10.64419645650668,1.1118184027626496,5.57247317865498,0.9051355802899379
1730865966.282932,-1.7540323734283447,1.1959750652313232,-9.810408592224121,-0.27433177889475174,-0.33368478603852847,-10.644098369724285,1.1130765907720281,5.5519556250837026,0.9050220710684206
1730865966.282932,-1.7761001586914062,1.1373709440231323,-9.77637004852295,-0.2739679329959104,-0.3332416720921448,-10.644021059006603,1.113073601294731,5.551821060427929,0.904850613429036
1730865966.3329697,-1.7739691734313965,1.080772876739502,-9.734260559082031,-0.27362747319109415,-0.3327989487420104,-10.643968104223188,1.1122645865849303,5.530436469226007,0.8647843933075995
1730865966.3838212,-1.7863746881484985,1.0190056562423706,-9.72805404663086,-0.27330741978864903,-0.33236060419503655,-10.643941129609892,1.1135651330140521,5.507788231808886,0.9038709040494929
1730865966.4338863,-1.7863746881484985,1.0190056562423706,-9.72805404663086,-0.27300563007301853,-0.331929648306867,-10.643939693817538,1.11284384403681,5.484736859773167,0.8632417969487183
1730865966.4338863,-1.763444423675537,0.9958710074424744,-9.702902793884277,-0.27272074967552923,-0.33150761628146397,-10.643961355231724,1.112817754981039,5.484164299257506,0.8619195670902509
1730865966.4838243,-1.7485802173614502,0.980993390083313,-9.72205638885498,-0.27245205075302403,-0.3310944048811524,-10.644001857416832,1.1114503744899276,5.460961433178062,0.7964320776390846
1730865966.5338418,-1.7739217281341553,0.9647471904754639,-9.749009132385254,-0.27219919723801633,-0.3306882743261833,-10.644055395918897,1.1142877680200123,5.4361019607829055,0.9040141275737711
1730865966.5839176,-1.776928424835205,1.0090956687927246,-9.792386054992676,-0.2719621152119755,-0.33028593706563664,-10.644115063457509,1.113492155251737,5.410477620219749,0.8637211014411132
1730865966.6337254,-1.7719019651412964,1.0469619035720825,-9.85647201538086,-0.27174101718995236,-0.3298828672073272,-10.64417350132741,1.115275724832122,5.3841550273717225,0.9040155094496636
1730865966.6840096,-1.742720127105713,1.0767850875854492,-9.918389320373535,-0.27153639966370696,-0.32947387939913053,-10.644223690793329,1.114672469922038,5.35689409370697,0.863955253316551
1730865966.733826,-1.7308605909347534,1.0838773250579834,-9.983128547668457,-0.2713488783438378,-0.3290537634223077,-10.644259797137806,1.1164108360407892,5.328988724979818,0.9038600230875434
1730865966.7839155,-1.7244657278060913,1.1198302507400513,-10.016728401184082,-0.27117893430957707,-0.3286177582047015,-10.644277934780028,1.115941417359916,5.299948421525218,0.8635982288561951
1730865966.8337839,-1.7244657278060913,1.1198302507400513,-10.016728401184082,-0.27102672444057296,-0.3281618657530384,-10.644276679321665,1.1172521322662088,5.270266345341172,0.9035641024075486
1730865966.8337839,-1.6922295093536377,1.1217204332351685,-10.01152515411377,-0.2708919881753386,-0.32768305005246007,-10.644257188187588,1.1172509942910271,5.270147334813504,0.9034582153583346
1730865966.8839517,-1.6949405670166016,1.091368556022644,-10.003122329711914,-0.27077395857830133,-0.32717926357811145,-10.644222959171923,1.11662576212048,5.239713498958702,0.8634518347560369
1730865966.9338105,-1.6541407108306885,1.079060673713684,-9.937772750854492,-0.27067123384068714,-0.32664926659590854,-10.6441793558777,1.1183799513617032,5.208563603490515,0.9044032768414613
1730865966.9837117,-1.6971153020858765,1.0559735298156738,-9.882655143737793,-0.27058167372500486,-0.3260923209681554,-10.64413291778649,1.1178866138914816,5.176449906087413,0.8648406593650538
1730865967.0336804,-1.7184339761734009,1.0200108289718628,-9.829143524169922,-0.27050246540498,-0.3255078578498983,-10.644090471820157,1.120706297087127,5.143396552876313,0.9046585429472012
1730865967.0837424,-1.7796587944030762,0.9819168448448181,-9.78043270111084,-0.27043047365658024,-0.32489512396508036,-10.644058228630964,1.120932225817561,5.109751568009885,0.8651061651357498
1730865967.1336548,-1.7767276763916016,0.9837790727615356,-9.749464988708496,-0.2703627746701073,-0.32425282083705886,-10.644041046921574,1.1204836634645456,5.075155480365789,0.7988006452503752
1730865967.1838517,-1.7815088033676147,1.03798508644104,-9.75819206237793,-0.2702970970255527,-0.3235789296347338,-10.644041962810418,1.1215371443738151,5.039863421291303,0.9047474345622999
1730865967.2337184,-1.7619465589523315,1.1153185367584229,-9.77953052520752,-0.2702319732142615,-0.3228709779890182,-10.644062078894144,1.120998139752681,5.003632524866907,0.8648382418538763
1730865967.283684,-1.7306779623031616,1.2181533575057983,-9.794438362121582,-0.27016660815949994,-0.3221268037338553,-10.644100814270004,1.119785992664884,4.966686930085163,0.7984582198784758
1730865967.3336196,-1.73723566532135,1.2622041702270508,-9.825244903564453,-0.27010059071306136,-0.3213455885342978,-10.644156354953765,1.1178948935305038,4.928845312901471,0.7052794899943309
1730865967.3837023,-1.7728885412216187,1.2536513805389404,-9.841352462768555,-0.27003366285494423,-0.3205287287778259,-10.644226142116858,1.1231062854684097,4.890225935104513,0.9048491388909473
1730865967.4336104,-1.7957485914230347,1.2329119443893433,-9.852080345153809,-0.2699657551986124,-0.3196801429280907,-10.64430731297529,1.1225338833834753,4.850693154293278,0.8647272331639345
1730865967.4835632,-1.8130037784576416,1.187165379524231,-9.869086265563965,-0.2698972461497966,-0.3188059617002375,-10.644397038529334,1.1248887272170576,4.810832390034758,0.9050219529069645
1730865967.5335834,-1.8403993844985962,1.1168467998504639,-9.861696243286133,-0.26982923472745013,-0.3179138155883432,-10.644492744371421,1.1245117316448796,4.7700891440300035,0.8655650925250822
1730865967.5836523,-1.8365612030029297,1.1099493503570557,-9.855596542358398,-0.26976372100687984,-0.3170119507028768,-10.64459221116573,1.1288122639691431,4.728126506997483,0.9040676543154368
1730865967.6335382,-1.8015090227127075,1.1125519275665283,-9.858222961425781,-0.2697036298315365,-0.3161084695480686,-10.644693555533731,1.1304289146425013,4.685838516686952,0.9038631164863339
1730865967.683565,-1.7416749000549316,1.0947171449661255,-9.853496551513672,-0.2696525465116075,-0.3152109307172507,-10.64479516050384,1.1307898434521024,4.64279879248732,0.8641141444326712
1730865967.7336876,-1.707353949546814,1.0896289348602295,-9.870576858520508,-0.26961414476010903,-0.3143262063868468,-10.644895637128336,1.1304734082536856,4.5980858335613535,0.7965270697165718
1730865967.7836096,-1.6856294870376587,1.0882185697555542,-9.87708854675293,-0.2695915270356499,-0.3134603955918328,-10.644993851731414,1.1294853653462535,4.55324493000149,0.7032349027115409
1730865967.833548,-1.6856732368469238,1.1131680011749268,-9.89499282836914,-0.26958675493927886,-0.31261879688847144,-10.645089017853213,1.131396274673416,4.507503289958214,0.9034231876445612
1730865967.8835711,-1.6620116233825684,1.1451038122177124,-9.884458541870117,-0.2696006561674427,-0.3118060397179627,-10.645180800743212,1.1309202703225283,4.461247917322189,0.8635195903890958
1730865967.9334772,-1.6606212854385376,1.1801331043243408,-9.870457649230957,-0.26963279527981443,-0.3110263955412627,-10.645269338497332,1.1339516159788539,4.414517567448336,0.9032314380669757
1730865967.9834714,-1.653437852859497,1.1797866821289062,-9.851520538330078,-0.2696815008059182,-0.3102841582664506,-10.645355115467819,1.1340379018532991,4.366494887225326,0.8632750389715644
1730865968.0334425,-1.6758476495742798,1.1824043989181519,-9.821070671081543,-0.2697439641742353,-0.309583904742052,-10.645438711657274,1.133450998919004,4.317738087025665,0.7967838437993107
1730865968.0835173,-1.7237505912780762,1.1566532850265503,-9.81063461303711,-0.2698164956701199,-0.3089305209454906,-10.645520500582723,1.1321872611916086,4.2680902821620395,0.7034811210048779
