Timestamp,IMU_Linear_Acc_X,IMU_Linear_Acc_Y,IMU_Linear_Acc_Z,Filtered_X,Filtered_Y,Filtered_Z,Pose_X,Pose_Y,Pose_Z
1730865946.8840554,-1.6464816331863403,1.1096014976501465,-9.926274299621582,-0.0004941123938053169,-0.0003939706853908914,-0.06090283180411365,0.8820185627476329,3.8324320750069436,0.8989995585165037
1730865946.9339588,-1.6460669040679932,1.1705397367477417,-9.888028144836426,-0.001000158895141657,-0.0009705773050672563,-0.11318007815787276,0.8992113846431093,3.8327011677952663,0.8989990959420455
1730865946.9839773,-1.5448205471038818,1.3515266180038452,-9.916738510131836,-0.001358807418027379,-0.0014225811238236618,-0.14825336164971448,0.8994714198770871,3.8327619882322597,0.8989989561787483
1730865947.0338826,-1.4505513906478882,1.3764179944992065,-9.885746955871582,-0.001800194443606672,-0.002010995728637345,-0.19003309583500827,0.8925703457622772,3.8329673006955813,0.8928132653650241
1730865947.083904,-1.4505513906478882,1.3764179944992065,-9.885746955871582,-0.002331816827563694,-0.0027586918593774717,-0.23903490015752538,0.8634982160958382,3.834913446372213,0.8759176657514919
1730865947.083904,-1.483825922012329,1.3574954271316528,-9.83907413482666,-0.0029588227749074774,-0.003690798576172754,-0.29573021569566,0.8628006759422091,3.8349601365622337,0.8755119143467575
1730865947.1338828,-1.5220105648040771,1.4168083667755127,-9.791072845458984,-0.0036839645442564564,-0.0048341727553843205,-0.3605416766676002,0.8558795166138896,3.8435420917666394,0.8723358223223042
1730865947.1838188,-1.466209888458252,1.5062932968139648,-9.781386375427246,-0.004508042017514503,-0.00621688582647641,-0.43383924763891335,0.8242705786633224,3.8522292344645366,0.8532680186465694
1730865947.2339377,-1.6475468873977661,1.4503509998321533,-9.745635986328125,-0.005430406935724768,-0.0078680628507436,-0.5159372141872103,0.7926791887970902,3.860890456008047,0.8330266847002021
1730865947.2838902,-1.7597566843032837,1.3032793998718262,-9.741059303283691,-0.006449738332735751,-0.009817534630253264,-0.6070920891962248,0.8652008456349534,3.8695030399138535,0.876767199235158
1730865947.3337905,-1.6816997528076172,1.2365984916687012,-9.753911018371582,-0.007565233704236257,-0.012094651711690572,-0.7075013810422075,0.8723549306349743,3.877979358796579,0.8802336915470592
1730865947.3838024,-1.6816997528076172,1.2365984916687012,-9.753911018371582,-0.008777394057825901,-0.01472662401136214,-0.8173031758702588,0.8679997823309256,3.8865671444659577,0.8742159570543176
1730865947.3838024,-1.757475733757019,1.2633165121078491,-9.788309097290039,-0.010087960104287214,-0.017737355747622478,-0.9365764558097477,0.8679742949863983,3.886617165082264,0.8741747811886629
1730865947.4338114,-1.9410609006881714,1.2342725992202759,-9.715015411376953,-0.011499884721494238,-0.02114708996896441,-1.0653419520917753,0.8725173363207094,0.44094015279272575,0.8813599822710007
1730865947.4836771,-1.7980672121047974,1.2204742431640625,-9.816902160644531,-0.013017903817951305,-0.024972402997189745,-1.2035633524287017,0.8691468234753621,0.004814307267696628,0.8752157985606417
1730865947.5337312,-1.6201061010360718,1.2407430410385132,-9.861479759216309,-0.01464871335574489,-0.029226169283960508,-1.3511490125024403,0.8657357693568174,-0.43213478486562473,0.8658564030230361
1730865947.5837328,-1.6417081356048584,1.2559638023376465,-9.932706832885742,-0.016399838874488558,-0.03391758652238475,-1.5079544046568019,0.8736345601734599,0.587946252413164,0.8798734593100078
1730865947.6336718,-1.4783844947814941,1.2720919847488403,-9.962823867797852,-0.018277945752698872,-0.03905240092476951,-1.6737850718549838,0.872489477307272,0.5004698973408548,0.8714838683426812
1730865947.6836586,-1.4127205610275269,1.249739170074463,-9.95790958404541,-0.02028748995672956,-0.04463320813990808,-1.8483996396163727,0.8713078571420452,0.4137658906439891,0.8587934223815965
1730865947.7336457,-1.4345476627349854,1.2176520824432373,-9.960887908935547,-0.02242971391855007,-0.05065960921144411,-2.031512659427184,0.8711723979347343,0.742613559412967,0.8777201001262739
1730865947.7836764,-1.6071974039077759,1.2252144813537598,-9.856568336486816,-0.024702321956260372,-0.05712816499496246,-2.2227972199116177,0.8698116488106448,0.7256970169958451,0.8666218028215978
1730865947.8337014,-1.532752275466919,1.1856809854507446,-9.923158645629883,-0.027100223766290902,-0.06403230023714251,-2.4218873864815786,0.8683800238866882,0.7085571106989074,0.8496337963969318
1730865947.8835726,-1.49844229221344,1.2116985321044922,-9.878271102905273,-0.029616563664438985,-0.0713622916295169,-2.6283807787514424,0.8680232022629129,0.8045039401133594,0.8749997863147309
1730865947.9345996,-1.521494746208191,1.106750726699829,-9.946966171264648,-0.03224310204244017,-0.07910529319386195,-2.841841572327599,0.8666702200942773,0.8018273426546249,0.8602922073258117
1730865947.9846032,-1.521235466003418,1.066617727279663,-9.89339542388916,-0.03497020811225139,-0.08724520456324444,-3.0618038210428424,0.8693143711961898,0.8257167248193272,0.8729520384391144
1730865948.034629,-1.6524330377578735,0.9745575785636902,-9.893824577331543,-0.03778714059936905,-0.09576227591489503,-3.2877747941750566,0.8702853533281555,0.8340465897934278,0.8734260014781551
1730865948.0845356,-1.714928388595581,0.9513433575630188,-9.833707809448242,-0.04068283164154231,-0.10463263596939124,-3.5192381228636225,0.8702770643297606,0.8355483009013013,0.8562129785388876
1730865948.1347377,-1.6118273735046387,0.9223973155021667,-9.884674072265625,-0.043646841990084756,-0.11382802793548565,-3.755656815012313,0.8701629558544535,0.8367737161370924,0.8298946366225676
1730865948.1846237,-1.3661701679229736,0.9260615110397339,-9.857068061828613,-0.04666952693845049,-0.12331590191725685,-3.996476392263718,0.8699364382545156,0.837699404831207,0.7939774246270358
1730865948.2345996,-1.2212275266647339,0.8862243294715881,-9.932165145874023,-0.04974072889975986,-0.1330598081827395,-4.241128263869994,0.8686429350616227,0.8426671962796686,0.8676394360517747
1730865948.2835228,-1.0323896408081055,0.8774198889732361,-9.941996574401855,-0.05284757657833941,-0.14301988436815,-4.489033269121897,0.8680449075766722,0.8436617368471339,0.8447174754379768
1730865948.3344536,-1.2495695352554321,0.9381879568099976,-9.924843788146973,-0.055972746226834846,-0.1531533820239496,-4.739605214881831,0.8688654886284797,0.8491152491657016,0.8664445803428034
1730865948.3844686,-1.4342632293701172,1.0002256631851196,-9.9284086227417,-0.059094477346927916,-0.1634154623109263,-4.992254134597515,0.8685403916131527,0.8507211036837562,0.8406907699312024
1730865948.4344435,-1.6491162776947021,1.1198151111602783,-9.88106918334961,-0.06218868447064511,-0.17376042463796437,-5.246389154779319,0.868064974255846,0.8519042167810689,0.8022437464136698
1730865948.4846096,-1.8150001764297485,1.2128596305847168,-9.911548614501953,-0.06523210080691214,-0.18414325290556904,-5.501421104704732,0.8674214671736907,0.8526491277835708,0.7496408394976158
1730865948.5345068,-1.8747748136520386,1.2866096496582031,-9.855307579040527,-0.06820508947486031,-0.19452120958179933,-5.75676501856322,0.8665764460152335,0.853881554882236,0.8606435661999638
1730865948.5845046,-1.8972151279449463,1.2438414096832275,-9.890105247497559,-0.07109339773740564,-0.2048550765622491,-6.011842569688351,0.8619463026928703,0.8581736028831026,0.863533771047454
1730865948.6345894,-1.8699368238449097,1.2726092338562012,-9.829380989074707,-0.07388869000325127,-0.21510968672610437,-6.266084404558539,0.8597988240129889,0.8594070604723363,0.8318084692654801
1730865948.6844258,-1.9649289846420288,1.1705948114395142,-9.842905044555664,-0.07658823907410098,-0.22525376575080538,-6.518932331022029,0.8582577776119898,0.8636236193295787,0.8587454526663271
1730865948.7343395,-1.755480170249939,1.117276906967163,-9.814167976379395,-0.07919426742555905,-0.23525929376186316,-6.769841348537872,0.856255924121414,0.8649298806723963,0.8234378977543313
1730865948.7843802,-1.648979902267456,1.0715574026107788,-9.870731353759766,-0.08171277351527284,-0.24510057171741506,-7.018281620192913,0.8580329769757062,0.8707819854882152,0.8561635991709057
1730865948.8343627,-1.619248390197754,1.0923936367034912,-9.766934394836426,-0.08415168029861454,-0.2547533622532136,-7.263740422314623,0.8569639897812913,0.8724561102603869,0.818015118953365
1730865948.8843756,-1.5719029903411865,1.1600306034088135,-9.814069747924805,-0.08651906809205873,-0.26419453947103344,-7.505723867089573,0.8597706171499003,0.8784114826798045,0.8539157537377111
1730865948.9342463,-1.4718180894851685,1.2043366432189941,-9.855443000793457,-0.08882206908473546,-0.27340237190545374,-7.743758415188319,0.8595173254363565,0.8804958670714644,0.8128336245484304
1730865948.9843962,-1.5622344017028809,1.2559999227523804,-9.844598770141602,-0.09106619260371687,-0.2823571828331211,-7.977392491768062,0.8643828319235382,0.8833999302349765,0.8516991324108628
1730865949.0343103,-1.6065484285354614,1.3037285804748535,-9.91126537322998,-0.0932551344730475,-0.2910420258971781,-8.20619816719049,0.8655356288203323,0.8850886609724773,0.8080366607034076
1730865949.084335,-1.6464300155639648,1.3352413177490234,-9.848318099975586,-0.09539128782050635,-0.29944320820280484,-8.429772610863441,0.8664595907905862,0.886048351535258,0.7432285643731822
1730865949.1342292,-1.7890230417251587,1.2793657779693604,-9.847938537597656,-0.09747665678039424,-0.3075505542560195,-8.647739145963428,0.8674616626276774,0.8889490246109568,0.8497945972656566
1730865949.1843033,-1.9112098217010498,1.1769911050796509,-9.826825141906738,-0.09951396848535005,-0.315357146617656,-8.859747866595354,0.8679323440729573,0.8893754653421847,0.8021219610710687
1730865949.2342906,-1.7468112707138062,1.169215440750122,-9.872337341308594,-0.10150777250656598,-0.32285845962635645,-9.06547605289186,0.8681545906957784,0.8890074716044352,0.7318189264103012
1730865949.2843397,-1.7610691785812378,1.1731765270233154,-9.90518856048584,-0.10346473534771922,-0.3300513735411123,-9.26462869664503,0.8688635033094296,0.8960423222600628,0.8507682909519964
1730865949.3341703,-1.772855281829834,1.1963719129562378,-9.869773864746094,-0.10539297514503077,-0.3369336509874304,-9.456939111757265,0.8689879147807547,0.8968016574887571,0.7998747767920477
1730865949.3842542,-1.7723252773284912,1.1582468748092651,-9.856871604919434,-0.10730137005445449,-0.3435038632658105,-9.642169289987256,0.868846681894119,0.8967119892534923,0.7249850608183005
1730865949.4341888,-1.5951693058013916,1.1924304962158203,-9.84045124053955,-0.1091991255687203,-0.34976139878219775,-9.82010981958438,0.8702133149431943,0.904014848613923,0.8515873087862584
1730865949.4842129,-1.4303251504898071,1.1096744537353516,-9.871488571166992,-0.1110948596932249,-0.3557063690433042,-9.990579590874997,0.8701875143203563,0.9048086562939504,0.7972318282347612
1730865949.5342839,-1.4494115114212036,1.127644419670105,-9.831385612487793,-0.11299503964334492,-0.36133938147925126,-10.153425523341603,0.8668853848516406,0.9129410158356891,0.8563016868211142
1730865949.5842733,-1.374488115310669,1.0864741802215576,-9.847817420959473,-0.11490267464516041,-0.3666612280170442,-10.308522251398987,0.8654269987068908,0.9149546080223673,0.8016496152228217
1730865949.634126,-1.4525998830795288,1.0719263553619385,-9.802490234375,-0.11681692353645934,-0.3716726216630286,-10.45577163760694,0.8638526632944254,0.9212405743474413,0.8585426898974643
1730865949.684152,-1.5784028768539429,1.0320987701416016,-9.840079307556152,-0.11873356705479517,-0.37637398906404435,-10.595102143587333,0.8620784038419743,0.9232923565420109,0.8026656708544624
1730865949.734146,-1.5448294878005981,0.9901504516601562,-9.828018188476562,-0.1206461326079459,-0.380765230880307,-10.726468188773328,0.8636268786250418,0.9273151439914714,0.856581709500364
1730865949.7841535,-1.495914340019226,0.9905200004577637,-9.897010803222656,-0.12254701593652538,-0.38484546600826086,-10.849849602632048,0.8625418105079367,0.9283227119823948,0.7977473992128766
1730865949.8341901,-1.5989469289779663,0.96947181224823,-9.889765739440918,-0.12442798234159963,-0.388612883486873,-10.965251175752288,0.8634459165060753,0.9347214954552603,0.8547566832276721
1730865949.8841543,-1.5671354532241821,0.9694827198982239,-9.91878890991211,-0.12628041703312254,-0.39206477341086376,-11.072702179597124,0.8632118196427926,0.9352036545251509,0.8560018635874226
1730865949.9341342,-1.4966825246810913,0.9941743016242981,-9.964380264282227,-0.12809564907318519,-0.39519770276750676,-11.172255740121475,0.8622430384135416,0.9351467198256842,0.7956417046142898
1730865949.984129,-1.4800490140914917,0.969645619392395,-9.981051445007324,-0.12986494738885224,-0.3980077990580436,-11.263988127285003,0.860953504187911,0.9340968164737911,0.7073291887382308
1730865950.0342054,-1.459653377532959,1.016774296760559,-9.992463111877441,-0.13157915750341037,-0.4004910801797355,-11.347997981811911,0.8593390935668377,0.9320513040044481,0.590891336048044
1730865950.0840492,-1.5144121646881104,1.049118995666504,-9.973414421081543,-0.133228488660918,-0.40264382922936853,-11.424405331068437,0.8650179019394739,0.9418320491406792,0.8391626633943847
1730865950.1340241,-1.6105612516403198,1.0086636543273926,-9.94045639038086,-0.13480279326630992,-0.4044630292837359,-11.49335029440481,0.8645952772163352,0.9416332864279802,0.7725495575231656
1730865950.1840804,-1.5536221265792847,1.06661057472229,-9.94149398803711,-0.13629226652631388,-0.4059466907807474,-11.554991537798355,0.8670909289456646,0.9497399508697101,0.8403915197634659
1730865950.2339597,-1.603241205215454,1.065562129020691,-9.964529037475586,-0.13768807831630753,-0.40709404227717455,-11.609504702715864,0.8670345794923824,0.9507747738058349,0.775054142102463
1730865950.2839465,-1.879683494567871,1.0326447486877441,-9.866992950439453,-0.1389828817820178,-0.40790569771884777,-11.657080943610833,0.8666316408184053,0.9508006871236123,0.6799635998751126
1730865950.3339956,-2.0737950801849365,0.9914940595626831,-9.809025764465332,-0.14017203531941283,-0.40838363430857716,-11.697925317408377,0.8705343991470763,0.9591872964489089,0.834432834475267
1730865950.3840535,-1.8243703842163086,0.9407444000244141,-9.798154830932617,-0.14125538469566246,-0.4085308271995223,-11.732254869519611,0.8706001416532934,0.9596551941920124,0.7663599783047458
1730865950.4339852,-1.6435387134552002,1.0102969408035278,-9.805895805358887,-0.1422376571234771,-0.4083507920883332,-11.760296817051035,0.8746428463028922,0.9707986137040691,0.8345109122415975
1730865950.4839067,-1.5730770826339722,1.1460793018341064,-9.76155948638916,-0.1431265976491931,-0.4078475750698708,-11.782287149465837,0.87545061957211,0.9732894784716208,0.7677103549822688
1730865950.5338778,-1.402429223060608,1.2469379901885986,-9.80485725402832,-0.14393035639234616,-0.4070265531703996,-11.79846948080035,0.8758963236640003,0.9747510164851415,0.6721760248169384
1730865950.5837739,-1.2801685333251953,1.27745521068573,-9.844583511352539,-0.14465538944351164,-0.4058956909889606,-11.809094064795772,0.8759852001888142,0.975208190711692,0.5469504026418437
1730865950.6338754,-1.3144124746322632,1.2810062170028687,-9.876189231872559,-0.14530492829383732,-0.40446645625535,-11.814417094402746,0.8757090914883178,0.9746472186794669,0.3908012357716507
1730865950.6837897,-1.3720238208770752,1.2254197597503662,-9.91110610961914,-0.14587830280165426,-0.40275395656833823,-11.814700184785998,0.87507016202952,0.9730789015420325,0.20620059007416525
1730865950.7338083,-1.4993278980255127,1.1518988609313965,-9.931300163269043,-0.14637148970263475,-0.4007763483188004,-11.810209809486967,0.8793689065323718,0.9837447366383456,0.82483314707144
1730865950.78379,-1.6006672382354736,1.0863429307937622,-9.86929702758789,-0.14677858129238616,-0.39855375513797064,-11.801216534908107,0.8794930367750453,0.9841526436673088,0.7549935989414681
1730865950.8337855,-1.81550133228302,1.01986563205719,-9.81452465057373,-0.1470936681968069,-0.39610701240497226,-11.787993864301239,0.8832397527524427,0.9905051391903327,0.8339515403986572
1730865950.8837059,-1.9375649690628052,0.9927679896354675,-9.77560806274414,-0.14731289783227838,-0.3934565417442549,-11.770816669636927,0.8838299492996857,0.9911979639769749,0.7679027026131053
1730865950.9336746,-2.0457820892333984,0.9714118242263794,-9.726194381713867,-0.1474364350852051,-0.39062154624208745,-11.749959518760129,0.884052136710705,0.990913550158137,0.6727095522413511
1730865950.9836621,-2.0869340896606445,1.0083929300308228,-9.737180709838867,-0.1474698530211823,-0.387619622965679,-11.725695206477303,0.8874339885915108,1.0055911336431569,0.8308353116279023
1730865951.0336392,-2.0562994480133057,1.051559329032898,-9.758321762084961,-0.14742463379663923,-0.3844668326553079,-11.69829365256237,0.8879548793149845,1.0077624716460156,0.7639146768119868
1730865951.083622,-1.9736506938934326,1.1039338111877441,-9.822582244873047,-0.14731771705936364,-0.3811781713133805,-11.668021266559462,0.8969168655316783,1.0169493844618929,0.834811102086758
1730865951.133597,-1.9302725791931152,1.1401413679122925,-9.887577056884766,-0.14717024941574136,-0.3777682432299423,-11.635140755258568,0.8996707116781404,1.0199933313696743,0.7696222120599667
1730865951.1835477,-1.8705997467041016,1.1601102352142334,-9.892549514770508,-0.1470059883274964,-0.3742518816511982,-11.599911160435553,0.9062640576309695,1.02787315840017,0.8356879362172684
1730865951.233644,-1.852792739868164,1.1702474355697632,-9.919771194458008,-0.14684984175851273,-0.37064454985302236,-11.562587790338188,0.9098427629714055,1.0314583617348576,0.770434034353296
1730865951.2836158,-1.850260853767395,1.1229956150054932,-9.914119720458984,-0.14672677112603127,-0.3669624418494205,-11.5234218562557,0.9122789904358898,1.0393055288093964,0.8362228155332804
1730865951.3335752,-1.8229795694351196,1.0839333534240723,-9.910886764526367,-0.14666107978711437,-0.36322222582917674,-11.482659882705969,0.9147592833208747,1.0426410458675552,0.7724151544290683
1730865951.3836124,-1.7985893487930298,1.0479875802993774,-9.888747215270996,-0.14667593408193536,-0.35944048473594004,-11.440542983476837,0.9209473023812028,1.0522110325729517,0.8366441509468099
1730865951.4335694,-1.7535266876220703,0.9978740811347961,-9.872357368469238,-0.14679290694470046,-0.3556330610610454,-11.39730604389028,0.9291324672344394,1.0564439975360527,0.8428303119924394
1730865951.4836032,-1.7225205898284912,0.9698752164840698,-9.863229751586914,-0.14703147460880045,-0.3518144645974677,-11.353176885989365,0.9335742537838237,1.0592545921140126,0.781859138651759
1730865951.533507,-1.668954610824585,0.9353963732719421,-9.8529052734375,-0.14740850882185125,-0.34799739359046844,-11.30837551603113,0.9376484538701307,1.061189204730175,0.692476084061825
1730865951.583536,-1.6359572410583496,0.9215210676193237,-9.852986335754395,-0.1479378072108254,-0.3441924092809034,-11.263113509976954,0.9413297128258264,1.0622522700250667,0.5756622856810277
1730865951.6334298,-1.6144894361495972,0.9229671359062195,-9.850465774536133,-0.14862971643881726,-0.3404077989608727,-11.217593537411743,0.9284650929863428,1.0692114064778309,0.8312579987509572
1730865951.6834772,-1.6067534685134888,0.9610587358474731,-9.857247352600098,-0.14949094213813274,-0.3366496778738202,-11.17200900843887,0.9286113535922865,1.070967247779641,0.7657935087731532
1730865951.7344527,-1.5976148843765259,1.0084751844406128,-9.867647171020508,-0.15052458935706745,-0.3329223889899181,-11.126543833483845,0.9228452514983404,1.0843151732163525,0.836671465942425
1730865951.7843916,-1.6114647388458252,1.0301212072372437,-9.874835968017578,-0.15173038583475731,-0.32922914225175176,-11.081372286005042,0.9210404987568407,1.0888711970489755,0.7740405065862831
1730865951.8344188,-1.5975745916366577,1.018343448638916,-9.889068603515625,-0.15310501996696207,-0.3255726414843463,-11.03665894243169,0.9188506618519879,1.0926179224889734,0.6836138715009482
1730865951.8845086,-1.6075562238693237,0.9683912396430969,-9.893061637878418,-0.15464251694727446,-0.32195539348847296,-10.992558666430867,0.9189371590646493,1.0978184324663645,0.8340805679605782
1730865951.934418,-1.626556634902954,0.905511736869812,-9.897462844848633,-0.1563346171118925,-0.31837955745164725,-10.949216607503583,0.9172131068839015,1.100455397098844,0.7712325764673683
1730865951.9844997,-1.6508206129074097,0.8503293991088867,-9.890620231628418,-0.15817121409514903,-0.31484643091058995,-10.906768180680778,0.914326225174374,1.114170865005363,0.8382360852850942
1730865952.034278,-1.668717384338379,0.7852784395217896,-9.882685661315918,-0.16014087553792677,-0.3113558045237016,-10.865339005903445,0.9116970049086648,1.1194790038356792,0.7775212503689567
1730865952.0843859,-1.666137456893921,0.7490000128746033,-9.847501754760742,-0.1622313467370225,-0.3079053834731584,-10.825044790742425,0.9099986924273096,1.1300591659361454,0.8388568513658844
1730865952.134316,-1.6244356632232666,0.7482098340988159,-9.854060173034668,-0.16442987736120257,-0.3044904206952644,-10.78599116097822,0.9071186253055983,1.1360473266198803,0.7785948408939943
1730865952.1843207,-1.5937052965164185,0.7874472141265869,-9.882034301757812,-0.1667232512988333,-0.301103727733517,-10.748273568047798,0.9038049335066637,1.1413209019802977,0.6910203197505828
1730865952.2342668,-1.5707736015319824,0.8576775789260864,-9.910017013549805,-0.16909758020405014,-0.2977361749134369,-10.711977462157524,0.9075469321340577,1.1381559160559367,0.836098004395828
1730865952.2842512,-1.587791085243225,0.9232023358345032,-9.935588836669922,-0.17153810747051243,-0.2943776207104209,-10.677178729094896,0.9093132022435341,1.1453202264309732,0.8451891613275827
1730865952.3342435,-1.5839658975601196,0.9715844392776489,-9.951668739318848,-0.17402923125303105,-0.29101802894219875,-10.64394420846539,0.9082462336533345,1.148637716045298,0.7881400167312079
1730865952.3842833,-1.6285433769226074,0.9795622229576111,-9.949352264404297,-0.1765547644611569,-0.287648445431433,-10.612332137359502,0.9073585463984613,1.147898734724398,0.8402840721420309
1730865952.4342704,-1.6731714010238647,0.9589577913284302,-9.931402206420898,-0.17909838364923256,-0.2842615666263953,-10.582392433918384,0.9054821253716224,1.1489779557895317,0.7813641679291922
1730865952.4843504,-1.7608195543289185,0.9085907340049744,-9.892904281616211,-0.18164428159642296,-0.28085179347140166,-10.554166775626939,0.9031299862360189,1.1493592288751873,0.695171956910455
1730865952.5342863,-1.8198007345199585,0.8613375425338745,-9.845653533935547,-0.1841780083390547,-0.27741484116856757,-10.527688476145109,0.9060682659873384,1.1597672820326246,0.836845456749666
1730865952.5842535,-1.8743910789489746,0.8098325729370117,-9.812735557556152,-0.18668734558615568,-0.27394710288070523,-10.502982235650762,0.9044916261086392,1.161775676938603,0.7763065216408357
1730865952.634168,-1.8814746141433716,0.8248398900032043,-9.78154468536377,-0.18916297076269367,-0.2704450327388632,-10.480063911597478,0.906428548014686,1.1741946664049032,0.8404861341749257
1730865952.6841817,-1.8178749084472656,0.9012826681137085,-9.799697875976562,-0.191598668987002,-0.26690487988098255,-10.458940474413753,0.9052372730019833,1.1785182904642122,0.781691405341575
1730865952.7341259,-1.7743693590164185,0.9895063042640686,-9.821540832519531,-0.19399094581980225,-0.26332304545120094,-10.439610281479478,0.9051215246766279,1.1849236963821141,0.8409078051731743
1730865952.7841399,-1.7426655292510986,1.0704177618026733,-9.879551887512207,-0.19633819540762285,-0.25969698857256335,-10.422063720141365,0.9035146276624388,1.189030378763956,0.7825179883943462
1730865952.834016,-1.7173658609390259,1.144403100013733,-9.899643898010254,-0.19863983305495864,-0.25602629596026444,-10.406284124711458,0.9038357937488576,1.2016204344196213,0.841058040631732
1730865952.884022,-1.7238008975982666,1.201750636100769,-9.902915954589844,-0.2008956716313078,-0.2523135828959132,-10.392248725667821,0.9021775921990702,1.2072967508031383,0.7830099534823771
1730865952.9340377,-1.7645459175109863,1.1820310354232788,-9.86949348449707,-0.20310562823477066,-0.2485650380164427,-10.379929352831741,0.907162675091518,1.219289122724524,0.8421516246966126
1730865952.9839852,-1.83077871799469,1.1543887853622437,-9.82955265045166,-0.2052698256306859,-0.2447904339001319,-10.369292757148388,0.9102687413328133,1.2238967974334247,0.8479937406502083
1730865953.0339887,-1.8594506978988647,1.0799541473388672,-9.79504680633545,-0.20738903904177708,-0.24100253524373996,-10.360300629679458,0.9105856254374559,1.2282634265932022,0.793020676935588
1730865953.0839276,-1.8404059410095215,1.018115758895874,-9.759230613708496,-0.20946517891252292,-0.23721606162447612,-10.352909514040359,0.9103836289552566,1.2320306222936106,0.7123382944165978
1730865953.1339393,-1.7897979021072388,0.9865586757659912,-9.764646530151367,-0.21150140638418538,-0.23344649752719776,-10.347070802124199,0.9096553651518329,1.2352210291136982,0.6055727894212235
1730865953.1840162,-1.698754072189331,1.0258070230484009,-9.786855697631836,-0.2135016957415382,-0.22970912909486446,-10.34273096890118,0.9114396158933606,1.23941050044756,0.8375532465380962
1730865953.2339149,-1.6195176839828491,1.096706748008728,-9.849236488342285,-0.21546994134775976,-0.22601866916550947,-10.339832159889307,0.9107289176665618,1.2426476950247136,0.7776913479010427
1730865953.2839737,-1.5690386295318604,1.1863417625427246,-9.894932746887207,-0.21740889296525917,-0.22238956923425765,-10.338313122138755,0.9094712928093905,1.2453346037344954,0.6915976512851525
1730865953.3338645,-1.5596836805343628,1.2637195587158203,-9.941064834594727,-0.21931929529161479,-0.21883678665838718,-10.338110305741628,0.9111893134899455,1.2560971592524302,0.8400408788668106
1730865953.384044,-1.59630286693573,1.3051685094833374,-9.960204124450684,-0.2211995323482414,-0.21537662175250974,-10.339158891372236,0.9101066159798381,1.2607602203976662,0.7807528212742676
1730865953.4338489,-1.6284863948822021,1.3273265361785889,-9.94701862335205,-0.22304585264291613,-0.21202728421277045,-10.34139354985955,0.9084813384980335,1.2648480222108374,0.6962889412507948
1730865953.4840422,-1.6553434133529663,1.316172480583191,-9.920696258544922,-0.2248529895696053,-0.20880901820962888,-10.34474882705167,0.9111233961771557,1.2682525331311,0.8403347668047697
1730865953.5338588,-1.6553434133529663,1.316172480583191,-9.920696258544922,-0.226614844862155,-0.20574381632449026,-10.349159199539029,0.9133827829718874,1.2800478286194334,0.8490808382459702
1730865953.5338588,-1.6599690914154053,1.2806527614593506,-9.860176086425781,-0.22832498712578794,-0.20285486754538107,-10.354558974809871,0.9133818266055026,1.2800844815077232,0.848802524628147
1730865953.583919,-1.6765570640563965,1.1801283359527588,-9.819402694702148,-0.22997694286552317,-0.20016579529906534,-10.360882098554802,0.9129469509189635,1.2854114995585013,0.79340652821553
1730865953.6338382,-1.6720153093338013,1.0732054710388184,-9.787087440490723,-0.23156439619864655,-0.19769956825518292,-10.368061855906396,0.9160425738119253,1.2953113027543819,0.8525236672875541
1730865953.6838663,-1.6663193702697754,0.9791675806045532,-9.763050079345703,-0.23308134102642586,-0.1954770879375157,-10.376030602972023,0.9158768304525999,1.3011330347840482,0.7992032487890267
1730865953.7339408,-1.6707918643951416,0.9239218235015869,-9.750232696533203,-0.23452214914624045,-0.19351578074861064,-10.384719680431424,0.9151226917689663,1.306507447921658,0.7194343543506103
1730865953.7837968,-1.6994575262069702,0.9047927856445312,-9.781537055969238,-0.23588161470987454,-0.19182859139474734,-10.394059554965825,0.9200447648188943,1.3040596744581388,0.8443905593657685
1730865953.8338177,-1.7137017250061035,0.9450106620788574,-9.824131965637207,-0.237155096706249,-0.19042360444272946,-10.403980247627153,0.9200769520104182,1.307271612952991,0.786194303621414
1730865953.8838098,-1.7199853658676147,1.0237822532653809,-9.900525093078613,-0.23833874390489068,-0.1893043670094612,-10.414412091772391,0.9255587206641206,1.3132919981902467,0.8448230365527931
1730865953.933771,-1.7121604681015015,1.109671950340271,-9.941783905029297,-0.23942965674277628,-0.1884708410024739,-10.425286725132581,0.9310556752177657,1.318720045817775,0.8496836801324671
1730865953.9838536,-1.7125602960586548,1.1412822008132935,-9.991416931152344,-0.24042589984954899,-0.18792068095529574,-10.436538093000957,0.9329629023990643,1.3224279054445638,0.7941847765964922
1730865954.033785,-1.7383090257644653,1.1559922695159912,-9.991555213928223,-0.24132643817698865,-0.18765036362520257,-10.448103232444511,0.9342672193008981,1.3256650848313145,0.7125896141852405
1730865954.0837812,-1.7700742483139038,1.0934906005859375,-9.966474533081055,-0.24213115684680048,-0.18765579633610918,-10.459922681156375,0.9328521534355029,1.3329641877298866,0.8403637644255539
1730865954.1337168,-1.7931220531463623,1.0574482679367065,-9.924484252929688,-0.24284103560001535,-0.18793230501290475,-10.471940438824483,0.9326863253016027,1.3363606906827619,0.7808210434127314
1730865954.1838078,-1.8051255941390991,0.9757516384124756,-9.861323356628418,-0.24345837401194093,-0.18847415823531125,-10.484103536057246,0.9345908865165691,1.3493444982185767,0.84311197047579
1730865954.233678,-1.8243852853775024,0.909440279006958,-9.807530403137207,-0.24398693080617206,-0.18927387543332858,-10.496361366694082,0.9344480123796329,1.35525686703579,0.7852056535036406
1730865954.2837088,-1.831785798072815,0.8526820540428162,-9.77783489227295,-0.2444319534106373,-0.1903215052091896,-10.508664978476874,0.9348902137065039,1.3568942833523348,0.8431291481626243
1730865954.3335953,-1.7967559099197388,0.8678164482116699,-9.767488479614258,-0.24480009396345398,-0.19160408673489437,-10.520966542187008,0.934156760306607,1.3607138282441047,0.7847759856735492
1730865954.3836603,-1.7605763673782349,0.9291214346885681,-9.799591064453125,-0.2450991169189527,-0.19310559904903712,-10.53321916771436,0.9353127771850075,1.3721837295322763,0.8431416777135173
1730865954.433618,-1.710945725440979,1.0032237768173218,-9.818702697753906,-0.24533735284624264,-0.1948075745148622,-10.545377104860648,0.9343861498849451,1.3776022671788395,0.7845605720907138
1730865954.4836576,-1.7012803554534912,1.053971767425537,-9.838756561279297,-0.24552304231299313,-0.1966901978218885,-10.55739620213718,0.9360123740439015,1.3825452582469173,0.8430330664441521
1730865954.5335536,-1.6881037950515747,1.0379717350006104,-9.849413871765137,-0.24566380188422116,-0.19873341947489845,-10.569234399288103,0.9350819562181164,1.3869987167369673,0.7840600957331223
1730865954.5836434,-1.7113316059112549,0.9963055849075317,-9.854170799255371,-0.24576636093017365,-0.20091761150515514,-10.580852104444451,0.9368578400777524,1.3909780680437436,0.8426873782021604
1730865954.6335702,-1.745736837387085,0.9328804016113281,-9.85682487487793,-0.24583659917796677,-0.20322358412448915,-10.59221242843904,0.9359871175352947,1.394414963113498,0.783670246014779
1730865954.683587,-1.7479357719421387,0.8603179454803467,-9.831171989440918,-0.24587981669602868,-0.20563211833703837,-10.603281278338597,0.9345039350519375,1.3973405787809816,0.6982634294372027
1730865954.733575,-1.7491909265518188,0.843873918056488,-9.839099884033203,-0.24590103866224206,-0.20812332749149068,-10.614027314415281,0.9373931968348626,1.3997803656243373,0.8393902015088023
1730865954.7836032,-1.719849944114685,0.8954249024391174,-9.856204986572266,-0.24590514307324585,-0.21067624629379195,-10.624421866625495,0.936267494799425,1.401674921108107,0.7788570750961668
1730865954.8335345,-1.69038987159729,1.013269066810608,-9.893735885620117,-0.24589674743881768,-0.2132690605649238,-10.63443898186587,0.9405445884692468,1.4031142952201463,0.8424277169488393
1730865954.8834958,-1.6407148838043213,1.1782209873199463,-9.94733715057373,-0.24587989742156455,-0.2158801652653062,-10.644055684248862,0.9443356473366481,7.80806788991262,0.8481724134687418
1730865954.9335127,-1.5968351364135742,1.3148117065429688,-9.980710983276367,-0.2458576284349036,-0.21848986808316398,-10.653252391847436,0.9453353465118804,8.918138658912756,0.7912841991668339
1730865954.9834745,-1.5788203477859497,1.3853707313537598,-9.986942291259766,-0.24583151137080334,-0.22108221536816075,-10.662013317813383,0.9457179506271631,10.019926195260767,0.708342908203852
1730865955.0333755,-1.59587824344635,1.345052719116211,-9.986001014709473,-0.24580136698498045,-0.22364624477088113,-10.670326643247762,0.94594700002609,7.300825827302704,0.8393673685000759
1730865955.0834413,-1.6471034288406372,1.241713523864746,-9.92891788482666,-0.24576534378212486,-0.22617612373682772,-10.678184348276634,0.9455256580916201,7.524049903311273,0.7782236906775725
1730865955.1334794,-1.7504501342773438,1.1041513681411743,-9.85863208770752,-0.24572046242333115,-0.22867009091198,-10.685581665821793,0.9444863799231058,7.746312400309328,0.6902943873836654
1730865955.1834555,-1.8304283618927002,0.9711137413978577,-9.74976921081543,-0.24566359304258206,-0.23112859352817763,-10.692516153096586,0.9499612221685672,6.886399814911239,0.8387753055039022
1730865955.2333221,-1.9156988859176636,0.9128645658493042,-9.670672416687012,-0.24559264443931805,-0.2335522531710258,-10.698986492307249,0.9499316636109998,6.929416190043195,0.7779551026176427
1730865955.2834413,-1.9563443660736084,0.903839647769928,-9.61693286895752,-0.24550763296364098,-0.23594029542811218,-10.704991290675384,0.9492822259557424,6.972311844083783,0.6894655423999205
1730865955.3332965,-1.9662718772888184,0.9583784937858582,-9.625625610351562,-0.24541136754362408,-0.23828985796945035,-10.71052822779177,0.9480277868277981,7.0141354455464375,0.575257899721653
1730865955.3834836,-1.923431158065796,1.0500279664993286,-9.705564498901367,-0.24530959525480192,-0.24059623097270183,-10.715593848839772,0.9565797648922899,6.721305691201615,0.8361875944200797
1730865955.4342368,-1.8367159366607666,1.1513241529464722,-9.823517799377441,-0.24521053563338727,-0.2428538157343838,-10.720184156342476,0.9568272585307337,6.726086812033484,0.772737017480559
1730865955.4842105,-1.7143102884292603,1.2665013074874878,-9.948857307434082,-0.24512382597096163,-0.24505747273075168,-10.724295902543453,0.9613191909260269,6.675888860079641,0.8417425417441938
1730865955.5342638,-1.5934988260269165,1.3747628927230835,-10.055098533630371,-0.24505902273100746,-0.24720394988819896,-10.727928212210003,0.9620880059791196,6.673573233631926,0.7816132262791655
1730865955.5842412,-1.4835880994796753,1.4298890829086304,-10.111140251159668,-0.24502394303373332,-0.24929314461830848,-10.731084065002156,0.9648240390441023,6.657264280466779,0.8419665345002048
1730865955.6342456,-1.443881630897522,1.4316983222961426,-10.103753089904785,-0.24502321658734666,-0.2513289197999824,-10.73377123202617,0.965414425502016,6.6530838673912855,0.7819903397832126
1730865955.6842623,-1.4952565431594849,1.3775787353515625,-10.049909591674805,-0.2450574589710212,-0.25331920588829576,-10.736002412300493,0.9675822659835599,6.648004714637454,0.8373312019035168
1730865955.7341847,-1.6399167776107788,1.2702287435531616,-9.953142166137695,-0.24512344819128123,-0.25527530079830474,-10.737794542871603,0.9676482329407343,6.644160255182928,0.7766467198205758
1730865955.7842758,-1.8158236742019653,1.1555479764938354,-9.814238548278809,-0.24521543893691491,-0.2572104901010448,-10.739167442791144,0.9689356030943975,6.638889521165349,0.8308687997397642
1730865955.8341494,-1.987913966178894,1.0372942686080933,-9.684324264526367,-0.2453273135722066,-0.259138279190808,-10.740142023244958,0.969338447178921,6.636702022063115,0.8327051414987429
1730865955.8841746,-2.1046435832977295,0.9711049795150757,-9.589987754821777,-0.24545493726340817,-0.2610706356018472,-10.740738390139263,0.9687753907604767,6.632523623217633,0.772748273747196
1730865955.9341092,-2.1483964920043945,0.9394667744636536,-9.553539276123047,-0.24559804557158488,-0.26301663385350804,-10.740974275853514,0.967599619027381,6.627692966288284,0.6860039688011601
1730865955.9841945,-2.121264934539795,0.9565346837043762,-9.586009979248047,-0.2457611891041261,-0.2649817643202772,-10.740864188345686,0.965805395415114,6.622188832447466,0.5721332127958533
1730865956.0340698,-2.039263963699341,0.9619608521461487,-9.645097732543945,-0.24595357388416597,-0.266967921532903,-10.740419444370396,0.9695577195513496,6.629944773130414,0.8167776930783457
1730865956.0840585,-1.9312196969985962,0.9948458671569824,-9.719782829284668,-0.24618794887720782,-0.26897385282752867,-10.739648955818643,0.9684432282456199,6.626384606466302,0.7528482869216493
1730865956.1340225,-1.8107657432556152,1.0069457292556763,-9.799466133117676,-0.2464788901013159,-0.2709958010217263,-10.73856042937369,0.9667202965879463,6.622168963893667,0.6624680317230998
1730865956.184022,-1.7375962734222412,1.0039891004562378,-9.883305549621582,-0.24684090971700154,-0.2730281438308174,-10.73716166255008,0.9643786670143806,6.6172661955023315,0.5451218782977202
1730865956.2339506,-1.6901278495788574,0.9899908900260925,-9.963652610778809,-0.24728682600474294,-0.275063874349069,-10.735461760979884,0.9755173593190231,6.623739707269715,0.8129154281049473
1730865956.2840056,-1.6511867046356201,1.0167818069458008,-10.022025108337402,-0.24782667900529234,-0.27709489537070253,-10.733472176582179,0.9753957068401057,6.620323040741101,0.7493442305322465
1730865956.3338845,-1.626352071762085,1.0566904544830322,-10.058816909790039,-0.24846717754186481,-0.27911231322530716,-10.731207459760828,0.9814901903106842,6.628553578576828,0.8198653396520919
1730865956.3839247,-1.6089198589324951,1.1275053024291992,-10.08283519744873,-0.24921150321571342,-0.2811069437533502,-10.728685639244276,0.9820135171453213,6.627476220787244,0.759697534695337
1730865956.433835,-1.548673152923584,1.161179542541504,-10.08017635345459,-0.25005930145325694,-0.2830700359585187,-10.72592822704973,0.9899743242200382,6.633535091320673,0.8214166970697371
1730865956.4838657,-1.5168516635894775,1.1840696334838867,-10.051786422729492,-0.25100668546426025,-0.2849939936045921,-10.722959886112541,0.996045706715271,6.637849760722299,0.8329788819681707
1730865956.533793,-1.4813148975372314,1.1318827867507935,-9.987784385681152,-0.2520461905812815,-0.2868727949399749,-10.719807765083445,0.9987916320372471,6.638689338908603,0.7785201866381591
1730865956.5838237,-1.4938756227493286,1.0512200593948364,-9.905617713928223,-0.25316681783205586,-0.28870187465978353,-10.716500500138482,1.0009348375153115,6.638811031172891,0.6961562994018787
1730865956.6337664,-1.5253958702087402,0.9455553293228149,-9.82075309753418,-0.25435435259985906,-0.29047740778489434,-10.713066959303914,1.0024133921013831,6.638208232537402,0.5882564746764222
1730865956.683823,-1.6069215536117554,0.8572342395782471,-9.72569751739502,-0.2555920659143805,-0.29219518871624806,-10.709534891225367,1.0010294950814156,6.64363520177832,0.8260936224832196
1730865956.7337284,-1.7038275003433228,0.803158164024353,-9.66273307800293,-0.2568618143456456,-0.29384947647171855,-10.70592965776809,1.0015427457667987,6.643682657746052,0.765456248306245
1730865956.7837372,-1.8090814352035522,0.8006678223609924,-9.635173797607422,-0.2581454443154577,-0.29543218517577435,-10.702273239962965,1.004648192990514,6.649653092241156,0.8358922479870304
1730865956.8336544,-1.8927173614501953,0.8072279691696167,-9.634767532348633,-0.2594262844910106,-0.29693264934839125,-10.698583709020737,1.0082152573786802,6.647667822787237,0.845282068137759
1730865956.883653,-1.9440635442733765,0.8602471947669983,-9.668485641479492,-0.26069044244775863,-0.2983379544627711,-10.694875240120288,1.0090934567256196,6.646617992184459,0.7903332730147988
1730865956.9336395,-1.9826576709747314,0.9154075980186462,-9.733817100524902,-0.2619276793631092,-0.2996336874808951,-10.691158616884792,1.0093181036294463,6.644818424965127,0.708554173631212
1730865956.9837236,-1.9989776611328125,0.9727869033813477,-9.810914993286133,-0.26313180416613935,-0.30080494091042864,-10.687442131981811,1.0125659088367276,6.643929164244742,0.8409375388088036
1730865957.033659,-1.9968469142913818,1.0430967807769775,-9.891023635864258,-0.2643006621264732,-0.3018373875259895,-10.683732739171672,1.0128098536685732,6.641672893276877,0.781569734237071
1730865957.083661,-1.9078164100646973,1.1033395528793335,-9.982389450073242,-0.2654357386538886,-0.3027182944693022,-10.680037271615234,1.0123886851921746,6.638650262668161,0.6951791085353468
1730865957.1336153,-1.811535358428955,1.1505705118179321,-10.037453651428223,-0.2665412687508942,-0.30343740576601613,-10.676363567717372,1.0163879146276213,6.641080510496544,0.8397042674605775
1730865957.1835968,-1.684177279472351,1.158101201057434,-10.068291664123535,-0.2676228371539874,-0.3039875812080627,-10.672721339232837,1.0163404799112394,6.638667647330785,0.7793032260743239
1730865957.2335598,-1.607757568359375,1.1402833461761475,-10.083259582519531,-0.2686857372865237,-0.3043650471075442,-10.66912262519348,1.0156198515107122,6.635472550320584,0.6916517193078926
1730865957.2836456,-1.5794684886932373,1.0847864151000977,-10.054425239562988,-0.269733534097872,-0.30456917812911566,-10.665581793861726,1.0142341849964431,6.631543244125848,0.5780932908322729
1730865957.3335211,-1.6266781091690063,1.0333889722824097,-10.00820255279541,-0.2707672608750564,-0.3046018540642883,-10.662115128630445,1.0221304742498643,6.617248182024732,0.8366238705217773
1730865957.3835816,-1.7076492309570312,0.985153317451477,-9.948284149169922,-0.2717854842961122,-0.30446657267055044,-10.658740053099965,1.026191939346228,6.5959054054760475,0.8474979613144176
1730865957.4335127,-1.7534598112106323,0.9991579055786133,-9.872818946838379,-0.2727851061164204,-0.3041676088029772,-10.65547411958737,1.0268051175131967,6.5849683501058,0.7902010494775819
1730865957.4836228,-1.761965274810791,1.019677996635437,-9.80775260925293,-0.273762402424355,-0.3037095187876972,-10.652333915238929,1.026732402311028,6.573323375699128,0.7065476379652209
1730865957.5335631,-1.7332777976989746,1.0601274967193604,-9.740081787109375,-0.2747137477261781,-0.3030971079710896,-10.649334020409148,1.0259759039651728,6.560921889137131,0.5963374572533405
1730865957.5835302,-1.7360866069793701,1.0578792095184326,-9.706241607666016,-0.2756358281564013,-0.30233569449281733,-10.646486147528831,1.0245291100962655,6.547733980614977,0.4592271316291428
1730865957.633568,-1.7078824043273926,1.0534155368804932,-9.675688743591309,-0.27652554013481095,-0.30143135726251,-10.643798570067815,1.0303720473317137,6.56603129941439,0.8350082454165765
1730865957.683474,-1.7233083248138428,1.0290294885635376,-9.678693771362305,-0.27737983444396763,-0.3003909570975045,-10.641275896898472,1.0298728981606646,6.557880544589593,0.7724295145873733
1730865957.733404,-1.7296462059020996,1.0342074632644653,-9.693284034729004,-0.2781956467772032,-0.29922195059956225,-10.638919188214633,1.0349908787270776,6.538767617191915,0.8421541162780736
1730865957.7834828,-1.7782323360443115,1.0552161931991577,-9.738544464111328,-0.27896999867226857,-0.2979321892396282,-10.63672638625834,1.035432450397162,6.525382955870781,0.7826716823019629
1730865957.833414,-1.8271551132202148,1.1032934188842773,-9.756502151489258,-0.2797003165379878,-0.2965299082375932,-10.634692989198662,1.0351744234155433,6.511261702423563,0.6965950668962675
1730865957.8834038,-1.8970963954925537,1.1459044218063354,-9.80887222290039,-0.28038495397891594,-0.2950239753492404,-10.632812822866157,1.0342147471430239,6.496391695501661,0.5838331842319565
1730865957.933347,-1.9201931953430176,1.1988476514816284,-9.833016395568848,-0.28102380432209056,-0.2934243096387529,-10.631078789066397,1.0386175490556648,6.511198729313219,0.8368872474733051
1730865957.983341,-1.93211030960083,1.2210768461227417,-9.855461120605469,-0.2816187764967232,-0.29174231121274263,-10.629483525793736,1.0380830691142395,6.50230972873787,0.7754408070785098
1730865958.0332818,-1.8952357769012451,1.1917591094970703,-9.863088607788086,-0.2821739131965219,-0.28999110611514245,-10.62801990052058,1.04308905717459,6.503786190040862,0.8427848938995929
1730865958.0833924,-1.8420480489730835,1.143674373626709,-9.883455276489258,-0.28269506372104325,-0.2881853910588513,-10.626681306773602,1.0434381210353827,6.496466262149655,0.7830774673563926
1730865958.1332362,-1.7618697881698608,1.129366159439087,-9.8805570602417,-0.2831891533414234,-0.2863408587400088,-10.625461825002835,1.045884452589567,6.495716029059473,0.8426592140203919
1730865958.1833367,-1.694387674331665,1.115341305732727,-9.905627250671387,-0.28366318767372617,-0.2844734971265994,-10.624356307907554,1.0459017633556376,6.4890248218535955,0.7830171411050744
1730865958.2332082,-1.6100733280181885,1.094612956047058,-9.931663513183594,-0.2841231855957335,-0.2825990456055065,-10.623360453271285,1.0452140699015624,6.48169966804724,0.6976230353244062
1730865958.2832747,-1.5418109893798828,1.0807050466537476,-9.972339630126953,-0.2845731931425184,-0.2807326155225888,-10.62247095168057,1.0498034211739637,6.486527780853681,0.8383920354497256
1730865958.3331993,-1.499990701675415,1.0729589462280273,-10.015694618225098,-0.2850144805465344,-0.27888839215645134,-10.621685740072097,1.0520322154088073,6.478662495783866,0.8468075215293984
1730865958.383289,-1.4388550519943237,1.0682786703109741,-10.016959190368652,-0.28544500906871273,-0.2770794222995233,-10.62100428079765,1.051989565559627,6.472239873455137,0.7897839062215686
1730865958.4332135,-1.4234479665756226,1.0768064260482788,-10.036955833435059,-0.28585917684721895,-0.27531751429738194,-10.620427712225188,1.0552996185808432,6.471541355548537,0.8412501367258809
1730865958.4831707,-1.4432932138442993,1.1116139888763428,-10.005428314208984,-0.2862478513151798,-0.2736132765697624,-10.619958770929442,1.0555633501382202,6.465670162945037,0.7820141931499437
1730865958.5341525,-1.5085569620132446,1.1484904289245605,-9.962830543518066,-0.28659881360094364,-0.2719763419043644,-10.619601460129974,1.055100614655673,6.45899213585662,0.6945471763967518
1730865958.5831633,-1.5824558734893799,1.1850098371505737,-9.87814998626709,-0.2868976887653897,-0.2704157620438844,-10.619360423179756,1.0567882951902485,6.4595416324634325,0.8375206949943091
1730865958.6341417,-1.7026240825653076,1.1562330722808838,-9.797066688537598,-0.28712925568862274,-0.2689404007050063,-10.619240023754127,1.0560469293121586,6.453906520022948,0.7755252476721239
1730865958.6841717,-1.8434793949127197,1.0966352224349976,-9.701960563659668,-0.2872790050279883,-0.2675590297225722,-10.619243251837881,1.054588324295163,6.447679594438472,0.6875566621896337
1730865958.7341104,-1.9647480249404907,1.0394996404647827,-9.635427474975586,-0.2873348402624842,-0.2662799452927468,-10.61937064201749,1.0524120204351055,6.44079683668623,0.5731372956598382
1730865958.7841659,-2.0362460613250732,0.9632866978645325,-9.589738845825195,-0.28728867071469444,-0.26511023235800113,-10.619619404225553,1.0584477449055842,6.446442960836263,0.8347440168717079
1730865958.8331368,-2.0580220222473145,0.9396564364433289,-9.595098495483398,-0.28713750768592083,-0.2640549719062065,-10.619982953998404,1.0574612176185076,6.441392563400645,0.7746482265536653
1730865958.8841126,-2.0260348320007324,0.9472898840904236,-9.640368461608887,-0.2868837888203934,-0.26311668340567884,-10.620450983885442,1.0594700784304996,6.432545495921378,0.8399225636880654
1730865958.9341154,-1.9630955457687378,1.0134309530258179,-9.721592903137207,-0.2865349020117729,-0.2622952616537846,-10.62101012524791,1.0583730433234182,6.4259571194512555,0.7800693472843736
1730865958.984118,-1.895137906074524,1.0919886827468872,-9.815616607666016,-0.2861020894113089,-0.26158851522321314,-10.621645111525822,1.0607068023021196,6.416422085937385,0.8411669468882711
1730865959.0339692,-1.8222602605819702,1.1473636627197266,-9.905097961425781,-0.28559903809063525,-0.26099314711519883,-10.622340221224725,1.0597063933949118,6.408166770846512,0.7819468183692174
1730865959.0840662,-1.7455374002456665,1.1361726522445679,-9.956357955932617,-0.28504043976636817,-0.2605057628085593,-10.623080699607153,1.0635275566101732,6.398666373786794,0.8412935828492761
1730865959.1339521,-1.700907826423645,1.1482601165771484,-10.000899314880371,-0.28444069133225325,-0.26012348115436773,-10.62385387171727,1.0632304614061348,6.388102736500612,0.7822951287717003
1730865959.1839936,-1.7207727432250977,1.1174755096435547,-10.020934104919434,-0.2838129183272523,-0.25984406082386013,-10.62464981149605,1.0622237738636213,6.376861331014659,0.6966306190873697
1730865959.233999,-1.7523990869522095,1.134559988975525,-9.988039016723633,-0.2831685515945832,-0.2596657540307592,-10.625461568375533,1.0643194515891823,6.38696426216419,0.8410386331706773
1730865959.2839696,-1.8286563158035278,1.1376848220825195,-9.950651168823242,-0.28251752412666914,-0.2595871282137896,-10.626284942418291,1.0632629684776538,6.3801971927044185,0.7811592654976386
1730865959.3339097,-1.8731988668441772,1.1633003950119019,-9.883402824401855,-0.2818689065095903,-0.25960700523360597,-10.627117839992339,1.0664145437337784,6.373128285785411,0.847282817024977
1730865959.3839538,-1.87714421749115,1.2097761631011963,-9.829784393310547,-0.2812316416330105,-0.2597245637989538,-10.627959371017552,1.0681502059556995,6.368043571623266,0.8551979792018153
1730865959.43391,-1.8527741432189941,1.2444229125976562,-9.779115676879883,-0.28061499295448433,-0.259939599553659,-10.628808895677825,1.0676416576818102,6.361595872650774,0.8007406150808535
1730865959.483997,-1.7791498899459839,1.2536530494689941,-9.761033058166504,-0.28002847653269214,-0.260252852401949,-10.6296652147282,1.066416107417118,6.354323223793422,0.7181557874701002
1730865959.5338774,-1.7433054447174072,1.2289862632751465,-9.7857084274292,-0.2794813241876016,-0.26066618056921287,-10.630526083402067,1.0699174729749894,6.34653767479841,0.8503031515869575
1730865959.583923,-1.7001326084136963,1.2023404836654663,-9.813427925109863,-0.27898175088835936,-0.2611824078205411,-10.631388167784554,1.0690647747523545,6.337977884094549,0.7905518302471207
1730865959.6338441,-1.658395528793335,1.1724835634231567,-9.855494499206543,-0.27853631611447677,-0.26180488426889287,-10.632247397033243,1.0716190748975494,6.304157575965239,0.8559222019422893
1730865959.6838272,-1.589672565460205,1.1396898031234741,-9.88569164276123,-0.278149430347443,-0.2625369343205206,-10.633099513870476,1.0733166181792182,6.284365966873329,0.8609988840003459
1730865959.733828,-1.5081108808517456,1.1046420335769653,-9.922158241271973,-0.27782286578586235,-0.263381317563958,-10.633940636231133,1.0728738154879789,6.268454772265245,0.8048368004883081
1730865959.7838185,-1.4295170307159424,1.1049782037734985,-9.95274543762207,-0.27755518089047515,-0.2643397694725616,-10.63476773928242,1.0717369604566038,6.251871490326999,0.7220634627220985
1730865959.833836,-1.4295170307159424,1.1049782037734985,-9.95274543762207,-0.277341187437844,-0.2654127227128172,-10.635579011428284,1.0699050881171974,6.234612974156645,0.6126190291675163
1730865959.833836,-1.4276865720748901,1.1359474658966064,-9.951932907104492,-0.27717177242626123,-0.26659929119673464,-10.636374012476868,1.0698929150252479,6.234514777568926,0.6119334344527345
1730865959.8838398,-1.4848183393478394,1.1582427024841309,-9.916403770446777,-0.2770342684681185,-0.267897498271897,-10.637153577203382,1.0737410915772467,6.256009969429982,0.8509288043378027
1730865959.9337692,-1.5948827266693115,1.1681678295135498,-9.850994110107422,-0.27691335287019503,-0.2693046383813519,-10.637919446575522,1.0753537842986267,6.232685790447991,0.8605330388985255
1730865959.9839382,-1.7093874216079712,1.1369863748550415,-9.79179573059082,-0.27679242759302675,-0.2708175756557198,-10.638673623649458,1.0745895745264962,6.218250876107924,0.8045691683562815
1730865960.0338023,-1.8193243741989136,1.1080282926559448,-9.737626075744629,-0.27665532285090266,-0.2724327870426009,-10.63941756308953,1.0770969645112667,6.225406452361786,0.8553566987662368
1730865960.083812,-1.884267807006836,1.1029753684997559,-9.714607238769531,-0.27648795748916405,-0.2741461598026257,-10.640151430347213,1.076370591299909,6.217673253386275,0.7965155960848821
1730865960.1337838,-1.9105286598205566,1.1115912199020386,-9.716594696044922,-0.27627957364819344,-0.2759527791477743,-10.640873645730323,1.0749551723592206,6.2092656678553295,0.7111968007797919
1730865960.1837988,-1.9257912635803223,1.116139531135559,-9.744019508361816,-0.27602334710112103,-0.27784690469589923,-10.641580824094122,1.0786557861452803,6.209656289006037,0.8504860554075453
1730865960.2337227,-1.9447674751281738,1.1083884239196777,-9.78177261352539,-0.2757164515687154,-0.2798220985275861,-10.642268099741413,1.0777404002127389,6.201577504237332,0.7893752215985391
1730865960.28374,-1.942165493965149,1.0875669717788696,-9.824285507202148,-0.2753598223839887,-0.28187133763103467,-10.642929719592379,1.080391494242564,6.1923119463211105,0.8534027985910438
1730865960.3336928,-1.9253342151641846,1.0885087251663208,-9.844911575317383,-0.27495776588018406,-0.28398702338612286,-10.643559728022069,1.0796834034192113,6.182298849880602,0.7940542438090159
1730865960.383695,-1.8715403079986572,1.0781447887420654,-9.8873929977417,-0.2745173879649247,-0.28616094981152984,-10.644152580979917,1.0782880346080512,6.171561291274259,0.7080402642685228
1730865960.4336674,-1.8378441333770752,1.0401469469070435,-9.917705535888672,-0.2740478059654897,-0.2883842817769277,-10.644703641888558,1.076201514517585,6.160078969087165,0.5951321806158322
1730865960.48365,-1.7672381401062012,1.032460331916809,-9.951805114746094,-0.273559219810643,-0.29064748203514834,-10.645209597842179,1.0841586349777284,6.176981459525373,0.8442627775404481
1730865960.5337403,-1.7021394968032837,1.0370874404907227,-9.975760459899902,-0.2730619400801494,-0.2929402127639101,-10.645668797071583,1.0834171014043326,6.170757256195847,0.7817547725920736
1730865960.5838394,-1.65043306350708,1.073177456855774,-10.0149564743042,-0.27256542788641414,-0.29525139379363396,-10.646081490337451,1.0889828006731492,6.163776632322532,0.8449914488789082
1730865960.6337297,-1.6014059782028198,1.14634108543396,-10.020565032958984,-0.27207745057051924,-0.29756956409814084,-10.646449985791701,1.0892435641000857,6.156119714529051,0.78412507138526
1730865960.6836996,-1.5850491523742676,1.22859787940979,-9.987622261047363,-0.27160347896940584,-0.2998835822589604,-10.646778648469876,1.093512152961534,6.147687949599273,0.8417174121717738
1730865960.733647,-1.6096011400222778,1.2526041269302368,-9.945744514465332,-0.27114642212817963,-0.3021835278727659,-10.647073590944348,1.0940692826526652,6.138449667620041,0.7801960483472112
1730865960.7837098,-1.665219783782959,1.2559261322021484,-9.857342720031738,-0.27070680405204184,-0.3044614402169268,-10.64734199778509,1.0939459964004106,6.128547102131768,0.6927594480825244
1730865960.8336103,-1.7471556663513184,1.2027697563171387,-9.769553184509277,-0.2702834177269985,-0.30671155311603576,-10.647591151959492,1.0931489435537958,6.1178549978631604,0.5785615431186842
1730865960.8836133,-1.8258168697357178,1.1118991374969482,-9.667461395263672,-0.26987433706182984,-0.3089299218243491,-10.647827275305987,1.096273121771471,6.106344416309333,0.8322435080800342
1730865960.9335773,-1.8815194368362427,1.0185134410858154,-9.608986854553223,-0.2694780431046252,-0.3111135181247261,-10.648054369899349,1.095806899119414,6.094111282332639,0.7694075630765349
1730865960.9835758,-1.8734042644500732,0.954424262046814,-9.58102798461914,-0.2690943404537546,-0.3132590460200602,-10.648273327084361,1.0997171750009012,6.0810072349221205,0.8344912014519164
1730865961.033538,-1.8734042644500732,0.954424262046814,-9.58102798461914,-0.26872478480103257,-0.3153619055266684,-10.648481527857713,1.0995585241924226,6.067216106865217,0.7738035206129364
1730865961.033538,-1.824157476425171,0.9195178747177124,-9.613903045654297,-0.2683725787970646,-0.3174156464928861,-10.64867298647767,1.0995557977760206,6.067137958171634,0.7733957906011371
1730865961.0836797,-1.7324042320251465,0.9404146075248718,-9.695297241210938,-0.26804204016853467,-0.3194119052662008,-10.648838978235018,1.0987240677955703,6.052534285144884,0.6859360548054214
1730865961.133535,-1.6441199779510498,0.9858413338661194,-9.814929962158203,-0.2677376907187083,-0.32134067094397756,-10.648969124697519,1.100958863987307,1.4988986299753344,0.8416148565004029
1730865961.1836119,-1.5686087608337402,1.074684739112854,-9.920032501220703,-0.267463102899376,-0.3231908982278237,-10.64905287044037,1.1001588793757808,1.2000678560761069,0.7851611293159211
1730865961.2334654,-1.542607307434082,1.151999592781067,-10.003628730773926,-0.26721984214621014,-0.324951494695219,-10.649081083615949,1.1010185255675315,1.5085758457866956,0.845840444622704
1730865961.283573,-1.5542049407958984,1.2301385402679443,-10.041191101074219,-0.267006847230174,-0.32661249854623703,-10.649047387016548,1.0998800006516882,1.431079449117052,0.7887437737118819
1730865961.3333614,-1.6225168704986572,1.2406723499298096,-10.066964149475098,-0.2668204385151508,-0.32816612965948355,-10.648948948905783,1.0980869885588345,1.3533196477851617,0.7056179308527685
1730865961.3834236,-1.7253564596176147,1.2138913869857788,-10.027120590209961,-0.2666549854536645,-0.32960738660684796,-10.648786673811221,1.0956253148666621,1.2744939063150895,0.5957604548291673
1730865961.4334004,-1.8377536535263062,1.1672279834747314,-9.96264362335205,-0.2665041176802217,-0.330934000252007,-10.648564813204707,1.1009478004086208,1.5788393235443718,0.841245502084392
1730865961.4834306,-1.8791604042053223,1.118408203125,-9.90227222442627,-0.26636215948567993,-0.33214584741416653,-10.648290070604835,1.0995251838354427,1.5638328408312379,0.7799757848096789
1730865961.5334456,-1.8703622817993164,1.049418330192566,-9.87574577331543,-0.26622526813120667,-0.3332441011076818,-10.647970475258916,1.1021776966130412,1.613660825915467,0.8496394106481799
1730865961.5833516,-1.7904411554336548,0.9940613508224487,-9.860814094543457,-0.26609181803302473,-0.33423031784583723,-10.647614412976251,1.1027099836785477,1.6243837661759755,0.8591444966299958
1730865961.6333067,-1.6464136838912964,0.9628157019615173,-9.86606502532959,-0.26596187035373137,-0.3351055955270551,-10.647230029925051,1.1016650911986823,1.6213694076610903,0.8044992478243498
1730865961.683353,-1.5627888441085815,0.9482263922691345,-9.848698616027832,-0.2658358986104969,-0.33586996605928665,-10.646824965329586,1.0999648153855577,1.6175399247623583,0.7237003166865787
1730865961.7333167,-1.562458872795105,0.9341247081756592,-9.841981887817383,-0.26571334755638665,-0.3365221156325637,-10.646406235806811,1.0975819601349455,1.6128329354974247,0.6154517580041179
1730865961.783527,-1.5797141790390015,0.9555282592773438,-9.840194702148438,-0.2655917695520831,-0.3370593884116606,-10.645980144605296,1.1025221271559438,1.6301863066784803,0.8468174079454092
1730865961.8334281,-1.656130313873291,1.0449622869491577,-9.828990936279297,-0.2654668409790955,-0.3374780820353165,-10.64555221318934,1.1010928055216846,1.6281623441566322,0.785374268878207
1730865961.883437,-1.7408385276794434,1.130565881729126,-9.812065124511719,-0.26533306999817685,-0.3377741641053472,-10.645127135019138,1.09899754566178,1.6252910137498984,0.6972159678668086
1730865961.933372,-1.8037424087524414,1.1793253421783447,-9.80042552947998,-0.2651848818075585,-0.3379443362051051,-10.644708704303891,1.0962469528935517,1.6215855911608676,0.5827710882226174
1730865961.9834905,-1.8700915575027466,1.1633671522140503,-9.820185661315918,-0.2650177418657055,-0.33798699679301797,-10.644299751096487,1.1028056864351568,1.6322623007421082,0.8452694822878857
1730865962.0333447,-1.9134926795959473,1.100498914718628,-9.80792236328125,-0.2648290564796707,-0.3379026144458651,-10.643902179676996,1.1013781583892763,1.630430064784675,0.7834854305198119
1730865962.083408,-1.9134926795959473,1.100498914718628,-9.80792236328125,-0.2646187414701682,-0.33769342416261866,-10.643517090139495,1.1031244676849623,1.6333939793127368,0.8505060875930865
1730865962.083408,-1.9817607402801514,0.9967160820960999,-9.799867630004883,-0.2643894490653902,-0.3373627628339255,-10.643144872300569,1.1031186379018574,1.633387260955155,0.850247678426781
1730865962.1332574,-2.009242534637451,0.8998187184333801,-9.762540817260742,-0.2641466213141282,-0.3369142371557291,-10.642785217574506,1.10175887626067,1.6317802177491139,0.7912875872396065
1730865962.1833553,-2.0146119594573975,0.8520634174346924,-9.732019424438477,-0.2638985235582226,-0.33635070708624837,-10.642437010313994,1.102764517315662,1.634398057614384,0.8586076448221359
1730865962.2332752,-1.9653370380401611,0.8578269481658936,-9.763777732849121,-0.2636560917491001,-0.3356733776126148,-10.642098150567248,1.1028211377080623,1.6350649232349517,0.8605264657108418
1730865962.2832632,-1.8760980367660522,0.9307280778884888,-9.811843872070312,-0.26343232727740545,-0.33488149816173046,-10.641765579440703,1.1014099635895716,1.6336891276006487,0.8054102758007199
1730865962.3331802,-1.7786275148391724,1.0387083292007446,-9.875558853149414,-0.26324118881616065,-0.33397287746732246,-10.641435720521303,1.0993575234375486,1.6314959427264417,0.7243663808944566
1730865962.3832405,-1.7020138502120972,1.1243410110473633,-9.926508903503418,-0.2630961892184792,-0.33294504532333385,-10.641105225404624,1.0966272487721171,1.6284478073462372,0.615932845455898
1730865962.4332123,-1.6601722240447998,1.1989141702651978,-9.964488983154297,-0.26300907086961234,-0.3317966331663021,-10.640771746911858,1.1027211933890733,1.6348063800331574,0.8464910948123956
1730865962.4832904,-1.6342209577560425,1.2611186504364014,-9.975395202636719,-0.26298888164103096,-0.33052854980288743,-10.640434515611961,1.1012308029175781,1.6329854595443105,0.7847058166864347
1730865962.5331616,-1.622498869895935,1.2675787210464478,-9.962905883789062,-0.26304154214727815,-0.32914474968323426,-10.64009459033456,1.1035033688268774,1.6350426748467157,0.8511059148152846
1730865962.5832772,-1.639206886291504,1.2061913013458252,-9.937066078186035,-0.2631698180356169,-0.3276524594215308,-10.639754747870512,1.1022125061358738,1.6332840822972259,0.7916742281547301
1730865962.6331246,-1.6860491037368774,1.1449236869812012,-9.880510330200195,-0.2633736263614862,-0.32606172902013114,-10.639419056254646,1.100275408303107,1.630724295186435,0.7061787534572227
1730865962.6834114,-1.7109571695327759,1.0855287313461304,-9.83228588104248,-0.26365063636270303,-0.32438443725303634,-10.639092211288359,1.1043404652924451,1.6353339510738085,0.8470760714162986
1730865962.7330935,-1.709753394126892,1.0741137266159058,-9.788422584533691,-0.26399698195015997,-0.3226331763651572,-10.638778762331176,1.103063292780947,1.633560515882326,0.7848432907883732
1730865962.7832174,-1.6724727153778076,1.0828081369400024,-9.795247077941895,-0.2644077755226245,-0.32082043081025546,-10.63848243801477,1.1058376847311497,1.6310856360868666,0.8554072837087336
1730865962.8330767,-1.6206578016281128,1.0981696844100952,-9.837224006652832,-0.26487722304668937,-0.31895821902981103,-10.638205821218214,1.1048845679591985,1.6276894198423222,0.7965393151481575
1730865962.8830912,-1.5427521467208862,1.13316011428833,-9.84755802154541,-0.26539835152555225,-0.3170581129626867,-10.6379504796957,1.1067246050159407,1.6236538374593008,0.8597076565788861
1730865962.933006,-1.5629488229751587,1.1618047952651978,-9.863628387451172,-0.2659625582720774,-0.31513146997925956,-10.637717355039939,1.1057299922302657,1.6187503013849711,0.8026996760956276
1730865962.9830446,-1.629149079322815,1.215698003768921,-9.845447540283203,-0.26655942121819354,-0.3131897737767224,-10.637507090603656,1.1040635177283322,1.6130375020908443,0.7187730616767946
1730865963.0340078,-1.6967530250549316,1.2590280771255493,-9.838217735290527,-0.267177154265261,-0.3112450392100713,-10.63732014820154,1.1016828130205447,1.6064276131970943,0.6060912827036559
1730865963.084012,-1.7413307428359985,1.2730633020401,-9.82457160949707,-0.2678035782883831,-0.30931020906319234,-10.637156749868781,1.1072476184433109,1.5991896376720056,0.8523413415183287
1730865963.1339903,-1.7646113634109497,1.2583575248718262,-9.81188678741455,-0.2684271159905799,-0.30739936876882823,-10.637016749778144,1.1059524793988844,1.5911487250425531,0.7907973152032107
1730865963.1839724,-1.7786732912063599,1.2127102613449097,-9.802888870239258,-0.2690374730074302,-0.3055276018879908,-10.636899510527192,1.108120157677651,1.5823820569536824,0.8564004477966624
1730865963.233917,-1.8130278587341309,1.14822256565094,-9.807696342468262,-0.26962599528770814,-0.3037104481609599,-10.636803821786074,1.1069645502382102,1.5728377784754302,0.7968982058632204
1730865963.2838762,-1.809478998184204,1.100132703781128,-9.810400009155273,-0.2701858497595262,-0.30196307885317086,-10.636727903904283,1.1051333544450164,1.5625217505421183,0.7107483662444821
1730865963.333905,-1.797210454940796,1.1131501197814941,-9.829365730285645,-0.27071207301200123,-0.3002994668523354,-10.636669514220683,1.1092194381539577,6.055318916968972,0.8527260388533966
1730865963.383851,-1.7991148233413696,1.125964879989624,-9.836786270141602,-0.2712014350084805,-0.2987318999559816,-10.636626133606068,1.1080286929788785,6.29006545937252,0.792113603397748
1730865963.4338167,-1.7826963663101196,1.1695894002914429,-9.845488548278809,-0.2716521742995449,-0.29727097814835457,-10.63659518153218,1.1101874000367202,6.073475524575119,0.8515838573394654
1730865963.4838102,-1.7767739295959473,1.2048052549362183,-9.856528282165527,-0.2720637116916017,-0.29592596048185105,-10.636574201663569,1.109090542822618,6.127690909811174,0.7906379242319587
1730865963.5337822,-1.8129676580429077,1.1983704566955566,-9.851751327514648,-0.272436413724229,-0.29470522125326276,-10.636560993343144,1.1110172098707138,6.019446369703732,0.8467819398084763
1730865963.5838563,-1.865580439567566,1.1427628993988037,-9.82577133178711,-0.27277155041914475,-0.2936165125029325,-10.636553652174282,1.109950932319167,6.028008082068951,0.786706960901989
1730865963.633715,-1.881205439567566,1.0834192037582397,-9.824111938476562,-0.27307152234552884,-0.29266678073546293,-10.636550471824071,1.1081084367514729,6.0363169259510014,0.6952728646765323
1730865963.68373,-1.863053321838379,1.0553536415100098,-9.826824188232422,-0.27334012471337277,-0.2918616074645619,-10.636549781517095,1.1120774951855543,5.980423670879693,0.8467279214979545
1730865963.7337158,-1.8265241384506226,1.0528087615966797,-9.850543975830078,-0.27358251233508185,-0.2912046467652245,-10.63654988393031,1.1108574523685462,5.978250261873824,0.7847008617687845
1730865963.7837036,-1.7715882062911987,1.0776413679122925,-9.877630233764648,-0.27380476791396524,-0.29069739445585047,-10.636549174242218,1.1090271337425994,5.975469411707797,0.6996456057626338
1730865963.8336518,-1.7354477643966675,1.0973707437515259,-9.941924095153809,-0.2740132182356161,-0.2903393558401749,-10.636546437320689,1.1130951412152548,5.957040285855212,0.8463102827222886
1730865963.8837056,-1.689695954322815,1.1317925453186035,-9.966397285461426,-0.27421371075521556,-0.2901284726125124,-10.636541291433304,1.111908648879692,5.951577572938328,0.7853855270010853
1730865963.9335935,-1.6389662027359009,1.1293141841888428,-9.971222877502441,-0.274410981905728,-0.29006161662837104,-10.636534625696864,1.110048022842905,5.945431974533916,0.6984274991823083
1730865963.9836588,-1.6623183488845825,1.1505361795425415,-9.938908576965332,-0.274608179704111,-0.29013499577125523,-10.636528773456913,1.1135987226632562,5.9415966789907575,0.8502354023864712
1730865964.0335605,-1.685981035232544,1.114296793937683,-9.907242774963379,-0.27480669812699776,-0.2903443894475569,-10.636527292017302,1.1122192343480268,5.9356603920573825,0.7881666964057468
1730865964.0836053,-1.7127622365951538,1.098321795463562,-9.828071594238281,-0.2750064337797056,-0.2906851741670564,-10.63653441177954,1.1140503793828622,5.9274097592555295,0.8587378226300034
1730865964.1335196,-1.7381293773651123,1.0863145589828491,-9.812661170959473,-0.27520629528932605,-0.2911521695937385,-10.63655429696953,1.1127415626852535,5.9196665518679215,0.8009803159433787
1730865964.1835907,-1.7394286394119263,1.1070185899734497,-9.751754760742188,-0.27540470595756894,-0.29173948355029783,-10.636590317651716,1.1144227347692062,5.914044282437323,0.8668644640127896
1730865964.2335656,-1.7783422470092773,1.099996566772461,-9.74980354309082,-0.27559998827979487,-0.29244052608136767,-10.636644502470268,1.1131083407743114,5.906038785004093,0.810950226947759
1730865964.2834716,-1.775434136390686,1.1180026531219482,-9.734968185424805,-0.2757906580570698,-0.29324816371437673,-10.63671723061012,1.1110994146615407,5.897286095294324,0.7282326065939061
1730865964.3334875,-1.7961090803146362,1.0978853702545166,-9.74190616607666,-0.27597565844421074,-0.29415488693642566,-10.63680717479225,1.1142198332919566,5.905028673128436,0.8695700902797002
1730865964.3834748,-1.8024729490280151,1.096219539642334,-9.761283874511719,-0.27615451406533464,-0.2951529040603836,-10.636911465108776,1.11269594385935,5.899731247660433,0.811234840046137
1730865964.4334664,-1.8615046739578247,1.0873790979385376,-9.789366722106934,-0.27632746161376437,-0.29623414691704725,-10.637026024803333,1.1146725306488552,5.89527399887522,0.8791682525567639
1730865964.4834557,-1.8906596899032593,1.113863468170166,-9.796687126159668,-0.27649568445254025,-0.2973902734475952,-10.637146018440795,1.1132634785364564,5.889214096172516,0.8221161081310191
1730865964.533443,-1.8906596899032593,1.113863468170166,-9.796687126159668,-0.2766616196912759,-0.298612773557945,-10.637266274154761,1.1111861823019427,5.8824896741756625,0.7393982037555099
1730865964.533443,-1.8843986988067627,1.1354656219482422,-9.818350791931152,-0.27682910711521935,-0.2998931704428627,-10.63738157273251,1.1111727014856776,5.882450153811743,0.7388640155325384
1730865964.5834439,-1.8520234823226929,1.1645499467849731,-9.829914093017578,-0.2770032330883816,-0.3012232572227652,-10.637486859131547,1.1084034671305159,5.874967054635917,0.6295523263330566
1730865964.6334517,-1.8085271120071411,1.176212191581726,-9.861815452575684,-0.2771899106867176,-0.3025953627890508,-10.637577476860377,1.1150695599020828,5.88252053160902,0.8809344816016952
1730865964.6834452,-1.7181299924850464,1.1627516746520996,-9.876137733459473,-0.2773952381726067,-0.3040025837493204,-10.637649439085033,1.1136673959798022,5.876932837261233,0.823472173997744
1730865964.7333987,-1.6924563646316528,1.1392431259155273,-9.905946731567383,-0.2776246787152061,-0.30543882851425275,-10.637699696688555,1.1158115703564473,5.869625798976655,0.8843482352265196
1730865964.7834475,-1.6710063219070435,1.1597439050674438,-9.915834426879883,-0.2778822886467005,-0.3068986600979904,-10.637726363458809,1.1145654436253642,5.862382489727965,0.827527140887137
1730865964.8333828,-1.6623401641845703,1.1732234954833984,-9.910504341125488,-0.2781702739258621,-0.3083771493628741,-10.637728847816856,1.1125553831212949,5.8540558085742225,0.741105911212907
1730865964.8834436,-1.664509892463684,1.188157320022583,-9.918722152709961,-0.2784889034217316,-0.30986990157369376,-10.637707839531593,1.1099471379213124,5.845321681333903,0.6322263661643192
1730865964.933397,-1.664509892463684,1.188157320022583,-9.918722152709961,-0.27883663747833565,-0.31137317790212404,-10.637665184422962,1.116221760114928,5.852045198501217,0.8751272665803919
1730865964.933397,-1.6572636365890503,1.1673773527145386,-9.908549308776855,-0.2792103532773931,-0.31288394240746575,-10.63760372501924,1.116215602276689,5.852013011644733,0.8748567827410788
1730865964.9834638,-1.6591688394546509,1.130024790763855,-9.90406608581543,-0.27960557764010463,-0.314399723876377,-10.637527111132528,1.1147634045805377,5.8458585715006395,0.8131272145924275
1730865965.0333724,-1.6374982595443726,1.1253414154052734,-9.897210121154785,-0.28001667783752465,-0.31591829850780256,-10.637439573529342,1.1174882340732766,5.836793118521766,0.8841654933419052
1730865965.0834715,-1.6542800664901733,1.1127800941467285,-9.890379905700684,-0.2804370117913007,-0.3174373518002243,-10.637345700741758,1.1181292984472782,5.823210865366148,0.8843388432952202
1730865965.1333466,-1.6624219417572021,1.1077226400375366,-9.87459659576416,-0.28085910123221514,-0.31895427040227436,-10.637250233318097,1.1170840161311288,5.812957990480268,0.8279946479078867
1730865965.183495,-1.6803877353668213,1.1172305345535278,-9.872438430786133,-0.28127490167833646,-0.3204660707741659,-10.637157861434911,1.115329650023989,5.801876374892648,0.7447735912222118
1730865965.2333581,-1.6642932891845703,1.1443051099777222,-9.851571083068848,-0.2816761183191694,-0.32196945458133636,-10.637073032843634,1.1184014971585232,5.807377520829368,0.8705979735983171
1730865965.2835011,-1.676072597503662,1.1518168449401855,-9.866317749023438,-0.2820544412372757,-0.3234610055308978,-10.636999796198165,1.1170345660895125,5.8000087775087446,0.8093905778036253
1730865965.3333554,-1.688549518585205,1.173169493675232,-9.839729309082031,-0.2824016950979711,-0.32493745591019224,-10.636941701343375,1.1190550478327854,5.791137732100195,0.8726522584798375
1730865965.3832452,-1.7406500577926636,1.1670211553573608,-9.839791297912598,-0.2827100445414913,-0.3263959088731616,-10.636901730851356,1.1177962902066207,5.781765346345924,0.8136295715770843
1730865965.4331973,-1.7592371702194214,1.1434805393218994,-9.807424545288086,-0.2829723551031745,-0.32783393013873446,-10.636882201802475,1.1199209107005015,5.781848557538577,0.8722978548998439
1730865965.4832108,-1.7919294834136963,1.1425443887710571,-9.786770820617676,-0.2831826291809767,-0.3292494636174105,-10.636884609959722,1.1187458771866978,5.774098480574155,0.8127403269554367
1730865965.5332005,-1.8289555311203003,1.1339582204818726,-9.734051704406738,-0.2833363833824096,-0.3306406509540664,-10.63690940342507,1.1168819661445182,5.765602673059519,0.7274512658555069
1730865965.5832748,-1.906752586364746,1.1017496585845947,-9.722082138061523,-0.2834309971839043,-0.3320056633593601,-10.636955694615654,1.1203801515271408,5.763517198507894,0.8684614180832834
1730865965.6332035,-1.9440362453460693,1.0649313926696777,-9.711519241333008,-0.283466142637563,-0.3333424953261064,-10.637021020086513,1.119020749461458,5.755063772012441,0.8075580038442555
1730865965.6832056,-1.954621434211731,1.0486096143722534,-9.747272491455078,-0.2834442006828204,-0.33464866062357485,-10.637101318639715,1.1180421935156517,5.743692985191465,0.8715051099234313
1730865965.733109,-1.9300211668014526,1.0519165992736816,-9.785317420959473,-0.283370385427459,-0.3359209167330992,-10.637191228028858,1.1157561820916284,5.732524881210032,0.8108816404193145
1730865965.7832572,-1.8917458057403564,1.0662336349487305,-9.863221168518066,-0.2832524212957023,-0.33715519571149266,-10.637284690908078,1.1128204323114559,5.720780260566318,0.7252807617413212
1730865965.8331983,-1.8261340856552124,1.0515388250350952,-9.917787551879883,-0.2830998389978753,-0.3383467472995652,-10.637375783287302,1.1091890223994423,5.708202480670048,0.6135581176407818
1730865965.8832433,-1.7325536012649536,1.0188775062561035,-9.973783493041992,-0.2829230036053399,-0.33949029992633145,-10.637459601531884,1.1159383693611384,5.728342781109333,0.8657889647707558
1730865965.9331484,-1.6438817977905273,1.0134690999984741,-9.997303009033203,-0.2827319497601761,-0.34058006814097436,-10.637533001074406,1.1138675190849312,5.721747597079443,0.8041076776942776
1730865965.9832146,-1.6068297624588013,1.0392526388168335,-10.010113716125488,-0.28253519435719276,-0.34160970404238966,-10.637595037200468,1.1142395918136538,5.709738388143178,0.870698626235832
1730865966.0331244,-1.5930547714233398,1.1113393306732178,-9.983500480651855,-0.28233885038208667,-0.34257247744139885,-10.637647048287235,1.1119128441035915,5.699609636018073,0.8115929470165878
1730865966.0831685,-1.6152253150939941,1.2080261707305908,-9.939994812011719,-0.2821462872907779,-0.3434618767334815,-10.63769236806977,1.1122925547777194,5.691342021163593,0.8708149513545618
1730865966.1329873,-1.6628810167312622,1.2549554109573364,-9.904179573059082,-0.2819583415870237,-0.3442725508839476,-10.637735721426859,1.1098445212851966,5.680625717504616,0.8118242514718981
1730865966.183079,-1.7237470149993896,1.2498868703842163,-9.840123176574707,-0.2817739529637065,-0.3450012004356963,-10.637782451955081,1.106662048807512,5.668916551873502,0.7255256537060116
1730865966.232996,-1.7540323734283447,1.1959750652313232,-9.810408592224121,-0.2815910351747941,-0.3456469428047019,-10.63783773053447,1.1106086272890778,5.672861549280533,0.8675314173615681
1730865966.282932,-1.7540323734283447,1.1959750652313232,-9.810408592224121,-0.28140728665055037,-0.34621103049712026,-10.637905893044971,1.1116524850474134,5.657689975641503,0.8761119672278128
1730865966.282932,-1.7761001586914062,1.1373709440231323,-9.77637004852295,-0.28122069881801515,-0.34669623274681816,-10.637990052554128,1.1116431286568835,5.6576113894489914,0.8757872068523632
1730865966.3329697,-1.7739691734313965,1.080772876739502,-9.734260559082031,-0.2810297813633903,-0.3471061514740368,-10.638091911679766,1.110039854852145,5.6466520810278,0.8190374746224502
1730865966.3838212,-1.7863746881484985,1.0190056562423706,-9.72805404663086,-0.2808336567606322,-0.3474444662227875,-10.638211576635339,1.1126479658679427,5.645647337866547,0.8782673386094816
1730865966.4338863,-1.7863746881484985,1.0190056562423706,-9.72805404663086,-0.28063209637921366,-0.34771417694208323,-10.638347413953376,1.111404903423044,5.636109951826152,0.8225056615464083
1730865966.4338863,-1.763444423675537,0.9958710074424744,-9.702902793884277,-0.2804254894985458,-0.3479170968151234,-10.638496084402867,1.1113613061363066,5.635838441668091,0.8206179992171565
1730865966.4838243,-1.7485802173614502,0.980993390083313,-9.72205638885498,-0.28021469782465325,-0.34805367667865184,-10.638652698884563,1.109464911531492,5.625720379989715,0.7403182553579588
1730865966.5338418,-1.7739217281341553,0.9647471904754639,-9.749009132385254,-0.28000083583930857,-0.34812299432495797,-10.638811057471184,1.1134782996881891,5.629706465814311,0.8753745427233265
1730865966.5839176,-1.776928424835205,1.0090956687927246,-9.792386054992676,-0.27978515509792035,-0.3481228299779312,-10.638964068556385,1.1122220129607574,5.622131660198429,0.8188036205242127
1730865966.6337254,-1.7719019651412964,1.0469619035720825,-9.85647201538086,-0.2795690813271927,-0.34804996183644,-10.63910437586818,1.1143593444537232,5.609969594681017,0.8738667512099524
1730865966.6840096,-1.742720127105713,1.0767850875854492,-9.918389320373535,-0.27935422373064506,-0.3479007305789487,-10.639225127066643,1.1131929340038347,5.599430189943692,0.8153055171916818
1730865966.733826,-1.7308605909347534,1.0838773250579834,-9.983128547668457,-0.27914222100151803,-0.34767165918722076,-10.639320796523275,1.1154474966505157,5.601371544073876,0.8714288256713841
1730865966.7839155,-1.7244657278060913,1.1198302507400513,-10.016728401184082,-0.27893449730886066,-0.3473599118899216,-10.639387930638934,1.1144013946701228,5.5934959468311805,0.8122566730011428
1730865966.8337839,-1.7244657278060913,1.1198302507400513,-10.016728401184082,-0.27873208168634256,-0.3469635928138886,-10.639425641496354,1.1163595954629641,5.582897793563712,0.8702161874706998
1730865966.8337839,-1.6922295093536377,1.1217204332351685,-10.01152515411377,-0.27853552292179573,-0.34648192947525847,-10.639435710456535,1.1163538532329278,5.582833575087093,0.8698787668926281
1730865966.8839517,-1.6949405670166016,1.091368556022644,-10.003122329711914,-0.27834480798085043,-0.3459152838348204,-10.639422330951913,1.1152160375720395,5.573613737448212,0.8102605406969385
1730865966.9338105,-1.6541407108306885,1.079060673713684,-9.937772750854492,-0.27815924013944254,-0.3452649561697167,-10.639391619408299,1.1176527345123966,5.560496038813189,0.8786338956387785
1730865966.9837117,-1.6971153020858765,1.0559735298156738,-9.882655143737793,-0.27797734138262725,-0.3445328635475924,-10.639350911976923,1.1167079559317488,5.549019963624355,0.8235224629546674
1730865967.0336804,-1.7184339761734009,1.0200108289718628,-9.829143524169922,-0.2777969235673608,-0.3437211923549492,-10.63930786388473,1.1196972800565517,5.547800106124644,0.8752392779793017
1730865967.0837424,-1.7796587944030762,0.9819168448448181,-9.78043270111084,-0.2776154433488611,-0.34283202963008874,-10.639269534586447,1.1192289310115122,5.53711824423452,0.8171514566447765
1730865967.1336548,-1.7767276763916016,0.9837790727615356,-9.749464988708496,-0.27743054018267177,-0.3418669876320036,-10.639241641968365,1.1180775084536356,5.525742161503186,0.733466573395029
1730865967.1838517,-1.7815088033676147,1.03798508644104,-9.75819206237793,-0.2772404809849742,-0.34082701435878743,-10.639228082568922,1.1208836773862016,5.530241502360264,0.8685566572260873
1730865967.2337184,-1.7815088033676147,1.03798508644104,-9.75819206237793,-0.27704433244917515,-0.3397125769351569,-10.639230793246158,1.1199057065108668,5.521767876496605,0.8084129781747323
1730865967.2337184,-1.7619465589523315,1.1153185367584229,-9.77953052520752,-0.2768419102933995,-0.33852412239547336,-10.639249926087722,1.1198980380589747,5.521716310954238,0.8079875751129728
1730865967.283684,-1.7306779623031616,1.2181533575057983,-9.794438362121582,-0.27663359077996186,-0.33726270237640626,-10.639284200628513,1.1182314769586716,5.512404684090972,0.7213927294530271
1730865967.3336196,-1.7306779623031616,1.2181533575057983,-9.794438362121582,-0.276420014153654,-0.33593076467345595,-10.639331303465827,1.115873843732139,5.502233253388912,0.6081515900889809
1730865967.3336196,-1.73723566532135,1.2622041702270508,-9.825244903564453,-0.27620181005203953,-0.3345328442685888,-10.639388249335042,1.11585618254009,5.502164062085406,0.607324856944922
1730865967.3837023,-1.7728885412216187,1.2536513805389404,-9.841352462768555,-0.27597952295631023,-0.3330758404979367,-10.639451710458163,1.1223764051259586,5.511304158824771,0.8728911489275771
1730865967.4336104,-1.7957485914230347,1.2329119443893433,-9.852080345153809,-0.27575377999034667,-0.33156891118316706,-10.63951835107646,1.1213894960463624,5.503827083983272,0.8171175745416882
1730865967.4835632,-1.8130037784576416,1.187165379524231,-9.869086265563965,-0.27552558948829087,-0.33002306684241645,-10.639585117705007,1.1239297875834242,5.49101097915442,0.8743770251765248
1730865967.5335834,-1.8130037784576416,1.187165379524231,-9.869086265563965,-0.27529659501400183,-0.3284505340699723,-10.639649436918326,1.123019777341894,5.4816427298138635,0.8167280894392585
1730865967.5335834,-1.8403993844985962,1.1168467998504639,-9.861696243286133,-0.27506919480648434,-0.32686406918299615,-10.63970931243952,1.1230106803803568,5.4815718477930835,0.8162135912545212
1730865967.5836523,-1.8365612030029297,1.1099493503570557,-9.855596542358398,-0.2748465782940369,-0.3252763121988801,-10.639763302403589,1.127579120782169,5.467054812984138,0.876696050154031
1730865967.6335382,-1.8015090227127075,1.1125519275665283,-9.858222961425781,-0.2746326858895596,-0.32369923203360396,-10.63981041142424,1.1295108926757622,5.444818786619083,0.8793510036116858
1730865967.683565,-1.7416749000549316,1.0947171449661255,-9.853496551513672,-0.27443194346759214,-0.3221438027882894,-10.639849984140897,1.1294637417092204,5.429249620147649,0.8245304082396808
1730865967.7336876,-1.707353949546814,1.0896289348602295,-9.870576858520508,-0.27424870634084203,-0.32061988838508276,-10.639881649459216,1.1287221055951338,5.412715545917796,0.7422582719438933
1730865967.7836096,-1.6856294870376587,1.0882185697555542,-9.87708854675293,-0.2740866146759141,-0.31913618200151184,-10.639905331875642,1.1273066926609232,5.395599111557066,0.6345338800426072
1730865967.833548,-1.6856732368469238,1.1131680011749268,-9.89499282836914,-0.27394813803549745,-0.3177002039352399,-10.639921328885293,1.1309206785793529,5.424505220653568,0.8652089194725963
1730865967.8835711,-1.6620116233825684,1.1451038122177124,-9.884458541870117,-0.2738343955877142,-0.31631845723728685,-10.639930402262188,1.1300211583110313,5.415488603236344,0.8038027770440954
1730865967.9334772,-1.6606212854385376,1.1801331043243408,-9.870457649230957,-0.27374513927893873,-0.31499676220685613,-10.63993378724302,1.1329762922942845,5.405975403262313,0.8690081666476109
1730865967.9834714,-1.6606212854385376,1.1801331043243408,-9.870457649230957,-0.2736787989846791,-0.3137406596019059,-10.639933072196387,1.132434189855705,5.394510223893373,0.8094963047290882
1730865967.9834714,-1.653437852859497,1.1797866821289062,-9.851520538330078,-0.27363259041730004,-0.312555691267301,-10.639930014008327,1.1324293797820744,5.394445794780719,0.8091004732134616
1730865968.0334425,-1.6758476495742798,1.1824043989181519,-9.821070671081543,-0.27360268976785207,-0.3114474639683125,-10.63992633745513,1.1312076910532223,5.382251110379583,0.7233303052388917
1730865968.0835173,-1.6758476495742798,1.1824043989181519,-9.821070671081543,-0.27358446901120836,-0.3104215817151395,-10.63992349545026,1.1292962078127609,5.369209038618622,0.6105097052945301
1730865968.0835173,-1.7237505912780762,1.1566532850265503,-9.81063461303711,-0.27357280533220846,-0.3094835346334064,-10.639922450554234,1.1292837927119355,5.369135106128221,0.6098150713309862
1730865968.1334534,-1.7996176481246948,1.1426687240600586,-9.782665252685547,-0.2735625289668935,-0.30863851583499,-10.63992354743731,1.1347070391771836,5.392269961953216,0.8707747292187746
1730865968.1835039,-1.7996176481246948,1.1426687240600586,-9.782665252685547,-0.2735490434123916,-0.3078911745462118,-10.639926416869326,1.1337898824351826,5.385964627131454,0.8147511894296755
1730865968.1835039,-1.8628112077713013,1.1092867851257324,-9.77823543548584,-0.27352893437616893,-0.30724539790499883,-10.639929894973005,1.1337827312881885,5.38592665206719,0.8143575469495088
1730865968.2334023,-1.8774480819702148,1.0935637950897217,-9.79169750213623,-0.2735003922821184,-0.30670412175675854,-10.639932043562496,1.1357630814474664,5.3736567376303865,0.8759844513790095
1730865968.2834685,-1.8774480819702148,1.0935637950897217,-9.79169750213623,-0.273463457971267,-0.30626913689587254,-10.639930291039011,1.1372910202813664,5.3554576743202364,0.8780210238175737
1730865968.2834685,-1.8534674644470215,1.108945369720459,-9.822172164916992,-0.27342003187193487,-0.3059409940885136,-10.639921645852237,1.137290069792679,5.355389945220635,0.8778009985162522
1730865968.3333826,-1.7973651885986328,1.1064001321792603,-9.855999946594238,-0.2733735465204188,-0.3057190940739136,-10.639902984859905,1.1367712092153193,5.342305135944981,0.823275374056626
1730865968.3833833,-1.749116063117981,1.0848197937011719,-9.900351524353027,-0.27332833423283875,-0.30560185047465205,-10.63987145506585,1.1355709874903956,5.32842688362636,0.7421419012671667
1730865968.4334073,-1.6887575387954712,1.0780417919158936,-9.944061279296875,-0.2732888219195308,-0.3055867570865076,-10.639824965839184,1.133674034998829,5.313679810579091,0.6336383920853108
1730865968.4834383,-1.660573959350586,1.0784896612167358,-9.943114280700684,-0.273258734762303,-0.30567036259774977,-10.639762652509518,1.1385781737123506,5.335265941084381,0.8736708728718567
1730865968.5333052,-1.6808581352233887,1.0688133239746094,-9.9386625289917,-0.27324051996023613,-0.3058482733511114,-10.639685129342796,1.139214119972286,5.318581696106361,0.8777229021828057
1730865968.5834394,-1.6925055980682373,1.0484857559204102,-9.91047477722168,-0.273235175071422,-0.30611519742212867,-10.639594418607787,1.1382219339532194,5.307891134261318,0.8219141100019182
1730865968.6333168,-1.7340891361236572,1.0040960311889648,-9.874168395996094,-0.27324248107035587,-0.30646491951859606,-10.639493599747313,1.140860974804142,5.306399244769376,0.8700932760013205
1730865968.6832635,-1.7513102293014526,0.9668171405792236,-9.831408500671387,-0.27326145705525995,-0.3068901259170228,-10.639386281548498,1.1401075986403246,5.298127880831,0.8114698019852459
1730865968.7332773,-1.7555934190750122,0.9132131338119507,-9.825553894042969,-0.27329083044961355,-0.30738210621399187,-10.639276023559301,1.1386610822793168,5.289030290626991,0.7256744074892044
1730865968.783267,-1.7511773109436035,0.8991687297821045,-9.808719635009766,-0.27332935430454264,-0.3079304404700521,-10.639165881167179,1.1419632372455149,5.284054737122858,0.864812339105088
1730865968.833155,-1.7669599056243896,0.9138646125793457,-9.811017036437988,-0.2733759333087078,-0.308522843669933,-10.639058170100395,1.1409281945214396,5.274340088935627,0.8038688414622885
1730865968.8833268,-1.7647291421890259,0.9623916149139404,-9.817171096801758,-0.2734296705217142,-0.30914535756700146,-10.638954414052648,1.1392052900535865,5.263855557653258,0.7161755911217833
1730865968.9331322,-1.774051547050476,0.9942019581794739,-9.836055755615234,-0.27348991668507705,-0.3097829304951239,-10.638855431038312,1.1434397349605345,5.263537008588437,0.8643758771503932
1730865968.9830694,-1.7563841342926025,1.0308074951171875,-9.850176811218262,-0.273556294285186,-0.3104201966461119,-10.638761535842745,1.1424115376246622,5.254695884796964,0.8041186519080724
1730865969.0331802,-1.7418923377990723,1.052126407623291,-9.863423347473145,-0.2736286363518698,-0.31104221089968365,-10.638672799435467,1.1406829430604146,5.2449714999999015,0.7163943557671345
1730865969.0830772,-1.7634446620941162,1.1164103746414185,-9.859697341918945,-0.2737068556176878,-0.3116350560332984,-10.638589277084783,1.138291231361858,5.234575867880125,0.603111846102611
1730865969.1331055,-1.7613576650619507,1.1499154567718506,-9.857751846313477,-0.2737908712925671,-0.31218640060443165,-10.638511132214214,1.144954996672606,5.240463591080374,0.8613316071499154
1730865969.1830616,-1.7668864727020264,1.152148723602295,-9.854114532470703,-0.27388065017134466,-0.31268600316987055,-10.638438645975167,1.1475792499709818,5.219336893617078,0.8720099497921286
1730865969.2330203,-1.7597706317901611,1.146106243133545,-9.849930763244629,-0.27397626184094215,-0.3131259764322137,-10.638372164939351,1.14712822240871,5.20713335568894,0.8148059515851317
1730865969.2830868,-1.7832831144332886,1.1196283102035522,-9.831854820251465,-0.27407789471301097,-0.3135006995771475,-10.6383120232138,1.1494474266925938,5.191496048336423,0.867376231436983
1730865969.3329446,-1.7911642789840698,1.0579688549041748,-9.824539184570312,-0.27418590198729703,-0.31380643089321403,-10.638258428530165,1.1488363305452116,5.177747986813221,0.8080780455464337
1730865969.3830001,-1.793712854385376,1.0126854181289673,-9.833224296569824,-0.2743009039010593,-0.3140406797011087,-10.638211341575937,1.15329705794587,5.173488204709688,0.8635518123041452
1730865969.432937,-1.7517714500427246,1.0202561616897583,-9.849518775939941,-0.2744238261008388,-0.3142014965055251,-10.638170448458908,1.1532367784541377,5.162225931783659,0.8033388384033966
1730865969.4829564,-1.7517714500427246,1.0202561616897583,-9.849518775939941,-0.2745557482265332,-0.3142869929090985,-10.638135265923157,1.1564518100644117,5.154418873358788,0.8597935334563814
1730865969.4829564,-1.7155946493148804,1.0792349576950073,-9.881749153137207,-0.27469761797839254,-0.3142952736351995,-10.63810531147774,1.1564541807856978,5.154337209532923,0.8594526683588584
1730865969.532836,-1.6973638534545898,1.1483683586120605,-9.885079383850098,-0.2748499569155082,-0.3142247660901589,-10.638080291707091,1.1564424555140964,5.142664355360152,0.7992156110175666
1730865969.5827827,-1.6990910768508911,1.1914793252944946,-9.90003490447998,-0.2750126136891806,-0.31407484949416736,-10.638060288475542,1.1557469899161232,5.13009936178933,0.7119537797207819
1730865969.6338701,-1.7048535346984863,1.1952179670333862,-9.894710540771484,-0.27518464251720065,-0.3138465096978703,-10.638045881214227,1.154310863803124,5.116327354870687,0.5941956542697702
1730865969.6838133,-1.7279154062271118,1.140415906906128,-9.889106750488281,-0.27536437974841416,-0.3135426309923459,-10.638038158861205,1.152236604318213,5.102273818766783,0.4540630499455403
1730865969.7338028,-1.727390170097351,1.0967813730239868,-9.850716590881348,-0.27554966898769895,-0.3131677230858487,-10.638038599105064,1.1588473960601102,5.145051538143033,0.8568624463555827
1730865969.7837937,-1.7448590993881226,1.0502889156341553,-9.854978561401367,-0.2757381163743524,-0.31272722519488627,-10.638048816764412,1.157988073099346,5.1396759202400695,0.7963717513529894
1730865969.8337355,-1.7205950021743774,1.0371060371398926,-9.837763786315918,-0.27592727724825217,-0.3122267361118513,-10.63807028554634,1.1615319554822334,5.131761099941268,0.8512408529828739
1730865969.8838043,-1.7044275999069214,1.004769206047058,-9.838481903076172,-0.2761147016447683,-0.311671431168666,-10.638104153410456,1.1611871125569564,5.123859276549884,0.7901705299720685
1730865969.9337204,-1.6762114763259888,1.0011883974075317,-9.852025985717773,-0.27629781118967167,-0.31106570673522554,-10.638151173025019,1.1601490181740755,5.115152715465226,0.7022517474790384
1730865969.9836867,-1.6579885482788086,0.9812003374099731,-9.872231483459473,-0.276473673267786,-0.31041298866126343,-10.638211756814771,1.1584334213525225,5.10574327428358,0.5886299259448432
1730865970.0337353,-1.6788157224655151,1.0039273500442505,-9.869159698486328,-0.2766388131550035,-0.30971567570433645,-10.6382861446881,1.16459975395479,5.111292974145646,0.8377630208491436
1730865970.0836577,-1.7302862405776978,0.9892690777778625,-9.866273880004883,-0.27678924908137126,-0.3089752208419684,-10.638374562746828,1.1638602039133152,5.104458001535631,0.7750136974670628
1730865970.1336935,-1.7561147212982178,1.0005706548690796,-9.84821891784668,-0.2769208533666249,-0.30819229762463235,-10.638477254812223,1.1660445875616114,5.095637662938903,0.8400211158798249
1730865970.1836424,-1.7367112636566162,1.0267400741577148,-9.844929695129395,-0.27702984503466344,-0.3073669948995801,-10.638594390694362,1.1634469423895717,5.079343763678677,0.8436644974211724
1730865970.2335315,-1.7292639017105103,1.0034098625183105,-9.847564697265625,-0.2771130613122371,-0.30649904262152106,-10.638725945313352,1.1612217249747028,5.066746340619024,0.7850834754965282
1730865970.283596,-1.7082710266113281,1.0320013761520386,-9.856908798217773,-0.27716790505969874,-0.30558801720205325,-10.638871650869092,1.1583078824084543,5.053398460111646,0.7000412542604953
1730865970.3336132,-1.7297741174697876,1.0265306234359741,-9.872505187988281,-0.2771921635775814,-0.3046334843990489,-10.639031060256993,1.154661796149236,5.039137674451481,0.5871759290392601
1730865970.3835676,-1.73284912109375,1.026072382926941,-9.879054069519043,-0.2771839173971754,-0.30363511902540685,-10.639203688186694,1.1608561982711878,5.064630388307413,0.8331233007411069
1730865970.4335475,-1.7507237195968628,1.0402652025222778,-9.899032592773438,-0.27714159913392516,-0.3025927957059927,-10.639389174176168,1.1586955185671668,5.057441057881558,0.7709920190221244
1730865970.4835615,-1.7441734075546265,1.067531943321228,-9.886956214904785,-0.27706411301703404,-0.30150667982769686,-10.639587418561057,1.155861163129739,5.049554502442836,0.6828347958739653
1730865970.5335526,-1.7646288871765137,1.0706843137741089,-9.89332103729248,-0.2769509199582273,-0.30037739343436687,-10.639798641481544,1.1641538222413084,5.05298306104531,0.8349175775481326
1730865970.583584,-1.8092890977859497,1.0768513679504395,-9.85693645477295,-0.276802127574839,-0.2992061943973321,-10.640023323938848,1.163072585467955,5.046948017108431,0.7744837812738414
1730865970.6335008,-1.8451093435287476,1.0780317783355713,-9.835271835327148,-0.2766187093314101,-0.2979950571124117,-10.640262010003793,1.1612887866365373,5.040095354611157,0.6868044033489452
1730865970.6835158,-1.8778879642486572,1.068177342414856,-9.794242858886719,-0.276402851012788,-0.29674664520143856,-10.640514980217233,1.1668018355652099,5.037753858093696,0.8356717800964121
1730865970.7335863,-1.8792659044265747,1.0619271993637085,-9.761591911315918,-0.2761582536632802,-0.2954642048332746,-10.640781857497764,1.1659162504751697,5.030669525532139,0.774399455907108
1730865970.7835293,-1.8781741857528687,1.0342954397201538,-9.767451286315918,-0.27589022902635785,-0.29415138477001757,-10.641061255543688,1.1706465129959265,5.019422252638374,0.8396803946213893
1730865970.8334446,-1.8452465534210205,1.0448501110076904,-9.792409896850586,-0.2756055325943336,-0.29281200984696937,-10.641350637716531,1.1770913534350267,5.006251450719267,0.8455861228758276
1730865970.8834481,-1.7909832000732422,1.0523160696029663,-9.833215713500977,-0.2753119382388916,-0.2914499070093559,-10.64164651578631,1.1787452820009172,4.995162737646779,0.7892671004225614
1730865970.9334626,-1.7380390167236328,1.0403714179992676,-9.891928672790527,-0.2750175762910801,-0.2900688594767101,-10.641944954001971,1.1797241021327756,4.98323421754055,0.7056538329787363
1730865970.9834626,-1.6841381788253784,1.027842402458191,-9.939653396606445,-0.27473013503577215,-0.2886725975370107,-10.642242247670076,1.1800092638062194,4.970661703859127,0.5959934876514635
1730865971.0333781,-1.598343849182129,1.0370818376541138,-9.97574520111084,-0.2744560536481323,-0.28726472544683646,-10.642535619048008,1.1834375902249292,4.992529235232755,0.8343638955446757
1730865971.083417,-1.5712602138519287,1.0332560539245605,-9.993497848510742,-0.2741997671033588,-0.28584864980529656,-10.642823759352074,1.1837465953367923,4.986100804565221,0.7731001105930049
1730865971.133399,-1.550557255744934,1.039259433746338,-9.944525718688965,-0.27396312946193513,-0.28442757899154997,-10.643107059722698,1.184668851578145,4.979117222722274,0.8398697762218554
1730865971.1834455,-1.5575945377349854,1.0153611898422241,-9.915091514587402,-0.27374520332209845,-0.28300453902814166,-10.643387413631634,1.184366537260247,4.970633677635841,0.7803977604272924
1730865971.233443,-1.6128383874893188,0.9890211224555969,-9.859123229980469,-0.2735424750591,-0.28158230345010005,-10.643667640231918,1.1833749140194287,4.961410431539716,0.6939476479630052
1730865971.283348,-1.6128383874893188,0.9890211224555969,-9.859123229980469,-0.27334941939931967,-0.2801632125087241,-10.64395078613374,1.1817140450040302,4.951579746698247,0.5819138982173523
1730865971.283348,-1.700724482536316,0.9786924719810486,-9.800239562988281,-0.2731592517123127,-0.2787489971900369,-10.644239543808078,1.1816990878422806,4.951503660134602,0.580977475002664
1730865971.3333108,-1.7688379287719727,1.0146944522857666,-9.755945205688477,-0.2729647840214821,-0.2773407470588595,-10.644535786111689,1.185599938421452,4.967245928549391,0.8363118181816477
1730865971.3833656,-1.8208271265029907,1.02140212059021,-9.763900756835938,-0.2727593935323888,-0.275939067012714,-10.644840139298065,1.1874210111423762,4.954668001874935,0.8462571022408142
1730865971.433279,-1.8217395544052124,1.0340009927749634,-9.765320777893066,-0.2725378974339486,-0.27454435205055794,-10.645151734559255,1.1869124608780992,4.946414486021695,0.7905550481853341
1730865971.48329,-1.782911777496338,1.0537012815475464,-9.80487060546875,-0.2722969827049726,-0.27315704950511693,-10.645468307709773,1.1894518545152688,4.937823162394439,0.8411587411007333
1730865971.5332751,-1.7525897026062012,1.0612386465072632,-9.85537052154541,-0.27203506410743217,-0.2717778632574235,-10.645786614486935,1.1890022374680749,4.928360021272045,0.7821890080910473
1730865971.5832372,-1.7406247854232788,1.1116029024124146,-9.87990665435791,-0.2717517787216428,-0.27040795128615847,-10.64610304175299,1.1878764735846337,4.918252932099643,0.6968834957573035
1730865971.633259,-1.770524501800537,1.115897536277771,-9.90289306640625,-0.2714475034468717,-0.2690491647515915,-10.646414228234953,1.186062680307311,4.907411151504933,0.5843728397796446
1730865971.683197,-1.7900440692901611,1.1545110940933228,-9.899785995483398,-0.2711231716370852,-0.26770430002901635,-10.64671749486756,1.1917887880343938,4.925575944754001,0.8345175498502083
1730865971.7331789,-1.8505797386169434,1.163799524307251,-9.896068572998047,-0.27078040935101233,-0.26637729089771545,-10.647011017207614,1.1933391646390668,4.914454710041297,0.8446437278487858
1730865971.783353,-1.8653908967971802,1.1624170541763306,-9.862640380859375,-0.2704218592010468,-0.2650732982105361,-10.647293764118773,1.1927186752191505,4.9066424258200545,0.7869949669989895
1730865971.8332534,-1.84821355342865,1.119704008102417,-9.858514785766602,-0.27005146985999573,-0.2637986161270015,-10.647565257961336,1.1914318558585866,4.898257431802277,0.703458173590062
1730865971.8832345,-1.8270213603973389,1.114829421043396,-9.805334091186523,-0.2696744967584943,-0.2625603280777101,-10.647825240254878,1.1894767039108909,4.889221200030863,0.5935541904631041
1730865971.9334147,-1.793975830078125,1.0453251600265503,-9.822367668151855,-0.2692971588458097,-0.26136579101173585,-10.64807332305736,1.1957911692390955,4.899220582052315,0.8338154769210698
1730865971.9832606,-1.7209333181381226,1.0137131214141846,-9.828447341918945,-0.2689260757912729,-0.2602220371395324,-10.648308751778382,1.194932478488594,4.893619112432702,0.7725485843611792
1730865972.0332992,-1.6012029647827148,0.9719731211662292,-9.870986938476562,-0.2685674888390859,-0.2591351429101878,-10.64853043092045,1.1986807247664575,4.883576155106381,0.8397739185029148
1730865972.0832047,-1.5673483610153198,0.9927900433540344,-9.874567985534668,-0.26822624796788325,-0.2581097265903888,-10.648737196145227,1.1983878025340453,4.875005812887332,0.7805493176671566
1730865972.133241,-1.5673483610153198,0.9927900433540344,-9.874567985534668,-0.26790489920375227,-0.25714876568326966,-10.648928123904625,1.201292380074469,4.868320199617989,0.8403360149510818
1730865972.133241,-1.5617990493774414,1.0194441080093384,-9.915316581726074,-0.2676033122408621,-0.2562537432606306,-10.64910272693773,1.201293104153614,4.868271294186186,0.840079062016094
1730865972.1831715,-1.576568603515625,1.0584110021591187,-9.886327743530273,-0.2673188442239357,-0.2554249988127436,-10.649261072615241,1.2010921693027286,4.8592535285157314,0.7812170440647697
1730865972.2332606,-1.631142258644104,1.0728533267974854,-9.91388988494873,-0.2670467882087202,-0.2546621859862097,-10.649403848802828,1.2002204627926143,4.8494823673327545,0.6949677443346026
1730865972.283102,-1.7173388004302979,1.079965353012085,-9.86382007598877,-0.266781072793842,-0.2539647173164036,-10.649532312815968,1.2025532768127642,4.855781613608773,0.8463539008243115
1730865972.3331964,-1.82231605052948,1.1077828407287598,-9.826631546020508,-0.2665152889472021,-0.25333207218540804,-10.649648064078526,1.2017092352744694,4.849546557219973,0.7887080420388656
1730865972.383157,-1.8533849716186523,1.1184059381484985,-9.800682067871094,-0.2662439020389944,-0.25276399907361313,-10.64975262477823,1.2068525692729573,4.839466561016735,0.8444856906566149
1730865972.4330823,-1.8954871892929077,1.0949914455413818,-9.761144638061523,-0.2659632679699876,-0.252260653998814,-10.6498469536706,1.2070838033450748,4.830767476849116,0.7861805553885518
1730865972.4830406,-1.8989217281341553,1.0262970924377441,-9.779446601867676,-0.26567217712101515,-0.25182252414549616,-10.649931080203933,1.206652940396364,4.82148656059383,0.7016969382146411
1730865972.5331557,-1.8536771535873413,1.0082930326461792,-9.78778076171875,-0.26537191526782067,-0.2514500139456217,-10.65000398308871,1.2055453665721831,4.811450521583725,0.5892087125079039
1730865972.5831227,-1.783974289894104,1.004658818244934,-9.84261703491211,-0.265065852244218,-0.2511429068808885,-10.650063779791319,1.2093910796878378,4.82532744390781,0.8360803888106948
1730865972.6330674,-1.783974289894104,1.004658818244934,-9.84261703491211,-0.26475864897612683,-0.2509000503730002,-10.650108158849632,1.2132274024704655,4.804755468835898,0.8457698188902493
1730865972.6330674,-1.7528783082962036,1.0574264526367188,-9.855023384094238,-0.26445544726257253,-0.25071937893464896,-10.650134834392613,1.2132346893326678,4.804676498964762,0.8455293783726453
1730865972.6830595,-1.7219197750091553,1.080628514289856,-9.910914421081543,-0.2641613058577665,-0.2505982250617903,-10.65014187931343,1.2160277293938624,4.790049938245313,0.8584093516151698
1730865972.7331333,-1.7219197750091553,1.080628514289856,-9.910914421081543,-0.26388080908843126,-0.2505337743820828,-10.650128022687806,1.217136625666489,4.775417529775185,0.8084304014211672
1730865972.7331333,-1.704637885093689,1.1132997274398804,-9.919187545776367,-0.2636177849761071,-0.2505234339736387,-10.650092931535058,1.2171411033036097,4.7753310121551165,0.8080629030265618
1730865972.7830756,-1.6880874633789062,1.1303209066390991,-9.951221466064453,-0.263375150736753,-0.25056506238265,-10.650037356234229,1.2175788696633285,4.760270291658418,0.7322376173708414
1730865972.8330402,-1.6880874633789062,1.1303209066390991,-9.951221466064453,-0.2631548264550611,-0.25065715446865466,-10.649963180044184,1.2173643565436143,4.7444429385003835,0.6291447416119982
1730865972.8330402,-1.6892642974853516,1.1353075504302979,-9.929433822631836,-0.2629577026771437,-0.25079894619937027,-10.649873419452371,1.2173613958517742,4.74435538680983,0.6285128799625316
1730865972.8830557,-1.6928538084030151,1.1137971878051758,-9.93874454498291,-0.26278370726979083,-0.25099036977851297,-10.649772078960012,1.216494907953629,4.72804036249107,0.49982693102186193
1730865972.9329422,-1.7044410705566406,1.0738990306854248,-9.894899368286133,-0.2626319558834791,-0.2512318463461297,-10.649663866473668,1.21746352685031,4.781637360805946,0.8531674918173323
1730865972.9829872,-1.7288248538970947,1.0470776557922363,-9.854463577270508,-0.26250096202648443,-0.25152390862572266,-10.649553813204445,1.2167642582804337,4.776575601890859,0.7974162656632898
1730865973.0330038,-1.782965898513794,1.0143132209777832,-9.822835922241211,-0.2623889487689429,-0.2518667301094967,-10.649446770098347,1.2154078600726252,4.7708846978298,0.7150066740236001
1730865973.082945,-1.8363450765609741,1.0109021663665771,-9.767317771911621,-0.2622943236862887,-0.2522597146917639,-10.649346845315998,1.2189919967238867,4.76946433738839,0.8518531329390261
1730865973.132889,-1.8869452476501465,0.9894759058952332,-9.760782241821289,-0.26221628867546853,-0.25270124515936476,-10.649256903542383,1.218296526524358,4.7630323937932735,0.7935222077842526
1730865973.1829495,-1.8473352193832397,1.0347927808761597,-9.739604949951172,-0.2621553713039392,-0.2531886262600624,-10.649178223208434,1.2169444115238135,4.755953004410708,0.7084474844191152
1730865973.232936,-1.816389560699463,1.0465000867843628,-9.774761199951172,-0.2621135516425115,-0.25371826309509643,-10.64911040806974,1.220755181780902,4.756547941686811,0.8510340985761805
1730865973.2828844,-1.783855676651001,1.0769073963165283,-9.79489803314209,-0.26209388356214725,-0.2542860423453427,-10.649051597177436,1.2227622305947694,4.744550483702265,0.8618207686925737
1730865973.3328242,-1.7646828889846802,1.053520679473877,-9.82564926147461,-0.26209988455342825,-0.2548877252758418,-10.648998912413173,1.222335114119125,4.736688530598768,0.8063300358704577
1730865973.3828576,-1.7351040840148926,1.0145779848098755,-9.854711532592773,-0.2621349901024662,-0.25551911740631195,-10.648948997145236,1.2212531965721112,4.7281987387596525,0.7242865069597441
1730865973.432912,-1.7351040840148926,1.0145779848098755,-9.854711532592773,-0.2622021525537952,-0.25617594006078404,-10.648898502707498,1.2195097711223468,4.719040174046668,0.6152544871717281
1730865973.432912,-1.683071255683899,0.9749651551246643,-9.900102615356445,-0.2623035544498399,-0.2568535684962576,-10.648844454951837,1.2194985820121929,4.718989037621496,0.6145939167101167
1730865973.4828544,-1.6453770399093628,0.9578630328178406,-9.910890579223633,-0.2624403328008674,-0.2575467998430542,-10.648784541367586,1.2171177448136463,4.70927635222673,0.48004581247083383
1730865973.532847,-1.649688720703125,0.9565423130989075,-9.945751190185547,-0.26261226235019003,-0.2582496735272377,-10.648717384125275,1.2140674619565457,4.6988582398981755,0.3180972049439369
1730865973.5828483,-1.6442580223083496,0.9954084157943726,-9.940225601196289,-0.2628175620458875,-0.2589554382215531,-10.648642762044856,1.2245654893847946,4.725973219922127,0.8506229902680561
1730865973.632834,-1.6689367294311523,1.0497392416000366,-9.937795639038086,-0.2630529735275321,-0.25965682600293816,-10.648561688981959,1.2235106787150396,4.720993422207499,0.7905476182424349
1730865973.682793,-1.6859419345855713,1.0834542512893677,-9.915569305419922,-0.2633140597647149,-0.2603466262037984,-10.648476295905374,1.2274876710934417,4.716287150367336,0.856219391653017
1730865973.7328548,-1.71327543258667,1.1262437105178833,-9.893120765686035,-0.26359562173528084,-0.26101835207366464,-10.648389537923356,1.226967768787045,4.71069638284681,0.7972551045041409
1730865973.782775,-1.7269731760025024,1.1472166776657104,-9.872698783874512,-0.26389214694218666,-0.26166679529916176,-10.648304803116527,1.2257895773469316,4.7044689868951695,0.7118303605556531
1730865973.8327966,-1.735066294670105,1.1401067972183228,-9.833118438720703,-0.2641981979207356,-0.262288369490029,-10.648225493858416,1.228630950975819,4.695938597386661,0.8519295110510274
1730865973.8827624,-1.717958927154541,1.1496965885162354,-9.815305709838867,-0.2645086579636885,-0.26288119500140406,-10.64815461234989,1.2276594018639546,4.688442584535916,0.7915307468102487
1730865973.9327734,-1.6673269271850586,1.18075430393219,-9.812365531921387,-0.2648187480313619,-0.26344500937244153,-10.648094407301711,1.2306314031930838,4.683272223722521,0.855149103286743
1730865973.9827108,-1.718985915184021,1.200554609298706,-9.816550254821777,-0.2651238429702939,-0.26398110881411313,-10.648046191968554,1.2300337155305707,4.675513907034982,0.7962457143220841
1730865974.032757,-1.777178168296814,1.1863377094268799,-9.796299934387207,-0.2654194136319585,-0.2644923587845922,-10.648010344998687,1.2320445442497565,4.671560475117102,0.855409375011051
1730865974.0837018,-1.8267006874084473,1.1075407266616821,-9.833602905273438,-0.26570140337605086,-0.2649830338004583,-10.647986397407099,1.2313173862864264,4.663742005400018,0.7945796927620178
1730865974.1328225,-1.8129234313964844,1.0744457244873047,-9.833734512329102,-0.26596682907776276,-0.2654582666257323,-10.647973197451089,1.22996466085679,4.655564778035595,0.7098787496164415
1730865974.1827915,-1.7848941087722778,1.034195899963379,-9.854951858520508,-0.2662141084178216,-0.26592324499847175,-10.64796917353935,1.2279360781982203,4.64660996007476,0.5976724453368104
1730865974.2327878,-1.7069191932678223,1.0519814491271973,-9.866008758544922,-0.26644285916571386,-0.2663825366069965,-10.647972614356815,1.2337871755269059,4.657474437380167,0.8497093582706784
1730865974.2827125,-1.7330290079116821,1.0380792617797852,-9.891645431518555,-0.2666533166889369,-0.2668397689946889,-10.647981917526538,1.2328291115070722,4.651524791060905,0.7880425071912607
1730865974.333654,-1.723747968673706,1.0607243776321411,-9.90710735321045,-0.2668457972384011,-0.26729761442721456,-10.64799583100781,1.2349608967230485,4.642961533518145,0.8545492006541535
1730865974.383695,-1.6333900690078735,1.1029419898986816,-9.92292594909668,-0.2670204103746071,-0.267757967330182,-10.648013679129983,1.2340054685214976,4.6353284165093775,0.7942919551712403
1730865974.4336932,-1.7185343503952026,1.0912126302719116,-9.885492324829102,-0.26717682235654616,-0.26822226030656415,-10.648035489593514,1.232383629768145,4.627048950393579,0.7075419125211463
1730865974.4835937,-1.7632367610931396,1.0811116695404053,-9.884361267089844,-0.2673141848546957,-0.2686917529784421,-10.648061912317365,1.2366436659431013,4.628918408464057,0.852116073734707
1730865974.533778,-1.7660847902297974,1.066494345664978,-9.817702293395996,-0.2674315214543903,-0.26916759252520195,-10.64809391923702,1.23565555840716,4.622554577733726,0.790499896294952
1730865974.583637,-1.76335608959198,1.0730304718017578,-9.786660194396973,-0.2675282424840094,-0.26965070091370735,-10.648132346148753,1.2379887876473754,4.613534569387425,0.8552819532917698
1730865974.6336203,-1.755035638809204,1.0663394927978516,-9.755593299865723,-0.26760433946395756,-0.2701416784713429,-10.648177362361038,1.2370996483935035,4.605232776896099,0.7956264376042815
1730865974.683558,-1.7797462940216064,1.05051851272583,-9.727736473083496,-0.26766033611654727,-0.2706407690287864,-10.648228020473299,1.2390093150007055,4.597939693314984,0.8557694886533469
1730865974.7336075,-1.7905184030532837,1.0506978034973145,-9.733460426330566,-0.2676972587171955,-0.2711478166316534,-10.648281999062402,1.2380782213945103,4.588879781746934,0.7963925089336038
1730865974.7834837,-1.7196898460388184,1.0897799730300903,-9.776664733886719,-0.2677166340634235,-0.2716622483422936,-10.648335605895209,1.23920154425354,4.579398053947578,0.8556886614935598
1730865974.8335426,-1.7713710069656372,1.1019127368927002,-9.835098266601562,-0.26772033639170606,-0.2721832220935267,-10.648384140376706,1.2379700759157743,4.570223189191311,0.796103806857122
1730865974.8835092,-1.8028919696807861,1.1387075185775757,-9.852670669555664,-0.26771041425520636,-0.2727099401401443,-10.64842255980148,1.2365718843459594,4.557882673124662,0.8551870284208207
1730865974.9336016,-1.8285831212997437,1.182466745376587,-9.922863006591797,-0.2676892174610296,-0.27324201868525255,-10.648446199342363,1.2343890586024613,4.546934184827691,0.7957940595560946
1730865974.9834633,-1.8077365159988403,1.2220063209533691,-9.935257911682129,-0.2676596954485414,-0.2737798889418351,-10.648451386662423,1.231545924622947,4.5353297009912055,0.7100742510878936
1730865975.0335941,-1.8268399238586426,1.19771409034729,-9.958266258239746,-0.2676255164351709,-0.27432515668064245,-10.648435906128903,1.2280114359179892,4.522955854119869,0.5970418161321462
1730865975.0834959,-1.7553056478500366,1.1827597618103027,-9.942646980285645,-0.26759092991935624,-0.2748806954555866,-10.648399220896948,1.2238089489396538,4.50990720788756,0.4573953739727294
1730865975.1334362,-1.7702215909957886,1.131227731704712,-9.93575382232666,-0.2675604352837342,-0.2754503561808135,-10.648342407398147,1.233426682671225,4.540603703869155,0.8477748889770613
1730865975.1834197,-1.7350672483444214,1.0756663084030151,-9.8892240524292,-0.26753837372548767,-0.27603838844521655,-10.648267853562192,1.2312795386139967,4.534216343033241,0.7854297874516514
1730865975.2334309,-1.6980245113372803,1.014807939529419,-9.849322319030762,-0.26752857579928835,-0.2766487016653655,-10.648178766946778,1.2348576390649237,4.521251501600615,0.8539235604861236
1730865975.2833824,-1.74787175655365,0.9247363805770874,-9.83838939666748,-0.26753409674108475,-0.27728404958398384,-10.648078578577845,1.2335420072815986,4.5109570825582885,0.7944205091178913
1730865975.3333728,-1.7218077182769775,0.9190731048583984,-9.835184097290039,-0.267557130896791,-0.2779452452743313,-10.647970444696785,1.236279228969637,4.5015084894836335,0.8547358412888754
1730865975.3833628,-1.710154414176941,0.9689270853996277,-9.809120178222656,-0.26759910479281496,-0.27863069082433867,-10.6478569771829,1.2352421704434686,4.4901443383204676,0.7953076705544944
1730865975.4333987,-1.6837084293365479,0.9878154993057251,-9.841340065002441,-0.2676607041730508,-0.27933652507469975,-10.647740141900622,1.2373153541178727,4.490860486869218,0.8542388381294661
1730865975.483403,-1.650559425354004,1.0081390142440796,-9.836055755615234,-0.2677417289958272,-0.2800572448023672,-10.647621285524648,1.2362255133454583,4.483036036883727,0.7949594892722437
1730865975.5333564,-1.6746716499328613,1.0141290426254272,-9.857386589050293,-0.26784091217333905,-0.2807863554604496,-10.647501293177655,1.245648245571672,4.477543504650902,0.8544216446455242
1730865975.5833364,-1.6851810216903687,1.004333734512329,-9.852632522583008,-0.2679558964062556,-0.28151681969544223,-10.6473807862597,1.2535690182286467,4.4720700782234974,0.8601687120650221
1730865975.6333683,-1.6851810216903687,1.004333734512329,-9.852632522583008,-0.26808344188055466,-0.28224130074465836,-10.647260264745164,1.2564902843695958,4.464599720725481,0.803312868045021
1730865975.6333683,-1.5812643766403198,1.044628381729126,-9.859695434570312,-0.26821961022799157,-0.2829523130570262,-10.647140173878064,1.256505715601615,4.464552969043903,0.8028930236411433
1730865975.683324,-1.7228114604949951,1.0327458381652832,-9.875347137451172,-0.2683597242560369,-0.2836424376003401,-10.647020950059966,1.2587287256336028,4.456466252666068,0.72028837365579
1730865975.7333395,-1.7228114604949951,1.0327458381652832,-9.875347137451172,-0.2684984902188453,-0.2843045697826445,-10.646903108157986,1.2603111970838194,4.447556221769991,0.6098941031862883
1730865975.7333395,-1.8088876008987427,1.0366780757904053,-9.752493858337402,-0.2686306211459847,-0.284932049131975,-10.646787223641654,1.2603204099788237,4.4474874399851245,0.608974833375158
1730865975.7832942,-1.8492463827133179,1.0879586935043335,-9.823813438415527,-0.2687516628921368,-0.28551873774587666,-10.646673602096245,1.257234865700058,4.456859389689456,0.8571042380091202
1730865975.8332365,-1.8476037979125977,1.0733569860458374,-9.768607139587402,-0.2688586615589855,-0.2860592126828433,-10.646561875188464,1.2574278431217865,4.450607253186397,0.8012766993948791
1730865975.8832293,-1.7965223789215088,1.0459142923355103,-9.815152168273926,-0.2689504539084153,-0.2865489561152005,-10.646450894059026,1.2609001477840491,4.440121785879895,0.8579277505558356
1730865975.933179,-1.7969716787338257,1.0425485372543335,-9.871280670166016,-0.26902744819171104,-0.2869843030848829,-10.646338928662933,1.264201718880744,4.434168797516905,0.8615284472325859
1730865975.9832678,-1.7303887605667114,1.079399585723877,-9.879664421081543,-0.2690910855023124,-0.28736224894855816,-10.646224104807594,1.264847562894308,4.427143219523162,0.8052487343362775
1730865976.0331671,-1.6776671409606934,1.154143214225769,-9.950304985046387,-0.2691432034474914,-0.2876804835859341,-10.646104965902863,1.2648194969681035,4.419412549770257,0.7224674918904409
1730865976.0831647,-1.6643404960632324,1.210000991821289,-9.945380210876465,-0.2691853550969395,-0.2879378252211652,-10.645980969812172,1.266297848944857,4.4155112446437865,0.8510908702108089
1730865976.1330926,-1.6949403285980225,1.204162359237671,-9.977410316467285,-0.2692182949274547,-0.2881348235568125,-10.645852834015464,1.26589100743877,4.4075788365382325,0.790591724342874
1730865976.1830785,-1.715383529663086,1.1504161357879639,-9.959513664245605,-0.2692419027076952,-0.28827405683421436,-10.645722674296007,1.2683920340447128,4.396944696127827,0.8533327751351238
1730865976.2331274,-1.7309974431991577,1.0735752582550049,-9.935346603393555,-0.2692554797271697,-0.2883597992641354,-10.645593902765619,1.2703827958166305,4.390322882909273,0.8557055727256966
1730865976.2831085,-1.751832365989685,1.0295008420944214,-9.867960929870605,-0.2692581335798643,-0.28839716599334453,-10.645470857996592,1.2703708114959376,4.381607866749758,0.7975942252196428
1730865976.333172,-1.7894331216812134,1.0231446027755737,-9.804779052734375,-0.2692491184608973,-0.2883911746078827,-10.645358145732288,1.2696803948541566,4.37210840201639,0.7122771132502089
1730865976.3830342,-1.7807178497314453,0.9962002635002136,-9.770801544189453,-0.2692281430567959,-0.28834611530121135,-10.64525981433253,1.2719468396767548,4.376098454833621,0.844047625510607
1730865976.4331918,-1.7807178497314453,0.9962002635002136,-9.770801544189453,-0.2691955728167541,-0.2882652738738517,-10.645178656477624,1.2711761488957758,4.369314881230632,0.7818501453307982
1730865976.4331918,-1.7861945629119873,0.9779112339019775,-9.746031761169434,-0.2691524450798615,-0.28815084187945383,-10.64511586355734,1.2711682031183074,4.369263938633213,0.7813100226082743
1730865976.4830334,-1.7849152088165283,0.9251965284347534,-9.751386642456055,-0.26910038250890994,-0.2880038613502177,-10.645070980820973,1.2697545450419339,4.361947852363154,0.6945118411296037
