Timestamp,IMU_Linear_Acc_X,IMU_Linear_Acc_Y,IMU_Linear_Acc_Z,Filtered_X,Filtered_Y,Filtered_Z,Pose_X,Pose_Y,Pose_Z
1730865946.8840554,-1.6464816331863403,1.1096014976501465,-9.926274299621582,-0.001641954878984066,-0.0017118419170615274,-0.19006130426363008,0.8793445022837957,3.8318296630061757,0.8989988749267811
1730865946.9339588,-1.6460669040679932,1.1705397367477417,-9.888028144836426,-0.0026398058385943,-0.003175589649203332,-0.29579333709508643,0.8993494676374391,3.831984312977548,0.8989975221683221
1730865946.9839773,-1.5448205471038818,1.3515266180038452,-9.916738510131836,-0.0032744918794606246,-0.004170817029566159,-0.3606306253586452,0.8995710031423885,3.83201167069638,0.8989972004602492
1730865947.0338826,-1.4505513906478882,1.3764179944992065,-9.885746955871582,-0.004010227271872014,-0.00536715692803867,-0.43396163707762847,0.8930209473018796,3.8320948790234293,0.8929897916305316
1730865947.083904,-1.4505513906478882,1.3764179944992065,-9.885746955871582,-0.004852896854790327,-0.006784958325809782,-0.5161033198639946,0.8581956375643802,3.8333019026822575,0.872395865801686
1730865947.083904,-1.483825922012329,1.3574954271316528,-9.83907413482666,-0.005805860665815385,-0.008446007257582565,-0.6073159427638477,0.8575472237502456,3.833324364566008,0.8720115613753867
1730865947.1338828,-1.5220105648040771,1.4168083667755127,-9.791072845458984,-0.00686994163451718,-0.010373116444686692,-0.7078016232727969,0.855114577738394,3.837784764814508,0.8711856485678932
1730865947.1838188,-1.466209888458252,1.5062932968139648,-9.781386375427246,-0.00804390149373061,-0.012589724052974562,-0.8177033675445837,0.823507059604379,3.8422743370510775,0.8505213315908284
1730865947.2339377,-1.6475468873977661,1.4503509998321533,-9.745635986328125,-0.009324974810917796,-0.015119836956706774,-0.9371047215873383,0.7918596535658383,3.8467317054971657,0.8276430436670678
1730865947.2838902,-1.7597566843032837,1.3032793998718262,-9.741059303283691,-0.010709671771854595,-0.01798777947586124,-1.0660301055833334,0.8650028230860587,3.851126987450254,0.8751285615781736
1730865947.3337905,-1.6816997528076172,1.2365984916687012,-9.753911018371582,-0.012194994354041538,-0.02121709672926768,-1.204445787473863,0.872286459570461,3.855379725164586,0.8786474591322502
1730865947.3838024,-1.757475733757019,1.2633165121078491,-9.788309097290039,-0.013779312218155332,-0.024829000611746175,-1.3522614886981414,0.8678833491419988,3.859709779507946,0.870017969943924
1730865947.4338114,-1.9410609006881714,1.2342725992202759,-9.715015411376953,-0.015462677530535795,-0.02884132232497305,-1.5093325135965783,0.8719257684268884,0.43048345287228323,0.8787306377106981
1730865947.4836771,-1.7980672121047974,1.2204742431640625,-9.816902160644531,-0.017247247656109875,-0.033268172240884505,-1.6754621450679066,0.8684653095983015,-0.004817031817631197,0.8696628158583203
1730865947.5337312,-1.7980672121047974,1.2204742431640625,-9.816902160644531,-0.019137533458643895,-0.03811985671278804,-1.8504043436876791,0.8649533744594765,-0.44096977679256405,0.856178701641646
1730865947.5337312,-1.6201061010360718,1.2407430410385132,-9.861479759216309,-0.021139696425296797,-0.04340287502081288,-2.03386690388774,0.8649357832568495,-0.44313984392168404,0.8561000577709358
1730865947.5837328,-1.6417081356048584,1.2559638023376465,-9.932706832885742,-0.023260160756640676,-0.049120100364007546,-2.2255149079526486,0.8737213006177762,0.6101639627815106,0.8774706251003723
1730865947.6336718,-1.4783844947814941,1.2720919847488403,-9.962823867797852,-0.025504239188925765,-0.055271124747488694,-2.424974343208902,0.8726375903725638,0.5378909706816309,0.8659483424092912
1730865947.6836586,-1.4127205610275269,1.249739170074463,-9.95790958404541,-0.027874963393548488,-0.06185261216588647,-2.631835784719215,0.8714867306921266,0.4654434701054212,0.8481001776462137
1730865947.7336457,-1.4345476627349854,1.2176520824432373,-9.960887908935547,-0.030372105589546294,-0.06885848749786545,-2.8456578777128776,0.8711994781400684,0.7532404056209512,0.8747432460772406
1730865947.7836764,-1.4345476627349854,1.2176520824432373,-9.960887908935547,-0.03299172218277195,-0.07627991259266925,-3.0659705504356247,0.8698125494396375,0.7393896833171706,0.8593197147569757
1730865947.7836764,-1.6071974039077759,1.2252144813537598,-9.856568336486816,-0.03572654530629052,-0.08410523083692321,-3.2922780450146596,0.8698057944364078,0.7393237288226826,0.8592285504867737
1730865947.8337014,-1.532752275466919,1.1856809854507446,-9.923158645629883,-0.03856704097821444,-0.09232004358889659,-3.5240617634348403,0.8683341587512982,0.725309592304243,0.8356203028289648
1730865947.8835726,-1.49844229221344,1.2116985321044922,-9.878271102905273,-0.04150241746433865,-0.10090734808321924,-3.7607831314874707,0.8680321150849297,0.8112791319177337,0.8723882773880873
1730865947.9345996,-1.521494746208191,1.106750726699829,-9.946966171264648,-0.044520965718409494,-0.10984761064379422,-4.001886759701561,0.8666331492577528,0.8096771248253124,0.8525695023197133
1730865947.9846032,-1.521235466003418,1.066617727279663,-9.89339542388916,-0.04761003368409561,-0.11911864430395061,-4.24680380844823,0.8692942973011293,0.827861568514419,0.869105443956628
1730865948.034629,-1.6524330377578735,0.9745575785636902,-9.893824577331543,-0.05075628809571019,-0.12869521887221727,-4.494955257924795,0.8702524583071455,0.8348409091354536,0.8694158615402557
1730865948.0845356,-1.6524330377578735,0.9745575785636902,-9.893824577331543,-0.05394642296711284,-0.13854861101575233,-4.745754940291539,0.8701804414753014,0.8362853716616551,0.8460937013391192
1730865948.0845356,-1.714928388595581,0.9513433575630188,-9.833707809448242,-0.05716802864950747,-0.1486464229741672,-4.998612401367396,0.8701796135062422,0.8362929073104367,0.8459201366874782
1730865948.1347377,-1.6118273735046387,0.9223973155021667,-9.884674072265625,-0.06041014523372896,-0.15895276801303607,-5.252935661431863,0.8699642955632452,0.837364728406723,0.8100668817035827
1730865948.1846237,-1.3661701679229736,0.9260615110397339,-9.857068061828613,-0.06366298092548245,-0.16942865581491315,-5.508133952182952,0.8695915938248272,0.8380303064060374,0.7604557098989815
1730865948.2345996,-1.2212275266647339,0.8862243294715881,-9.932165145874023,-0.06691645661696147,-0.1800324239645719,-5.763620548810348,0.8685641474922611,0.8427858803756179,0.8644994725726503
1730865948.2835228,-1.0323896408081055,0.8774198889732361,-9.941996574401855,-0.07015799525202723,-0.19072016485438445,-6.018815694308415,0.8678790679177937,0.8435789445962855,0.8350135957079988
1730865948.3344536,-1.2495695352554321,0.9381879568099976,-9.924843788146973,-0.07337077265671019,-0.20144619115919943,-6.273149451025352,0.8687932379192226,0.8490353770041592,0.8613209527643277
1730865948.3844686,-1.4342632293701172,1.0002256631851196,-9.9284086227417,-0.07653372228654692,-0.2121637699437283,-6.526064214362736,0.8683708493016853,0.8504032193484806,0.82725891861993
1730865948.4344435,-1.6491162776947021,1.1198151111602783,-9.88106918334961,-0.0796236356170529,-0.222826289437529,-6.777016782776277,0.8677614504140776,0.8512140588504414,0.7772380782680566
1730865948.4846096,-1.8150001764297485,1.2128596305847168,-9.911548614501953,-0.08261829404709162,-0.23338874337349075,-7.025480127637228,0.8669368632183643,0.8514642776331838,0.7089426073859173
1730865948.5345068,-1.8747748136520386,1.2866096496582031,-9.855307579040527,-0.08549926811752762,-0.24380926333657976,-7.2709450195911085,0.8664903570477919,0.8536733188111293,0.8534661099076291
1730865948.5845046,-1.8972151279449463,1.2438414096832275,-9.890105247497559,-0.08825365953532967,-0.25405029828275616,-7.512921558111267,0.8618630966817012,0.8580015002579978,0.857496937426358
1730865948.6345894,-1.8699368238449097,1.2726092338562012,-9.829380989074707,-0.09087462184368389,-0.26407908533644053,-7.750940578607343,0.8596349534940584,0.8589676371342307,0.8179418409979675
1730865948.6844258,-1.9649289846420288,1.1705948114395142,-9.842905044555664,-0.0933610392830905,-0.2738674316134526,-7.984554897852579,0.8581839351476529,0.8634094567004826,0.8522299563188324
1730865948.7343395,-1.755480170249939,1.117276906967163,-9.814167976379395,-0.09571685569590374,-0.2833910168183919,-8.213340391462072,0.8560902446059071,0.8644473968018581,0.8088458243628476
1730865948.7843802,-1.648979902267456,1.0715574026107788,-9.870731353759766,-0.09794988852768574,-0.29262840167651644,-8.436897008757498,0.857955685635522,0.8705615837909311,0.8495265968180498
1730865948.8343627,-1.619248390197754,1.0923936367034912,-9.766934394836426,-0.10006996516135805,-0.3015601120743921,-8.654849766052786,0.8567963623118866,0.871959530151718,0.8034074130756635
1730865948.8843756,-1.5719029903411865,1.1600306034088135,-9.814069747924805,-0.10208714377591853,-0.3101682335290659,-8.866849518628868,0.859699149390622,0.8782056131280803,0.8475259834269874
1730865948.9342463,-1.4718180894851685,1.2043366432189941,-9.855443000793457,-0.1040105960777992,-0.31843664034579455,-9.072573532905789,0.8593600663797089,0.8800347141643516,0.7988539256780639
1730865948.9843962,-1.5622344017028809,1.2559999227523804,-9.844598770141602,-0.10584792105407244,-0.3263516037419637,-9.271726176346167,0.8643244052107139,0.8832131688741565,0.8453743165304495
1730865949.0343103,-1.6065484285354614,1.3037285804748535,-9.91126537322998,-0.10760494312729604,-0.33390241701203943,-9.464039690251814,0.8653940088515708,0.8846541113684177,0.7944405425419581
1730865949.084335,-1.6464300155639648,1.3352413177490234,-9.848318099975586,-0.10928621210198064,-0.3410818699804843,-9.649274757355684,0.866199463182508,0.885261982799935,0.7193820782094384
1730865949.1342292,-1.7890230417251587,1.2793657779693604,-9.847938537597656,-0.11089590638327645,-0.34788646619482627,-9.827220695136546,0.8673934471478559,0.8887427640301193,0.8435873841997705
1730865949.1843033,-1.9112098217010498,1.1769911050796509,-9.826825141906738,-0.1124389348895925,-0.35431611880014935,-9.997695239268397,0.8677873842908652,0.8889346716762851,0.7888016784124788
1730865949.2342906,-1.7468112707138062,1.169215440750122,-9.872337341308594,-0.11392202684373837,-0.36037324150777605,-10.160544155256797,0.867899044144042,0.888240202049527,0.7092928733877691
1730865949.2843397,-1.7610691785812378,1.1731765270233154,-9.90518856048584,-0.11535401706974699,-0.36606172205748877,-10.315640993108026,0.8688004597809496,0.8958533152545952,0.8450226064974861
1730865949.3341703,-1.772855281829834,1.1963719129562378,-9.869773864746094,-0.11674517196636673,-0.3713863600963705,-10.462886961284159,0.8688551804428597,0.8964017114575759,0.7880542415253777
1730865949.3842542,-1.7723252773284912,1.1582468748092651,-9.856871604919434,-0.1181064896536593,-0.376352757062488,-10.602210582109397,0.8686160983350267,0.8960169326831763,0.7043593937125652
1730865949.4341888,-1.5951693058013916,1.1924304962158203,-9.84045124053955,-0.11944925954784126,-0.380967290353492,-10.733566947644087,0.8701561105459785,0.894692611191598,0.8466372379179478
1730865949.4842129,-1.4303251504898071,1.1096744537353516,-9.871488571166992,-0.12078414030288327,-0.3852369872346847,-10.856936801257216,0.8700695778952305,0.8923976390477628,0.7868775300234062
1730865949.5342839,-1.4494115114212036,1.127644419670105,-9.831385612487793,-0.12211958978820071,-0.38916926775228,-10.972325680360791,0.866828616137258,0.9132319056112652,0.8517996787288642
1730865949.5842733,-1.374488115310669,1.0864741802215576,-9.847817420959473,-0.12346055168855252,-0.3927716055706553,-11.07976305819924,0.8653201105633008,0.9151523693426434,0.7924403474153717
1730865949.634126,-1.4525998830795288,1.0719263553619385,-9.802490234375,-0.12480805742465306,-0.3960512389794351,-11.179301353899842,0.8638156651293262,0.921327628822436,0.8549290800543626
1730865949.684152,-1.5784028768539429,1.0320987701416016,-9.840079307556152,-0.12615969328054435,-0.39901494002063026,-11.271014841307672,0.8619933167812385,0.9232864927179709,0.7948645275674606
1730865949.734146,-1.5448294878005981,0.9901504516601562,-9.828018188476562,-0.12751072053013027,-0.40166875354259524,-11.35499858678902,0.8635910835428127,0.9272816531171251,0.8533152476314437
1730865949.7841535,-1.495914340019226,0.9905200004577637,-9.897010803222656,-0.1288551929675929,-0.4040177221864255,-11.431367521513055,0.8624629203386824,0.9281811624023367,0.790652845161171
1730865949.8341901,-1.5989469289779663,0.96947181224823,-9.889765739440918,-0.13018645450756633,-0.4060657210997067,-11.500255653295497,0.8634186546290635,0.9346372301728729,0.8521124201178034
1730865949.8841543,-1.5671354532241821,0.9694827198982239,-9.91878890991211,-0.1314973864020955,-0.40781547365703635,-11.561815287331628,0.8631865788956288,0.9351384687908146,0.8537408977239799
1730865949.9341342,-1.4966825246810913,0.9941743016242981,-9.964380264282227,-0.132780728537914,-0.40926871405478826,-11.616216140393071,0.8621917529370521,0.9349984667199415,0.7909123889446668
1730865949.984129,-1.4800490140914917,0.969645619392395,-9.981051445007324,-0.13402907327681704,-0.4104264595873263,-11.663644409751289,0.8608568111299378,0.9338272172391283,0.6985202704943436
1730865950.0342054,-1.459653377532959,1.016774296760559,-9.992463111877441,-0.13523450047455157,-0.41128933102259835,-11.704301817281541,0.8591918197189391,0.9316341304856409,0.5773666166182277
1730865950.0840492,-1.5144121646881104,1.049118995666504,-9.973414421081543,-0.13638836333843782,-0.41185791967599217,-11.738404479600879,0.8649945420203711,0.9284163822014796,0.8370289437903886
1730865950.1340241,-1.6105612516403198,1.0086636543273926,-9.94045639038086,-0.1374815670301568,-0.41213321617261217,-11.76618150346151,0.8645527786503524,0.9241823252748824,0.7685556233839214
1730865950.1840804,-1.5536221265792847,1.06661057472229,-9.94149398803711,-0.13850526788212508,-0.4121169334532249,-11.787873365013136,0.867073470898712,0.9502731459212905,0.8386976223000975
1730865950.2339597,-1.603241205215454,1.065562129020691,-9.964529037475586,-0.13945150523485508,-0.4118116947288457,-11.803730296542312,0.8670017983478043,0.9513202832025104,0.7722222388614479
1730865950.2839465,-1.879683494567871,1.0326447486877441,-9.866992950439453,-0.14031371038570087,-0.41122119944649,-11.814010813717559,0.8665799562952594,0.9513558460630818,0.6752951471465025
1730865950.3339956,-2.0737950801849365,0.9914940595626831,-9.809025764465332,-0.14108792927318078,-0.4103502012761903,-11.818980125239495,0.8705241757021521,0.9503663708160287,0.8330346262317172
1730865950.3840535,-1.8243703842163086,0.9407444000244141,-9.798154830932617,-0.14177460564005073,-0.4092041442703206,-11.818908267927153,0.8705807294572359,0.9483284730712903,0.7639701570212891
1730865950.4339852,-1.6435387134552002,1.0102969408035278,-9.805895805358887,-0.14237897646730333,-0.40778870819170165,-11.814068366347756,0.8746381287790592,0.9719048302896638,0.8337219859208574
1730865950.4839067,-1.5730770826339722,1.1460793018341064,-9.76155948638916,-0.14290921001899712,-0.4061098022936318,-11.80473533565008,0.8754405786129391,0.9746811350011384,0.766738743682286
1730865950.5338778,-1.402429223060608,1.2469379901885986,-9.80485725402832,-0.14337379501496583,-0.4041743708895749,-11.791184860077973,0.8758862875646128,0.9764472434299031,0.6704811639664249
1730865950.5837739,-1.2801685333251953,1.27745521068573,-9.844583511352539,-0.14377944371736537,-0.401991656062878,-11.773692556876039,0.8759747421401992,0.9772125537937121,0.5443476749565267
1730865950.6338754,-1.3144124746322632,1.2810062170028687,-9.876189231872559,-0.1441295637836212,-0.399574120245728,-11.752533445383431,0.8757020886323412,0.9769728281043711,0.3886239715656137
1730865950.6837897,-1.3720238208770752,1.2254197597503662,-9.91110610961914,-0.1444235838703507,-0.3969375908521774,-11.72798161877556,0.8750679175163584,0.9757348253851786,0.20357489401105489
1730865950.7338083,-1.4993278980255127,1.1518988609313965,-9.931300163269043,-0.1446575049740452,-0.3941006778917805,-11.700309886445543,0.8793692110804149,0.9840585092697219,0.8247079946562033
1730865950.78379,-1.6006672382354736,1.0863429307937622,-9.86929702758789,-0.14482537211692775,-0.39108370182686475,-11.669789230531237,0.8795012981521065,0.9845439073428669,0.7550035757099876
1730865950.8337855,-1.81550133228302,1.01986563205719,-9.81452465057373,-0.14492116027312046,-0.3879074481315698,-11.63668788612703,0.8832451315036624,0.990623396937475,0.8343859245749617
1730865950.8837059,-1.9375649690628052,0.9927679896354675,-9.77560806274414,-0.14494083611735128,-0.38459205240867417,-11.601270021934965,0.883848571758356,0.9913755953099995,0.769229834355971
1730865950.9336746,-2.0457820892333984,0.9714118242263794,-9.726194381713867,-0.1448843221062826,-0.381156206720349,-11.563794327164302,0.8840905960830482,0.9911761813901739,0.6756300471484865
1730865950.9836621,-2.0869340896606445,1.0083929300308228,-9.737180709838867,-0.14475689068378134,-0.3776167836452149,-11.52451281176019,0.887441469656,0.9900209125961411,0.831547113504315
1730865951.0336392,-2.0562994480133057,1.051559329032898,-9.758321762084961,-0.144569668764543,-0.3739889178628585,-11.483669981420908,0.8879741661572675,0.9879440626832094,0.7658404220165825
1730865951.083622,-1.9736506938934326,1.1039338111877441,-9.822582244873047,-0.1443391897646128,-0.3702864899226545,-11.441502485794343,0.8881497278553064,0.9849078011930442,0.835463682565353
1730865951.133597,-1.9302725791931152,1.1401413679122925,-9.887577056884766,-0.14408614673939255,-0.3665228116716299,-11.398239214287738,0.8879649249879757,0.9809924823746876,0.7717521066502191
1730865951.1835477,-1.8705997467041016,1.1601102352142334,-9.892549514770508,-0.14383379997532894,-0.3627112594855598,-11.354101625688523,0.9052671320978951,1.0266567457707352,0.8362515261751754
1730865951.233644,-1.852792739868164,1.1702474355697632,-9.919771194458008,-0.14360652033996657,-0.35886568800544827,-11.309303973736268,0.9085164986365999,1.0299539607373533,0.772637433044905
1730865951.2836158,-1.850260853767395,1.1229956150054932,-9.914119720458984,-0.1434286959294806,-0.355000543552164,-11.264053238696297,0.9119084899532622,1.0323461524911364,0.837250828788891
1730865951.3335752,-1.8229795694351196,1.0839333534240723,-9.910886764526367,-0.14332402423015164,-0.3511306202579984,-11.218548832239637,0.9143291488272872,1.0338678931516994,0.7745810415590055
1730865951.3836124,-1.7985893487930298,1.0479875802993774,-9.888747215270996,-0.14331503680167806,-0.34727051327873093,-11.172982166695688,0.9208589206542601,1.0521860465453647,0.837548057667595
1730865951.4335694,-1.7535266876220703,0.9978740811347961,-9.872357368469238,-0.14342264648025627,-0.34343397610668236,-11.127536127937686,0.9290707677535565,1.0564348464482933,0.8439804416492183
1730865951.4836032,-1.7225205898284912,0.9698752164840698,-9.863229751586914,-0.1436656476159499,-0.33963334068724016,-11.082384527555089,0.9335198183684215,1.0593114055256667,0.7844514055750182
1730865951.533507,-1.668954610824585,0.9353963732719421,-9.8529052734375,-0.1440602117487394,-0.3358790507314346,-11.037691632714143,0.9375795195371058,1.0613285676269657,0.6978927043795581
1730865951.583536,-1.6359572410583496,0.9215210676193237,-9.852986335754395,-0.1446194213530005,-0.332179348180504,-10.993611828481292,0.9413043430352309,1.062524307350911,0.5832804772399313
1730865951.6334298,-1.6144894361495972,0.9229671359062195,-9.850465774536133,-0.14535289628231968,-0.32854014790506125,-10.950289412189123,0.9284607030284031,1.062892768460271,0.8328275375012222
1730865951.6834772,-1.6067534685134888,0.9610587358474731,-9.857247352600098,-0.14626660689051835,-0.32496515093685285,-10.90785850360601,0.9286246169687354,1.0624458421649285,0.769059190418658
1730865951.7344527,-1.5976148843765259,1.0084751844406128,-9.867647171020508,-0.147362917558243,-0.32145625523277443,-10.866443060122116,0.9228402325379473,1.061161977525045,0.8377252483238875
1730865951.7843916,-1.6114647388458252,1.0301212072372437,-9.874835968017578,-0.1486408129323052,-0.31801420553790033,-10.826156986295342,0.9210391656429632,1.0590879496781198,0.7761817032495695
1730865951.8344188,-1.5975745916366577,1.018343448638916,-9.889068603515625,-0.1500962387342248,-0.31463923051619147,-10.787104311487418,0.9188671493248914,1.0562252377599368,0.6876779665049484
1730865951.8845086,-1.6075562238693237,0.9683912396430969,-9.893061637878418,-0.15172248061684812,-0.3113313616452826,-10.74937940216605,0.9189573236767012,1.0525889930108963,0.8356305842953677
1730865951.934418,-1.626556634902954,0.905511736869812,-9.897462844848633,-0.15351054509232162,-0.30809029199000465,-10.713067178410503,0.9172423903476319,1.0481761563499952,0.774005376009458
1730865951.9844997,-1.6508206129074097,0.8503293991088867,-9.890620231628418,-0.1554496001345118,-0.3049148710713843,-10.678243300990761,0.9143452980532084,1.042973565106956,0.8393504483298602
1730865952.034278,-1.668717384338379,0.7852784395217896,-9.882685661315918,-0.15752749819462497,-0.3018024680752955,-10.644974307264249,0.911745020235437,1.0370858326826269,0.7801053887727133
1730865952.0843859,-1.668717384338379,0.7852784395217896,-9.882685661315918,-0.15973128433345518,-0.2987484338042431,-10.61331771087698,0.9100199113727806,1.130346742368665,0.8400594935229083
1730865952.0843859,-1.666137456893921,0.7490000128746033,-9.847501754760742,-0.16204756899997627,-0.295745834515872,-10.583322090095354,0.9100073799697032,1.1303760718409699,0.8398435713377609
1730865952.134316,-1.6244356632232666,0.7482098340988159,-9.854060173034668,-0.16446269676410918,-0.292785480728854,-10.555027158761531,0.9071387661424615,1.136249867792295,0.7808435807332359
1730865952.1843207,-1.5937052965164185,0.7874472141265869,-9.882034301757812,-0.16696268457293262,-0.2898561766433769,-10.528463893562263,0.9038337898685896,1.1414424700677717,0.6950570292789187
1730865952.2342668,-1.5707736015319824,0.8576775789260864,-9.910017013549805,-0.16953299045189676,-0.286945253297331,-10.503654887750754,0.9078276387609813,1.1378073683383663,0.846184939977465
1730865952.2842512,-1.587791085243225,0.9232023358345032,-9.935588836669922,-0.17215831163562512,-0.28403946386988865,-10.480614946338608,0.9094578063964183,1.1452610882244587,0.8503806410205558
1730865952.3342435,-1.5839658975601196,0.9715844392776489,-9.951668739318848,-0.17482260180690556,-0.28112606856988653,-10.459351748900097,0.9084374466628381,1.1486151532834052,0.7960751932732228
1730865952.3842833,-1.6285433769226074,0.9795622229576111,-9.949352264404297,-0.1775093253760594,-0.27819378068447864,-10.43986642406179,0.9074182701846052,1.1479030470017255,0.8430282540647238
1730865952.4342704,-1.6731714010238647,0.9589577913284302,-9.931402206420898,-0.18020190073318737,-0.2752333062085473,-10.422153950264578,0.9055422721168987,1.1490347255552271,0.7852150559272473
1730865952.4843504,-1.7608195543289185,0.9085907340049744,-9.892904281616211,-0.18288434727465624,-0.27223737028163186,-10.40620333779337,0.9032075282633187,1.1494836135352693,0.701198274994987
1730865952.5342863,-1.8198007345199585,0.8613375425338745,-9.845653533935547,-0.185542120973814,-0.269200301011421,-10.39199759609659,0.9060826155899736,1.1492576883318615,0.8382150884592885
1730865952.5842535,-1.8743910789489746,0.8098325729370117,-9.812735557556152,-0.18816298343425408,-0.26611736867342434,-10.379513561622202,0.9045037086191249,1.148359539400181,0.778669019588123
1730865952.634168,-1.8814746141433716,0.8248398900032043,-9.78154468536377,-0.1907376606772897,-0.2629841455923159,-10.368721733365874,0.9064132850652519,1.146781876656789,0.8405585592958839
1730865952.6841817,-1.8178749084472656,0.9012826681137085,-9.799697875976562,-0.1932600499769908,-0.25979621837551964,-10.359586280986315,0.9052286439402156,1.1445916337592845,0.7831130975496651
1730865952.7341259,-1.7743693590164185,0.9895063042640686,-9.821540832519531,-0.19572682758672763,-0.2565495243746676,-10.352065359184936,0.905115653768535,1.1833019198385795,0.8413039735465698
1730865952.7841399,-1.7426655292510986,1.0704177618026733,-9.879551887512207,-0.1981366119861983,-0.2532412383356995,-10.34611177950315,0.9035124147447795,1.1868861648041868,0.7838407704503575
1730865952.834016,-1.7173658609390259,1.144403100013733,-9.899643898010254,-0.20048909168908371,-0.24987082385455978,-10.341673944900108,0.9038261037585335,1.1898599678127888,0.8413731650574786
1730865952.884022,-1.7238008975982666,1.201750636100769,-9.902915954589844,-0.2027843970228616,-0.24644091731055,-10.338696805772894,0.9021512138066887,1.1922151794285156,0.7834857765896904
1730865952.9340377,-1.7645459175109863,1.1820310354232788,-9.86949348449707,-0.20502280230744097,-0.24295785668417968,-10.337122559657843,0.9071494064662977,1.2182532719533414,0.842414374453231
1730865952.9839852,-1.83077871799469,1.1543887853622437,-9.82955265045166,-0.20720482295563358,-0.23943167719677944,-10.336890959722755,0.9102621207890529,1.2234127357829443,0.8481720918889399
1730865953.0339887,-1.8594506978988647,1.0799541473388672,-9.79504680633545,-0.2093316580760287,-0.235875505522178,-10.337939311157243,0.9105701907618341,1.2276886510900396,0.7932520717949408
1730865953.0839276,-1.8404059410095215,1.018115758895874,-9.759230613708496,-0.211405669204621,-0.23230450952190035,-10.340202352205528,0.9103542230013499,1.2313638973329604,0.7128888468342888
1730865953.1339393,-1.7897979021072388,0.9865586757659912,-9.764646530151367,-0.21343049190479735,-0.228734696143385,-10.34361221020625,0.9096069758223726,1.234480811243729,0.6063344947939027
1730865953.1840162,-1.698754072189331,1.0258070230484009,-9.786855697631836,-0.21541059449942812,-0.22518193689966173,-10.348098588958198,0.9114307901805554,1.2370301908384282,0.8376712878837675
1730865953.2339149,-1.6195176839828491,1.096706748008728,-9.849236488342285,-0.21735038145375976,-0.22166158245541792,-10.35358930154362,0.9107141032558852,1.239010510139606,0.778176732486091
1730865953.2839737,-1.5690386295318604,1.1863417625427246,-9.894932746887207,-0.2192531253086389,-0.218188764920849,-10.360011139990544,0.909434781359616,1.2404637821931477,0.6916153643996732
1730865953.3338645,-1.5596836805343628,1.2637195587158203,-9.941064834594727,-0.22112010299454177,-0.2147791561353079,-10.367290909325746,0.9111826167801641,1.241355557440267,0.8401400291055122
1730865953.384044,-1.59630286693573,1.3051685094833374,-9.960204124450684,-0.22295023716485657,-0.21144979655295282,-10.375356382062272,0.9100884248204048,1.2417230707067146,0.7806531724614129
1730865953.4338489,-1.6284863948822021,1.3273265361785889,-9.94701862335205,-0.22474031846992457,-0.2082196541354815,-10.384136979658644,0.90845904717749,1.2415662095872009,0.6964910564331124
1730865953.4840422,-1.6553434133529663,1.316172480583191,-9.920696258544922,-0.22648562323520915,-0.20510974255872982,-10.393564074740006,0.9111073664135126,1.2408843730778412,0.8398291791505735
1730865953.5338588,-1.6599690914154053,1.2806527614593506,-9.860176086425781,-0.2281805985157554,-0.20214279696263304,-10.403570905794624,0.913371872704149,1.283628371052303,0.8489657110212142
1730865953.583919,-1.6765570640563965,1.1801283359527588,-9.819402694702148,-0.22981938492779236,-0.19934253543458932,-10.414092196350412,0.9129308085825039,1.2896318872134889,0.7933376333471498
1730865953.6338382,-1.6720153093338013,1.0732054710388184,-9.787087440490723,-0.23139614927533445,-0.19673249639987928,-10.425063662441842,0.9157980558721137,1.2963037209618882,0.8442755177230742
1730865953.6838663,-1.6663193702697754,0.9791675806045532,-9.763050079345703,-0.23290527360654167,-0.19433455844454292,-10.436421623232226,0.9155260346456345,1.302275232021712,0.7863166414814196
1730865953.7339408,-1.6707918643951416,0.9239218235015869,-9.750232696533203,-0.234341431373263,-0.1921674797827675,-10.448102820547444,0.9146715559105538,1.307744474260337,0.7024747708454673
1730865953.7837968,-1.6994575262069702,0.9047927856445312,-9.781537055969238,-0.23569963954587506,-0.19024584243893564,-10.460044465596612,0.9199285871023843,1.312729942149533,0.8402122114954376
1730865953.8338177,-1.7137017250061035,0.9450106620788574,-9.824131965637207,-0.2369754083707717,-0.18857962776959225,-10.472184572354376,0.9199329591655442,1.3172639909982877,0.7804492645972739
1730865953.8838098,-1.7199853658676147,1.0237822532653809,-9.900525093078613,-0.2381649732159281,-0.18717449622035584,-10.484462620581413,0.9255172454824641,1.3152510979024832,0.8428886627243891
1730865953.933771,-1.7121604681015015,1.109671950340271,-9.941783905029297,-0.23926546299634333,-0.18603269963033978,-10.496820453388857,0.9310374529621352,1.3195338904299618,0.848937832846955
1730865953.9838536,-1.7125602960586548,1.1412822008132935,-9.991416931152344,-0.24027491888356856,-0.18515432202276846,-10.509203186651256,0.9329571472708622,1.3234389201928074,0.792762611531617
1730865954.033785,-1.7383090257644653,1.1559922695159912,-9.991555213928223,-0.24119223627445818,-0.1845383749445736,-10.521559900476163,0.9342584731141527,1.3268418550586247,0.7111475108712431
1730865954.0837812,-1.7700742483139038,1.0934906005859375,-9.966474533081055,-0.24201719014250045,-0.18418337423350156,-10.533843956634387,0.9328507639825676,1.3298242685710606,0.8397642887785737
1730865954.1337168,-1.7931220531463623,1.0574482679367065,-9.924484252929688,-0.2427506146643567,-0.18408729905540544,-10.546012870095767,0.9326859029145643,1.3323212683135748,0.7798436259649326
1730865954.1838078,-1.8051255941390991,0.9757516384124756,-9.861323356628418,-0.24339463329491687,-0.1842470894368478,-10.558027789962978,0.9345938960847138,1.3343743840890772,0.8425271872552811
1730865954.233678,-1.8243852853775024,0.909440279006958,-9.807530403137207,-0.2439528026337825,-0.184657930312889,-10.569852745865141,0.9344500009923566,1.335948454722083,0.7839535387484529
1730865954.2837088,-1.831785798072815,0.8526820540428162,-9.77783489227295,-0.24443014623558204,-0.18531250797364093,-10.581453855003382,0.9348919604288499,1.354668612849472,0.8428784721293568
1730865954.3335953,-1.7967559099197388,0.8678164482116699,-9.767488479614258,-0.244833074581341,-0.18620045175825334,-10.592798710150994,0.934160026751992,1.3577607957497961,0.7841897138942839
1730865954.3836603,-1.7605763673782349,0.9291214346885681,-9.799591064453125,-0.2451690963707322,-0.18730826572067355,-10.60385611725475,0.9353103055421598,1.3604072204701134,0.8426729786564829
1730865954.433618,-1.710945725440979,1.0032237768173218,-9.818702697753906,-0.2454462757370502,-0.18861992643086978,-10.61459622060205,0.9343764729750079,1.3625776322483532,0.7833570015117872
1730865954.4836576,-1.7012803554534912,1.053971767425537,-9.838756561279297,-0.2456725792870579,-0.1901179681968312,-10.62499088895856,0.9360112671040384,1.3642841388836269,0.8426038094787391
1730865954.5335536,-1.6881037950515747,1.0379717350006104,-9.849413871765137,-0.24585534500495712,-0.19178458455542885,-10.635014138534657,0.935088368065457,1.3654966298881037,0.7837058951086122
1730865954.5836434,-1.7113316059112549,0.9963055849075317,-9.854170799255371,-0.2460010217240201,-0.193602273672704,-10.644642443795997,0.9368578362450722,1.366272437469669,0.8423215993668806
1730865954.6335702,-1.745736837387085,0.9328804016113281,-9.85682487487793,-0.24611520910996157,-0.19555384628142905,-10.653854908741486,0.9359878828472495,1.366525856804243,0.7830098779092226
1730865954.683587,-1.7479357719421387,0.8603179454803467,-9.831171989440918,-0.2462029298544815,-0.19762195107953062,-10.662633300781913,0.9345068955171516,1.366290497849524,0.6972596284748579
1730865954.733575,-1.7491909265518188,0.843873918056488,-9.839099884033203,-0.24626893643920972,-0.1997884304827193,-10.67096195150215,0.9373897005326457,1.3656092908379125,0.8389441891096496
1730865954.7836032,-1.719849944114685,0.8954249024391174,-9.856204986572266,-0.2463178406367897,-0.2020339051635613,-10.678827620420265,0.9362534706906901,1.3643716687649972,0.7776556055700694
1730865954.8335345,-1.69038987159729,1.013269066810608,-9.893735885620117,-0.2463540018022337,-0.20433800057573512,-10.68621949304369,0.9405450670063653,1.3627353252915193,0.8420977071532159
1730865954.8834958,-1.6407148838043213,1.1782209873199463,-9.94733715057373,-0.24638121692390844,-0.20668040290111292,-10.693129395480938,0.9443160013048588,7.894027267748781,0.848226074634445
1730865954.9335127,-1.5968351364135742,1.3148117065429688,-9.980710983276367,-0.2464022834561736,-0.2090425616351165,-10.699552169060304,0.9453086367818067,9.012475913481408,0.7913139081228276
1730865954.9834745,-1.5788203477859497,1.3853707313537598,-9.986942291259766,-0.24641854611408645,-0.2114095155118625,-10.705486032849135,0.9456844454552259,10.128826865956757,0.7077513136140204
1730865955.0333755,-1.59587824344635,1.345052719116211,-9.986001014709473,-0.24642961216669684,-0.213771146052059,-10.710932721428318,0.9459402508808517,7.318701541303165,0.8392561146521389
1730865955.0834413,-1.6471034288406372,1.241713523864746,-9.92891788482666,-0.24643343008021332,-0.21612231780693683,-10.715897284339523,0.9455173561589207,7.542645509969251,0.7781200495930707
1730865955.1334794,-1.7504501342773438,1.1041513681411743,-9.85863208770752,-0.24642683454179487,-0.21846182228217437,-10.720387511648076,0.9444715953819204,7.766773176462702,0.689753609826429
1730865955.1834555,-1.8304283618927002,0.9711137413978577,-9.74976921081543,-0.24640652425924667,-0.22079051853934142,-10.724412980593923,0.9499615993135349,6.89076053304084,0.8384065776957522
1730865955.2333221,-1.9156988859176636,0.9128645658493042,-9.670672416687012,-0.24637025151193395,-0.22310930280922148,-10.727983834743897,0.9499285865638595,6.9339094588868235,0.7775777793255124
1730865955.2834413,-1.9563443660736084,0.903839647769928,-9.61693286895752,-0.24631789127758058,-0.2254175425489054,-10.731109565684175,0.9492783650171823,6.976984393971213,0.6891952337474444
1730865955.3332965,-1.9563443660736084,0.903839647769928,-9.61693286895752,-0.24625211747263964,-0.22771234042875899,-10.733798137367938,0.9480203146493351,7.019159094903272,0.574794101324363
1730865955.3332965,-1.9662718772888184,0.9583784937858582,-9.625625610351562,-0.24617856175052827,-0.22998855879767638,-10.736055673211585,0.9480126582738923,7.019364068769976,0.5741689202049068
1730865955.3834836,-1.923431158065796,1.0500279664993286,-9.705564498901367,-0.24610552271827477,-0.23223939299964927,-10.737886718371126,0.9566165001342332,6.715586427829692,0.837320998622917
1730865955.4342368,-1.8367159366607666,1.1513241529464722,-9.823517799377441,-0.24604332026403225,-0.2344573951422151,-10.73929503791907,0.9569395348129137,6.719363026696958,0.7772842565017802
1730865955.4842105,-1.7143102884292603,1.2665013074874878,-9.948857307434082,-0.2460032419091363,-0.2366358067622067,-10.740284914353238,0.9613590069457744,6.6740065012104655,0.8430484031901844
1730865955.5342638,-1.5934988260269165,1.3747628927230835,-10.055098533630371,-0.24599608599940873,-0.2387699638684151,-10.740862724028904,0.9621540683431802,6.671454579206615,0.7838090300329711
1730865955.5842412,-1.4835880994796753,1.4298890829086304,-10.111140251159668,-0.24603054270984465,-0.24085853739262103,-10.741038378361953,0.96483845935701,6.656703605395702,0.8427167446625464
1730865955.6342456,-1.443881630897522,1.4316983222961426,-10.103753089904785,-0.24611178330543315,-0.24290432915383164,-10.740826224219827,0.965431476056358,6.652506076465113,0.7831178440488749
1730865955.6842623,-1.4952565431594849,1.3775787353515625,-10.049909591674805,-0.24624066862773492,-0.24491435543982137,-10.7402451490224,0.9675837208859275,6.647861157148386,0.8376123876971158
1730865955.7341847,-1.6399167776107788,1.2702287435531616,-9.953142166137695,-0.24641395879308783,-0.24689912978071654,-10.739317864081173,0.9676433916071863,6.644032202822946,0.7767173946035612
1730865955.7842758,-1.8158236742019653,1.1555479764938354,-9.814238548278809,-0.24662565859144941,-0.24887126738041626,-10.738069526176764,0.9689324903198271,6.638875657043273,0.8309932169607186
1730865955.8341494,-1.987913966178894,1.0372942686080933,-9.684324264526367,-0.24686919768929774,-0.25084370279554746,-10.736525929452055,0.969332352414936,6.636688158374604,0.8324368416476013
1730865955.8841746,-2.1046435832977295,0.9711049795150757,-9.589987754821777,-0.24713981309484945,-0.25282791897275453,-10.734711593712051,0.9687570922021759,6.632546878338779,0.772305808787729
1730865955.9341092,-2.1483964920043945,0.9394667744636536,-9.553539276123047,-0.24743646228175292,-0.2548325799580143,-10.73264818562527,0.9675743617016818,6.6278072312012934,0.6860563330089616
1730865955.9841945,-2.121264934539795,0.9565346837043762,-9.586009979248047,-0.24776279162622167,-0.25686282871118593,-10.730353660798055,0.9657527850782782,6.622359414502148,0.5716403183230101
1730865956.0340698,-2.039263963699341,0.9619608521461487,-9.645097732543945,-0.2481269988791509,-0.25892026537068935,-10.727842293268644,0.9695539774009929,6.6299995717351345,0.8170882289023109
1730865956.0840585,-1.9312196969985962,0.9948458671569824,-9.719782829284668,-0.24854074117439523,-0.26100338682599533,-10.725125461217653,0.9684346515145307,6.626498707095498,0.7535603443853587
1730865956.1340225,-1.8107657432556152,1.0069457292556763,-9.799466133117676,-0.24901743806100574,-0.2631082212195537,-10.72221284887942,0.9666962122690592,6.622348646044342,0.6633648980785535
1730865956.184022,-1.7375962734222412,1.0039891004562378,-9.883305549621582,-0.2495703980164978,-0.2652289600362534,-10.719113747513603,0.9643331043941132,6.617533842283022,0.5462874218656686
1730865956.2339506,-1.6901278495788574,0.9899908900260925,-9.963652610778809,-0.2502112044095027,-0.267358432051677,-10.715838280096557,0.97550710628252,6.623796895489917,0.8132998356052256
1730865956.2840056,-1.6511867046356201,1.0167818069458008,-10.022025108337402,-0.25094864574679554,-0.2694883918626931,-10.712398449167496,0.9753708048614499,6.620413363563828,0.7496513389818268
1730865956.3338845,-1.626352071762085,1.0566904544830322,-10.058816909790039,-0.2517881759830138,-0.27160980862551093,-10.708808900777399,0.9814782525048997,6.628596083249922,0.8202133838719243
1730865956.3839247,-1.6089198589324951,1.1275053024291992,-10.08283519744873,-0.2527317305431241,-0.27371336757931425,-10.705087317961647,0.9819897911582438,6.627559281565588,0.7599571561582998
1730865956.433835,-1.548673152923584,1.161179542541504,-10.08017635345459,-0.2537777281936452,-0.27579018984651515,-10.701254441030787,0.989948706666516,6.6335671278093775,0.8217136855574333
1730865956.4838657,-1.5168516635894775,1.1840696334838867,-10.051786422729492,-0.25492108467920693,-0.2778325507334777,-10.697333752037373,0.9960497383686004,6.637886726799578,0.8328411703440226
1730865956.533793,-1.4813148975372314,1.1318827867507935,-9.987784385681152,-0.25615317565093093,-0.27983429667282433,-10.693350827744112,0.9987698361599325,6.638759436982144,0.7783482884305991
1730865956.5838237,-1.4938756227493286,1.0512200593948364,-9.905617713928223,-0.2574618877937165,-0.28179072487699697,-10.689332360766356,1.000866232449114,6.638933395873015,0.6965533320448133
1730865956.6337664,-1.5253958702087402,0.9455553293228149,-9.82075309753418,-0.25883194406198484,-0.2836978653440319,-10.685304924225559,1.0023010639830574,6.638402158711234,0.5889105367805586
1730865956.683823,-1.6069215536117554,0.8572342395782471,-9.72569751739502,-0.2602456106199683,-0.2855513584371381,-10.681293641683347,1.0010078262032982,6.643668682835971,0.8261436980332068
1730865956.7337284,-1.7038275003433228,0.803158164024353,-9.66273307800293,-0.26168380151163917,-0.28734529901039507,-10.677320941589997,1.0014932535168857,6.643754119449404,0.7657461397436237
1730865956.7837372,-1.8090814352035522,0.8006678223609924,-9.635173797607422,-0.26312748692626575,-0.2890714261174888,-10.673405585615402,1.004638845960689,6.649698152763276,0.8355606217094047
1730865956.8336544,-1.8927173614501953,0.8072279691696167,-9.634767532348633,-0.2645591887746663,-0.2907188878182825,-10.669562162445194,1.0081887802659382,6.6477014513556405,0.8455472551987537
1730865956.883653,-1.9440635442733765,0.8602471947669983,-9.668485641479492,-0.2659642798125425,-0.29227457152273706,-10.665801124614912,1.0090439719457036,6.6466838223974225,0.7905943139743271
1730865956.9336395,-1.9826576709747314,0.9154075980186462,-9.733817100524902,-0.26733186012057675,-0.29372385455274824,-10.662129316170002,1.0092278136191972,6.644940655869157,0.709345853562034
1730865956.9837236,-1.9989776611328125,0.9727869033813477,-9.810914993286133,-0.2686551524134039,-0.29505160843850586,-10.65855089646874,1.0125445810269695,6.643947558880776,0.8407830737672849
1730865957.033659,-1.9968469142913818,1.0430967807769775,-9.891023635864258,-0.26993149120625487,-0.2962432740669892,-10.655068515340439,1.0127544741113703,6.641740622249666,0.7819884910427677
1730865957.083661,-1.9078164100646973,1.1033395528793335,-9.982389450073242,-0.2711619266552209,-0.2972858763731979,-10.651684554305135,1.0122870611055919,6.638757307326177,0.695603833470312
1730865957.1336153,-1.811535358428955,1.1505705118179321,-10.037453651428223,-0.27235033355644467,-0.29816890758941156,-10.648402275033252,1.0163615662372913,6.641110610667212,0.8398997199921144
1730865957.1835968,-1.684177279472351,1.158101201057434,-10.068291664123535,-0.2735020105816721,-0.29888496698026934,-10.645226709681005,1.0162818763833814,6.638720338874783,0.7794630765399204
1730865957.2335598,-1.607757568359375,1.1402833461761475,-10.083259582519531,-0.2746220379134514,-0.2994300125499413,-10.642165136576706,1.0155176483900232,6.635581672344638,0.692411923925541
1730865957.2836456,-1.5794684886932373,1.0847864151000977,-10.054425239562988,-0.2757138383936174,-0.2998031439099513,-10.63922710338583,1.0140650058005207,6.631692167376912,0.5787085404047699
1730865957.3335211,-1.6266781091690063,1.0333889722824097,-10.00820255279541,-0.2767783723088116,-0.3000059601539663,-10.636424033604783,1.0221004440233754,6.627071562507273,0.836966679536254
1730865957.3835816,-1.7076492309570312,0.985153317451477,-9.948284149169922,-0.2778142001183921,-0.30004167384657005,-10.63376847155058,1.0261718035021337,6.621678668047172,0.8474847775669617
1730865957.4335127,-1.7534598112106323,0.9991579055786133,-9.872818946838379,-0.2788182815506753,-0.2999142713390224,-10.631273090044635,1.0267495080987548,6.615546907976178,0.7905379065234449
1730865957.4836228,-1.761965274810791,1.019677996635437,-9.80775260925293,-0.27978701203707335,-0.2996280183478579,-10.628949614910898,1.026628278461938,6.608639721251201,0.7066945785105564
1730865957.5335631,-1.7332777976989746,1.0601274967193604,-9.740081787109375,-0.2807169437758266,-0.2991874287178055,-10.626807800907514,1.0258079452224023,6.601018388065851,0.5967222027660072
1730865957.5835302,-1.7360866069793701,1.0578792095184326,-9.706241607666016,-0.2816049957518529,-0.29859752940581813,-10.624854587276134,1.0242820961140267,6.592628107494959,0.4598649275307935
1730865957.633568,-1.7078824043273926,1.0534155368804932,-9.675688743591309,-0.2824483490627461,-0.29786410965574545,-10.623093542482154,1.0303415311905826,6.583502273847055,0.8351086321696324
1730865957.683474,-1.7233083248138428,1.0290294885635376,-9.678693771362305,-0.2832442875521042,-0.2969937433117734,-10.621524653425299,1.0298101313288957,6.5736389472011245,0.772866839810269
1730865957.733404,-1.7296462059020996,1.0342074632644653,-9.693284034729004,-0.2839901248261247,-0.29599360384021467,-10.620144455253957,1.0349594746062254,6.563058317000634,0.8421385852440882
1730865957.7834828,-1.7782323360443115,1.0552161931991577,-9.738544464111328,-0.28468330159307903,-0.29487126452129153,-10.61894647501977,1.0353615265774965,6.551695169639344,0.7826980205597682
1730865957.833414,-1.8271551132202148,1.1032934188842773,-9.756502151489258,-0.28532170105604604,-0.29363468839131995,-10.617921917505715,1.035051463786637,6.539634278215988,0.6969627716813883
1730865957.8834038,-1.8970963954925537,1.1459044218063354,-9.80887222290039,-0.28590416758549636,-0.29229247804174874,-10.617060447925244,1.0340252327712303,6.526796669820425,0.5843382583737634
1730865957.933347,-1.9201931953430176,1.1988476514816284,-9.833016395568848,-0.286431115596007,-0.29085429534848956,-10.616350950214267,1.0385864881097309,6.513276224044444,0.8370118823075823
1730865957.983341,-1.93211030960083,1.2210768461227417,-9.855461120605469,-0.28690500179674927,-0.2893312921033071,-10.615782196239984,1.038016545778018,6.498983625260026,0.7753369471503344
1730865958.0332818,-1.8952357769012451,1.1917591094970703,-9.863088607788086,-0.2873304397628771,-0.2877363557431195,-10.61534334710868,1.0430627319463786,6.509200635990438,0.8428776408456954
1730865958.0833924,-1.8952357769012451,1.1917591094970703,-9.863088607788086,-0.2877139170287368,-0.28608399805374773,-10.615024238495433,1.0433821731906492,6.502441854112699,0.783301728189134
1730865958.0833924,-1.8420480489730835,1.143674373626709,-9.883455276489258,-0.2880632685448814,-0.28438991655808826,-10.614815498325084,1.0433819582403179,6.502408836353741,0.7829629880821461
1730865958.1332362,-1.7618697881698608,1.129366159439087,-9.8805570602417,-0.28838700743328577,-0.2826704021168993,-10.61470859729418,1.0459492163230326,6.497412423167761,0.8477295491492252
1730865958.1833367,-1.694387674331665,1.115341305732727,-9.905627250671387,-0.28869346063064655,-0.28094174138598893,-10.614695895613362,1.0460284386073404,6.49104167729462,0.7925130252998881
1730865958.2332082,-1.6100733280181885,1.094612956047058,-9.931663513183594,-0.28898976006313076,-0.2792197310596083,-10.614770717290089,1.0453878262018854,6.484007007056559,0.711150309058235
1730865958.2832747,-1.5418109893798828,1.0807050466537476,-9.972339630126953,-0.2892808746676899,-0.27751932406460617,-10.614927506191599,1.0498437551322524,6.476247551569404,0.8417920582305181
1730865958.3331993,-1.499990701675415,1.0729589462280273,-10.015694618225098,-0.2895688245124465,-0.27585435581763706,-10.615162086792148,1.0520424350747195,6.476552772781101,0.8482836847571282
1730865958.383289,-1.4388550519943237,1.0682786703109741,-10.016959190368652,-0.289852163703906,-0.2742373547486868,-10.615471949331846,1.051983004987191,6.469652460722471,0.7915805551808991
1730865958.4332135,-1.4234479665756226,1.0768064260482788,-10.036955833435059,-0.2901257413477306,-0.2726794639723201,-10.615856405445555,1.055292420255414,6.471016015138174,0.8420093876329003
1730865958.4831707,-1.4432932138442993,1.1116139888763428,-10.005428314208984,-0.29038074815331216,-0.2711905001613407,-10.616316514357063,1.0555399521357844,6.46503407026536,0.7826473804432322
1730865958.5341525,-1.5085569620132446,1.1484904289245605,-9.962830543518066,-0.2906051741335316,-0.2697791969459559,-10.616854754340103,1.0550465659226458,6.458273592031308,0.6952309598546502
1730865958.5831633,-1.5824558734893799,1.1850098371505737,-9.87814998626709,-0.2907847512909662,-0.2684536173915488,-10.61747439829404,1.0567739204336846,6.451082622452147,0.8377451177335284
1730865958.6341417,-1.7026240825653076,1.1562330722808838,-9.797066688537598,-0.29090427513858375,-0.2672215637271037,-10.618178595130104,1.0560108992502237,6.442930340452051,0.7758121751814009
1730865958.6841717,-1.8434793949127197,1.0966352224349976,-9.701960563659668,-0.29094917351155924,-0.26609068905140504,-10.618969276112844,1.0545287338233178,6.434264566650904,0.6882972608424429
1730865958.7341104,-1.9647480249404907,1.0394996404647827,-9.635427474975586,-0.29090721771900574,-0.2650681280252579,-10.619846072711294,1.0523246063963998,6.42495354203577,0.5744925124498479
1730865958.7841659,-2.0362460613250732,0.9632866978645325,-9.589738845825195,-0.29077012495952,-0.2641597746274637,-10.620805446155014,1.058424498294794,6.414916815863644,0.834496847500196
1730865958.8331368,-2.0580220222473145,0.9396564364433289,-9.595098495483398,-0.29053466316806464,-0.2633695017821688,-10.621840215804236,1.0574112898438974,6.404478450556426,0.774152779434245
1730865958.8841126,-2.0260348320007324,0.9472898840904236,-9.640368461608887,-0.29020298344102513,-0.26269861511510606,-10.62293962802101,1.0594528759274433,6.3929813164594504,0.8398915510185474
1730865958.9341154,-1.9630955457687378,1.0134309530258179,-9.721592903137207,-0.2897821513827349,-0.2621458001523187,-10.624090014827399,1.0583407925799055,6.381020706190016,0.7802332826051499
1730865958.984118,-1.895137906074524,1.0919886827468872,-9.815616607666016,-0.2892830579620672,-0.26170767018167546,-10.625275953477368,1.0606890902190744,6.3684064547083885,0.8410119402745078
1730865959.0339692,-1.8222602605819702,1.1473636627197266,-9.905097961425781,-0.2887190164604791,-0.2613797554228353,-10.62648170524157,1.059673532221554,6.355170951653034,0.7819722762399267
1730865959.0840662,-1.7455374002456665,1.1361726522445679,-9.956357955932617,-0.2881043279462654,-0.26115751873100024,-10.627692632436919,1.0635121179250346,6.396512515813407,0.8413373865624592
1730865959.1339521,-1.700907826423645,1.1482601165771484,-10.000899314880371,-0.28745298704757416,-0.26103697332078735,-10.628896306375559,1.0631982845319512,6.385344787071551,0.7823042998682158
1730865959.1839936,-1.7207727432250977,1.1174755096435547,-10.020934104919434,-0.28677771017859754,-0.26101481525429937,-10.63008317103597,1.0621616129238263,6.37345323966303,0.6962199955504698
1730865959.233999,-1.7523990869522095,1.134559988975525,-9.988039016723633,-0.2860895164992182,-0.261088282450968,-10.631246763889038,1.064306096737574,6.360975483927416,0.8410259234152937
1730865959.2839696,-1.8286563158035278,1.1376848220825195,-9.950651168823242,-0.28539792862758484,-0.26125498094117133,-10.632383484988488,1.0632318803056862,6.34782998845231,0.781027948381258
1730865959.3339097,-1.8731988668441772,1.1633003950119019,-9.883402824401855,-0.28471161154299224,-0.26151282795385866,-10.63349194635788,1.0664008395900333,6.369683939829433,0.8475398543426579
1730865959.3839538,-1.87714421749115,1.2097761631011963,-9.829784393310547,-0.2840391103681005,-0.26186015758872627,-10.634572062750925,1.068141553469477,6.3667828942494396,0.8554093823764596
1730865959.43391,-1.8527741432189941,1.2444229125976562,-9.779115676879883,-0.28338930134174384,-0.26229598353992123,-10.635624091718652,1.0676153901699608,6.3599927247035275,0.8004412007667631
1730865959.483997,-1.7791498899459839,1.2536530494689941,-9.761033058166504,-0.2827713262185255,-0.2628203284837515,-10.636647817150454,1.0663724089122228,6.352451103651672,0.718056289039614
1730865959.5338774,-1.7433054447174072,1.2289862632751465,-9.7857084274292,-0.2821940574741474,-0.26343439966202414,-10.637642056330387,1.069903376856462,6.344344228614471,0.850150995634677
1730865959.583923,-1.7001326084136963,1.2023404836654663,-9.813427925109863,-0.28166536743754816,-0.2641404371173477,-10.638604609409509,1.0690361581624996,6.3354992392695095,0.7904824023191678
1730865959.6338441,-1.658395528793335,1.1724835634231567,-9.855494499206543,-0.2811914911150061,-0.26494127504567094,-10.6395326047084,1.0716038018622662,6.326044292209689,0.8557472141558303
1730865959.6838272,-1.589672565460205,1.1396898031234741,-9.88569164276123,-0.2807765338822631,-0.2658397898464898,-10.640423042305468,1.0733069876498131,6.315908086442086,0.8610556308032794
1730865959.733828,-1.5081108808517456,1.1046420335769653,-9.922158241271973,-0.28042198315603095,-0.26683836070915734,-10.64127334882448,1.0728496497367583,6.305062065972178,0.8046237575802165
1730865959.7838185,-1.4295170307159424,1.1049782037734985,-9.95274543762207,-0.2801261336688488,-0.267938409636701,-10.642081852665783,1.0716868393923493,6.293541008701849,0.7213984210507515
1730865959.833836,-1.4276865720748901,1.1359474658966064,-9.951932907104492,-0.2798835533983929,-0.26914014955546123,-10.642848132589739,1.0698312455773067,6.281411800597392,0.6120527158151483
1730865959.8838398,-1.4848183393478394,1.1582427024841309,-9.916403770446777,-0.27968495246858754,-0.27044266596791167,-10.643573135322612,1.0737223490211831,6.268599769154765,0.848960627477129
1730865959.9337692,-1.5948827266693115,1.1681678295135498,-9.850994110107422,-0.27951779592001125,-0.2718442469979596,-10.644258922408314,1.0753298043534905,6.228279475256097,0.8591762144532976
1730865959.9839382,-1.7093874216079712,1.1369863748550415,-9.79179573059082,-0.2793676605482884,-0.27334268643517823,-10.644908034139398,1.07452217558,6.212390233580576,0.8017906937876503
1730865960.0338023,-1.8193243741989136,1.1080282926559448,-9.737626075744629,-0.27921999542286924,-0.27493533070303644,-10.64552265582983,1.0770719560841924,6.224675685823919,0.8545064978910625
1730865960.083812,-1.884267807006836,1.1029753684997559,-9.714607238769531,-0.2790618360962963,-0.2766188799514268,-10.646103854843446,1.076323038464951,6.216764247695355,0.7952069875913046
1730865960.1337838,-1.9105286598205566,1.1115912199020386,-9.716594696044922,-0.27888309010454315,-0.2783891790635046,-10.646651103598927,1.0748798518653961,6.208183248893991,0.7095024558128095
1730865960.1837988,-1.9257912635803223,1.116139531135559,-9.744019508361816,-0.2786771952360233,-0.280241197264547,-10.647162199271236,1.0786371523732259,6.1988840232255,0.8501023017509871
1730865960.2337227,-1.9447674751281738,1.1083884239196777,-9.78177261352539,-0.2784412289626743,-0.28216915913213425,-10.647633569763473,1.0777089492875422,6.188882677935809,0.7891141122958897
1730865960.28374,-1.942165493965149,1.0875669717788696,-9.824285507202148,-0.27817571449495504,-0.28416665980590233,-10.648060848995309,1.080378525017859,6.178200004785031,0.8531660693064113
1730865960.3336928,-1.9253342151641846,1.0885087251663208,-9.844911575317383,-0.27788426992309034,-0.28622667706000293,-10.648439544889893,1.0796545892364944,6.166799925698278,0.7937134609816242
1730865960.383695,-1.8715403079986572,1.0781447887420654,-9.8873929977417,-0.2775730739953632,-0.28834154197354095,-10.648765637656245,1.0782356749145643,6.15466657079369,0.7075713470721969
1730865960.4336674,-1.8378441333770752,1.0401469469070435,-9.917705535888672,-0.27725011270576366,-0.29050291941181977,-10.649036060845747,1.0761153981946445,6.141768203712608,0.5944073083300393
1730865960.48365,-1.7672381401062012,1.032460331916809,-9.951805114746094,-0.27692428284308157,-0.2927017371835665,-10.649249103683061,1.084143501693032,6.12828526678093,0.8442474201416739
1730865960.5337403,-1.7021394968032837,1.0370874404907227,-9.975760459899902,-0.2766044501185165,-0.2949280895734395,-10.649404735617605,1.0833821574329827,6.11390699046713,0.7816677818863959
1730865960.5838394,-1.65043306350708,1.073177456855774,-10.0149564743042,-0.2762985169214339,-0.29717129743553883,-10.64950483573476,1.0889630975810052,6.098679021401558,0.84482182513557
1730865960.6337297,-1.6014059782028198,1.14634108543396,-10.020565032958984,-0.2760126037699491,-0.2994202714333831,-10.649553336543566,1.089196594046055,6.082955544845645,0.7840151727969752
1730865960.6836996,-1.5850491523742676,1.22859787940979,-9.987622261047363,-0.275750470296673,-0.3016642141452588,-10.649556213279496,1.0934968907937102,6.066362836875492,0.8417252445055915
1730865960.733647,-1.6096011400222778,1.2526041269302368,-9.945744514465332,-0.27551327172631684,-0.30389352301214495,-10.649521165227016,1.0940348364015275,6.0489900388695155,0.7804327600595872
1730865960.7837098,-1.665219783782959,1.2559261322021484,-9.857342720031738,-0.27529975552146535,-0.3061005304504289,-10.649456931682623,1.0938803984845487,6.030843919874977,0.6923371086367541
1730865960.8336103,-1.7471556663513184,1.2027697563171387,-9.769553184509277,-0.27510693350651716,-0.308279740079042,-10.649372310663187,1.0930383253296425,6.011999038374123,0.577946671470612
1730865960.8836133,-1.8258168697357178,1.1118991374969482,-9.667461395263672,-0.27493111020210975,-0.31042745488229223,-10.649274992466882,1.09625357813233,5.992371859945104,0.8324616697882312
1730865960.9335773,-1.8815194368362427,1.0185134410858154,-9.608986854553223,-0.2747690238021032,-0.31254087351490284,-10.64917039487658,1.095762370438914,5.971999970295754,0.7697613377425565
1730865960.9835758,-1.8734042644500732,0.954424262046814,-9.58102798461914,-0.27461877579064364,-0.3146169071307718,-10.6490607667539,1.0996966228901517,5.950533397224445,0.834341683416785
1730865961.033538,-1.8734042644500732,0.954424262046814,-9.58102798461914,-0.27448027021353794,-0.3166511442500609,-10.648944783674775,1.0995075694234702,5.928675951398936,0.7738516320487706
1730865961.033538,-1.824157476425171,0.9195178747177124,-9.613903045654297,-0.27435511986916983,-0.3186373055926375,-10.648817687456818,1.0995046474422523,5.928553227499309,0.7734450872342199
1730865961.0836797,-1.7324042320251465,0.9404146075248718,-9.695297241210938,-0.2742461234226734,-0.32056718170563014,-10.64867191048235,1.0986274540010088,5.905771671526612,0.6859393432991966
1730865961.133535,-1.6441199779510498,0.9858413338661194,-9.814929962158203,-0.2741563621472457,-0.3224309001242511,-10.64849815809962,1.1009352279202254,1.3773342591228055,0.841623982149949
1730865961.1836119,-1.5686087608337402,1.074684739112854,-9.920032501220703,-0.2740880530520324,-0.32421753908971257,-10.648286883084744,1.1000975437197482,1.0713093746971647,0.7849149941191979
1730865961.2334654,-1.542607307434082,1.151999592781067,-10.003628730773926,-0.27404149665831185,-0.3259161156413539,-10.648029884487768,1.1009992691912542,1.4781429549691265,0.8461589339141742
1730865961.283573,-1.5542049407958984,1.2301385402679443,-10.041191101074219,-0.2740144617448626,-0.32751676414400405,-10.647721637486669,1.0998301962452974,1.3995682098533968,0.7892892182912484
1730865961.3333614,-1.6225168704986572,1.2406723499298096,-10.066964149475098,-0.27400219701936007,-0.32901178808764636,-10.647360083495157,1.0979741411783221,1.3201682839052904,0.7057241157392118
1730865961.3834236,-1.7253564596176147,1.2138913869857788,-10.027120590209961,-0.2739981011127494,-0.3303962578116687,-10.646946820687301,1.0954485449374052,1.2404281359306464,0.5962108586597773
1730865961.4334004,-1.8377536535263062,1.1672279834747314,-9.96264362335205,-0.27399493531953456,-0.3316679647810905,-10.646486714836067,1.1009148226512497,1.5730952893459154,0.8412694187027041
1730865961.4834306,-1.8791604042053223,1.118408203125,-9.90227222442627,-0.2739862589290971,-0.332826835898483,-10.6459870049712,1.099458375705876,1.5579945531920374,0.7803752221297898
1730865961.5334456,-1.8703622817993164,1.049418330192566,-9.87574577331543,-0.2739675676665728,-0.33387408436424987,-10.645456177985217,1.1021406870186727,1.6121031315927574,0.8495315038710108
1730865961.5833516,-1.7904411554336548,0.9940613508224487,-9.860814094543457,-0.2739366773326584,-0.33481129757538153,-10.644903000731059,1.1026792682578759,1.6238035148470964,0.8590849351091495
1730865961.6333067,-1.6464136838912964,0.9628157019615173,-9.86606502532959,-0.27389319223449343,-0.3356395955826055,-10.644335925396097,1.1015995752383798,1.6207880348757597,0.8047711382318816
1730865961.683353,-1.5627888441085815,0.9482263922691345,-9.848698616027832,-0.27383722907242497,-0.33635902426317293,-10.643762824061964,1.0998191913194717,1.6168982261535865,0.7231171734850138
1730865961.7333167,-1.562458872795105,0.9341247081756592,-9.841981887817383,-0.27376797359152294,-0.33696827612059504,-10.643190875162897,1.0973785983112816,1.612217129882774,0.6159489903480184
1730865961.783527,-1.5797141790390015,0.9555282592773438,-9.840194702148438,-0.273682814265836,-0.3374646944844663,-10.642626475079583,1.1024739326615316,1.6300634674086347,0.8464516171146761
1730865961.8334281,-1.656130313873291,1.0449622869491577,-9.828990936279297,-0.27357735561526336,-0.3378445694978901,-10.642075172286209,1.1010053538174573,1.6280450570054052,0.7853393386073659
1730865961.883437,-1.7408385276794434,1.130565881729126,-9.812065124511719,-0.27344612250560585,-0.33810385507677204,-10.641541623877202,1.098826551898913,1.6251461158703013,0.6965367699219618
1730865961.933372,-1.8037424087524414,1.1793253421783447,-9.80042552947998,-0.27328364163129043,-0.3382392333812759,-10.641029527226854,1.0960076213746337,1.6214586905194444,0.5828824758279352
1730865961.9834905,-1.8700915575027466,1.1633671522140503,-9.820185661315918,-0.27308556068839096,-0.3382490781459014,-10.640541558127666,1.1027549834080839,1.6322281156443665,0.8448538858071994
1730865962.0333447,-1.9134926795959473,1.100498914718628,-9.80792236328125,-0.27284954467997097,-0.3381338283434894,-10.64007941233268,1.101289571226012,1.6304049048699372,0.7834726636661946
1730865962.083408,-1.9134926795959473,1.100498914718628,-9.80792236328125,-0.27257584010384367,-0.33789568489454064,-10.639643930395177,1.1030830871159973,1.633381427519917,0.8503002564678682
1730865962.083408,-1.9817607402801514,0.9967160820960999,-9.799867630004883,-0.27226749721178206,-0.33753794652741675,-10.639235194903874,1.103077185328502,1.6333748378568307,0.8500472052980864
1730865962.1332574,-2.009242534637451,0.8998187184333801,-9.762540817260742,-0.2719304186657851,-0.3370641780683448,-10.638852545739336,1.1016720597264993,1.631764812178144,0.7910550513506915
1730865962.1833553,-2.0146119594573975,0.8520634174346924,-9.732019424438477,-0.2715733881645223,-0.3364771942608154,-10.638494474832026,1.1027332395735283,1.6343940432216968,0.8585422347673634
1730865962.2332752,-1.9653370380401611,0.8578269481658936,-9.763777732849121,-0.27120791285587886,-0.33577815188099003,-10.638158452355475,1.102796974593419,1.6350670506177511,0.8606512087002758
1730865962.2832632,-1.8760980367660522,0.9307280778884888,-9.811843872070312,-0.27084761323385453,-0.3349662494839605,-10.637840955527185,1.101350045036134,1.6336951430383002,0.8056873565846603
1730865962.3331802,-1.7786275148391724,1.0387083292007446,-9.875558853149414,-0.2705071100476071,-0.33403924259307166,-10.63753791345584,1.0992330395022138,1.631494168228797,0.7243848571398981
1730865962.3832405,-1.7020138502120972,1.1243410110473633,-9.926508903503418,-0.27020061628915637,-0.3329946057626577,-10.637245456066399,1.096426519281931,1.6284449018894442,0.6159637763362339
1730865962.4332123,-1.6601722240447998,1.1989141702651978,-9.964488983154297,-0.2699406076831812,-0.331830913457023,-10.636960690672472,1.1026860012576123,1.6348068369559687,0.8465329051973631
1730865962.4832904,-1.6342209577560425,1.2611186504364014,-9.975395202636719,-0.26973689384846256,-0.33054901606199183,-10.636682281799715,1.1011487952973116,1.6329786966066673,0.7845350762553376
1730865962.5331616,-1.6342209577560425,1.2611186504364014,-9.975395202636719,-0.2695961913839286,-0.32915280262556984,-10.636410716155442,1.10347588912013,1.6350473493674886,0.851286964533773
1730865962.5331616,-1.622498869895935,1.2675787210464478,-9.962905883789062,-0.26952210641878505,-0.3276494663335919,-10.636148250526595,1.1034705532622113,1.6350400843095323,0.8510385936347281
1730865962.5832772,-1.639206886291504,1.2061913013458252,-9.937066078186035,-0.2695153661507224,-0.3260492595652093,-10.635898620014054,1.102139824087011,1.6332800666858989,0.791516530073404
1730865962.6331246,-1.6860491037368774,1.1449236869812012,-9.880510330200195,-0.2695742224594394,-0.3243648007602543,-10.635666563724392,1.1001608653822137,1.630740009475383,0.7065102408559739
1730865962.6834114,-1.7109571695327759,1.0855287313461304,-9.83228588104248,-0.2696950475502543,-0.322610055081513,-10.635457177532182,1.1045555995335004,1.6356245546083636,0.8561881838953062
1730865962.7330935,-1.709753394126892,1.0741137266159058,-9.788422584533691,-0.2698730152258019,-0.320799258424154,-10.635275166306819,1.1033650093975287,1.634008972428129,0.7988391905119377
1730865962.7832174,-1.6724727153778076,1.0828081369400024,-9.795247077941895,-0.27010258485725447,-0.31894613366585917,-10.635124194733914,1.1059137525498535,1.6316243811726772,0.8589243365366168
1730865962.8330767,-1.6206578016281128,1.0981696844100952,-9.837224006652832,-0.2703775879801693,-0.3170635681956369,-10.635006586095422,1.1049602603842323,1.6283886193265,0.8014241935341323
1730865962.8830912,-1.5427521467208862,1.13316011428833,-9.84755802154541,-0.27069092862122285,-0.31516366744735025,-10.634923475426042,1.10673395085333,1.624464344619022,0.860833568088109
1730865962.933006,-1.5427521467208862,1.13316011428833,-9.84755802154541,-0.27103408860600664,-0.3132579934313809,-10.634875205317257,1.1057118408559221,1.6196978880123283,0.8038946286226271
1730865962.933006,-1.5629488229751587,1.1618047952651978,-9.863628387451172,-0.27139680241244335,-0.31135781490437264,-10.634861649286071,1.105700523613341,1.619655038871133,0.8033107873819849
1730865962.9830446,-1.629149079322815,1.215698003768921,-9.845447540283203,-0.27176723524744684,-0.3094743300959267,-10.63488238057044,1.1040049403563819,1.614131967442869,0.7200569998204417
1730865963.0340078,-1.629149079322815,1.215698003768921,-9.845447540283203,-0.27213263126622234,-0.307618938411616,-10.634936733062595,1.1015723946657416,1.6076869782061434,0.6075796459032972
1730865963.0340078,-1.6967530250549316,1.2590280771255493,-9.838217735290527,-0.2724800957160286,-0.30580351435815856,-10.635023778494181,1.1015570628570301,1.6076493196853807,0.6068846878284201
1730865963.084012,-1.7413307428359985,1.2730633020401,-9.82457160949707,-0.27279731697040566,-0.304040582068667,-10.63514226793376,1.1073925325550962,1.6006244614370386,0.8603621457154659
1730865963.1339903,-1.7646113634109497,1.2583575248718262,-9.81188678741455,-0.27307324572755054,-0.3023433789329482,-10.635290559706444,1.1062061774163914,1.592773504188135,0.8046242264756946
1730865963.1839724,-1.7786732912063599,1.2127102613449097,-9.802888870239258,-0.2732986376002726,-0.3007257105546751,-10.635466526053257,1.1081924944388957,1.5842065345356784,0.860491137653669
1730865963.233917,-1.8130278587341309,1.14822256565094,-9.807696342468262,-0.27346634603065234,-0.2992014621613684,-10.635667481948241,1.1070588331732845,1.5748989447871147,0.802901951811882
1730865963.2838762,-1.809478998184204,1.100132703781128,-9.810400009155273,-0.2735714423382748,-0.29778382420423793,-10.635890197955177,1.105238316053811,1.5648040327951815,0.718541204710335
1730865963.333905,-1.797210454940796,1.1131501197814941,-9.829365730285645,-0.27361120752586426,-0.29648450968355683,-10.636131014901602,1.109238240788039,1.5540712395819054,0.8543146057588787
1730865963.383851,-1.7991148233413696,1.125964879989624,-9.836786270141602,-0.2735849427511329,-0.29531331171924013,-10.636386037932944,1.108032767814624,1.5424951488810703,0.7937776732744238
1730865963.4338167,-1.7826963663101196,1.1695894002914429,-9.845488548278809,-0.2734936548249127,-0.2942781422471449,-10.636651358274733,1.1101885860236214,1.5302925804517982,0.8523071997318695
1730865963.4838102,-1.7767739295959473,1.2048052549362183,-9.856528282165527,-0.2733397235824164,-0.2933854175388506,-10.636923244733355,1.1090830403833436,1.5172321097680075,0.7915113473852375
1730865963.5337822,-1.8129676580429077,1.1983704566955566,-9.851751327514648,-0.27312662237112373,-0.29264055031870273,-10.637198280340478,1.1110201629453698,5.781442490237596,0.8474518366163464
1730865963.5838563,-1.865580439567566,1.1427628993988037,-9.82577133178711,-0.27285883600792893,-0.2920482455905532,-10.637473407378346,1.1099431588405886,5.7780077458475505,0.7870073754883369
1730865963.633715,-1.881205439567566,1.0834192037582397,-9.824111938476562,-0.27254205113959273,-0.29161234815789433,-10.637745832944853,1.1081120642437685,5.773667272174678,0.6963492012215826
1730865963.68373,-1.881205439567566,1.0834192037582397,-9.824111938476562,-0.2721834029166157,-0.2913353367421553,-10.638012867125079,1.1120693064762444,5.768875122513219,0.8463734820588714
1730865963.68373,-1.863053321838379,1.0553536415100098,-9.826824188232422,-0.2717914881624025,-0.29121786133167693,-10.638271835165206,1.1120634498274844,5.7688384897893705,0.8460466945868689
1730865963.7337158,-1.8265241384506226,1.0528087615966797,-9.850543975830078,-0.27137607011548326,-0.2912585544837445,-10.638520110363958,1.1108485894440685,5.763069707452185,0.7841216235334811
1730865963.7837036,-1.7715882062911987,1.0776413679122925,-9.877630233764648,-0.27094753854851905,-0.2914540691448598,-10.63875526404734,1.1090262214976505,5.756833579266297,0.6989546793185127
1730865963.8336518,-1.7354477643966675,1.0973707437515259,-9.941924095153809,-0.27051621056442915,-0.29179931832948774,-10.638975362051221,1.1133293562786248,5.931816885808884,0.8553779553883022
1730865963.8837056,-1.689695954322815,1.1317925453186035,-9.966397285461426,-0.2700916095160588,-0.29228790937918103,-10.639179405677208,1.112254033016959,5.925965340682698,0.7981096861316505
1730865963.9335935,-1.689695954322815,1.1317925453186035,-9.966397285461426,-0.2696818823330062,-0.2929126456537291,-10.639367761786826,1.1105168735094777,5.919434633699404,0.7148729113963244
1730865963.9335935,-1.6389662027359009,1.1293141841888428,-9.971222877502441,-0.2692934348718255,-0.2936659237657547,-10.639542349661319,1.1105065045471274,5.919400137652588,0.7143902782443354
1730865963.9836588,-1.6623183488845825,1.1505361795425415,-9.938908576965332,-0.26893075280244105,-0.2945399532195482,-10.639706522163399,1.1137592246791954,5.912116071262198,0.8565025369998107
1730865964.0335605,-1.685981035232544,1.114296793937683,-9.907242774963379,-0.26859641876969526,-0.2955268575451666,-10.639864715081728,1.1125188176038476,5.903840003789055,0.7990196137729992
1730865964.0836053,-1.7127622365951538,1.098321795463562,-9.828071594238281,-0.2682914102056822,-0.29661866375750245,-10.64002188872346,1.114146718111762,5.895308873524258,0.8619294353486215
1730865964.1335196,-1.7381293773651123,1.0863145589828491,-9.812661170959473,-0.2680156028017725,-0.2978071473008717,-10.64018280574114,1.1129100946752395,5.885748030836589,0.80572803525499
1730865964.1835907,-1.7394286394119263,1.1070185899734497,-9.751754760742188,-0.26776826853528407,-0.2990836746112597,-10.640351319033154,1.114480057718327,5.911763966752295,0.8680869046473025
1730865964.2335656,-1.7783422470092773,1.099996566772461,-9.74980354309082,-0.2675484567741146,-0.3004392134959882,-10.64052983920888,1.1132135217045185,5.903796922944601,0.8124408709930665
1730865964.2834716,-1.775434136390686,1.1180026531219482,-9.734968185424805,-0.2673552861046776,-0.30186448256300286,-10.640719040162152,1.1112795850811439,5.895088334491741,0.7302501784494376
1730865964.3334875,-1.775434136390686,1.1180026531219482,-9.734968185424805,-0.26718815857021533,-0.3033501308849521,-10.640917808383522,1.1142660534361104,5.885646776760691,0.8699670144157001
1730865964.3334875,-1.7961090803146362,1.0978853702545166,-9.74190616607666,-0.2670468551288358,-0.3048868777655146,-10.641123383245027,1.1142581027408918,5.885578546827703,0.8696532646575376
1730865964.3834748,-1.8024729490280151,1.096219539642334,-9.761283874511719,-0.26693157242895327,-0.30646554741257087,-10.641331620289565,1.1127848836309673,5.875406461703865,0.811383149631202
1730865964.4334664,-1.8024729490280151,1.096219539642334,-9.761283874511719,-0.26684297566425497,-0.3080770189713164,-10.641537340255992,1.1149332108464027,5.893163617077759,0.8875216252075736
1730865964.4334664,-1.8615046739578247,1.0873790979385376,-9.789366722106934,-0.26678226690318096,-0.30971219734221467,-10.641734701774032,1.1149267396962073,5.893119533152124,0.8872406404925717
1730865964.4834557,-1.8906596899032593,1.113863468170166,-9.796687126159668,-0.2667513536032399,-0.3113620502558705,-10.64191755792865,1.1136919081237056,5.886588590511574,0.8347980666921203
1730865964.533443,-1.8906596899032593,1.113863468170166,-9.796687126159668,-0.2667531304403651,-0.31301772209520445,-10.642079778056502,1.1117917325406017,5.879270721416152,0.7558066416403746
1730865964.533443,-1.8843986988067627,1.1354656219482422,-9.818350791931152,-0.26679163928989924,-0.31467071780219846,-10.642215489228128,1.1117795586331944,5.879228707965821,0.7553036129434425
1730865964.5834439,-1.8520234823226929,1.1645499467849731,-9.829914093017578,-0.2668719307017666,-0.31631312014909635,-10.642319261771153,1.1092192212236287,5.871145390087245,0.6499889331700907
1730865964.6334517,-1.8085271120071411,1.176212191581726,-9.861815452575684,-0.26699966134662234,-0.3179378361128612,-10.642386318741895,1.1153746924165049,5.862242550677915,0.891151055648042
1730865964.6834452,-1.7181299924850464,1.1627516746520996,-9.876137733459473,-0.2671804695057675,-0.31953880931987705,-10.642412783198393,1.1141121788353514,5.8525386256140965,0.8369934715505435
1730865964.7333987,-1.6924563646316528,1.1392431259155273,-9.905946731567383,-0.2674191714733759,-0.3211110446746954,-10.642395923492362,1.115951518436196,5.841832226701019,0.8880480232769935
1730865964.7834475,-1.6710063219070435,1.1597439050674438,-9.915834426879883,-0.26771900612749033,-0.3226504318130623,-10.64233435674463,1.1147729720151487,5.830644719771965,0.8316309554134768
1730865964.8333828,-1.6623401641845703,1.1732234954833984,-9.910504341125488,-0.26808120731010915,-0.3241535791747202,-10.642228159904267,1.1128708369457763,5.818269165212583,0.7461605533129245
1730865964.8834436,-1.664509892463684,1.188157320022583,-9.918722152709961,-0.2685049326005618,-0.3256178216220379,-10.6420788368239,1.1103872041460876,5.805587614358495,0.638020030496876
1730865964.933397,-1.6572636365890503,1.1673773527145386,-9.908549308776855,-0.26898740040628966,-0.3270413046317081,-10.64188916519915,1.1162963041346865,5.79190282415998,0.8760667079697775
1730865964.9834638,-1.6591688394546509,1.130024790763855,-9.90406608581543,-0.2695241131343413,-0.32842292647284227,-10.641662989654444,1.1148937718586722,5.777231246649981,0.8139329440251344
1730865965.0333724,-1.6591688394546509,1.130024790763855,-9.90406608581543,-0.2701091000753558,-0.3297620616404992,-10.641404991853381,1.1173098934818753,5.7619284365574615,0.8770451799826032
1730865965.0333724,-1.6374982595443726,1.1253414154052734,-9.897210121154785,-0.2707351430781932,-0.33105823501807186,-10.641120469697842,1.1173037384814302,5.761807240505676,0.8766838855093023
1730865965.0834715,-1.6542800664901733,1.1127800941467285,-9.890379905700684,-0.27139395762758545,-0.3323109302611501,-10.640815143256711,1.1182373801464194,5.818743430582658,0.8866226908641054
1730865965.1333466,-1.6624219417572021,1.1077226400375366,-9.87459659576416,-0.2720763787817607,-0.33351950116124707,-10.64049495823887,1.117317443560458,5.8076283793063075,0.8333651729280755
1730865965.183495,-1.6803877353668213,1.1172305345535278,-9.872438430786133,-0.27277264011371655,-0.33468311333469125,-10.640165872828893,1.1157068383868396,5.795592758547131,0.7530041387274449
1730865965.2333581,-1.6803877353668213,1.1172305345535278,-9.872438430786133,-0.27347271451651456,-0.335800749894709,-10.6398336698806,1.1185157619965083,5.782801592355713,0.8734769204838084
1730865965.2333581,-1.6642932891845703,1.1443051099777222,-9.851571083068848,-0.2741665897811955,-0.3368713082989907,-10.639503826657203,1.1185109207164774,5.782734063723896,0.8732382639240627
1730865965.2835011,-1.676072597503662,1.1518168449401855,-9.866317749023438,-0.2748444060818966,-0.3378937724499059,-10.639181414338237,1.1172197446395868,5.769095166362642,0.81322618753699
1730865965.3333554,-1.688549518585205,1.173169493675232,-9.839729309082031,-0.27549653507127325,-0.3388674259672549,-10.638871012967595,1.1193228490295695,5.754656919796657,0.8815827629584031
1730865965.3832452,-1.7406500577926636,1.1670211553573608,-9.839791297912598,-0.27611376456343334,-0.33979203897968135,-10.6385766367209,1.1182113686044266,5.739316404837363,0.8265111461679282
1730865965.4331973,-1.7592371702194214,1.1434805393218994,-9.807424545288086,-0.2766876578443731,-0.3406679357338606,-10.638301627839443,1.1200751616394984,5.781647810728736,0.8770520114121165
1730865965.4832108,-1.7919294834136963,1.1425443887710571,-9.786770820617676,-0.2772109880894648,-0.3414958874668077,-10.638048493641392,1.118977620070669,5.774043785680142,0.819066961054759
1730865965.5332005,-1.8289555311203003,1.1339582204818726,-9.734051704406738,-0.2776781142049197,-0.34227691052246156,-10.63781867367579,1.1171894672948284,5.765598762765805,0.7346275836471061
1730865965.5832748,-1.906752586364746,1.1017496585845947,-9.722082138061523,-0.2780853280126747,-0.34301207807479517,-10.637612245833385,1.1204525504686096,5.756241331827277,0.8700771298427765
1730865965.6332035,-1.9440362453460693,1.0649313926696777,-9.711519241333008,-0.27843128250163485,-0.34370229504058286,-10.637427680917042,1.1191378199793247,5.746109173120009,0.809685625352402
1730865965.6832056,-1.954621434211731,1.0486096143722534,-9.747272491455078,-0.278717406692222,-0.344347976558552,-10.637261816087234,1.1180874629675066,5.735061598546382,0.8721570734487439
1730865965.733109,-1.9300211668014526,1.0519165992736816,-9.785317420959473,-0.2789480284694782,-0.3449487561792592,-10.637110147466977,1.1158226647784097,5.7229424116416245,0.8113388964488656
1730865965.7832572,-1.8917458057403564,1.0662336349487305,-9.863221168518066,-0.2791300502745543,-0.3455034017304582,-10.63696743253075,1.1129465589385878,5.710379586271757,0.7263610963111939
1730865965.8331983,-1.8261340856552124,1.0515388250350952,-9.917787551879883,-0.2792722436024107,-0.34600994465100865,-10.636828515514221,1.1093444533121506,5.696802078938305,0.6140403948417452
1730865965.8832433,-1.7325536012649536,1.0188775062561035,-9.973783493041992,-0.27938427558391965,-0.34646582841730744,-10.63668921185817,1.1159661801875764,5.682321218987107,0.8659474323853594
1730865965.9331484,-1.6438817977905273,1.0134690999984741,-9.997303009033203,-0.27947554267740815,-0.34686790456550576,-10.636547044829445,1.1139169682589163,5.666992334972009,0.804259655512156
1730865965.9832146,-1.6068297624588013,1.0392526388168335,-10.010113716125488,-0.27955398180379365,-0.3472123738485019,-10.63640168465613,1.1142715731128956,5.650728301906095,0.8710534468481118
1730865966.0331244,-1.5930547714233398,1.1113393306732178,-9.983500480651855,-0.2796251826066344,-0.3474949572300951,-10.636255030530986,1.1119440657692445,5.6336592510116414,0.8115004492546943
1730865966.0831685,-1.6152253150939941,1.2080261707305908,-9.939994812011719,-0.2796920462204898,-0.3477114886597554,-10.636110922033817,1.1123187140442876,5.69039324610953,0.8711023310585997
1730865966.1329873,-1.6628810167312622,1.2549554109573364,-9.904179573059082,-0.27975499420385463,-0.3478588499939954,-10.635974534440242,1.1098782498507218,5.679488930277457,0.8119834898301705
1730865966.183079,-1.7237470149993896,1.2498868703842163,-9.840123176574707,-0.27981260300195143,-0.34793585593719506,-10.635851606161692,1.1067221858435892,5.667640647592459,0.725892893867543
1730865966.232996,-1.7237470149993896,1.2498868703842163,-9.840123176574707,-0.27986244589595843,-0.3479436626675315,-10.635747674194594,1.1106218145166311,5.654965609529352,0.8675938136823278
1730865966.232996,-1.7540323734283447,1.1959750652313232,-9.810408592224121,-0.27990182470877345,-0.347885619228935,-10.635667488029721,1.1106135509484956,5.654909616439885,0.8673910198852182
1730865966.282932,-1.7540323734283447,1.1959750652313232,-9.810408592224121,-0.2799282196006837,-0.34776676423981645,-10.635614689405166,1.1119817105343954,5.641433433871096,0.8826980851977059
1730865966.282932,-1.7761001586914062,1.1373709440231323,-9.77637004852295,-0.2799395376087327,-0.3475931982219272,-10.635591672342393,1.1119763768303823,5.641362004358389,0.8824985754439999
1730865966.3329697,-1.7739691734313965,1.080772876739502,-9.734260559082031,-0.2799342682635977,-0.34737142794494374,-10.635599459058476,1.1105833510849943,5.626958002631962,0.8301861446351926
1730865966.3838212,-1.7739691734313965,1.080772876739502,-9.734260559082031,-0.27991156196976996,-0.34710768948407,-10.635637515699095,1.1128054298989505,5.646035053558417,0.8817639844026733
1730865966.3838212,-1.7863746881484985,1.0190056562423706,-9.72805404663086,-0.2798712296942214,-0.3468073705934177,-10.635703621351835,1.1128019100253044,5.645996985128867,0.8815899678061568
1730865966.4338863,-1.7863746881484985,1.0190056562423706,-9.72805404663086,-0.2798137128364874,-0.34647462141229085,-10.6357939289472,1.1116210590593014,5.636576793980974,0.8272094230045821
1730865966.4338863,-1.763444423675537,0.9958710074424744,-9.702902793884277,-0.2797400376086407,-0.34611211062137426,-10.63590314889902,1.111578871860245,5.636306386329013,0.8253455370763566
1730865966.4838243,-1.763444423675537,0.9958710074424744,-9.702902793884277,-0.27965168667715906,-0.34572093486108463,-10.636024706442466,1.109741361679572,5.626284121504843,0.7462484736865598
1730865966.4838243,-1.7485802173614502,0.980993390083313,-9.72205638885498,-0.2795503960530479,-0.34530067226491135,-10.636150883137212,1.1097317514758316,5.626237900569295,0.7458421577365959
1730865966.5338418,-1.7485802173614502,0.980993390083313,-9.72205638885498,-0.2794379688343731,-0.3448495039406994,-10.63627305765285,1.1137165052842521,5.6151088373519205,0.8834721859839715
1730865966.5338418,-1.7739217281341553,0.9647471904754639,-9.749009132385254,-0.27931617331676484,-0.3443643565362188,-10.636382052559053,1.113713198424972,5.61505982037667,0.8833083948812944
1730865966.5839176,-1.776928424835205,1.0090956687927246,-9.792386054992676,-0.2791867743815016,-0.34384108429166005,-10.636468540689322,1.1125832477585786,5.603054698328953,0.8313316590564688
1730865966.6337254,-1.776928424835205,1.0090956687927246,-9.792386054992676,-0.27905165295959444,-0.34327476994647915,-10.636523511270553,1.1146541830964394,5.5902181897654755,0.883789067538169
1730865966.6337254,-1.7719019651412964,1.0469619035720825,-9.85647201538086,-0.2789128736848929,-0.3426601491997544,-10.636538737215337,1.1146507856748082,5.5901506392665965,0.883585932062994
1730865966.6840096,-1.742720127105713,1.0767850875854492,-9.918389320373535,-0.2787726254429524,-0.3419920718248146,-10.636507245283394,1.1136283197832735,5.576379247213859,0.8300574337397736
1730865966.733826,-1.7308605909347534,1.0838773250579834,-9.983128547668457,-0.27863303894033953,-0.3412659452009265,-10.636423903652503,1.115783992039784,5.603779872575145,0.8828356563851245
1730865966.7839155,-1.7244657278060913,1.1198302507400513,-10.016728401184082,-0.2784959475348769,-0.3404781045432633,-10.636286063722942,1.1148903814161015,5.596859089650644,0.8288903417459176
1730865966.8337839,-1.7244657278060913,1.1198302507400513,-10.016728401184082,-0.27836271422832626,-0.33962607282728496,-10.636093999821389,1.1165201562232414,5.589142869030493,0.8757556466748339
1730865966.8337839,-1.6922295093536377,1.1217204332351685,-10.01152515411377,-0.2782341537469154,-0.33870870845667356,-10.635850962363067,1.1165168698139631,5.589106199406271,0.8755570695165101
1730865966.8839517,-1.6949405670166016,1.091368556022644,-10.003122329711914,-0.2781104577542154,-0.33772618327570364,-10.635562873604695,1.115426931508476,5.580455795008032,0.8175312417468692
1730865966.9338105,-1.6949405670166016,1.091368556022644,-10.003122329711914,-0.277991116040499,-0.33667976711481223,-10.635237853516259,1.1176997956630237,5.571101811548204,0.8803038184669886
1730865966.9338105,-1.6541407108306885,1.079060673713684,-9.937772750854492,-0.2778748902850604,-0.3355715305218552,-10.634885691932555,1.1176966943301136,5.571049413600572,0.8800847694232382
1730865966.9837117,-1.6971153020858765,1.0559735298156738,-9.882655143737793,-0.2777598119610567,-0.3344040780066723,-10.63451717851914,1.1167663702989543,5.560787127110342,0.8256212711253014
1730865967.0336804,-1.6971153020858765,1.0559735298156738,-9.882655143737793,-0.27764325472509854,-0.333180310304333,-10.634143277347507,1.119949187785106,5.551257589514086,0.8825628972407639
1730865967.0336804,-1.7184339761734009,1.0200108289718628,-9.829143524169922,-0.27752217263727996,-0.33190319375443245,-10.633774395898872,1.119949288587871,5.551218037005645,0.8823938044993269
1730865967.0837424,-1.7796587944030762,0.9819168448448181,-9.78043270111084,-0.27739345446026065,-0.3305755063466588,-10.633419852570594,1.1196253920813253,5.541335170866294,0.8285752497171958
1730865967.1336548,-1.7767276763916016,0.9837790727615356,-9.749464988708496,-0.27725434854502307,-0.32919953127538026,-10.633087384399527,1.1186172166760633,5.530699059282803,0.7487845893404153
1730865967.1838517,-1.7767276763916016,0.9837790727615356,-9.749464988708496,-0.27710284595925966,-0.3277768242023491,-10.632782718370741,1.121140122894558,5.519111316843887,0.8801901571961779
1730865967.1838517,-1.7815088033676147,1.03798508644104,-9.75819206237793,-0.27693782947781465,-0.3263082417969727,-10.632509412259607,1.1211378592753882,5.5190611914689915,0.8800102819360416
1730865967.2337184,-1.7815088033676147,1.03798508644104,-9.75819206237793,-0.2767590240074681,-0.32479425235127013,-10.632269001918878,1.1202603573771712,5.506807156500379,0.8243294270971696
1730865967.2337184,-1.7619465589523315,1.1153185367584229,-9.77953052520752,-0.2765668885670819,-0.3232354005428564,-10.63206131151559,1.1202542903744355,5.506744219525817,0.82398709673829
1730865967.283684,-1.7619465589523315,1.1153185367584229,-9.77953052520752,-0.27636245695656647,-0.32163281058201953,-10.631884806842837,1.1186896126635049,5.493671495428516,0.7418580221971404
1730865967.283684,-1.7306779623031616,1.2181533575057983,-9.794438362121582,-0.27614711902109046,-0.3199886913535365,-10.631736940267679,1.1186809284093326,5.493610163119032,0.7414240703014364
1730865967.3336196,-1.7306779623031616,1.2181533575057983,-9.794438362121582,-0.27592237664161234,-0.31830684072380416,-10.631614450806465,1.1164316628168458,5.4797464705821035,0.632942124084977
1730865967.3336196,-1.73723566532135,1.2622041702270508,-9.825244903564453,-0.27568963701143856,-0.3165930684432923,-10.631513625899075,1.11642027589225,5.479683816695161,0.6324075124193437
1730865967.3837023,-1.73723566532135,1.2622041702270508,-9.825244903564453,-0.27545012910399913,-0.31485539212603647,-10.631430567948485,1.122614288795984,5.464967574852576,0.8832679006168394
1730865967.3837023,-1.7728885412216187,1.2536513805389404,-9.841352462768555,-0.2752049624346422,-0.31310396671516255,-10.631361454405063,1.1226119002266264,5.46490227764258,0.8830998066243273
1730865967.4336104,-1.7728885412216187,1.2536513805389404,-9.841352462768555,-0.27495529021806436,-0.31135079836548446,-10.631302734245638,1.121721815698492,5.449487220989836,0.8312511939248459
1730865967.4336104,-1.7957485914230347,1.2329119443893433,-9.852080345153809,-0.2747025136090809,-0.3096093194779787,-10.63125124887049,1.1217162566037466,5.449415834903128,0.8309574862883858
1730865967.4835632,-1.7957485914230347,1.2329119443893433,-9.852080345153809,-0.274448442890562,-0.30789392267297827,-10.6312043039609,1.124293319284083,5.433176173775895,0.8866228786378432
1730865967.4835632,-1.8130037784576416,1.187165379524231,-9.869086265563965,-0.2741953887307989,-0.3062194896028131,-10.631159717467678,1.1242914997329194,5.4330950912938905,0.8864399126506416
1730865967.5335834,-1.8130037784576416,1.187165379524231,-9.869086265563965,-0.2739462055851344,-0.30460089756500347,-10.63111586744438,1.1235794512200068,5.4161347373424515,0.8358294658031721
1730865967.5335834,-1.8403993844985962,1.1168467998504639,-9.861696243286133,-0.27370431420971386,-0.3030525019247168,-10.631071721779136,1.1235738998642337,5.416043252149314,0.8354927916775197
1730865967.5836523,-1.8403993844985962,1.1168467998504639,-9.861696243286133,-0.27347373409188075,-0.3015876051696478,-10.631026796756206,1.1279562870556668,5.398299477845942,0.8865122054434087
1730865967.5836523,-1.8365612030029297,1.1099493503570557,-9.855596542358398,-0.2732591004676689,-0.30021800093808004,-10.630981050934022,1.1279580228469577,5.398223834847168,0.8863554986507374
1730865967.6335382,-1.8365612030029297,1.1099493503570557,-9.855596542358398,-0.2730655932800086,-0.2989537460299172,-10.630934771323306,1.129864292597561,5.379805550435703,0.8886293203588163
1730865967.6335382,-1.8015090227127075,1.1125519275665283,-9.858222961425781,-0.27289875472706315,-0.2978031601219581,-10.630888483976367,1.129866191839274,5.3797247899044764,0.8884736995490954
1730865967.683565,-1.8015090227127075,1.1125519275665283,-9.858222961425781,-0.2727642142312794,-0.29677292270537065,-10.630842899590352,1.1299694296158929,5.360422121354263,0.8386681233423233
1730865967.683565,-1.7416749000549316,1.0947171449661255,-9.853496551513672,-0.27266734385170704,-0.29586817686053657,-10.630798881598121,1.1299684036901085,5.3603375685351455,0.8383968054099934
1730865967.7336876,-1.7416749000549316,1.0947171449661255,-9.853496551513672,-0.2726128704854634,-0.2950925846003183,-10.630757404733373,1.129385148514091,5.340231810159443,0.7616671437709142
1730865967.7336876,-1.707353949546814,1.0896289348602295,-9.870576858520508,-0.2726045073843923,-0.29444834417319643,-10.630719517689105,1.1293809743063845,5.340139613854804,0.7612613145753132
1730865967.7836096,-1.707353949546814,1.0896289348602295,-9.870576858520508,-0.27264469744928327,-0.2939362353301188,-10.6306863620433,1.1281260468199152,5.3195036068985,0.658882360527529
1730865967.7836096,-1.6856294870376587,1.0882185697555542,-9.87708854675293,-0.2727344887780496,-0.2935557102542947,-10.630659235740875,1.1281190976223423,5.319411940222247,0.6583780920537592
1730865967.833548,-1.6856294870376587,1.0882185697555542,-9.87708854675293,-0.27287350153634704,-0.29330500662132547,-10.630639635326524,1.131199172255169,5.2980712918530655,0.8839445342050429
1730865967.833548,-1.6856732368469238,1.1131680011749268,-9.89499282836914,-0.27305997019593364,-0.293181291031485,-10.630629270139757,1.1311975668978826,5.297974712109124,0.8837749144774114
1730865967.8835711,-1.6856732368469238,1.1131680011749268,-9.89499282836914,-0.27329086652930723,-0.2931808678985738,-10.630630091861043,1.1304948116444355,5.275806020646712,0.8322434499217916
1730865967.8835711,-1.6620116233825684,1.1451038122177124,-9.884458541870117,-0.27356205780166065,-0.2932994448766546,-10.630644320500508,1.1304902099226641,5.2757066096352085,0.831957708792355
1730865967.9334772,-1.6620116233825684,1.1451038122177124,-9.884458541870117,-0.2738684118993435,-0.29353240863828844,-10.630674395288588,1.1333727644764966,5.252853814023532,0.8853567885596216
1730865967.9334772,-1.6606212854385376,1.1801331043243408,-9.870457649230957,-0.27420385726419516,-0.29387508543972996,-10.630722848924009,1.1333729776668433,5.252750918792871,0.8851907424312178
1730865967.9834714,-1.6606212854385376,1.1801331043243408,-9.870457649230957,-0.2745614870049681,-0.2943229787226253,-10.630792163094792,1.1330790198068077,5.229111964389036,0.8343867080247261
1730865967.9834714,-1.653437852859497,1.1797866821289062,-9.851520538330078,-0.27493371591279825,-0.29487194624666163,-10.630884630971973,1.1330760608577963,5.2290003166428445,0.8340887932364904
1730865968.0334425,-1.653437852859497,1.1797866821289062,-9.851520538330078,-0.27531243053750004,-0.29551825448652586,-10.631002224724513,1.132099909990096,5.204687091342723,0.7570038163142839
1730865968.0334425,-1.6758476495742798,1.1824043989181519,-9.821070671081543,-0.2756891385581772,-0.29625852791982576,-10.631146461831928,1.1320928024553538,5.204553990625349,0.7565169236613092
1730865968.0835173,-1.6758476495742798,1.1824043989181519,-9.821070671081543,-0.2760551796740651,-0.29708967847473955,-10.631318260424266,1.1304295434050053,5.1794711434325915,0.6528823442130919
1730865968.0835173,-1.7237505912780762,1.1566532850265503,-9.81063461303711,-0.27640201447277746,-0.29800882517039123,-10.631517809819947,1.130419136915274,5.179339155274958,0.6522763268700645
1730865968.1334534,-1.7996176481246948,1.1426687240600586,-9.782665252685547,-0.2767216368119805,-0.29901313746139535,-10.63174448747528,1.1349676266950879,5.153517032119604,0.8830279282991813
1730865968.1835039,-1.8628112077713013,1.1092867851257324,-9.77823543548584,-0.2770072092901279,-0.3000995811037591,-10.63199678228742,1.1341347681739262,5.12682464832044,0.831271883719269
1730865968.2334023,-1.8628112077713013,1.1092867851257324,-9.77823543548584,-0.2772537932281357,-0.301264634381043,-10.632272224718038,1.1357621933874376,5.099371361612387,0.8765487452342304
1730865968.2334023,-1.8774480819702148,1.0935637950897217,-9.79169750213623,-0.27745880976089277,-0.3025040745725388,-10.632567422760888,1.1357596847261087,5.099253367524562,0.8763642709119654
1730865968.2834685,-1.8534674644470215,1.108945369720459,-9.822172164916992,-0.27762206138308676,-0.30381289891615887,-10.632878261743647,1.1374985226438323,5.349691135250312,0.8829814387999659
1730865968.3333826,-1.8534674644470215,1.108945369720459,-9.822172164916992,-0.27774544521732797,-0.30518538467695455,-10.633200228218783,1.1370854477423253,5.33501883671614,0.831371165687116
1730865968.3333826,-1.7973651885986328,1.1064001321792603,-9.855999946594238,-0.27783250717875146,-0.30661523487719367,-10.633528757059185,1.1370821667062168,5.3349540258687185,0.8310914640223104
1730865968.3833833,-1.749116063117981,1.0848197937011719,-9.900351524353027,-0.27788785117498394,-0.3080957002622348,-10.633859569165853,1.135978573082415,5.319596793755196,0.7532457841879431
1730865968.4334073,-1.749116063117981,1.0848197937011719,-9.900351524353027,-0.27791644333331444,-0.3096196014158821,-10.634189043121442,1.1341746381770945,5.303380411295377,0.6483976621479542
1730865968.4334073,-1.6887575387954712,1.0780417919158936,-9.944061279296875,-0.2779229961184177,-0.31117930219329804,-10.634514555513721,1.1341639619682677,5.303298092064531,0.6478115696098854
1730865968.4834383,-1.660573959350586,1.0784896612167358,-9.943114280700684,-0.27791149627466205,-0.31276672443071485,-10.634834705284765,1.1385849216008945,5.286346199117229,0.8739487407775458
1730865968.5333052,-1.6808581352233887,1.0688133239746094,-9.9386625289917,-0.27788482525317915,-0.3143734108929205,-10.635149412218704,1.1392213970140443,5.2687377761336815,0.8784649246946923
1730865968.5834394,-1.6925055980682373,1.0484857559204102,-9.91047477722168,-0.2778446153794811,-0.31599057597124236,-10.635459827191648,1.1382310413474697,5.250047651913035,0.823670341741015
1730865968.6333168,-1.7340891361236572,1.0040960311889648,-9.874168395996094,-0.27779146074807376,-0.317609063062991,-10.635768007752041,1.1408596535092075,5.305697740750521,0.8708578259413396
1730865968.6832635,-1.7513102293014526,0.9668171405792236,-9.831408500671387,-0.2777253508531699,-0.31921915082633845,-10.63607641500948,1.1400929595966949,5.297669209301953,0.8127445470425381
1730865968.7332773,-1.7513102293014526,0.9668171405792236,-9.831408500671387,-0.27764611693692387,-0.32081028337686746,-10.636387363385431,1.1386284497214203,5.2888114901893735,0.7278021583026427
1730865968.7332773,-1.7555934190750122,0.9132131338119507,-9.825553894042969,-0.2775537233974921,-0.3223708860010314,-10.63670261721079,1.138620716256049,5.2887720082180225,0.7273829600975684
1730865968.783267,-1.7511773109436035,0.8991687297821045,-9.808719635009766,-0.27744836773922343,-0.3238882761281611,-10.637023223120204,1.1420065515644613,5.279144569066056,0.8680885232472599
1730865968.833155,-1.7669599056243896,0.9138646125793457,-9.811017036437988,-0.2773304888217084,-0.3253486286359042,-10.637349469895325,1.1410396545100427,5.26868058686731,0.8111476419058748
1730865968.8833268,-1.7647291421890259,0.9623916149139404,-9.817171096801758,-0.27720078028700035,-0.3267371569515474,-10.637680893745848,1.1393785868844282,5.2573959391549705,0.7275650492703043
1730865968.9331322,-1.774051547050476,0.9942019581794739,-9.836055755615234,-0.27706022574207056,-0.32803864356584006,-10.638016375833168,1.143467943242568,5.245328581338038,0.8664492564690673
1730865968.9830694,-1.7563841342926025,1.0308074951171875,-9.850176811218262,-0.27691010961696294,-0.3292381710050475,-10.638354354723527,1.1424334814965316,5.232454008370221,0.8068266244056861
1730865969.0331802,-1.7418923377990723,1.052126407623291,-9.863423347473145,-0.27675194366171957,-0.3303218094192196,-10.638693094685118,1.1406900362281092,5.2186149147178496,0.7197532913586259
1730865969.0830772,-1.7634446620941162,1.1164103746414185,-9.859697341918945,-0.2765873246857575,-0.33127717768082154,-10.639030921614875,1.138284019644919,5.204147589602423,0.6074813807488705
1730865969.1331055,-1.7613576650619507,1.1499154567718506,-9.857751846313477,-0.2764178507720042,-0.3320939563486624,-10.639366353682558,1.1449549322973471,5.188750448959261,0.862108387131326
1730865969.1830616,-1.7668864727020264,1.152148723602295,-9.854114532470703,-0.2762451526602278,-0.33276434821951406,-10.639698116713962,1.1475739563426781,5.172581375788478,0.8723935021494365
1730865969.2330203,-1.7597706317901611,1.146106243133545,-9.849930763244629,-0.27607094004240623,-0.33328330011074225,-10.64002509676415,1.1471107522552573,5.155465614794806,0.8151667163332331
1730865969.2830868,-1.7832831144332886,1.1196283102035522,-9.831854820251465,-0.27589700947139273,-0.33364837418590176,-10.640346266230836,1.1494384388494376,5.13753741414672,0.8673231769283801
1730865969.3329446,-1.7911642789840698,1.0579688549041748,-9.824539184570312,-0.27572528296290844,-0.3338593209585641,-10.640660573106668,1.1488219007661966,5.118935682290311,0.8084903027119326
1730865969.3830001,-1.793712854385376,1.0126854181289673,-9.833224296569824,-0.27555790362040233,-0.3339174130401028,-10.640966822684819,1.1532906245734957,5.099287185151256,0.8632775371116141
1730865969.432937,-1.7517714500427246,1.0202561616897583,-9.849518775939941,-0.2753972680927757,-0.333824698578251,-10.641263651655558,1.1532182910921507,5.078911229826931,0.8028835884782249
1730865969.4829564,-1.7155946493148804,1.0792349576950073,-9.881749153137207,-0.2752458374238268,-0.3335835389465276,-10.641549663216564,1.1564428992773534,5.1550973492560095,0.8596575350832795
1730865969.532836,-1.6973638534545898,1.1483683586120605,-9.885079383850098,-0.2751057379888261,-0.3331967194624908,-10.641823682599831,1.1564255671163965,5.1431527555183845,0.7990618873365527
1730865969.5827827,-1.6990910768508911,1.1914793252944946,-9.90003490447998,-0.2749783743437632,-0.33266803358349323,-10.642085006277133,1.155721252727434,5.130331670536547,0.711659711015185
1730865969.6338701,-1.7048535346984863,1.1952179670333862,-9.894710540771484,-0.2748642613046286,-0.3320029243150525,-10.642333540171075,1.1542900646128746,5.116364441601959,0.5947763054447527
1730865969.6838133,-1.7279154062271118,1.140415906906128,-9.889106750488281,-0.27476309907559593,-0.3312087555541999,-10.642569809767084,1.1522083712577877,5.101946298352255,0.4543786695188567
1730865969.7338028,-1.727390170097351,1.0967813730239868,-9.850716590881348,-0.2746739974580005,-0.3302945195831749,-10.642794837071548,1.158679106605924,5.086601557664242,0.8464105590807419
1730865969.7837937,-1.7448590993881226,1.0502889156341553,-9.854978561401367,-0.27459573070418053,-0.3292701226822869,-10.643009886289157,1.157763765742189,5.070486931988008,0.7828386961753175
1730865969.8337355,-1.7205950021743774,1.0371060371398926,-9.837763786315918,-0.2745269242216867,-0.32814559774101293,-10.643216182502181,1.1614671850669285,5.053567850115901,0.8476271535109944
1730865969.8838043,-1.7044275999069214,1.004769206047058,-9.838481903076172,-0.27446610054012566,-0.3269305047993416,-10.643414723616836,1.1611111326163588,5.0356734080091305,0.7852639929095283
1730865969.9337204,-1.7044275999069214,1.004769206047058,-9.838481903076172,-0.2744115824351801,-0.32563356338385396,-10.643606194931479,1.1600768261599557,5.017179393882578,0.6971710221792048
1730865969.9337204,-1.6762114763259888,1.0011883974075317,-9.852025985717773,-0.27436135661805394,-0.3242624736996399,-10.64379096753676,1.1600707237094077,5.017095519394801,0.6967214018052393
1730865969.9836867,-1.6579885482788086,0.9812003374099731,-9.872231483459473,-0.27431294958959657,-0.322823881647406,-10.64396919659395,1.1583499068702416,4.997745816369246,0.5818721685228889
1730865970.0337353,-1.6788157224655151,1.0039273500442505,-9.869159698486328,-0.2742633135655685,-0.32132341813951504,-10.64414099692604,1.1646798908653762,4.977582559341478,0.8414256774325679
1730865970.0836577,-1.7302862405776978,0.9892690777778625,-9.866273880004883,-0.27420887330898047,-0.3197657900416707,-10.644306592983899,1.1640198167931792,4.956548785797627,0.7814335384266409
1730865970.1336935,-1.7302862405776978,0.9892690777778625,-9.866273880004883,-0.27414585938792296,-0.3181549135284924,-10.64446635861438,1.1661026370282086,4.934751559166969,0.8423601587801961
1730865970.1336935,-1.7561147212982178,1.0005706548690796,-9.84821891784668,-0.274070748384313,-0.31649403538591403,-10.644620766338756,1.166100893944347,4.9346480921147196,0.842142502627499
1730865970.1836424,-1.7561147212982178,1.0005706548690796,-9.84821891784668,-0.27398057304273443,-0.3147858563922717,-10.644770289561663,1.1632861020675171,5.070276786243173,0.8508263717945176
1730865970.1836424,-1.7367112636566162,1.0267400741577148,-9.844929695129395,-0.27387305217843005,-0.3130327046556049,-10.644915294512263,1.1632771852166524,5.070212308728396,0.8506436390603873
1730865970.2335315,-1.7292639017105103,1.0034098625183105,-9.847564697265625,-0.2737465425163684,-0.3112367289484552,-10.645055978240617,1.1609602779116432,5.055535087796675,0.7968965168804493
1730865970.283596,-1.7082710266113281,1.0320013761520386,-9.856908798217773,-0.2735998478929512,-0.3094000436676,-10.645192376257755,1.1579352684719841,5.039946885660388,0.7159323892593021
1730865970.3336132,-1.7297741174697876,1.0265306234359741,-9.872505187988281,-0.2734320139292249,-0.30752482465753744,-10.645324437087123,1.1542465656860517,5.023689114267275,0.6088989589995555
1730865970.3835676,-1.73284912109375,1.026072382926941,-9.879054069519043,-0.2732422404105067,-0.3056133966667312,-10.645452155518937,1.1611047951174185,5.0067268859340395,0.8467050419679207
1730865970.4335475,-1.7507237195968628,1.0402652025222778,-9.899032592773438,-0.273029944067808,-0.30366829459769806,-10.645575727878743,1.1590520526522032,4.988887764207522,0.7889649938939938
1730865970.4835615,-1.7441734075546265,1.067531943321228,-9.886956214904785,-0.2727948823401235,-0.3016923275937814,-10.645695680469926,1.1563197207530937,4.970318365853926,0.7046822204000948
1730865970.5335526,-1.7646288871765137,1.0706843137741089,-9.89332103729248,-0.2725372429471402,-0.29968872061156937,-10.645812921170926,1.164270581437915,4.9508364637150875,0.839807290211849
1730865970.583584,-1.8092890977859497,1.0768513679504395,-9.85693645477295,-0.2722577386550855,-0.2976612717063992,-10.645928673296138,1.1632230276629054,4.930790205556904,0.7796912322729972
1730865970.6335008,-1.8451093435287476,1.0780317783355713,-9.835271835327148,-0.2719578313684564,-0.2956144131782909,-10.646044270818386,1.1615040588151113,4.910075414254409,0.6933708276856949
1730865970.6835158,-1.8778879642486572,1.068177342414856,-9.794242858886719,-0.2716400837302135,-0.2935531669527519,-10.646160825006636,1.16685038395437,4.888531192724646,0.8369889045463397
1730865970.7335863,-1.8792659044265747,1.0619271993637085,-9.761591911315918,-0.27130846733565295,-0.29148302270799553,-10.64627882380687,1.166000496708728,4.866227796524688,0.7761782077335206
1730865970.7835293,-1.8781741857528687,1.0342954397201538,-9.767451286315918,-0.27096846356621973,-0.289409744751217,-10.646397773964091,1.1706490822934263,4.843125948761985,0.8396317744212425
1730865970.8334446,-1.8452465534210205,1.0448501110076904,-9.792409896850586,-0.27062690212558327,-0.2873391342500098,-10.646516053882396,1.1771132999865934,4.998920664165272,0.8460162935593312
1730865970.8834481,-1.7909832000732422,1.0523160696029663,-9.833215713500977,-0.2702915412229082,-0.2852768458402005,-10.64663110661156,1.1788241850571113,4.98716522377689,0.7896185297214479
1730865970.9334626,-1.7380390167236328,1.0403714179992676,-9.891928672790527,-0.2699704112471627,-0.28322833408026377,-10.646739938430475,1.1798631022321582,4.974665739376605,0.706398904330188
1730865970.9834626,-1.6841381788253784,1.027842402458191,-9.939653396606445,-0.26967102187389547,-0.28119883815480645,-10.646839792216094,1.1802254122019575,4.961351616811432,0.595503209501667
1730865971.0333781,-1.598343849182129,1.0370818376541138,-9.97574520111084,-0.2693995606096551,-0.27919330420510496,-10.64692883840858,1.1834734864860972,4.947582638296692,0.8349746539569737
1730865971.083417,-1.5712602138519287,1.0332560539245605,-9.993497848510742,-0.2691601432841759,-0.27721631055767415,-10.64700671237614,1.1838261728317945,4.932971264143627,0.7733633547900121
1730865971.133399,-1.550557255744934,1.039259433746338,-9.944525718688965,-0.26895424287264497,-0.2752720653455557,-10.647074741023713,1.1846973320049952,4.974203628271111,0.8401509259287284
1730865971.1834455,-1.5575945377349854,1.0153611898422241,-9.915091514587402,-0.26878048442106484,-0.27336442179124437,-10.64713574113136,1.184426836454862,4.964665485496052,0.7807783182303786
1730865971.233443,-1.6128383874893188,0.9890211224555969,-9.859123229980469,-0.26863486567682604,-0.27149680863983683,-10.647193438922796,1.1834843657696672,4.9544487408529445,0.6947937351338119
1730865971.283348,-1.700724482536316,0.9786924719810486,-9.800239562988281,-0.2685114059207486,-0.269672041701924,-10.647251715439946,1.181867092756838,4.9435370197097885,0.5819781698661225
1730865971.3333108,-1.7688379287719727,1.0146944522857666,-9.755945205688477,-0.26840318856813383,-0.2678921564898529,-10.647313831904926,1.1856370704952475,4.932034262607659,0.8347009507723624
1730865971.3833656,-1.8208271265029907,1.02140212059021,-9.763900756835938,-0.2683035496425106,-0.26615846469830656,-10.647381783813914,1.1874333487585718,4.919756709850246,0.8448544229007278
1730865971.433279,-1.8217395544052124,1.0340009927749634,-9.765320777893066,-0.26820703715435185,-0.2644718146097851,-10.647455993201255,1.186921990331015,4.906933415884135,0.7880164152995186
1730865971.48329,-1.782911777496338,1.0537012815475464,-9.80487060546875,-0.26810986568731016,-0.26283286704038744,-10.647535408522074,1.1894594388899395,4.934651429261142,0.8403580780328526
1730865971.5332751,-1.7525897026062012,1.0612386465072632,-9.85537052154541,-0.2680097978898894,-0.2612423133966969,-10.64761792035939,1.1890259601257596,4.924760247678437,0.7809956229142638
1730865971.5832372,-1.7406247854232788,1.1116029024124146,-9.87990665435791,-0.26790566125089743,-0.2597010871408769,-10.64770097323374,1.1879251088579899,4.914249165372511,0.6952425188161379
1730865971.633259,-1.770524501800537,1.115897536277771,-9.90289306640625,-0.2677968866063792,-0.2582106168107363,-10.647782187143275,1.1861462389163397,4.9030349321755695,0.5823246803072366
1730865971.683197,-1.7900440692901611,1.1545110940933228,-9.899785995483398,-0.267683344572961,-0.2567730919591199,-10.647859788891283,1.1918009013459356,4.891242363572936,0.8340287515617067
1730865971.7331789,-1.8505797386169434,1.163799524307251,-9.896068572998047,-0.26756550041297095,-0.2553916691706795,-10.647932785660526,1.1933543470637045,4.908745903862731,0.8447636915071759
1730865971.783353,-1.8653908967971802,1.1624170541763306,-9.862640380859375,-0.26744475534297985,-0.25407057543572464,-10.648000905024114,1.1927550834397087,4.899627321689298,0.7871434764643372
1730865971.8332534,-1.84821355342865,1.119704008102417,-9.858514785766602,-0.2673237523727774,-0.25281502792132277,-10.648064356617915,1.1914942104100823,4.889974120928152,0.7035412276102855
1730865971.8832345,-1.8270213603973389,1.114829421043396,-9.805334091186523,-0.26720639223644627,-0.2516309032673041,-10.648123499432387,1.1895635575527805,4.8796677805063915,0.5931712842954838
1730865971.9334147,-1.793975830078125,1.0453251600265503,-9.822367668151855,-0.26709750431787604,-0.2505242349214497,-10.64817849495737,1.1958114687270756,4.868712588955868,0.8342416099322016
1730865971.9832606,-1.7209333181381226,1.0137131214141846,-9.828447341918945,-0.26700229697830197,-0.24950062769160278,-10.648229071887192,1.1949612866996415,4.857155647940731,0.7725212421192629
1730865972.0332992,-1.6012029647827148,0.9719731211662292,-9.870986938476562,-0.26692559052962017,-0.24856463922145547,-10.648274553869523,1.1986883733674025,4.8450080909224145,0.8399914158902761
1730865972.0832047,-1.5673483610153198,0.9927900433540344,-9.874567985534668,-0.2668708155364631,-0.2477192897279264,-10.648314133684481,1.198402125960409,4.832199624212194,0.780601563406257
1730865972.133241,-1.5673483610153198,0.9927900433540344,-9.874567985534668,-0.2668391103278772,-0.24696589121149573,-10.648347185083265,1.2013073893933621,4.86583688200433,0.8405520953086174
1730865972.133241,-1.5617990493774414,1.0194441080093384,-9.915316581726074,-0.2668289579053601,-0.24630420518877497,-10.648373460576867,1.201308215813392,4.865785301677509,0.8402891860322003
1730865972.1831715,-1.576568603515625,1.0584110021591187,-9.886327743530273,-0.2668363581344931,-0.24573280452989288,-10.648393212146042,1.2011208144216976,4.856502441619855,0.7813098875278591
1730865972.2332606,-1.631142258644104,1.0728533267974854,-9.91388988494873,-0.26685528376966056,-0.24524954175204455,-10.648407259533602,1.2002661449231335,4.846539650959274,0.6953300085473677
1730865972.283102,-1.7173388004302979,1.079965353012085,-9.86382007598877,-0.2668783868388336,-0.24485200385910014,-10.64841694168141,1.2025577135151955,4.836001246835806,0.8462521682444589
1730865972.3331964,-1.7173388004302979,1.079965353012085,-9.86382007598877,-0.2668979371247499,-0.24453780495032326,-10.648423925327627,1.2017184756179127,4.824784590055222,0.7888713178996082
1730865972.3331964,-1.82231605052948,1.1077828407287598,-9.826631546020508,-0.2669067440379065,-0.24430471721948846,-10.648429906290627,1.2017120762061824,4.8247219220716495,0.7884860674574667
1730865972.383157,-1.8533849716186523,1.1184059381484985,-9.800682067871094,-0.2668989322917356,-0.2441507781358692,-10.648436272836175,1.207056115462841,4.836678392092747,0.8485145291100257
1730865972.4330823,-1.8954871892929077,1.0949914455413818,-9.761144638061523,-0.26687061665572254,-0.2440744036190842,-10.648443760842358,1.2074620083023317,4.827241940642857,0.7943209473872679
1730865972.4830406,-1.8989217281341553,1.0262970924377441,-9.779446601867676,-0.2668203592503797,-0.24407431716997222,-10.648452143713461,1.2072029697123277,4.817170131791355,0.7133983432005547
1730865972.5331557,-1.8536771535873413,1.0082930326461792,-9.78778076171875,-0.2667492345193721,-0.2441491481655829,-10.648460113694622,1.206270347667953,4.806429277533679,0.6052120275706082
1730865972.5831227,-1.783974289894104,1.004658818244934,-9.84261703491211,-0.2666604214215337,-0.24429690506557233,-10.64846547407577,1.2095016970441796,4.795201260724372,0.8389575942290953
1730865972.6330674,-1.783974289894104,1.004658818244934,-9.84261703491211,-0.26655841349336107,-0.24451467090635529,-10.648465574175606,1.2132839346302828,4.78326140169355,0.8470002490224271
1730865972.6330674,-1.7528783082962036,1.0574264526367188,-9.855023384094238,-0.26644821118581663,-0.2447986362674149,-10.64845776648114,1.2132915928854604,4.783191852558493,0.8467525552758787
1730865972.6830595,-1.7219197750091553,1.080628514289856,-9.910914421081543,-0.2663347600569721,-0.24514441920382546,-10.648439742386167,1.2160516475010548,4.787465423308841,0.8586601215629103
1730865972.7331333,-1.7219197750091553,1.080628514289856,-9.910914421081543,-0.26622256108168557,-0.2455475286750003,-10.648409832114567,1.2171509551820607,4.7733522121109475,0.8089910433529321
1730865972.7331333,-1.704637885093689,1.1132997274398804,-9.919187545776367,-0.2661153900746397,-0.24600374040050893,-10.648367288920557,1.217155700097809,4.773262707574082,0.8085996936389592
1730865972.7830756,-1.6880874633789062,1.1303209066390991,-9.951221466064453,-0.26601614412516605,-0.24650933368966252,-10.64831243687321,1.2175852065050097,4.758614174690836,0.7326489771713968
1730865972.8330402,-1.6892642974853516,1.1353075504302979,-9.929433822631836,-0.26592675692422674,-0.24706128687352938,-10.64824670309376,1.2173549503644914,4.743289732994658,0.6298898240948232
1730865972.8830557,-1.6928538084030151,1.1137971878051758,-9.93874454498291,-0.2658481728611319,-0.24765738090008083,-10.648172573169678,1.2164622937449137,4.727353622681502,0.5006312938924804
1730865972.9329422,-1.7044410705566406,1.0738990306854248,-9.894899368286133,-0.26578043486433706,-0.24829607464447184,-10.648093405836407,1.2175013223720692,4.710787152413686,0.8519590789228473
1730865972.9829872,-1.7288248538970947,1.0470776557922363,-9.854463577270508,-0.2657228873110441,-0.24897613667287372,-10.648013070833624,1.2167598421182035,4.69356459521129,0.7940402464022206
1730865973.0330038,-1.782965898513794,1.0143132209777832,-9.822835922241211,-0.2656744973590671,-0.24969616562841856,-10.647935430181622,1.2153519457352993,4.675708983458105,0.7094014351112332
1730865973.082945,-1.8363450765609741,1.0109021663665771,-9.767317771911621,-0.2656343388200836,-0.2504541711748316,-10.647863761289962,1.2189789055792526,4.764731206741762,0.8509106024234694
1730865973.132889,-1.8869452476501465,0.9894759058952332,-9.760782241821289,-0.2656022102408664,-0.2512473139101406,-10.647800242654528,1.2182586995222797,4.757312016541029,0.7921331529913215
1730865973.1829495,-1.8473352193832397,1.0347927808761597,-9.739604949951172,-0.26557917388491736,-0.25207183997557525,-10.647745598200652,1.216867415074562,4.7492184130398485,0.7062805160842843
1730865973.232936,-1.816389560699463,1.0465000867843628,-9.774761199951172,-0.265567689597184,-0.2529232511105258,-10.647698996693805,1.2207389741049441,4.740506706700945,0.8507548344207668
1730865973.2828844,-1.783855676651001,1.0769073963165283,-9.79489803314209,-0.2655712425627689,-0.25379667766813807,-10.647658250229494,1.2227473974426808,4.73120324567148,0.8616010708510445
1730865973.3328242,-1.7646828889846802,1.053520679473877,-9.82564926147461,-0.26559373904833394,-0.25468726354179266,-10.647620250951181,1.2223023758424287,4.7212637216242195,0.8062747935774555
1730865973.3828576,-1.7351040840148926,1.0145779848098755,-9.854711532592773,-0.26563896618912,-0.2555903278958467,-10.647581499530618,1.2211873140306608,4.71061946384137,0.7238481540679212
1730865973.432912,-1.683071255683899,0.9749651551246643,-9.900102615356445,-0.2657101490296565,-0.2565011933281561,-10.64753862287311,1.2194075730929417,4.699356230752405,0.6148680929330737
1730865973.4828544,-1.6453770399093628,0.9578630328178406,-9.910890579223633,-0.2658095018920002,-0.25741480005598993,-10.647488857056901,1.2169677017641156,4.687477143099061,0.4795287690859079
1730865973.532847,-1.649688720703125,0.9565423130989075,-9.945751190185547,-0.26593780108507625,-0.25832537331095273,-10.647430440215949,1.213872525713055,4.674986043528607,0.3180396229657771
1730865973.5828483,-1.6442580223083496,0.9954084157943726,-9.940225601196289,-0.26609416836633215,-0.25922635098465263,-10.647362855771455,1.2244865667897762,4.661791928859714,0.8468415764533974
1730865973.632834,-1.6689367294311523,1.0497392416000366,-9.937795639038086,-0.26627615722707376,-0.2601106594506829,-10.647286901870487,1.2233574695545582,4.6480027505495425,0.7842283922708955
1730865973.682793,-1.6859419345855713,1.0834542512893677,-9.915569305419922,-0.266480058843112,-0.2609712888300607,-10.647204565057503,1.2274384590863936,4.714365213194857,0.8544062286856857
1730865973.7328548,-1.71327543258667,1.1262437105178833,-9.893120765686035,-0.2667013256019095,-0.2618019608308204,-10.647118719416694,1.2268835875864064,4.708333813193077,0.7947166282567053
1730865973.782775,-1.7269731760025024,1.1472166776657104,-9.872698783874512,-0.2669350260276267,-0.2625976842237039,-10.647032728023799,1.22565615583765,4.701632612664645,0.7081285024631059
1730865973.8327966,-1.735066294670105,1.1401067972183228,-9.833118438720703,-0.2671762392775228,-0.2633550990755914,-10.646950017369448,1.2286047588786317,4.694310342814401,0.8514625423982911
1730865973.8827624,-1.717958927154541,1.1496965885162354,-9.815305709838867,-0.2674203064581406,-0.2640725621246439,-10.646873656461759,1.2276138893392874,4.686349950625223,0.7909548997470689
1730865973.9327734,-1.6673269271850586,1.18075430393219,-9.812365531921387,-0.2676628527485626,-0.26475005759079384,-10.64680599752402,1.2306161741038886,4.677674151704499,0.8550651667562729
1730865973.9827108,-1.718985915184021,1.200554609298706,-9.816550254821777,-0.2678996084737517,-0.2653891388677768,-10.646748488472914,1.229998017627754,4.668354702356397,0.7956938189979965
1730865974.032757,-1.777178168296814,1.1863377094268799,-9.796299934387207,-0.26812635573816834,-0.265992939148195,-10.64670166862377,1.2320312698282334,4.672372750820655,0.8555263882803856
1730865974.0837018,-1.8267006874084473,1.1075407266616821,-9.833602905273438,-0.2683393091221854,-0.266566011142645,-10.64666525091324,1.2312896961288693,4.664711013588755,0.7947964710734309
1730865974.1328225,-1.8129234313964844,1.0744457244873047,-9.833734512329102,-0.2685357205780302,-0.2671137760474089,-10.646638282401387,1.2299152446231627,4.656673107247687,0.7101094018204578
1730865974.1827915,-1.7848941087722778,1.034195899963379,-9.854951858520508,-0.2687142103206581,-0.2676417199325781,-10.646619403167556,1.2278534428851458,4.64783986659234,0.5976765270275191
1730865974.2327878,-1.7069191932678223,1.0519814491271973,-9.866008758544922,-0.2688745694399509,-0.268154718274466,-10.646607122765731,1.2337780096049038,4.638393027191756,0.8500591571699068
1730865974.2827125,-1.7330290079116821,1.0380792617797852,-9.891645431518555,-0.2690171804824172,-0.2686567153226466,-10.646600065544733,1.2328000400029204,4.628149327519305,0.7880181837308667
1730865974.333654,-1.723747968673706,1.0607243776321411,-9.90710735321045,-0.2691424835672178,-0.2691507083464671,-10.646597209016582,1.2349541065004987,4.64054448225953,0.8548296860033359
1730865974.383695,-1.6333900690078735,1.1029419898986816,-9.92292594909668,-0.2692506914152412,-0.2696389243796297,-10.646598107157079,1.2339888676023536,4.632315342070153,0.7946905016190488
1730865974.4336932,-1.7185343503952026,1.0912126302719116,-9.885492324829102,-0.2693415551266757,-0.2701231354823202,-10.646603014955073,1.2323584785524502,4.623470114024999,0.7084075029261602
1730865974.4835937,-1.7632367610931396,1.0811116695404053,-9.884361267089844,-0.26941429508138326,-0.27060494677515184,-10.646612805074717,1.2366284749859213,4.613897655914474,0.8517457017986534
1730865974.533778,-1.7660847902297974,1.066494345664978,-9.817702293395996,-0.26946798944071915,-0.27108585612632013,-10.646628665720582,1.2356317586848062,4.603637805433823,0.7904300941065063
1730865974.583637,-1.76335608959198,1.0730304718017578,-9.786660194396973,-0.26950209079706566,-0.27156714049629394,-10.646651640787198,1.2379764725118325,4.59275866772856,0.8550512988280186
1730865974.6336203,-1.755035638809204,1.0663394927978516,-9.755593299865723,-0.2695166222783525,-0.2720497585992844,-10.646682098040127,1.2370826604272858,4.581233210267151,0.7958290467333586
1730865974.683558,-1.7797462940216064,1.05051851272583,-9.727736473083496,-0.269512130058459,-0.2725343151162294,-10.646719277635457,1.238997912715002,4.596467343943089,0.8556548711196347
1730865974.7336075,-1.7905184030532837,1.0506978034973145,-9.733460426330566,-0.26948965506419975,-0.2730210164658514,-10.646761033745044,1.238047557100109,4.587120398650659,0.7958424823035445
1730865974.7834837,-1.7196898460388184,1.0897799730300903,-9.776664733886719,-0.26945073216519055,-0.27350965266201854,-10.646803836893213,1.2391944131536996,4.577231119254354,0.8557765636338661
1730865974.8335426,-1.7713710069656372,1.1019127368927002,-9.835098266601562,-0.2693972381859836,-0.27399974422568224,-10.646843135702039,1.2379493318239978,4.56650996231701,0.7960328416408641
1730865974.8835092,-1.8028919696807861,1.1387075185775757,-9.852670669555664,-0.26933121976239965,-0.27449085470324514,-10.646874022601187,1.2365628216002007,4.55515119657845,0.8551467789610794
1730865974.9336016,-1.8285831212997437,1.182466745376587,-9.922863006591797,-0.2692550211491438,-0.27498295937400596,-10.646891953424449,1.2343808425539373,4.5431997447828305,0.7960244014814997
