Timestamp,IMU_Linear_Acc_X,IMU_Linear_Acc_Y,IMU_Linear_Acc_Z,Filtered_X,Filtered_Y,Filtered_Z,Pose_X,Pose_Y,Pose_Z
1730865946.9339588,-1.6460669040679932,1.1705397367477417,-9.888028144836426,-0.06331951044431085,-0.08275542057022818,-6.4199562737583316,0.9016188141065663,3.8147957194817854,0.8980931908056281
1730865946.9839773,-1.6460669040679932,1.1705397367477417,-9.888028144836426,-0.07615270792064818,-0.10968321242025059,-7.398486814643812,0.9015843653676452,3.814846173473454,0.8980416129324966
1730865947.0338826,-1.5448205471038818,1.3515266180038452,-9.916738510131836,-0.10292950214059057,-0.1708316483393305,-9.163205410867887,0.899177539437322,3.233429295654748,0.897884092088532
1730865947.0338826,-1.4505513906478882,1.3764179944992065,-9.885746955871582,-0.11584678102851752,-0.20365811822688373,-9.903161013248209,0.8991515611712894,3.229334046369082,0.8978662672345233
1730865947.083904,-1.4505513906478882,1.3764179944992065,-9.885746955871582,-0.12749574368035044,-0.2374004892886068,-10.528011303182241,0.8982368011467005,3.0857535494510433,0.8969105515375959
1730865947.083904,-1.483825922012329,1.3574954271316528,-9.83907413482666,-0.13703696179960928,-0.27177122551114274,-11.03085214715292,0.8982024676750299,3.0803880947755657,0.8968623298390703
1730865947.1338828,-1.5220105648040771,1.4168083667755127,-9.791072845458984,-0.14369654541332463,-0.30648048127710337,-11.410917810572906,0.8921443594723731,2.1648324379150923,0.8746505442398889
1730865947.1838188,-1.466209888458252,1.5062932968139648,-9.781386375427246,-0.14693191617930568,-0.3412151771938364,-11.672829639761474,0.8857622546896818,1.2511520117676322,0.8233068824711148
1730865947.2339377,-1.466209888458252,1.5062932968139648,-9.781386375427246,-0.14649961572773387,-0.3757063099832121,-11.825657209960056,0.8790368416456963,0.3400209581664264,0.74273655593027
1730865947.2339377,-1.6475468873977661,1.4503509998321533,-9.745635986328125,-0.14244799836069097,-0.40977610144372173,-11.881901802647441,0.8789979738005701,0.33489292907636276,0.7421997242733361
1730865947.2838902,-1.7597566843032837,1.3032793998718262,-9.741059303283691,-0.13518568212600157,-0.4432463894534335,-11.856443276392094,0.872256542836403,-0.5303187618726197,0.6377289824607234
1730865947.3337905,-1.6816997528076172,1.2365984916687012,-9.753911018371582,-0.12559190320892505,-0.47573776171359855,-11.765495867836282,0.8651202907754317,-1.368670921490177,0.5087783375122549
1730865947.3838024,-1.757475733757019,1.2633165121078491,-9.788309097290039,-0.11495290384405063,-0.5065294342362884,-11.625658165401578,0.8574391978464267,-2.274083970269487,0.34042681591517665
1730865947.4338114,-1.9410609006881714,1.2342725992202759,-9.715015411376953,-0.10475595102227517,-0.5346194547106855,-11.453093513471105,0.8513075709755895,-2.9783490424229107,0.16444444697873578
1730865947.4836771,-1.7980672121047974,1.2204742431640625,-9.816902160644531,-0.0965470303290567,-0.5589259384696357,-11.262826556312262,0.8433366341713899,-3.8611586656524484,-0.05834714455631712
1730865947.5337312,-1.6201061010360718,1.2407430410385132,-9.861479759216309,-0.09175762685804618,-0.5784778399923756,-11.068207896537693,0.8351671660058243,-4.741375850073952,-0.3079633819495826
1730865947.5837328,-1.6417081356048584,1.2559638023376465,-9.932706832885742,-0.09136284772234513,-0.5925533300142145,-10.880604892508716,0.8279801000524757,-5.477467182996716,0.8761541400030644
1730865947.6336718,-1.4783844947814941,1.2720919847488403,-9.962823867797852,-0.09559431930356271,-0.6007834181215018,-10.709253550549562,0.8194456951261261,-6.35002994356256,0.8352392588802503
1730865947.6836586,-1.4127205610275269,1.249739170074463,-9.95790958404541,-0.10388822741084247,-0.6031974988829474,-10.561177079541652,0.8105648617228671,-7.23384776988961,0.7670933316110852
1730865947.7336457,-1.4345476627349854,1.2176520824432373,-9.960887908935547,-0.11499330716465245,-0.6001830565367823,-10.44114924125522,0.8033270946199712,-7.901509708409552,0.8545422667233382
1730865947.7836764,-1.6071974039077759,1.2252144813537598,-9.856568336486816,-0.1272386672542608,-0.5923809037019251,-10.351715617168342,0.793964943717989,-8.777894676726065,0.7987705024402886
1730865947.8337014,-1.532752275466919,1.1856809854507446,-9.923158645629883,-0.13895465798291243,-0.580574814450582,-10.293298223402488,0.784350050960932,-9.648342716712216,0.7177323752007327
1730865947.8835726,-1.49844229221344,1.2116985321044922,-9.878271102905273,-0.14880614760298305,-0.5656107068892978,-10.264436269077212,0.7769158605772694,-10.251408295983286,0.8423610944606506
1730865947.9345996,-1.521494746208191,1.106750726699829,-9.946966171264648,-0.15586471604563684,-0.5483318862837245,-10.262175914952778,0.7664271861399246,-11.13431608410655,0.7825949648940104
1730865947.9846032,-1.521235466003418,1.066617727279663,-9.89339542388916,-0.15955645208758104,-0.5294938852305477,-10.282525618103396,0.8747196923755733,-11.704866829739439,0.840400271713307
1730865948.034629,-1.6524330377578735,0.9745575785636902,-9.893824577331543,-0.1596591346774709,-0.5096555655284023,-10.32087568546142,0.8731459172294845,-2.61464952102148,0.8452802399398281
1730865948.0845356,-1.6524330377578735,0.9745575785636902,-9.893824577331543,-0.15635563521847845,-0.4891062175516274,-10.372344924389107,0.8714759115032392,-3.0893021635800815,0.790027440388753
1730865948.0845356,-1.714928388595581,0.9513433575630188,-9.833707809448242,-0.15025936900358333,-0.4678859722713739,-10.432071701634984,0.8714654610953714,-3.09196425344804,0.789645213243335
1730865948.1347377,-1.6118273735046387,0.9223973155021667,-9.884674072265625,-0.14232646851224134,-0.44588377116957423,-10.495460838547999,0.8694205777694783,-3.5679843107093467,0.7082271262245361
1730865948.1846237,-1.3661701679229736,0.9260615110397339,-9.857068061828613,-0.13360460252199868,-0.42294596484512825,-10.55839479431918,0.8670305237965187,-4.0453389271755045,0.6005112427789192
1730865948.2345996,-1.2212275266647339,0.8862243294715881,-9.932165145874023,-0.12483795993446853,-0.3989544069952081,-10.617422029466848,0.871362758355804,-1.4080355384070085,0.8403897487617317
1730865948.2835228,-1.0323896408081055,0.8774198889732361,-9.941996574401855,-0.11609847633040368,-0.37386957823969824,-10.66990697964022,0.8701664017468874,-1.7307421402194438,0.7834757682303386
1730865948.3344536,-1.2495695352554321,0.9381879568099976,-9.924843788146973,-0.10669927686757702,-0.34775600412451163,-10.71410288363062,0.8698732842072023,-0.7292250879562592,0.840009275382264
1730865948.3844686,-1.4342632293701172,1.0002256631851196,-9.9284086227417,-0.09553966227420382,-0.32083680062734166,-10.749110279349006,0.8685995330693739,-0.9841176909016828,0.7808096338002352
1730865948.4344435,-1.6491162776947021,1.1198151111602783,-9.88106918334961,-0.08175589605444925,-0.29359098201080225,-10.77473794428281,0.8671100213005611,-1.2388291133207658,0.6950664650613878
1730865948.4846096,-1.8150001764297485,1.2128596305847168,-9.911548614501953,-0.06530431822156171,-0.2668452389041759,-10.791333050921779,0.8654165649970749,-1.4973601463156991,0.581017517814085
1730865948.5345068,-1.8747748136520386,1.2866096496582031,-9.855307579040527,-0.04718915853119433,-0.24180106150859582,-10.79962885672699,0.8636132866216335,-0.7515993357827986,0.8323589653692841
1730865948.5845046,-1.8972151279449463,1.2438414096832275,-9.890105247497559,-0.029304566669619406,-0.21994148124629573,-10.800619596048445,0.8616969447436308,-0.3695061237548065,0.842059200345959
1730865948.6345894,-1.8699368238449097,1.2726092338562012,-9.829380989074707,-0.014011606860369612,-0.20280276766850133,-10.795454241986333,0.8597230091384013,-0.546689430931509,0.7840285406083113
1730865948.6844258,-1.9649289846420288,1.1705948114395142,-9.842905044555664,-0.003654010543248426,-0.1916862460509406,-10.785341148120175,0.8643824706354353,-0.2734794028217667,0.8374704182094164
1730865948.7343395,-1.755480170249939,1.117276906967163,-9.814167976379395,-0.00017052522904841992,-0.18740050432141703,-10.771465043090158,0.8636190436286819,-0.42658751189862376,0.7779793043107088
1730865948.7843802,-1.648979902267456,1.0715574026107788,-9.870731353759766,-0.004774997189638383,-0.1900853780849918,-10.754938112144195,0.8635282300152999,-0.21543758045025685,0.837002261587911
1730865948.8343627,-1.619248390197754,1.0923936367034912,-9.766934394836426,-0.01768433102897149,-0.19917876195621714,-10.736784353493345,0.86292598356675,-0.3514247312158893,0.7772302789527109
1730865948.8843756,-1.5719029903411865,1.1600306034088135,-9.814069747924805,-0.038053352056281735,-0.2135640249527752,-10.717909169256291,0.8645017041947506,-0.17800247718584156,0.8368797554091257
1730865948.9342463,-1.4718180894851685,1.2043366432189941,-9.855443000793457,-0.06416321907822657,-0.2318461750861397,-10.699067391953893,0.8643950320523298,-0.29974388878441877,0.7773917758481164
1730865948.9843962,-1.5622344017028809,1.2559999227523804,-9.844598770141602,-0.0937172664632355,-0.25263943528975275,-10.680893691401415,0.8653756646335692,-0.15235169038207147,0.836920307089987
1730865949.0343103,-1.6065484285354614,1.3037285804748535,-9.91126537322998,-0.12419405483143299,-0.274769427721996,-10.663963515208971,0.8652347159925009,-0.2631939773649983,0.777489937080338
1730865949.084335,-1.6464300155639648,1.3352413177490234,-9.848318099975586,-0.15324807213330918,-0.2973712132667042,-10.6488142810545,0.864743249219701,-0.37585517807347607,0.6906651402426467
1730865949.1342292,-1.7890230417251587,1.2793657779693604,-9.847938537597656,-0.17904716340233665,-0.31989072374268473,-10.635908664484573,0.864418156040832,-0.22199208789308603,0.5774637227339745
1730865949.1843033,-1.9112098217010498,1.1769911050796509,-9.826825141906738,-0.20049714909037938,-0.34197301042856365,-10.625558955015455,0.8634521331964135,-0.32453244194487313,0.4382231374700356
1730865949.2342906,-1.7468112707138062,1.169215440750122,-9.872337341308594,-0.21732899045167267,-0.3632715558205831,-10.617879379008304,0.8619615517767913,-0.4282452135183742,0.27205771560874326
1730865949.2843397,-1.7610691785812378,1.1731765270233154,-9.90518856048584,-0.22993556822246378,-0.38331519865481134,-10.612820171626758,0.8632648784764252,-0.2698550870556316,0.07937753478020065
1730865949.3341703,-1.772855281829834,1.1963719129562378,-9.869773864746094,-0.2390304848382171,-0.40153132437013606,-10.610246019513283,0.8618428946720775,-0.3654076000214258,-0.13911389876532593
1730865949.3842542,-1.7723252773284912,1.1582468748092651,-9.856871604919434,-0.24539598159971557,-0.4173617948062166,-10.609972338747642,0.8598026602283186,-0.4626606020172591,-0.3857854310201756
1730865949.4341888,-1.5951693058013916,1.1924304962158203,-9.84045124053955,-0.249759604095668,-0.4303567500256781,-10.611738187704937,0.8636426190464238,-0.3018405460467056,-0.6555782545697227
1730865949.4842129,-1.4303251504898071,1.1096744537353516,-9.871488571166992,-0.25262300538742777,-0.4402102469353029,-10.615184119588136,0.8623539741707564,-0.39227498313842646,-0.9551351576487421
1730865949.5342839,-1.4494115114212036,1.127644419670105,-9.831385612487793,-0.2540468381219557,-0.4467487649443655,-10.619878882288944,0.8627766064395368,-0.2513805029428578,-1.2806812910927095
1730865949.5842733,-1.374488115310669,1.0864741802215576,-9.847817420959473,-0.2536002002922223,-0.44989848873309923,-10.625362026442032,0.8611088646090291,-0.33625867731524095,-1.6336088749948832
1730865949.634126,-1.4525998830795288,1.0719263553619385,-9.802490234375,-0.25054425123660706,-0.44966520369417334,-10.631167286445342,0.863255219041041,-0.21119071416148152,0.834126653259064
1730865949.684152,-1.5784028768539429,1.0320987701416016,-9.840079307556152,-0.2441387256633828,-0.446123766432745,-10.636836408369078,0.86194419954441,-0.29154041692393706,0.7705100918314065
1730865949.734146,-1.5448294878005981,0.9901504516601562,-9.828018188476562,-0.2339583642307632,-0.43939669857302116,-10.641948629999263,0.8648629563676387,-0.17918126300029313,0.8475230457540985
1730865949.7841535,-1.495914340019226,0.9905200004577637,-9.897010803222656,-0.22006232350127297,-0.42962994020045175,-10.646175124537768,0.8639732463495211,-0.2556376733427958,0.7884498521828739
1730865949.8341901,-1.5989469289779663,0.96947181224823,-9.889765739440918,-0.20293738774990908,-0.4169914542791911,-10.649342703346395,0.8657148000993532,-0.15197012538493537,0.8501718380705404
1730865949.8841543,-1.5671354532241821,0.9694827198982239,-9.91878890991211,-0.18337030373556212,-0.4016969365109932,-10.651470266601308,0.8665134628338819,-0.0695770292746248,0.7917492631244789
1730865949.9341342,-1.4966825246810913,0.9941743016242981,-9.964380264282227,-0.1623446071912804,-0.38404308451241553,-10.652760247934193,0.8659379012788498,-0.13842938369733568,0.7068326723799723
1730865949.984129,-1.4800490140914917,0.969645619392395,-9.981051445007324,-0.14088463641403204,-0.36443484908101376,-10.653571085438909,0.8649780689847628,-0.20860752615918945,0.5946613467722156
1730865950.0342054,-1.459653377532959,1.016774296760559,-9.992463111877441,-0.1198743071870427,-0.3433940386242426,-10.65438125727519,0.8636973224701952,-0.2792928748328943,0.45645390725616697
1730865950.0840492,-1.5144121646881104,1.049118995666504,-9.973414421081543,-0.09997294249908864,-0.32155431093901155,-10.655720977765313,0.865968059125889,-0.1767686348797547,0.291672345016199
1730865950.1340241,-1.6105612516403198,1.0086636543273926,-9.94045639038086,-0.08166523928455137,-0.299650068626901,-10.658069400177379,0.8652677368483057,-0.24405108494226252,0.10082169615282988
1730865950.1840804,-1.5536221265792847,1.06661057472229,-9.94149398803711,-0.06537907142752894,-0.2784706103471336,-10.661749901353794,0.8656248000902094,-0.14877209090154236,-0.11995905423022199
1730865950.2339597,-1.603241205215454,1.065562129020691,-9.964529037475586,-0.05154539707258196,-0.2587911584166553,-10.666875778062982,0.8650334737019566,-0.21310788444232504,-0.3645799640896
1730865950.2839465,-1.879683494567871,1.0326447486877441,-9.866992950439453,-0.04060748533303388,-0.2413173392040714,-10.673358154607861,0.8643267101270173,-0.27812625908129196,-0.6360334099227186
1730865950.3339956,-2.0737950801849365,0.9914940595626831,-9.809025764465332,-0.03315475774105127,-0.2266131664379499,-10.680904982414159,0.863533401381108,-0.17746399120273862,0.837442208122458
1730865950.3840535,-1.8243703842163086,0.9407444000244141,-9.798154830932617,-0.030092954303661875,-0.2149984410223401,-10.688986714337997,0.8626466755131077,-0.2400078076023869,0.7724722303271379
1730865950.4339852,-1.6435387134552002,1.0102969408035278,-9.805895805358887,-0.03245596911629767,-0.2064861053267057,-10.696860513521711,0.8616981488274371,-0.14489822001930958,0.8463571733820572
1730865950.4839067,-1.5730770826339722,1.1460793018341064,-9.76155948638916,-0.040849000837265774,-0.20085423175558573,-10.703689528591147,0.8606515826495889,-0.20385801576938606,0.78614425961826
1730865950.5338778,-1.402429223060608,1.2469379901885986,-9.80485725402832,-0.05499800797518287,-0.19786605238150382,-10.708679619032969,0.8594805114609522,-0.2635562268494664,0.6988261113412524
1730865950.5837739,-1.2801685333251953,1.27745521068573,-9.844583511352539,-0.07364922799687398,-0.19749719797004966,-10.711196898030792,0.8581574568088416,-0.3233386208190334,0.5854540217591702
1730865950.6338754,-1.3144124746322632,1.2810062170028687,-9.876189231872559,-0.0947149660569276,-0.19999721620205796,-10.710883027641097,0.8566157087803838,-0.3839783097682342,0.444597186670832
1730865950.6837897,-1.3720238208770752,1.2254197597503662,-9.91110610961914,-0.115621300167837,-0.20575889925664323,-10.707736272080876,0.8548198277230677,-0.4448180263044579,0.2777739320252763
1730865950.7338083,-1.4993278980255127,1.1518988609313965,-9.931300163269043,-0.13382508540063076,-0.21508810249415464,-10.702116512131031,0.8527051327521824,-0.3137360502497981,0.8362715079379333
1730865950.78379,-1.6006672382354736,1.0863429307937622,-9.86929702758789,-0.14733326362444055,-0.227977163297355,-10.694669057234359,0.8502285438556657,-0.3717907201651761,0.7723229838687286
1730865950.8337855,-1.81550133228302,1.01986563205719,-9.81452465057373,-0.15507766976214815,-0.2439625676950441,-10.686165669070366,0.8473911898760143,-0.25357827384232995,0.8430686171118937
1730865950.8837059,-1.9375649690628052,0.9927679896354675,-9.77560806274414,-0.1571127594419536,-0.26210860496084076,-10.677301997517041,0.844174575370968,-0.3084306338302435,0.7830965491428494
1730865950.9336746,-2.0457820892333984,0.9714118242263794,-9.726194381713867,-0.15462275998790684,-0.2811109110439046,-10.66854318147971,0.8405594187547162,-0.3641427877145534,0.6963721501601755
1730865950.9836621,-2.0869340896606445,1.0083929300308228,-9.737180709838867,-0.14970934743842615,-0.29948695510989154,-10.66007230248118,0.8774386155970774,-0.24654117530033495,0.8386780545899197
1730865951.0336392,-2.0562994480133057,1.051559329032898,-9.758321762084961,-0.14499186837170713,-0.3158127915932837,-10.65184017902962,0.8775627162123464,-0.30001954419862875,0.7773681224456129
1730865951.083622,-1.9736506938934326,1.1039338111877441,-9.822582244873047,-0.14310867951139353,-0.32895647258113425,-10.643694618254791,0.8773265880706936,-0.1927602808191377,0.8404163808498849
1730865951.133597,-1.9302725791931152,1.1401413679122925,-9.887577056884766,-0.14622898800507017,-0.33824800118293863,-10.635544276351775,0.8767304878761663,-0.24449399177655146,0.7803524067973795
1730865951.1835477,-1.8705997467041016,1.1601102352142334,-9.892549514770508,-0.15570345032682117,-0.34354225406990757,-10.627489539150035,0.8757516363364686,-0.14677441037875166,0.8390911173828862
1730865951.233644,-1.852792739868164,1.1702474355697632,-9.919771194458008,-0.17193011278841927,-0.345172620456086,-10.619856892422023,0.8743709911317287,-0.19706898101002226,0.7791285275115115
1730865951.2836158,-1.850260853767395,1.1229956150054932,-9.914119720458984,-0.1944186709114113,-0.3438200997502123,-10.613133026683236,0.8725338679528272,-0.10696124789135322,0.8398559834947118
1730865951.3335752,-1.8229795694351196,1.0839333534240723,-9.910886764526367,-0.22198631445337402,-0.3403264485350769,-10.607853750928346,0.8701752676114863,-0.15619570845749453,0.7805990733230356
1730865951.3836124,-1.7985893487930298,1.0479875802993774,-9.888747215270996,-0.2529974828989171,-0.33549683140097764,-10.604491388688487,0.8671988893320879,-0.07346907342067391,0.8399741840946771
1730865951.4335694,-1.7535266876220703,0.9978740811347961,-9.872357368469238,-0.28557594477662723,-0.3299517870783232,-10.603359415470033,0.86359431593894,-0.00216085060582862,0.8462049981274656
1730865951.4836032,-1.7225205898284912,0.9698752164840698,-9.863229751586914,-0.3177708697615908,-0.3240540030995445,-10.604552311435562,0.8592042693548195,-0.04896788909059942,0.7896361995073696
1730865951.533507,-1.668954610824585,0.9353963732719421,-9.8529052734375,-0.3476882807870393,-0.3178999106257936,-10.607933618100267,0.8540017458025825,-0.09639058555377678,0.7068367544007501
1730865951.583536,-1.6359572410583496,0.9215210676193237,-9.852986335754395,-0.3735962707655911,-0.3113625294887117,-10.613168049236197,0.847827501435848,-0.14514370429846615,0.5962446223715553
1730865951.6334298,-1.6144894361495972,0.9229671359062195,-9.850465774536133,-0.394012333534991,-0.30417139545444716,-10.61978059335221,0.840836823018776,-0.06487423139485875,0.8353359269378989
1730865951.6834772,-1.6067534685134888,0.9610587358474731,-9.857247352600098,-0.4077857939662693,-0.29601958227349134,-10.627226059375584,0.8327457338002433,-0.11235464402010122,0.7738989619795631
1730865951.7344527,-1.5976148843765259,1.0084751844406128,-9.867647171020508,-0.41417349148780197,-0.28668977317458944,-10.634958111101113,0.9127296590945193,-0.03673137325213053,0.8393141033910425
1730865951.7843916,-1.6114647388458252,1.0301212072372437,-9.874835968017578,-0.4128903163359575,-0.2761694973473974,-10.642490260431373,0.9119644678319111,-0.08332368461667417,0.7792805506766304
1730865951.8344188,-1.5975745916366577,1.018343448638916,-9.889068603515625,-0.40412112255026494,-0.26470064485479466,-10.649441220076458,0.9101766200746071,-0.13051418754933647,0.69266462699228
1730865951.8845086,-1.6075562238693237,0.9683912396430969,-9.893061637878418,-0.38848748387836096,-0.25272440325856665,-10.655559394048225,0.914020253655588,-0.052624652702341464,0.8366552388932388
1730865951.934418,-1.626556634902954,0.905511736869812,-9.897462844848633,-0.36697728923235695,-0.24073770662072363,-10.660725339811105,0.9125242345901858,-0.09865358727410536,0.7758565049800555
1730865951.9844997,-1.6508206129074097,0.8503293991088867,-9.890620231628418,-0.34086382493224926,-0.22912477718771862,-10.664932760108764,0.9101298344010069,-0.02371874450184115,0.8399474909437878
1730865952.034278,-1.668717384338379,0.7852784395217896,-9.882685661315918,-0.3116264118513304,-0.2180324861193568,-10.668252655818005,0.906952934893809,-0.06845584522706205,0.7808255647985434
1730865952.0843859,-1.668717384338379,0.7852784395217896,-9.882685661315918,-0.2808586864372211,-0.20732931770426694,-10.670792228821256,0.903001524240086,0.0013151461933310804,0.8402535644165142
1730865952.0843859,-1.666137456893921,0.7490000128746033,-9.847501754760742,-0.25015391222673344,-0.19665511882843206,-10.67265847579244,0.9029653957342092,0.0009467020571381405,0.8398636384641506
1730865952.134316,-1.6244356632232666,0.7482098340988159,-9.854060173034668,-0.2209738561466395,-0.18552969305265618,-10.67392689415898,0.8984400045598251,-0.04264392082263555,0.7807763109446643
1730865952.1843207,-1.5937052965164185,0.7874472141265869,-9.882034301757812,-0.1945161613412492,-0.17347599751270898,-10.674630363903495,0.8933486747403012,-0.08714872518308817,0.6944591580577151
1730865952.2342668,-1.5707736015319824,0.8576775789260864,-9.910017013549805,-0.17160742928567455,-0.16015358637108754,-10.674793955286178,0.9159253451992468,-0.014529575462809896,0.8460131520938102
1730865952.2842512,-1.587791085243225,0.9232023358345032,-9.935588836669922,-0.15266361326412226,-0.1455001338702938,-10.674498370314314,0.9156863997892216,0.04894561282891405,0.8500292661504512
1730865952.3342435,-1.5839658975601196,0.9715844392776489,-9.951668739318848,-0.1377363711703246,-0.12983066523872305,-10.673922950867738,0.9142761363575258,0.007310095431730766,0.7945491996663759
1730865952.3842833,-1.6285433769226074,0.9795622229576111,-9.949352264404297,-0.12661691390874735,-0.11383684433580502,-10.67334254495928,0.9125309779106903,0.0678622903606231,0.842526086599358
1730865952.4342704,-1.6731714010238647,0.9589577913284302,-9.931402206420898,-0.11896124180058447,-0.09847065752757661,-10.6730795013064,0.9104849588037341,0.02743496170331435,0.7836754896357324
1730865952.4843504,-1.7608195543289185,0.9085907340049744,-9.892904281616211,-0.1144228396877775,-0.08474408555593697,-10.673423512448117,0.9081388289177872,-0.013375674060302194,0.6978624386618715
1730865952.5342863,-1.8198007345199585,0.8613375425338745,-9.845653533935547,-0.11277641684212361,-0.07350687884109058,-10.674539962254325,0.9055191274401259,0.050411246999058384,0.8372591787072415
1730865952.5842535,-1.8743910789489746,0.8098325729370117,-9.812735557556152,-0.1139957679863866,-0.06526899944429933,-10.676394814567987,0.902610732023316,0.011064716191292743,0.7763598469472357
1730865952.634168,-1.8814746141433716,0.8248398900032043,-9.78154468536377,-0.11824936093924848,-0.060119590646254606,-10.678726183882645,0.9085603005948839,0.07384061554719289,0.8401561076051325
1730865952.6841817,-1.8178749084472656,0.9012826681137085,-9.799697875976562,-0.12579854154155512,-0.05777952405629231,-10.681080785673068,0.9068698913244412,0.03585221390597061,0.7805207756771981
1730865952.7341259,-1.7743693590164185,0.9895063042640686,-9.821540832519531,-0.13681602385721886,-0.05778721441674413,-10.682914688118416,0.9065865779862505,0.09541541861036808,0.8402170686040862
1730865952.7841399,-1.7426655292510986,1.0704177618026733,-9.879551887512207,-0.15120063984454649,-0.059739437514907394,-10.68373593313966,0.9047938091266102,0.05879071248637168,0.7806938855762251
1730865952.834016,-1.7173658609390259,1.144403100013733,-9.899643898010254,-0.16848508400380993,-0.06347320040595196,-10.683242750296408,0.9066999898535186,0.11685370963486053,0.8402730531006528
1730865952.884022,-1.7238008975982666,1.201750636100769,-9.902915954589844,-0.18786523449343684,-0.06913106764945562,-10.681400195610005,0.9054463219380873,0.081432841455929,0.7807653705715588
1730865952.9340377,-1.7645459175109863,1.1820310354232788,-9.86949348449707,-0.20832182780626157,-0.07711057530212118,-10.678417478252232,0.9074293637647352,0.1370506783775152,0.8404490779379534
1730865952.9839852,-1.83077871799469,1.1543887853622437,-9.82955265045166,-0.2288029221820731,-0.08791038628472658,-10.674638059803208,0.9082558017832348,0.18688230166925274,0.8462662404189304
1730865953.0339887,-1.8594506978988647,1.0799541473388672,-9.79504680633545,-0.2484190308452338,-0.1019120214323095,-10.67039864644443,0.907346750896458,0.1536792723673467,0.7894753742938467
1730865953.0839276,-1.8404059410095215,1.018115758895874,-9.759230613708496,-0.2665693244142685,-0.11917108570397515,-10.665917992254359,0.9057975162298787,0.120248749063403,0.7061881693452641
1730865953.1339393,-1.7897979021072388,0.9865586757659912,-9.764646530151367,-0.28293534235059936,-0.13929044183248723,-10.661250695970223,0.9035585559616884,0.08642156693274017,0.5960813252046983
1730865953.1840162,-1.698754072189331,1.0258070230484009,-9.786855697631836,-0.2973548578572389,-0.16143061103660417,-10.65631634485311,0.9085830704260128,0.14310032250248855,0.8350946787429886
1730865953.2339149,-1.6195176839828491,1.096706748008728,-9.849236488342285,-0.3096482177822237,-0.18447626990896243,-10.650995762075649,0.9071305852789315,0.10994462005075137,0.7734511922774642
1730865953.2839737,-1.5690386295318604,1.1863417625427246,-9.894932746887207,-0.31948266286159,-0.20730613372980966,-10.645259550487586,0.904878505825001,0.07609384158003932,0.6846662730882881
1730865953.3338645,-1.5596836805343628,1.2637195587158203,-9.941064834594727,-0.3263429276882269,-0.22906004921237122,-10.639272659772043,0.9077280031287421,0.1356967827566168,0.837505275769619
1730865953.384044,-1.59630286693573,1.3051685094833374,-9.960204124450684,-0.32962757660233993,-0.24930616849420068,-10.63342774557249,0.9057889803737461,0.10210179030494816,0.7763566345399887
1730865953.4338489,-1.6284863948822021,1.3273265361785889,-9.94701862335205,-0.3288293734773543,-0.268063183563451,-10.628293290492321,0.9030534978968172,0.068240357119303,0.6894738916730702
1730865953.4840422,-1.6553434133529663,1.316172480583191,-9.920696258544922,-0.32371595657407065,-0.28569368851081073,-10.62449199909938,0.9069683961807478,0.1291852871685355,0.8373808842903003
1730865953.5338588,-1.6599690914154053,1.2806527614593506,-9.860176086425781,-0.3144304858042099,-0.3027224227763331,-10.622544669812154,0.9049818108911755,0.1848531487943509,0.8469698285483626
1730865953.583919,-1.6765570640563965,1.1801283359527588,-9.819402694702148,-0.3014867922446246,-0.31962675011420005,-10.622724704919191,0.9022060609179031,0.15129825226567115,0.7900911038608338
1730865953.6338382,-1.6720153093338013,1.0732054710388184,-9.787087440490723,-0.28569014688678573,-0.3366262910467246,-10.624968976902306,0.898713301650249,0.20322658006321975,0.8426935995712621
1730865953.6838663,-1.6663193702697754,0.9791675806045532,-9.763050079345703,-0.26802425295770815,-0.3535124417502656,-10.628875208201304,0.8945301411128478,0.16947337116595432,0.7839642545520724
1730865953.7339408,-1.6707918643951416,0.9239218235015869,-9.750232696533203,-0.2495309203414497,-0.3695844352565932,-10.633776671703089,0.8896830662517272,0.1346865486028381,0.6983869855530392
1730865953.7837968,-1.6994575262069702,0.9047927856445312,-9.781537055969238,-0.23121176268510119,-0.3837336195631714,-10.63886462735434,0.8842610772080716,0.18830875877537473,0.8389590919473776
1730865953.8338177,-1.7137017250061035,0.9450106620788574,-9.824131965637207,-0.21397553974650324,-0.3946584597847935,-10.643342329742682,0.8782536445177785,0.1529320614965306,0.7781953915119392
1730865953.8838098,-1.7199853658676147,1.0237822532653809,-9.900525093078613,-0.19861693232191385,-0.40115712114754903,-10.646593053091813,0.8717417248402243,0.2048749305653966,0.8421717916937811
1730865953.933771,-1.7121604681015015,1.109671950340271,-9.941783905029297,-0.1857913111462095,-0.40242789272152085,-10.648322424253017,0.8647575736834758,0.25073567835914073,0.8482774451660989
1730865953.9838536,-1.7125602960586548,1.1412822008132935,-9.991416931152344,-0.1759752681481988,-0.39828701406374484,-10.648627321754525,0.8572971856797892,0.2149091300671813,0.7914856121352837
1730865954.033785,-1.7383090257644653,1.1559922695159912,-9.991555213928223,-0.16943795449347193,-0.389221036674476,-10.647966051110476,0.8494507211235749,0.17831288051522334,0.708524132673348
1730865954.0837812,-1.7700742483139038,1.0934906005859375,-9.966474533081055,-0.1662543529711458,-0.37625501923561055,-10.647036755371582,0.841132899223536,0.225518701525563,0.8392272880497461
1730865954.1337168,-1.7931220531463623,1.0574482679367065,-9.924484252929688,-0.16635930872767335,-0.3606935341250854,-10.646593359543122,0.8324513734280534,0.18829380541679364,0.7786840016023796
1730865954.1838078,-1.8051255941390991,0.9757516384124756,-9.861323356628418,-0.1696048235478138,-0.34383134578097996,-10.64724833801098,0.8233149295541069,0.23526440935228335,0.842182973990966
1730865954.233678,-1.8243852853775024,0.909440279006958,-9.807530403137207,-0.17579028124688062,-0.3267167778127379,-10.649314931853631,0.8137863732475751,0.19759942538803973,0.7829400845498221
1730865954.2837088,-1.831785798072815,0.8526820540428162,-9.77783489227295,-0.18466977737265583,-0.3100057435744096,-10.652727022187635,0.8037369606185241,0.24204993901911384,0.8422873549056751
1730865954.3335953,-1.7967559099197388,0.8678164482116699,-9.767488479614258,-0.19594466348743644,-0.2939288645591013,-10.657059163856282,0.793328937484169,0.20422045727341592,0.783328114920439
1730865954.3836603,-1.7605763673782349,0.9291214346885681,-9.799591064453125,-0.209230566310114,-0.2783933991676497,-10.66164219157504,0.9290080284871253,0.2481968588038519,0.8423261977512411
1730865954.433618,-1.710945725440979,1.0032237768173218,-9.818702697753906,-0.22400388116771267,-0.2631967793715264,-10.665737634812395,0.9289217157451825,0.20995558496678893,0.7828944517479669
1730865954.4836576,-1.7012803554534912,1.053971767425537,-9.838756561279297,-0.23956837590824803,-0.2482592687657361,-10.66871045519804,0.9333917854291786,0.17304731738545093,0.8421873177043783
1730865954.5335536,-1.6881037950515747,1.0379717350006104,-9.849413871765137,-0.25508202173324834,-0.2337597383391983,-10.670142665220279,0.9336161694628377,0.13379546780301999,0.7830031749204178
1730865954.5836434,-1.7113316059112549,0.9963055849075317,-9.854170799255371,-0.2696477576590684,-0.22010935183431368,-10.66987010329537,0.9349786970898215,0.09654368994421493,0.8422448507354681
1730865954.6335702,-1.745736837387085,0.9328804016113281,-9.85682487487793,-0.28244175318623166,-0.20779128334162802,-10.667960285703398,0.9346492043379266,0.05610458377957867,0.7828421029564882
1730865954.683587,-1.7479357719421387,0.8603179454803467,-9.831171989440918,-0.2928397957194572,-0.19715985741198802,-10.664653264104413,0.9335934038992514,0.014858241062323465,0.6961607447565448
1730865954.733575,-1.7491909265518188,0.843873918056488,-9.839099884033203,-0.30049204896233195,-0.188292035280711,-10.6602833305904,0.9357396320868191,-0.023632808238961214,0.8389780403905444
1730865954.7836032,-1.719849944114685,0.8954249024391174,-9.856204986572266,-0.3053163542740466,-0.18096180825783997,-10.65521231137601,0.9346237355399603,-0.0658035843937326,0.7776952136763716
1730865954.8335345,-1.69038987159729,1.013269066810608,-9.893735885620117,-0.30742630746859967,-0.17477362128168167,-10.649807318568808,0.932752800942463,-0.1039941223843989,0.842242411974742
1730865954.8834958,-1.6407148838043213,1.1782209873199463,-9.94733715057373,-0.30703054923451506,-0.16941993289124704,-10.644463199083166,0.9301238966107646,-0.1406285699377659,0.848333776306841
1730865954.9335127,-1.5968351364135742,1.3148117065429688,-9.980710983276367,-0.30433469237989347,-0.16495877058340477,-10.639639925990796,0.9267184978920052,-0.18370559810375023,0.7916688024701408
1730865954.9834745,-1.5788203477859497,1.3853707313537598,-9.986942291259766,-0.2994737400861205,-0.1619785688000966,-10.635873332943426,0.9225637225513714,-0.2271344013045267,0.7085163738516703
1730865955.0333755,-1.59587824344635,1.345052719116211,-9.986001014709473,-0.2925041164953181,-0.1615438909137944,-10.633728104303117,0.9397858880428286,-0.2659976829777913,0.8394842912881484
1730865955.0834413,-1.6471034288406372,1.241713523864746,-9.92891788482666,-0.2834703108480575,-0.16490449686047343,-10.633697768240213,0.938491606412714,-0.31025810774543017,0.7788006995653347
1730865955.1334794,-1.7504501342773438,1.1041513681411743,-9.85863208770752,-0.2725312504853604,-0.17306584245438816,-10.63607483172829,0.9364986683866293,-0.35498357955748766,0.6913794774607309
1730865955.1834555,-1.8304283618927002,0.9711137413978577,-9.74976921081543,-0.26010530466443754,-0.18638708506832874,-10.640815008041411,0.93384025075797,-0.39403827247294787,0.8387875849510278
1730865955.2333221,-1.9156988859176636,0.9128645658493042,-9.670672416687012,-0.246970462905305,-0.20435596522221858,-10.647433981315523,0.930567519304719,-0.43931101040803977,0.7782294384253432
1730865955.2834413,-1.9563443660736084,0.903839647769928,-9.61693286895752,-0.23426257323907823,-0.22562069442296723,-10.654988304067588,0.9266457428390773,-0.48570563740613937,0.6900143961609642
1730865955.3332965,-1.9563443660736084,0.903839647769928,-9.61693286895752,-0.22335635377554058,-0.24825543804701827,-10.662178273745955,0.9222195651008064,-0.5319427845804204,0.5767918067278384
1730865955.3332965,-1.9662718772888184,0.9583784937858582,-9.625625610351562,-0.21565881677555396,-0.27014053442326363,-10.667562069117256,0.922178403510277,-0.532350147982695,0.5756851481513722
1730865955.3834836,-1.923431158065796,1.0500279664993286,-9.705564498901367,-0.21237923940690695,-0.28934311406588153,-10.669823739564158,0.9171869721155195,-0.5722621775043567,0.8380219510399699
1730865955.4342368,-1.8367159366607666,1.1513241529464722,-9.823517799377441,-0.21432495959753584,-0.30444412764823126,-10.668042242087319,0.9115551007852803,-0.6209554114933123,0.7782575194071387
1730865955.4842105,-1.7143102884292603,1.2665013074874878,-9.948857307434082,-0.2217258921207593,-0.31477127653485387,-10.661926334676298,0.9054868645881919,-0.6604864805217002,0.8434274611786297
1730865955.5342638,-1.5934988260269165,1.3747628927230835,-10.055098533630371,-0.23409967344357574,-0.32050062629722725,-10.651959706348148,0.898813080447874,-0.709965976108379,0.7846814142816653
1730865955.5842412,-1.4835880994796753,1.4298890829086304,-10.111140251159668,-0.2502066420250684,-0.32261408541435055,-10.63939205771917,0.8915475180933232,0.1468887072276017,0.8431371830840032
1730865955.6342456,-1.443881630897522,1.4316983222961426,-10.103753089904785,-0.26814177409232526,-0.3227098518865815,-10.626051485378756,0.883634644135709,0.10795896450654448,0.7840703515437022
1730865955.6842623,-1.4952565431594849,1.3775787353515625,-10.049909591674805,-0.28558724617775166,-0.32268120035097503,-10.61400873885155,0.8749863572804115,0.7094908783026852,0.6979675198887237
1730865955.7341847,-1.6399167776107788,1.2702287435531616,-9.953142166137695,-0.3002180599205487,-0.3243216456306143,-10.605171413612805,0.8657003258273209,0.6766639598052577,0.5864268391317696
1730865955.7842758,-1.8158236742019653,1.1555479764938354,-9.814238548278809,-0.3101921132101474,-0.3289425561438239,-10.600901787716793,0.9595910335645147,1.1968380382984771,0.44720447132496044
1730865955.8341494,-1.987913966178894,1.0372942686080933,-9.684324264526367,-0.31458832538082615,-0.337091241266685,-10.601731941396551,0.9597631643521616,1.6401769434574953,0.28278388580822994
1730865955.8841746,-2.1046435832977295,0.9711049795150757,-9.589987754821777,-0.3136462243613923,-0.34843831387050805,-10.6072339764767,0.9591457749767581,1.616367916024913,0.08976611571704483
1730865955.9341092,-2.1483964920043945,0.9394667744636536,-9.553539276123047,-0.3087235529072767,-0.3618624310336155,-10.616089668504927,0.9577607403629523,1.5919521062592241,-0.12742421631783105
1730865955.9841945,-2.121264934539795,0.9565346837043762,-9.586009979248047,-0.30198177721100944,-0.3757073538814393,-10.626359836142004,0.9556072844271091,1.5664943480625388,-0.3721896004817878
1730865956.0340698,-2.039263963699341,0.9619608521461487,-9.645097732543945,-0.29589129132319947,-0.3881321005616013,-10.635891954567153,0.9527158052274926,1.9809086118084434,-0.6427046309379087
1730865956.0840585,-1.9312196969985962,0.9948458671569824,-9.719782829284668,-0.2926926435519839,-0.39744938871691315,-10.642755854942688,0.949079759881694,1.958548191654623,-0.9406924207637858
1730865956.1340225,-1.8107657432556152,1.0069457292556763,-9.799466133117676,-0.2939449644905053,-0.4023758375597546,-10.64559301870527,0.944717899467221,1.9352278955919233,-1.26473580522618
1730865956.184022,-1.7375962734222412,1.0039891004562378,-9.883305549621582,-0.3002550662431074,-0.40216419602567166,-10.643816390072221,0.9396103061769667,1.9108822877745124,-1.6156480074836246
1730865956.2339506,-1.6901278495788574,0.9899908900260925,-9.963652610778809,-0.3112338997495707,-0.3966156231757798,-10.63765880242644,0.9337513241810934,2.2969714453394716,-1.9923358482750642
1730865956.2840056,-1.6511867046356201,1.0167818069458008,-10.022025108337402,-0.32566190200995543,-0.3860049875266014,-10.62809538833072,0.9270285595382127,2.27513332394487,-2.399724082097498
1730865956.3338845,-1.626352071762085,1.0566904544830322,-10.058816909790039,-0.3417760488083251,-0.370987735431045,-10.616666333210874,0.9195936027264036,2.616936794841938,0.8176071152857863
1730865956.3839247,-1.6089198589324951,1.1275053024291992,-10.08283519744873,-0.3575809252371611,-0.35253858403337707,-10.605230843753056,0.9111918947706544,2.597467625091619,0.7525149189644759
1730865956.433835,-1.548673152923584,1.161179542541504,-10.08017635345459,-0.37111846029806767,-0.33191266955174276,-10.595695934358716,0.9019352371107617,2.9014439803324548,0.8266102614639075
1730865956.4838657,-1.5168516635894775,1.1840696334838867,-10.051786422729492,-0.38065544481035507,-0.31058004811740525,-10.5897598422391,0.8916810060390148,3.1670532143027113,0.7660735896786223
1730865956.533793,-1.4813148975372314,1.1318827867507935,-9.987784385681152,-0.38478917466587365,-0.2900914317056831,-10.588690248263973,0.8805283031511121,3.1520755804076903,0.6794785892737987
1730865956.5838237,-1.4938756227493286,1.0512200593948364,-9.905617713928223,-0.3825147762452484,-0.2718685600511555,-10.593148418787381,0.8683120753653181,3.1362598024269555,0.5654519239598055
1730865956.6337664,-1.5253958702087402,0.9455553293228149,-9.82075309753418,-0.37329248326635994,-0.2569567502598067,-10.603078205210597,0.8553027407271895,3.119975856940971,0.4264547357383295
1730865956.683823,-1.6069215536117554,0.8572342395782471,-9.72569751739502,-0.35712328646765584,-0.24581615981638777,-10.617683258328318,0.8412729389180352,3.372891584688886,0.2597121125147362
1730865956.7337284,-1.7038275003433228,0.803158164024353,-9.66273307800293,-0.33461970867129315,-0.23823121685194765,-10.635502628703284,0.8264503671093755,3.358329687243164,0.06736805082516222
1730865956.7837372,-1.8090814352035522,0.8006678223609924,-9.635173797607422,-0.30704285160093464,-0.2333796373629852,-10.654583393792352,0.8108193632840469,3.58664177203139,-0.15170999894608272
1730865956.8336544,-1.8927173614501953,0.8072279691696167,-9.634767532348633,-0.2762678712516755,-0.23004415629970376,-10.672739381640564,0.7944862452826389,3.7888455917248622,-0.39700376861539044
1730865956.883653,-1.9440635442733765,0.8602471947669983,-9.668485641479492,-0.2446487399825857,-0.22689717473385285,-10.687857468773164,0.7773784444715175,3.7775588128520328,-0.6707964980427823
1730865956.9336395,-1.9826576709747314,0.9154075980186462,-9.733817100524902,-0.2147854784058447,-0.22278025305968352,-10.69819575217211,0.759787570254282,3.7657702377917124,-0.9698538666144764
1730865956.9837236,-1.9989776611328125,0.9727869033813477,-9.810914993286133,-0.18923835551652446,-0.21692344528271512,-10.702628517982824,0.7415598102548664,3.9550921602618496,-1.2982895250927078
1730865957.033659,-1.9968469142913818,1.0430967807769775,-9.891023635864258,-0.1702494625680738,-0.20907007310388728,-10.700802638763275,0.7231235946015669,3.944519972168635,-1.648770437414433
1730865957.083661,-1.9078164100646973,1.1033395528793335,-9.982389450073242,-0.15950150545568834,-0.19950203035534853,-10.693181944507522,0.704088290410858,3.933329802098245,-2.0295557856653548
1730865957.1336153,-1.811535358428955,1.1505705118179321,-10.037453651428223,-0.1579074346883022,-0.18898216960348968,-10.680979322204045,0.684760789699776,4.11104378560727,0.8223840103251308
1730865957.1835968,-1.684177279472351,1.158101201057434,-10.068291664123535,-0.16544415048282596,-0.1786242094875733,-10.665985821403465,0.6649948928233467,4.101051872009245,0.7585367176693572
1730865957.2335598,-1.607757568359375,1.1402833461761475,-10.083259582519531,-0.18108909760918815,-0.1696983400469078,-10.650315168134203,0.6447834181905234,4.090618463348315,0.6680244403710754
1730865957.2836456,-1.5794684886932373,1.0847864151000977,-10.054425239562988,-0.2029207025625714,-0.16339723206949114,-10.636107570952806,0.6240860218377181,4.079765646012528,0.5508788676097176
1730865957.3335211,-1.6266781091690063,1.0333889722824097,-10.00820255279541,-0.22840203584464608,-0.16060703691842337,-10.625240724983477,0.6029665463405489,4.0705043548916064,0.8310941765921616
1730865957.3835816,-1.7076492309570312,0.985153317451477,-9.948284149169922,-0.2548039369567835,-0.1617386866296067,-10.619083986463366,0.5811481403641426,4.24348304835795,0.8439158796709482
1730865957.4335127,-1.7534598112106323,0.9991579055786133,-9.872818946838379,-0.2796552863298842,-0.16667072747133757,-10.618329924348764,0.558641558289509,4.2334730456559,0.787865847193969
1730865957.4836228,-1.761965274810791,1.019677996635437,-9.80775260925293,-0.30107478407984656,-0.1748280038317773,-10.622925177794745,0.535354913422098,4.223011703221037,0.70503799696839
1730865957.5335631,-1.7332777976989746,1.0601274967193604,-9.740081787109375,-0.3178903987649385,-0.18536483556025768,-10.632102658207595,0.5113875595167818,4.2121420195563335,0.5959984817312585
1730865957.5835302,-1.7360866069793701,1.0578792095184326,-9.706241607666016,-0.3295718352639577,-0.19736901119343644,-10.644505899851115,0.486548934142944,4.20076573281551,0.46006451958100325
1730865957.633568,-1.7078824043273926,1.0534155368804932,-9.675688743591309,-0.33608164834447096,-0.21000356872242207,-10.658386870369343,0.46097968685009966,4.190861150583881,0.8338047218060176
1730865957.683474,-1.7233083248138428,1.0290294885635376,-9.678693771362305,-0.3377309476303416,-0.22255746674215834,-10.671846804056209,0.4344265156374507,4.178436632894926,0.7716901047406204
1730865957.733404,-1.7296462059020996,1.0342074632644653,-9.693284034729004,-0.3350720182229835,-0.23443744950735423,-10.683083604777146,0.4073439607449006,4.354343503766958,0.8429660518251362
1730865957.7834828,-1.7782323360443115,1.0552161931991577,-9.738544464111328,-0.32883538751044605,-0.24515842532818255,-10.690615515993084,0.3790684251661537,4.34280916530662,0.7840045947999744
1730865957.833414,-1.8271551132202148,1.1032934188842773,-9.756502151489258,-0.31990632562350163,-0.25437029741376616,-10.693453390702473,0.35024672092294645,4.3307600205262125,0.6989956204541294
1730865957.8834038,-1.8970963954925537,1.1459044218063354,-9.80887222290039,-0.3093231116448829,-0.26191621852297875,-10.691193182271952,0.3204699642842469,4.317995361618317,0.5867846962571229
1730865957.933347,-1.9201931953430176,1.1988476514816284,-9.833016395568848,-0.298266162147189,-0.2678859975490381,-10.684021454614118,0.2901197619438944,4.484461104321607,0.8371771864898395
1730865957.983341,-1.93211030960083,1.2210768461227417,-9.855461120605469,-0.2879987735675373,-0.27262921236607085,-10.672647544667278,0.25863962504611193,4.472270145792809,0.7748164900244677
1730865958.0332818,-1.8952357769012451,1.1917591094970703,-9.863088607788086,-0.27974123019941405,-0.27670262611783913,-10.658175390011408,0.22718335982832832,4.6186942678157745,0.8427815325168071
1730865958.0833924,-1.8420480489730835,1.143674373626709,-9.883455276489258,-0.2744991004564533,-0.28073883284431556,-10.641939016063859,0.19431014254472387,4.606868617631686,0.7829794144583926
1730865958.1332362,-1.7618697881698608,1.129366159439087,-9.8805570602417,-0.272888627568063,-0.28527289232114594,-10.62533861725315,0.16139096644146828,4.737628669670891,0.842880373356345
1730865958.1833367,-1.694387674331665,1.115341305732727,-9.905627250671387,-0.2750059440730277,-0.29061361070747416,-10.609701885619423,0.1271159029937752,4.725929681014684,0.7831485957037175
1730865958.2332082,-1.6100733280181885,1.094612956047058,-9.931663513183594,-0.28037688498754776,-0.29680875799663964,-10.596185913139509,0.09265869989363563,4.713674395955775,0.697961988417912
1730865958.2832747,-1.5418109893798828,1.0807050466537476,-9.972339630126953,-0.2879959671074276,-0.30367566699279647,-10.585731424901866,0.05722151346401965,4.8339456847835605,0.8385988841927584
1730865958.3331993,-1.499990701675415,1.0729589462280273,-10.015694618225098,-0.2964421730128931,-0.3108566759752528,-10.579062196237604,0.02158867892462657,4.93804453556585,0.8476219497884637
1730865958.383289,-1.4388550519943237,1.0682786703109741,-10.016959190368652,-0.30405290899904996,-0.31788780266021033,-10.576700643168433,-0.015579365840125084,4.9260331868106375,0.7904913557420473
1730865958.4332135,-1.4234479665756226,1.0768064260482788,-10.036955833435059,-0.30912303939129065,-0.32427576088259846,-10.578966315303862,-0.05271000378873963,5.018536499611707,0.8428057971314091
1730865958.4831707,-1.4432932138442993,1.1116139888763428,-10.005428314208984,-0.3101036796437822,-0.32957854227274097,-10.585948208223389,-0.09140245185311248,5.006034738065553,0.7834683432871571
1730865958.5341525,-1.5085569620132446,1.1484904289245605,-9.962830543518066,-0.30580480087367873,-0.3334893698555682,-10.597461641931115,-0.1310124305212175,4.992644921032466,0.6969234459375969
1730865958.5831633,-1.5824558734893799,1.1850098371505737,-9.87814998626709,-0.2955919628701928,-0.33591099196719,-10.612995039766027,-0.1700548310342763,5.081859677001274,0.8389466650174716
1730865958.6341417,-1.7026240825653076,1.1562330722808838,-9.797066688537598,-0.27953600423258257,-0.3369831116372393,-10.631659151320427,-0.21132795497794132,5.06788284572397,0.7774277581390675
1730865958.6841717,-1.8434793949127197,1.0966352224349976,-9.701960563659668,-0.2584880392691029,-0.3370206386711544,-10.652168508236556,-0.2528158543864959,5.053210354250884,0.6896443115315515
1730865958.7341104,-1.9647480249404907,1.0394996404647827,-9.635427474975586,-0.23407346993940614,-0.33636588098799514,-10.672883307932096,-0.29450723439809445,5.037846457627085,0.5762598066591744
1730865958.7841659,-2.0362460613250732,0.9632866978645325,-9.589738845825195,-0.20858119894254948,-0.3352236777101579,-10.691925817780621,-0.3367816025509673,5.12360388941725,0.8353279273232598
1730865958.8331368,-2.0580220222473145,0.9396564364433289,-9.595098495483398,-0.18471815105326297,-0.33355657697729785,-10.707369677274754,-0.37880389292325484,5.107996543900012,0.7748164834324388
1730865958.8841126,-2.0260348320007324,0.9472898840904236,-9.640368461608887,-0.16524643694739774,-0.33108329975281586,-10.71748411239894,1.0542492221951583,5.184656374081565,0.8400820928074674
1730865958.9341154,-1.9630955457687378,1.0134309530258179,-9.721592903137207,-0.1525741290634281,-0.32739226107418373,-10.720997207539094,1.054026973566173,5.16811991436063,0.7798409686128746
1730865958.984118,-1.895137906074524,1.0919886827468872,-9.815616607666016,-0.14839123534422344,-0.3221379528583075,-10.71732575041556,1.0567654047782187,5.237412902038535,0.8406170649779321
1730865959.0339692,-1.8222602605819702,1.1473636627197266,-9.905097961425781,-0.1534312010621486,-0.31524129026971703,-10.706714843204914,1.0568372379089195,5.220360952042947,0.7811469331808263
1730865959.0840662,-1.7455374002456665,1.1361726522445679,-9.956357955932617,-0.16739488125258714,-0.30699493968564867,-10.690243751479185,1.0598543633761366,5.283197361366162,0.8404020287389312
1730865959.1339521,-1.700907826423645,1.1482601165771484,-10.000899314880371,-0.18902584975138434,-0.29801760587278536,-10.66968529239467,1.0604089013839662,5.265477384085287,0.7807353838922115
1730865959.1839936,-1.7207727432250977,1.1174755096435547,-10.020934104919434,-0.21631795051226926,-0.28909907684443914,-10.64725372775024,1.060458806894754,5.246873496770749,0.6938029417964492
1730865959.233999,-1.7523990869522095,1.134559988975525,-9.988039016723633,-0.24683826702283257,-0.2810288550314559,-10.625300965776887,1.0609615611153578,5.307494638335331,0.5813596421811049
1730865959.2839696,-1.8286563158035278,1.1376848220825195,-9.950651168823242,-0.2781108278608303,-0.27447460105917654,-10.60600421888213,1.0603634826428106,5.288513982570379,0.4418747631372273
1730865959.3339097,-1.8731988668441772,1.1633003950119019,-9.883402824401855,-0.30797107865293316,-0.2699314920636703,-10.591083832597187,1.0590372864934265,5.342897747486602,0.27630426899694766
1730865959.3839538,-1.87714421749115,1.2097761631011963,-9.829784393310547,-0.3348043672157315,-0.26773068488260277,-10.581599956246668,1.0638011205796942,5.390463688429454,0.08060994432355739
1730865959.43391,-1.87714421749115,1.2097761631011963,-9.829784393310547,-0.35761734230794584,-0.2680790447818257,-10.577870907532427,1.0628456493187615,5.371399789543274,-0.13507983279709995
1730865959.43391,-1.8527741432189941,1.2444229125976562,-9.779115676879883,-0.3759648772890758,-0.27109334898839427,-10.579529209505566,1.0628377542211123,5.371289749840735,-0.1363769814126448
1730865959.483997,-1.7791498899459839,1.2536530494689941,-9.761033058166504,-0.38979844713572065,-0.27681048396671204,-10.585670078734362,1.0609240299415563,5.3511537427681315,-0.38302634921063994
1730865959.5338774,-1.7433054447174072,1.2289862632751465,-9.7857084274292,-0.39928447315318694,-0.28518004740090147,-10.59503104809098,1.065193031458656,5.331332377452683,0.8342339121076301
1730865959.583923,-1.7001326084136963,1.2023404836654663,-9.813427925109863,-0.4046441547505123,-0.29603345039204215,-10.606196504929162,1.063750903921959,5.309826561054974,0.7732824939442059
1730865959.6338441,-1.658395528793335,1.1724835634231567,-9.855494499206543,-0.4060633343164608,-0.3090343995363345,-10.617818753642503,1.067082824617216,5.288407361674346,0.8480468618229114
1730865959.6838272,-1.589672565460205,1.1396898031234741,-9.88569164276123,-0.40366193490248903,-0.32364721491612375,-10.628803187020601,1.068511842640886,5.266202626970354,0.8558943592842339
1730865959.733828,-1.5081108808517456,1.1046420335769653,-9.922158241271973,-0.3974767464833063,-0.33914451336525153,-10.638417392856336,1.0673719325872861,5.242310114920101,0.8001694265817809
1730865959.7838185,-1.4295170307159424,1.1049782037734985,-9.95274543762207,-0.3874374907479166,-0.3546529888892086,-10.64632256028943,1.06525383842811,5.21763134910979,0.7180043283164883
1730865959.833836,-1.4295170307159424,1.1049782037734985,-9.95274543762207,-0.37336552884023644,-0.3692389421686942,-10.652540760289195,1.062183399178683,5.192033095516435,0.6091644962576244
1730865959.833836,-1.4276865720748901,1.1359474658966064,-9.951932907104492,-0.3550458122061553,-0.3820266544178632,-10.657367636805013,1.062162878545491,5.19188201122045,0.608455889129564
1730865959.8838398,-1.4276865720748901,1.1359474658966064,-9.951932907104492,-0.3323646832215559,-0.39231860962483583,-10.661250867085917,1.0695407429489479,5.166449569095918,0.8476248786444033
1730865959.8838398,-1.4848183393478394,1.1582427024841309,-9.916403770446777,-0.3054451798853905,-0.39967863925325686,-10.664668601000038,1.069535903996599,5.166317897992966,0.8474076405323707
1730865959.9337692,-1.5948827266693115,1.1681678295135498,-9.850994110107422,-0.2747547754819959,-0.4039611645650902,-10.66801659600706,1.0717921022783263,5.227323229097985,0.8647393721556671
1730865959.9839382,-1.7093874216079712,1.1369863748550415,-9.79179573059082,-0.24120734379791242,-0.40529020819416783,-10.671495877194843,1.0712207406067706,5.199724214932452,0.813495200507761
1730865960.0338023,-1.8193243741989136,1.1080282926559448,-9.737626075744629,-0.20623354174763164,-0.40398606459629627,-10.675026214306236,1.073751897016455,5.254007968365652,0.8591577896780928
1730865960.083812,-1.884267807006836,1.1029753684997559,-9.714607238769531,-0.1717525701341963,-0.4004581091511631,-10.67823015610911,1.0734509232230107,5.225470971074824,0.8023851264630867
1730865960.1337838,-1.9105286598205566,1.1115912199020386,-9.716594696044922,-0.1400098742625964,-0.3951225309651261,-10.68050549083067,1.0727613722049287,5.196017375360211,0.719092328109488
1730865960.1837988,-1.9257912635803223,1.116139531135559,-9.744019508361816,-0.11330631767429392,-0.3883794403994176,-10.681169110417194,1.0755339696381236,5.166423040720693,0.8530311426790719
1730865960.2337227,-1.9447674751281738,1.1083884239196777,-9.78177261352539,-0.09369877542076056,-0.3806219079110873,-10.679631405132467,1.0754489457715712,5.1350089144058995,0.7929539104428284
1730865960.28374,-1.942165493965149,1.0875669717788696,-9.824285507202148,-0.08275865740881909,-0.37223292757147397,-10.67555147787001,1.0774440998054235,5.191375988166848,0.8545624551209997
1730865960.3336928,-1.9253342151641846,1.0885087251663208,-9.844911575317383,-0.08142112874054921,-0.36355910432180677,-10.668931251305786,1.0777319981805813,5.159224390866731,0.7952459046765357
1730865960.383695,-1.8715403079986572,1.0781447887420654,-9.8873929977417,-0.08990681652428337,-0.35488429080839906,-10.660129447478258,1.0778060784108598,5.1260145198092255,0.708852308923976
1730865960.4336674,-1.8378441333770752,1.0401469469070435,-9.917705535888672,-0.10769741627753292,-0.3464159173357007,-10.649811929087512,1.0776340087409715,5.092216766484529,0.5967099233358957
1730865960.48365,-1.7672381401062012,1.032460331916809,-9.951805114746094,-0.13356993900445002,-0.3382700100950633,-10.6388707965128,1.077157586047719,5.058274513177318,0.456847841662961
1730865960.5337403,-1.7021394968032837,1.0370874404907227,-9.975760459899902,-0.16569076557668738,-0.3304627080589125,-10.628328991335719,1.076311458753719,5.022735060371567,0.2914429836841829
1730865960.5838394,-1.65043306350708,1.073177456855774,-10.0149564743042,-0.20175570742915044,-0.32294185057296076,-10.619239783989062,1.074991293406436,4.985759872111782,0.09732937914439403
1730865960.6337297,-1.6014059782028198,1.14634108543396,-10.020565032958984,-0.2391707666461156,-0.31566899467278464,-10.612593628076683,1.0731438547932441,4.948747049725683,-0.12020960070265498
1730865960.6836996,-1.5850491523742676,1.22859787940979,-9.987622261047363,-0.2752684955848218,-0.3087323806563153,-10.609225955791981,1.0706357079688948,4.910044342470139,-0.3663366294814423
1730865960.733647,-1.6096011400222778,1.2526041269302368,-9.945744514465332,-0.30754544967400954,-0.3024425084190724,-10.609707102111887,1.0674124081206235,4.871299619429771,-0.6377804920514352
1730865960.7837098,-1.665219783782959,1.2559261322021484,-9.857342720031738,-0.3339087170205012,-0.2973387752048053,-10.614223356895597,1.0633667680829564,4.831591105342852,-0.9373295882411636
1730865960.8336103,-1.7471556663513184,1.2027697563171387,-9.769553184509277,-0.3529075284853225,-0.2940746926728297,-10.622480099421892,1.058500209572009,4.791466701239153,-1.2608629028463716
1730865960.8836133,-1.8258168697357178,1.1118991374969482,-9.667461395263672,-0.36390498425974216,-0.29321746035368557,-10.633653390163017,1.0527164853216164,4.750054892886212,-1.6124523529168295
1730865960.9335773,-1.8815194368362427,1.0185134410858154,-9.608986854553223,-0.36714224089494074,-0.2950272114322327,-10.64641644054,1.0460327440467045,4.708341549400401,-1.9898947716158737
1730865960.9835758,-1.8734042644500732,0.954424262046814,-9.58102798461914,-0.3636593881940319,-0.2992933184322767,-10.659065284345566,1.038414428479656,4.664794860430779,-2.395139267730306
1730865961.033538,-1.8734042644500732,0.954424262046814,-9.58102798461914,-0.3550727175048023,-0.30530512727769454,-10.669740544997975,1.029924616025909,4.621576406892974,-2.8256722081435286
1730865961.033538,-1.824157476425171,0.9195178747177124,-9.613903045654297,-0.34326736007961145,-0.31197769028095623,-10.676700442886492,1.0298695828973987,4.621307837995127,-2.8284064711654757
1730865961.0836797,-1.7324042320251465,0.9404146075248718,-9.695297241210938,-0.3300801212766925,-0.3180652566906535,-10.67858905198505,1.0205175085460974,4.5772892819066895,-3.2858790250918557
1730865961.133535,-1.6441199779510498,0.9858413338661194,-9.814929962158203,-0.3170130744547073,-0.3223836273717424,-10.674668622260523,1.0103955472114963,4.531320733821262,0.8271832466523693
1730865961.1836119,-1.5686087608337402,1.074684739112854,-9.920032501220703,-0.3050201310662124,-0.32402103018532774,-10.664989943319439,0.9993925934096892,4.485386235549732,0.7635116221491508
1730865961.2334654,-1.542607307434082,1.151999592781067,-10.003628730773926,-0.29442650431222567,-0.3225255894372451,-10.6504506284713,1.0960093537086213,4.436881430755148,0.8428549135120595
1730865961.283573,-1.5542049407958984,1.2301385402679443,-10.041191101074219,-0.28500843268249815,-0.3180224852288631,-10.632696059494652,1.095550985506003,4.389413767883814,0.7834045838237074
1730865961.3333614,-1.6225168704986572,1.2406723499298096,-10.066964149475098,-0.2762070396608962,-0.3112117545817138,-10.61387273486675,1.0943998334374787,4.341538702203603,0.6980594234063361
1730865961.3834236,-1.7253564596176147,1.2138913869857788,-10.027120590209961,-0.267416695797715,-0.3032248721793444,-10.596295077497928,1.0925602785078268,4.292528099921311,0.5855434898870578
1730865961.4334004,-1.8377536535263062,1.1672279834747314,-9.96264362335205,-0.25827398264238105,-0.29536615723910503,-10.582089709427546,1.0970730338397994,4.240989088524465,0.8384290203407584
1730865961.4834306,-1.8791604042053223,1.118408203125,-9.90227222442627,-0.24886013592052583,-0.2888226276196047,-10.572873015046952,1.096159407187011,4.190475915845193,0.7768173860712504
1730865961.5334456,-1.8703622817993164,1.049418330192566,-9.87574577331543,-0.2397310790475968,-0.28443233672068025,-10.56953456486783,1.099346007603611,4.136148402540955,0.8437778484507585
1730865961.5833516,-1.7904411554336548,0.9940613508224487,-9.860814094543457,-0.23174786872565978,-0.2825502992075175,-10.572185962324404,1.10182750016273,4.079734939629763,0.8496906117338489
1730865961.6333067,-1.7904411554336548,0.9940613508224487,-9.860814094543457,-0.2257894095035663,-0.2830220319999258,-10.580265139216186,1.1020779086834707,4.0271407778737744,0.7933018664064536
1730865961.6333067,-1.6464136838912964,0.9628157019615173,-9.86606502532959,-0.22248321176291636,-0.2852692174226999,-10.592729839631154,1.1020777336148209,4.026856784625362,0.7929282794416748
1730865961.683353,-1.5627888441085815,0.9482263922691345,-9.848698616027832,-0.22201301023974218,-0.2884465447382906,-10.608268737391905,1.1017682250007168,3.973680726181689,0.7102166144067474
1730865961.7333167,-1.562458872795105,0.9341247081756592,-9.841981887817383,-0.2240176632980555,-0.29159943201707106,-10.625478832456132,1.1008987849570422,3.9194756392445926,0.6004615863230978
1730865961.783527,-1.5797141790390015,0.9555282592773438,-9.840194702148438,-0.22765212782086558,-0.29379798895287457,-10.642994192567635,1.1022379165040985,3.536236514953761,0.8469192460057071
1730865961.8334281,-1.656130313873291,1.0449622869491577,-9.828990936279297,-0.23182548725835084,-0.2942721979327202,-10.65958101804122,1.1013988060649704,3.4770661120542794,0.7889684831524094
1730865961.883437,-1.7408385276794434,1.130565881729126,-9.812065124511719,-0.23551139083950856,-0.2925692717598167,-10.674204705702284,1.0999655109053317,3.4166721974172347,0.7037327738447098
1730865961.933372,-1.8037424087524414,1.1793253421783447,-9.80042552947998,-0.23801729270661218,-0.2886938035180421,-10.686062234218442,1.0979569496542407,3.3561317219436804,0.5927433891059886
1730865961.9834905,-1.8700915575027466,1.1633671522140503,-9.820185661315918,-0.23913792616047957,-0.28313631273866563,-10.694592954759548,1.1020514602205551,3.117934167678006,0.8434494736189247
1730865962.0333447,-1.9134926795959473,1.100498914718628,-9.80792236328125,-0.2391698573877798,-0.27673365640605274,-10.699489846386072,1.10085751301265,3.0544580223860427,0.7826642299170451
1730865962.083408,-1.9817607402801514,0.9967160820960999,-9.799867630004883,-0.23882429739186375,-0.2703998210935742,-10.700701568564167,1.1022684382364072,2.86159593110924,0.8487112076937907
1730865962.1332574,-2.009242534637451,0.8998187184333801,-9.762540817260742,-0.23909226313325913,-0.2648269549837404,-10.698397173713172,1.1011019130562736,2.795762121838023,0.7899862764733674
1730865962.1833553,-2.0146119594573975,0.8520634174346924,-9.732019424438477,-0.24108713138056384,-0.2602682682838032,-10.692891801505965,1.1025066542954103,2.636920829816702,0.850043548606966
1730865962.2332752,-1.9653370380401611,0.8578269481658936,-9.763777732849121,-0.24585950339035623,-0.2564887069125047,-10.68457098232116,1.1027818339939677,2.5002328300124734,0.857305343309873
1730865962.2832632,-1.8760980367660522,0.9307280778884888,-9.811843872070312,-0.2541852059909506,-0.25290464383436717,-10.6738712297399,1.1016030506747225,2.430791796800389,0.8009303696103248
1730865962.3331802,-1.7786275148391724,1.0387083292007446,-9.875558853149414,-0.2663573126132494,-0.24885875918687383,-10.661333879482726,1.099793847465375,2.361598182462569,0.7188136365545964
1730865962.3832405,-1.7020138502120972,1.1243410110473633,-9.926508903503418,-0.2820428224518581,-0.24392436067926815,-10.647677652110644,1.0972674110735745,2.2907669716736625,0.6086596078355417
1730865962.4332123,-1.6601722240447998,1.1989141702651978,-9.964488983154297,-0.30026827041233844,-0.23811942637621197,-10.633823255602675,1.10261172103818,2.1862373152817858,0.8459220704339964
1730865962.4832904,-1.6342209577560425,1.2611186504364014,-9.975395202636719,-0.31955339705134267,-0.2319625388904124,-10.620842459275583,1.1009915470214315,2.1142252645047344,0.7839937719997186
1730865962.5331616,-1.622498869895935,1.2675787210464478,-9.962905883789062,-0.3381471499652352,-0.22638302462850543,-10.609839486617368,1.1030791059963854,2.0265675110614736,0.8510304567555953
1730865962.5832772,-1.639206886291504,1.2061913013458252,-9.937066078186035,-0.35429311504745753,-0.22251925587942212,-10.601794425337111,1.1013956659819504,1.9534836423025521,0.7912935372370933
1730865962.6331246,-1.6860491037368774,1.1449236869812012,-9.880510330200195,-0.3664765153561458,-0.22143814973887413,-10.597406839792832,1.0988465220305643,1.8810588855414705,0.7062600815938536
1730865962.6834114,-1.7109571695327759,1.0855287313461304,-9.83228588104248,-0.37362776516423213,-0.22385525572572174,-10.596971487429855,1.1033328645461107,1.8116564007487876,0.8470231164572394
1730865962.7330935,-1.709753394126892,1.0741137266159058,-9.788422584533691,-0.3752418839346558,-0.22996276393767384,-10.600313075434805,1.1014207768188504,1.737910314110184,0.7861279075091111
1730865962.7832174,-1.6724727153778076,1.0828081369400024,-9.795247077941895,-0.3713706945239645,-0.23942249566413562,-10.606808054108317,1.1037910529459594,1.6658039828256588,0.6997742854372718
1730865962.8330767,-1.6206578016281128,1.0981696844100952,-9.837224006652832,-0.3624928223340382,-0.2514991689808652,-10.615510146141546,1.101924645386911,1.590189077422305,0.5849355554350868
1730865962.8830912,-1.5427521467208862,1.13316011428833,-9.84755802154541,-0.3493160478136891,-0.2652575682997427,-10.625352845839203,1.1042225523174654,1.5173764286605969,0.4457560742766485
1730865962.933006,-1.5629488229751587,1.1618047952651978,-9.863628387451172,-0.33259090528400637,-0.2797536432523651,-10.635346670035288,1.1025003645242393,1.4416520995232933,0.2800779106784763
1730865962.9830446,-1.629149079322815,1.215698003768921,-9.845447540283203,-0.3130285056659161,-0.29418607745890785,-10.64469563974514,1.0999433974304968,1.3642199868738736,0.08546232981573275
1730865963.0340078,-1.6967530250549316,1.2590280771255493,-9.838217735290527,-0.29136199078598746,-0.30800017044410594,-10.652823365211539,1.0965691139976543,1.2849247599878326,-0.1394240837795814
1730865963.084012,-1.7413307428359985,1.2730633020401,-9.82457160949707,-0.268467409874661,-0.32093685809018063,-10.65934496650995,1.1046493981664172,1.2094202103029925,0.8432755780893938
1730865963.1339903,-1.7646113634109497,1.2583575248718262,-9.81188678741455,-0.24541802090087925,-0.3330075479935353,-10.664025016036431,1.10314739355981,1.1302224166632227,0.7797650215072208
1730865963.1839724,-1.7786732912063599,1.2127102613449097,-9.802888870239258,-0.22342808774684775,-0.34438885044947676,-10.66674226209713,1.1057638949204769,1.0535837621343231,0.8527599548063269
1730865963.233917,-1.8130278587341309,1.14822256565094,-9.807696342468262,-0.20373036988071663,-0.35526751215602326,-10.667467042470973,1.1047137650175824,0.9722162733832406,0.7925427999841116
1730865963.2838762,-1.809478998184204,1.100132703781128,-9.810400009155273,-0.18745111204454334,-0.3656888203801564,-10.666255101680267,1.1031907679217288,0.8909336981497653,0.7065791880971746
1730865963.333905,-1.797210454940796,1.1131501197814941,-9.829365730285645,-0.1755046026992687,-0.37547317843123007,-10.663254189483208,1.1069654544506926,0.8128686356975241,0.8500805206547909
1730865963.383851,-1.7991148233413696,1.125964879989624,-9.836786270141602,-0.16850221965501772,-0.3842492145905251,-10.658712595009012,1.1061721739765316,0.7289040736212278,0.7889163397629348
1730865963.4338167,-1.7826963663101196,1.1695894002914429,-9.845488548278809,-0.16669296172968562,-0.39158425557950727,-10.652977267088389,1.1083541418925598,0.650475767513044,0.8533063261803816
1730865963.4838102,-1.7767739295959473,1.2048052549362183,-9.856528282165527,-0.16995327597247178,-0.3971391735966517,-10.646473697939925,1.1078711168951365,0.5645551992694516,0.7935234787077852
1730865963.5337822,-1.8129676580429077,1.1983704566955566,-9.851751327514648,-0.17782631273021082,-0.40077889601536376,-10.639670823099808,1.1092681200882744,0.48382725200048265,0.8527826506347926
1730865963.5838563,-1.865580439567566,1.1427628993988037,-9.82577133178711,-0.18961951240776725,-0.40258697708746144,-10.633032422249789,1.1087308224915906,0.39758247030896515,0.7940713351178711
1730865963.633715,-1.881205439567566,1.0834192037582397,-9.824111938476562,-0.20454684991427324,-0.40276988305456873,-10.62695561607818,1.1076555344907533,0.3063183304898058,0.7049972761031986
1730865963.68373,-1.863053321838379,1.0553536415100098,-9.826824188232422,-0.2218443606347737,-0.401512683529337,-10.621721478286599,1.1100489342498594,0.22691506870993597,0.8509405905584583
1730865963.7337158,-1.8265241384506226,1.0528087615966797,-9.850543975830078,-0.24079623260619637,-0.3988867773979618,-10.617489619540756,1.1091284446882221,0.1346553298229433,0.7892567925535986
1730865963.7837036,-1.7715882062911987,1.0776413679122925,-9.877630233764648,-0.26068439214570566,-0.3948613350418927,-10.61433709705032,1.1076321356414582,0.045179209213834046,0.704096735663125
1730865963.8336518,-1.7354477643966675,1.0973707437515259,-9.941924095153809,-0.2807217268937522,-0.3893915121930195,-10.61232201553413,1.1107714281140235,-0.03727779591687167,0.850250279279595
1730865963.8837056,-1.689695954322815,1.1317925453186035,-9.966397285461426,-0.3000208404317499,-0.382520748028113,-10.611551523656706,1.109585565517889,-0.1307541606644491,0.7895709588646551
1730865963.9335935,-1.6389662027359009,1.1293141841888428,-9.971222877502441,-0.3176124758318705,-0.3744461987216585,-10.612217914491751,1.1076413880062315,-0.22444648433412234,0.7029852362507562
1730865963.9836588,-1.6623183488845825,1.1505361795425415,-9.938908576965332,-0.3325049552377689,-0.3655252809449636,-10.61456309677082,1.111388276018488,0.6085915764167271,0.5893440091576166
1730865964.0335605,-1.685981035232544,1.114296793937683,-9.907242774963379,-0.3437927495986223,-0.3562282288834194,-10.618777279324087,1.1097907394600992,0.5192124197161679,0.44255573971055756
1730865964.0836053,-1.7127622365951538,1.098321795463562,-9.828071594238281,-0.3508050193479428,-0.34705291857217985,-10.624878142025157,1.1119508047850404,1.1202287389328234,0.28263962210406146
1730865964.1335196,-1.7381293773651123,1.0863145589828491,-9.812661170959473,-0.3532311576459085,-0.3384292836230035,-10.632616825138006,1.1103795516996495,1.0395802855160512,0.08839504720023189
1730865964.1835907,-1.7394286394119263,1.1070185899734497,-9.751754760742188,-0.3511682538430534,-0.33065984847650587,-10.641448784338,1.1124446214783579,1.5303588149806666,-0.12956956794431743
1730865964.2335656,-1.7783422470092773,1.099996566772461,-9.74980354309082,-0.34509031426742287,-0.3239211925032965,-10.650582058954516,1.1108324868110933,1.4542616435674556,-0.37640779711461037
1730865964.2834716,-1.775434136390686,1.1180026531219482,-9.734968185424805,-0.33577231358019094,-0.3182993354711823,-10.659082727884861,1.1083606665286545,1.3772215695253507,-0.650500440150586
1730865964.3334875,-1.775434136390686,1.1180026531219482,-9.734968185424805,-0.3241914604458078,-0.3138240788328963,-10.666008989657197,1.1128313564416465,1.8061456020359405,-0.947893392215592
1730865964.3334875,-1.7961090803146362,1.0978853702545166,-9.74190616607666,-0.3114128853901086,-0.31048756975806263,-10.67054127706507,1.1128215172747078,1.8055885909307094,-0.9502933173551043
1730865964.3834748,-1.8024729490280151,1.096219539642334,-9.761283874511719,-0.29848588291175343,-0.30824000435914306,-10.672084258322007,1.1111627192003874,1.73257441614918,-1.2766444151975864
1730865964.4334664,-1.8615046739578247,1.0873790979385376,-9.789366722106934,-0.28637991647038186,-0.30697455100480237,-10.67033750198976,1.1139832307112927,2.095865085367939,-1.6271505717134527
1730865964.4834557,-1.8906596899032593,1.113863468170166,-9.796687126159668,-0.27596509922712487,-0.30653056009879215,-10.665330590293458,1.112738646900882,2.0253234835202703,-2.0098191336702778
1730865964.533443,-1.8843986988067627,1.1354656219482422,-9.818350791931152,-0.26800956303265,-0.30672926741075834,-10.657410855707498,1.11083401543529,1.954970612215536,-2.4138531748518415
1730865964.5834439,-1.8520234823226929,1.1645499467849731,-9.829914093017578,-0.2631404614972554,-0.3074297504267806,-10.647187003752414,1.1082403177830251,1.8830488758687614,-2.8492389512928282
1730865964.6334517,-1.8085271120071411,1.176212191581726,-9.861815452575684,-0.26175220330150617,-0.3085750931928082,-10.635452590602899,1.1143297866413122,2.223186389596495,-3.3050130729157985
1730865964.6834452,-1.7181299924850464,1.1627516746520996,-9.876137733459473,-0.26390038179016684,-0.31019962558620695,-10.623110637279677,1.1129663403338586,2.153926678896585,-3.7948807118002166
1730865964.7333987,-1.6924563646316528,1.1392431259155273,-9.905946731567383,-0.2692264938109843,-0.31238610957014135,-10.611104209874618,1.114917623526896,2.444732284355436,0.8572664533867899
1730865964.7834475,-1.6710063219070435,1.1597439050674438,-9.915834426879883,-0.2769611996584851,-0.3151978419320548,-10.600350541486726,1.1136811639904485,2.380182181261863,0.7967045313839861
1730865964.8333828,-1.6623401641845703,1.1732234954833984,-9.910504341125488,-0.2860327612380109,-0.3186408007003392,-10.5916742661589,1.111628558912058,2.310446296316697,0.7044892023203422
1730865964.8834436,-1.664509892463684,1.188157320022583,-9.918722152709961,-0.29523991095253105,-0.3226786714409521,-10.585737721922865,1.1090057977358798,2.2445150787434422,0.5926330368764078
1730865964.933397,-1.664509892463684,1.188157320022583,-9.918722152709961,-0.3034245883158224,-0.3272651588973623,-10.582983887703104,1.1151834473947455,2.524712924590903,0.8673070894579702
1730865964.933397,-1.6572636365890503,1.1673773527145386,-9.908549308776855,-0.3096068648839787,-0.33235269114153076,-10.583609517285208,1.1151743615865393,2.524214281823495,0.866946443696338
1730865964.9834638,-1.6591688394546509,1.130024790763855,-9.90406608581543,-0.31306583672969146,-0.33786509042255325,-10.58756318983388,1.113585349733551,2.4582222093270265,0.8061885992726143
1730865965.0333724,-1.6591688394546509,1.130024790763855,-9.90406608581543,-0.31337122599474176,-0.3436524209825853,-10.59456194750512,1.115884141523111,2.702846511661665,0.8829843678954942
1730865965.0333724,-1.6374982595443726,1.1253414154052734,-9.897210121154785,-0.3103785760316757,-0.3494716885084535,-10.60413042414183,1.1158755901469832,2.7023095267981043,0.8826419265304025
1730865965.0834715,-1.6542800664901733,1.1127800941467285,-9.890379905700684,-0.30419484676187847,-0.35501421284216117,-10.6156552836994,1.1166282289144331,2.9084163600780086,0.8929833151071457
1730865965.1333466,-1.6624219417572021,1.1077226400375366,-9.87459659576416,-0.29513431190544753,-0.3599512975845908,-10.628438955436891,1.1154939101543058,2.8462156079276624,0.843833353274891
1730865965.183495,-1.6803877353668213,1.1172305345535278,-9.872438430786133,-0.28368614816397597,-0.36397375254134706,-10.641746517581039,1.1136173899039006,2.782474653579587,0.7673314650770744
1730865965.2333581,-1.6642932891845703,1.1443051099777222,-9.851571083068848,-0.2704814721253909,-0.36683459894011006,-10.65484886144221,1.1167953990264936,2.9771530766560645,0.8803893908315636
1730865965.2835011,-1.676072597503662,1.1518168449401855,-9.866317749023438,-0.25623728924775324,-0.3683993057292004,-10.66706503426916,1.1154468681290048,2.914634520394615,0.8215305667359845
1730865965.3333554,-1.688549518585205,1.173169493675232,-9.839729309082031,-0.24168921100468432,-0.3686815580238078,-10.677803548485983,1.1175197457628656,3.0887965399320536,0.8801189066969198
1730865965.3832452,-1.7406500577926636,1.1670211553573608,-9.839791297912598,-0.22754936741220927,-0.367843945743259,-10.686593280498144,1.1164410585871198,3.0274202246276682,0.821700263663898
1730865965.4331973,-1.7592371702194214,1.1434805393218994,-9.807424545288086,-0.21450274811104061,-0.3661590131801927,-10.693092091236327,1.1183682459174857,3.1839403865593634,0.8766274662007506
1730865965.4832108,-1.7919294834136963,1.1425443887710571,-9.786770820617676,-0.20321335011436764,-0.363939342929777,-10.697073816481177,1.1174998398904765,3.123472612133847,0.8171715038892835
1730865965.5332005,-1.8289555311203003,1.1339582204818726,-9.734051704406738,-0.1943116498577955,-0.36146892612054876,-10.698398823018959,1.1161245937226432,3.061482302916774,0.7303044489868711
1730865965.5832748,-1.906752586364746,1.1017496585845947,-9.722082138061523,-0.18837809535527866,-0.358961761902549,-10.696977159839118,1.119104545414933,3.212546618986679,0.8708943195175624
1730865965.6332035,-1.9440362453460693,1.0649313926696777,-9.711519241333008,-0.18594717515840406,-0.356532251741494,-10.692749761632939,1.1182705954042838,3.1516902866971344,0.8096597175680517
1730865965.6832056,-1.954621434211731,1.0486096143722534,-9.747272491455078,-0.18750736995682363,-0.3541654285297558,-10.685713548134686,1.1183374687410272,3.288510937772578,0.872608119760556
1730865965.733109,-1.9300211668014526,1.0519165992736816,-9.785317420959473,-0.1934476584216486,-0.35171461755725486,-10.67598937186781,1.117070233351642,3.226650927797182,0.8108201676390318
1730865965.7832572,-1.8917458057403564,1.0662336349487305,-9.863221168518066,-0.20394820429178834,-0.34895094576072516,-10.663907390612556,1.1153499431898735,3.165858483133128,0.7244960647020324
1730865965.8331983,-1.8261340856552124,1.0515388250350952,-9.917787551879883,-0.21886089041070467,-0.34564267926453696,-10.650077392341354,1.1130961785159728,3.103788229373344,0.611285292020507
1730865965.8832433,-1.7325536012649536,1.0188775062561035,-9.973783493041992,-0.23761882387584463,-0.34160995541113537,-10.63541023939454,1.1174668918823951,3.0427760785770492,0.8657799005084839
1730865965.9331484,-1.6438817977905273,1.0134690999984741,-9.997303009033203,-0.25919018915198444,-0.33672697382718353,-10.62106561275225,1.1160044010177714,2.9787898052466386,0.8037180361930113
1730865965.9832146,-1.6068297624588013,1.0392526388168335,-10.010113716125488,-0.2821002120731536,-0.3309090379423899,-10.608328420925424,1.1168270498892277,3.1349525848940503,0.871316739698581
1730865966.0331244,-1.5930547714233398,1.1113393306732178,-9.983500480651855,-0.3045582316951351,-0.3241439826755725,-10.598439744032426,1.1150740452556238,3.0719840399163614,0.8119283157517158
1730865966.0831685,-1.6152253150939941,1.2080261707305908,-9.939994812011719,-0.3246875353685668,-0.316583429954776,-10.592412788531025,1.116112613132986,3.2150837456698773,0.8717165845591857
1730865966.1329873,-1.6628810167312622,1.2549554109573364,-9.904179573059082,-0.340799879359966,-0.30864669606027906,-10.590868721142465,1.1141240554418872,3.1531219152518326,0.8128099695160338
1730865966.183079,-1.7237470149993896,1.2498868703842163,-9.840123176574707,-0.3516478514938271,-0.3010476972228955,-10.59393152207373,1.111249058048931,3.0898215541017886,0.7268033539582653
1730865966.232996,-1.7540323734283447,1.1959750652313232,-9.810408592224121,-0.3566004573558833,-0.29468032363707675,-10.601202245551104,1.1153244864240572,3.0285912067946175,0.868513005782974
1730865966.282932,-1.7761001586914062,1.1373709440231323,-9.77637004852295,-0.3556971042672794,-0.29039191028773564,-10.611812716144119,1.1148833197051176,3.1738730948725684,0.8770144307982218
1730865966.3329697,-1.7739691734313965,1.080772876739502,-9.734260559082031,-0.3495711219979026,-0.2887479693747058,-10.624544424491933,1.1126834156289163,3.1109663039223046,0.8201535049539802
1730865966.3838212,-1.7863746881484985,1.0190056562423706,-9.72805404663086,-0.33928509315349586,-0.2898799498540373,-10.637979517524842,1.1136747271047327,3.242787735751557,0.8709379403563979
1730865966.4338863,-1.7863746881484985,1.0190056562423706,-9.72805404663086,-0.3261416556609672,-0.29345174357886955,-10.650662106759654,1.1112762516129093,3.1806897947584054,0.8110010932655378
1730865966.4338863,-1.763444423675537,0.9958710074424744,-9.702902793884277,-0.31150996802029685,-0.2987415129223374,-10.661257742574275,1.1111609533886555,3.1781391890274917,0.8079854949327565
1730865966.4838243,-1.7485802173614502,0.980993390083313,-9.72205638885498,-0.29667325102829667,-0.30479670747117393,-10.66868001121188,1.1081085791261236,3.11811163233265,0.7246934130546331
1730865966.5338418,-1.7485802173614502,0.980993390083313,-9.72205638885498,-0.28270694014521236,-0.3105951229270778,-10.672170791641754,1.1136415907561759,3.2500629555236054,0.8730589183573773
1730865966.5338418,-1.7739217281341553,0.9647471904754639,-9.749009132385254,-0.27041811133889504,-0.3151765641795114,-10.67134772325615,1.1136338206484646,3.249726795907759,0.8728171990909968
1730865966.5839176,-1.776928424835205,1.0090956687927246,-9.792386054992676,-0.2603551091684357,-0.31774739585628076,-10.666225897964054,1.1118934168174117,3.1880877106637486,0.8154755584966757
1730865966.6337254,-1.776928424835205,1.0090956687927246,-9.792386054992676,-0.25284949344380214,-0.31776662331488736,-10.657211122099962,1.1135504648979313,3.308745368681243,0.8805466759950259
1730865966.6337254,-1.7719019651412964,1.0469619035720825,-9.85647201538086,-0.24804669850289762,-0.3150062977609667,-10.645055607610324,1.1135418280720708,3.3083304845590895,0.8802642478705272
1730865966.6840096,-1.742720127105713,1.0767850875854492,-9.918389320373535,-0.24591559440192184,-0.30957083453255096,-10.630790553726602,1.111964396770187,3.2470498279438162,0.8254198409300927
1730865966.733826,-1.7308605909347534,1.0838773250579834,-9.983128547668457,-0.24624733340495003,-0.3018751894515813,-10.615668567996735,1.1134264559466194,3.359777398078434,0.8823825320072737
1730865966.7839155,-1.7244657278060913,1.1198302507400513,-10.016728401184082,-0.24866233811494126,-0.2925854591099085,-10.601103167183126,1.1119735903217276,3.298963098903579,0.8282152479418433
1730865966.8337839,-1.7244657278060913,1.1198302507400513,-10.016728401184082,-0.2526467963597727,-0.2825316060207883,-10.588562525950003,1.1141655471880747,3.4037340254945705,0.8761597806463284
1730865966.8337839,-1.6922295093536377,1.1217204332351685,-10.01152515411377,-0.25761130589317577,-0.2726083347104882,-10.57940962623167,1.1141573062166832,3.4031836934310657,0.8757515168052247
1730865966.8839517,-1.6949405670166016,1.091368556022644,-10.003122329711914,-0.26294189624351477,-0.2636659092758829,-10.574730266038555,1.1129371171541318,3.343383077784102,0.8183735458830329
1730865966.9338105,-1.6541407108306885,1.079060673713684,-9.937772750854492,-0.2680339679428767,-0.2563983702077659,-10.575196163506611,1.1152158801175598,3.441745164280373,0.8803975117930872
1730865966.9837117,-1.6971153020858765,1.0559735298156738,-9.882655143737793,-0.27232452296343246,-0.2512570150704988,-10.58097008458748,1.1141626085762317,3.382215929525696,0.8256875029147387
1730865967.0336804,-1.7184339761734009,1.0200108289718628,-9.829143524169922,-0.27534685475482734,-0.2484084817588254,-10.591654435204527,1.1167481540747086,3.4738111548748,0.8755958838765744
1730865967.0837424,-1.7796587944030762,0.9819168448448181,-9.78043270111084,-0.27681460624459964,-0.24772833185045254,-10.606311913459384,1.116030907713922,3.414711788982027,0.8176425442341538
1730865967.1336548,-1.7767276763916016,0.9837790727615356,-9.749464988708496,-0.27669579153969925,-0.24882326038850233,-10.623569301696813,1.1146359858400638,3.355823978879896,0.7341239449403141
1730865967.1838517,-1.7815088033676147,1.03798508644104,-9.75819206237793,-0.27521967846591117,-0.2511081663169104,-10.641786636269735,1.11759768428388,3.4494895765589115,0.8683307910477549
1730865967.2337184,-1.7815088033676147,1.03798508644104,-9.75819206237793,-0.2728051008220096,-0.2539476120359451,-10.659269040674046,1.1164822022880825,3.3910786065051366,0.8079883832889301
1730865967.2337184,-1.7619465589523315,1.1153185367584229,-9.77953052520752,-0.26995331837884573,-0.25680772329337326,-10.674481635179104,1.1164715390564575,3.3906487920978297,0.8074490914820801
1730865967.283684,-1.7306779623031616,1.2181533575057983,-9.794438362121582,-0.2671431263908608,-0.25937916822688656,-10.686220140034521,1.114691311621047,3.331910138892896,0.7209146090780046
1730865967.3336196,-1.73723566532135,1.2622041702270508,-9.825244903564453,-0.264743264407551,-0.2616771062788844,-10.693715976326727,1.112237588979767,3.2721109675183997,0.6072022780452628
1730865967.3837023,-1.7728885412216187,1.2536513805389404,-9.841352462768555,-0.2629754940098059,-0.2640695668676736,-10.696677258168467,1.1188630827713193,3.3749929106636776,0.8712830979804823
1730865967.4336104,-1.7957485914230347,1.2329119443893433,-9.852080345153809,-0.26195234770515663,-0.26716759938139434,-10.695268868634757,1.1177797329421109,3.316056558779095,0.8126286859397539
1730865967.4835632,-1.8130037784576416,1.187165379524231,-9.869086265563965,-0.2617502998348554,-0.2716159409987426,-10.69003879434911,1.1201560392500762,3.2578838022022785,0.8725499704492571
1730865967.5335834,-1.8403993844985962,1.1168467998504639,-9.861696243286133,-0.26245995049868737,-0.27787979436481824,-10.681810295744915,1.119179860310514,3.197250268468726,0.8134706690970367
1730865967.5836523,-1.8365612030029297,1.1099493503570557,-9.855596542358398,-0.2641978945145621,-0.28609261291518584,-10.671558255261294,1.1175544434129718,3.1381334036440345,0.8711823411592314
1730865967.6335382,-1.8015090227127075,1.1125519275665283,-9.858222961425781,-0.2670817193797586,-0.29601371985512076,-10.660284714832244,1.1152726135902098,3.2512493716307147,0.8763779559858109
1730865967.683565,-1.7416749000549316,1.0947171449661255,-9.853496551513672,-0.2711599439876853,-0.3071052796130964,-10.648917261150318,1.1123113478916562,3.1909116326822464,0.8198096449475979
1730865967.7336876,-1.707353949546814,1.0896289348602295,-9.870576858520508,-0.27631722430507966,-0.31866081483045555,-10.63824652096932,1.1086081010358477,3.128888981213339,0.7352539447242581
1730865967.7836096,-1.6856294870376587,1.0882185697555542,-9.87708854675293,-0.28221527725657714,-0.3299185416218504,-10.628901476447886,1.1042737100478823,3.0671796594196468,0.6256404449858178
1730865967.833548,-1.6856732368469238,1.1131680011749268,-9.89499282836914,-0.28831518135479656,-0.34015657047689146,-10.621352299920925,1.1251474780718942,3.00663180905826,0.864587646595429
1730865967.8835711,-1.6620116233825684,1.1451038122177124,-9.884458541870117,-0.2939663435247899,-0.3487864623854834,-10.61592242582487,1.1239766512990916,2.9430041140125036,0.8030687718220967
1730865967.9334772,-1.6606212854385376,1.1801331043243408,-9.870457649230957,-0.29850907177215247,-0.355439836482644,-10.612789457288612,1.1275216661461656,3.077981857411274,0.8695890173545042
1730865967.9834714,-1.653437852859497,1.1797866821289062,-9.851520538330078,-0.3013565348502259,-0.3600198505886663,-10.611969081244439,1.1267283256361234,3.014726917232723,0.8098158716440067
1730865968.0334425,-1.6758476495742798,1.1824043989181519,-9.821070671081543,-0.3020587047705949,-0.3626878985830547,-10.613296398365563,1.1251973430621667,2.951394620843201,0.7245081117865625
1730865968.0835173,-1.7237505912780762,1.1566532850265503,-9.81063461303711,-0.3003637414329976,-0.36378689427697036,-10.616423030946764,1.1229013875642446,2.886601770456832,0.6119675420502444
1730865968.1334534,-1.7996176481246948,1.1426687240600586,-9.782665252685547,-0.29628731377901274,-0.36373402962091805,-10.620840022349896,1.12904153051738,2.8231992775983556,0.8638333888214943
1730865968.1835039,-1.8628112077713013,1.1092867851257324,-9.77823543548584,-0.2901793650866574,-0.3629186682612787,-10.62592540804937,1.1278122340465822,2.7567340155579854,0.8021588600297038
1730865968.2334023,-1.8774480819702148,1.0935637950897217,-9.79169750213623,-0.2827431731443834,-0.36162778330666356,-10.631011654231136,1.1314067312285208,2.913933788149303,0.8686869944759211
1730865968.2834685,-1.8534674644470215,1.108945369720459,-9.822172164916992,-0.27495337702299805,-0.3600154386349785,-10.635474713927422,1.1332438936802594,3.0461059081508823,0.8741061687756475
1730865968.3333826,-1.7973651885986328,1.1064001321792603,-9.855999946594238,-0.26786737262890503,-0.358126549696294,-10.638835430705726,1.1328787009104955,2.98235625386252,0.81712525210077
1730865968.3833833,-1.749116063117981,1.0848197937011719,-9.900351524353027,-0.2623918463485687,-0.3559486739529881,-10.64084527201097,1.1318529823671677,2.917674374327011,0.7336082853863966
1730865968.4334073,-1.6887575387954712,1.0780417919158936,-9.944061279296875,-0.2590900001994755,-0.3534437275362783,-10.641534397491057,1.1301786797961226,2.8521414656416177,0.6236423475494304
1730865968.4834383,-1.660573959350586,1.0784896612167358,-9.943114280700684,-0.2580843483032408,-0.3505552182704978,-10.641209079676077,1.1346156808063874,2.7879915186278392,0.8628093280764484
1730865968.5333052,-1.6808581352233887,1.0688133239746094,-9.9386625289917,-0.25907442448444784,-0.3472193363174741,-10.640383575956612,1.1359416421640447,2.935335990547948,0.8731927128743651
1730865968.5834394,-1.6925055980682373,1.0484857559204102,-9.91047477722168,-0.261463385142927,-0.34338006774980323,-10.639653823123856,1.1352115890725034,2.8693555086518296,0.8156442341823373
1730865968.6333168,-1.7340891361236572,1.0040960311889648,-9.874168395996094,-0.2645445608123155,-0.3389848145041155,-10.639553306127393,1.1379205558581433,3.0050340998939995,0.8687341140517504
1730865968.6832635,-1.7513102293014526,0.9668171405792236,-9.831408500671387,-0.26767620212128096,-0.33395321077889484,-10.640430213026804,1.1373535358463245,2.9404373394857135,0.8097250788726557
1730865968.7332773,-1.7555934190750122,0.9132131338119507,-9.825553894042969,-0.2703947209198625,-0.3281373015183678,-10.642373974582046,1.1361094652938628,2.8747372070299493,0.7237815945038126
1730865968.783267,-1.7511773109436035,0.8991687297821045,-9.808719635009766,-0.2724466898711581,-0.32130074295746297,-10.645214126677642,1.1388495482736676,2.810328445729971,0.8642265967304676
1730865968.833155,-1.7669599056243896,0.9138646125793457,-9.811017036437988,-0.2737582296359735,-0.3131445423570961,-10.648584791339054,1.1378360417269158,2.743537094153935,0.8035934892183819
1730865968.8833268,-1.7647291421890259,0.9623916149139404,-9.817171096801758,-0.2743870852224302,-0.3033954785258381,-10.652019597352517,1.1361214414154985,2.675234485581053,0.7154825066776457
1730865968.9331322,-1.774051547050476,0.9942019581794739,-9.836055755615234,-0.2744818278780228,-0.29193297301521215,-10.655050053204903,1.1401460572722137,2.834452974291597,0.864160277967222
1730865968.9830694,-1.7563841342926025,1.0308074951171875,-9.850176811218262,-0.27424269792844114,-0.2788920154391394,-10.657293314385388,1.1390904573206688,2.7684160848017703,0.8037760743880686
1730865969.0331802,-1.7418923377990723,1.052126407623291,-9.863423347473145,-0.2738749981247434,-0.2646941692527307,-10.658513756063636,1.137330746954493,2.7008017719800415,0.7157479604908379
1730865969.0830772,-1.7634446620941162,1.1164103746414185,-9.859697341918945,-0.27354470004810416,-0.25001287947510165,-10.65864483058543,1.1349083623560792,2.6332934339667116,0.6021302269150072
1730865969.1331055,-1.7613576650619507,1.1499154567718506,-9.857751846313477,-0.27336339982660174,-0.23571319574799604,-10.65776887244536,1.1415301147226327,2.5672144184083603,0.8613121064027024
1730865969.1830616,-1.7668864727020264,1.152148723602295,-9.854114532470703,-0.2734039264324185,-0.22277829402519927,-10.656069000628841,1.143302939344475,2.5010517583687952,0.8721419892033313
1730865969.2330203,-1.7597706317901611,1.146106243133545,-9.849930763244629,-0.2737153287355935,-0.21219851752908575,-10.653776482416585,1.142556372856245,2.431308130267413,0.8146884818230823
1730865969.2830868,-1.7832831144332886,1.1196283102035522,-9.831854820251465,-0.274326540098199,-0.20482634003691808,-10.65112601946343,1.145120463559411,2.621470062602604,0.8677360305814692
1730865969.3329446,-1.7911642789840698,1.0579688549041748,-9.824539184570312,-0.2752558732498378,-0.20123446920009366,-10.648317786893852,1.144432328460099,2.5543122729303063,0.8086913739691617
1730865969.3830001,-1.793712854385376,1.0126854181289673,-9.833224296569824,-0.27652838653184375,-0.20160267512899802,-10.645492777029165,1.1430457775156777,2.488784512925478,0.7224760183848677
1730865969.432937,-1.7517714500427246,1.0202561616897583,-9.849518775939941,-0.2781741708918564,-0.20566651369458822,-10.642737837974462,1.140980752304944,2.420790937003567,0.6105116145448186
1730865969.4829564,-1.7155946493148804,1.0792349576950073,-9.881749153137207,-0.2801853714818388,-0.21278199162550712,-10.640122131759528,1.1382005252614982,2.6085659017585647,0.47103794801127774
1730865969.532836,-1.6973638534545898,1.1483683586120605,-9.885079383850098,-0.28245394128406687,-0.22211471663155005,-10.637742625466837,1.1347526243303503,2.5428270952819525,0.3066740590966176
1730865969.5827827,-1.6990910768508911,1.1914793252944946,-9.90003490447998,-0.2847452609594805,-0.23287348391566065,-10.635747427865798,1.1305574025969993,2.4758087538084204,0.11390315525820384
1730865969.6338701,-1.7048535346984863,1.1952179670333862,-9.894710540771484,-0.28673622789969466,-0.24447316157271776,-10.634323443589619,1.125539108764755,2.406854806905691,-0.11022056759594112
1730865969.6838133,-1.7279154062271118,1.140415906906128,-9.889106750488281,-0.2880952994856862,-0.2565577279738276,-10.633659519800712,1.1199345409168415,2.339136052806505,-0.35499685702632494
1730865969.7338028,-1.727390170097351,1.0967813730239868,-9.850716590881348,-0.2885640764780807,-0.26889588547369575,-10.633896756936828,1.1135746634105972,2.5416266470766278,-0.6278649585585576
1730865969.7837937,-1.7448590993881226,1.0502889156341553,-9.854978561401367,-0.28800981101588485,-0.28123159307137185,-10.635076130549203,1.106535191609794,2.4758331474370587,-0.9255766449536531
1730865969.8337355,-1.7205950021743774,1.0371060371398926,-9.837763786315918,-0.28643547835780736,-0.2931845388269201,-10.637109595991731,1.0987471566204532,2.6531923409912133,-1.251181837406473
1730865969.8838043,-1.7044275999069214,1.004769206047058,-9.838481903076172,-0.2839475768261527,-0.3042397039767357,-10.639792128526214,1.0902353802499982,2.588505262294973,-1.603819774996551
1730865969.9337204,-1.6762114763259888,1.0011883974075317,-9.852025985717773,-0.28069417630231597,-0.3138015607272652,-10.642843390913232,1.081038186832136,2.5231975363067485,-1.9822180227063757
1730865969.9836867,-1.6579885482788086,0.9812003374099731,-9.872231483459473,-0.27680162776788053,-0.32127212867058486,-10.645966755076934,1.0711274478324808,2.4569807945017526,-2.387911927158922
1730865970.0337353,-1.6788157224655151,1.0039273500442505,-9.869159698486328,-0.2723423138204162,-0.3261311862771551,-10.64891191855962,1.0605560297344512,2.6365245506479584,-2.8191803482426865
1730865970.0836577,-1.7302862405776978,0.9892690777778625,-9.866273880004883,-0.2673594684544614,-0.3280100855887087,-10.651511089180712,1.049329640884977,2.571915800351033,-3.2762699600657643
1730865970.1336935,-1.7561147212982178,1.0005706548690796,-9.84821891784668,-0.2619447836689972,-0.32674324124545373,-10.65367265856755,1.0373667900262964,2.7304753144336398,-3.7630545309121572
1730865970.1836424,-1.7367112636566162,1.0267400741577148,-9.844929695129395,-0.2563052530811151,-0.3223881259254805,-10.655348898982622,1.1591660884659127,2.863045284648648,-4.272259805669019
1730865970.2335315,-1.7292639017105103,1.0034098625183105,-9.847564697265625,-0.250750650954939,-0.31522174807951264,-10.656507326216877,1.1580422351495991,2.800833446830185,-4.810770517836133
1730865970.283596,-1.7082710266113281,1.0320013761520386,-9.856908798217773,-0.24561274283886264,-0.3057105830989787,-10.657125591479046,1.1563033825795117,2.7380249546233317,-5.3742962968449435
1730865970.3336132,-1.7297741174697876,1.0265306234359741,-9.872505187988281,-0.24116555211112645,-0.29445658920953827,-10.657208304714908,1.1539377713936823,2.6739537540810736,-5.969203241049031
1730865970.3835676,-1.73284912109375,1.026072382926941,-9.879054069519043,-0.23759472264806403,-0.2821388744977577,-10.656809366321692,1.159916412290835,2.8152563567119735,0.8348753045342757
1730865970.4335475,-1.7507237195968628,1.0402652025222778,-9.899032592773438,-0.23501226572868003,-0.26945585239544756,-10.656044791271025,1.1587013976392513,2.7525461256922057,0.7692955097380144
1730865970.4835615,-1.7441734075546265,1.067531943321228,-9.886956214904785,-0.233482444593901,-0.25707809977466717,-10.655088736065908,1.1569012977852564,2.6892385908664482,0.6771112241669162
1730865970.5335526,-1.7646288871765137,1.0706843137741089,-9.89332103729248,-0.23303527522358242,-0.24562645167096203,-10.654149509977149,1.154474899991209,2.825006393449304,0.8396304372824438
1730865970.583584,-1.8092890977859497,1.0768513679504395,-9.85693645477295,-0.2336790973720692,-0.2356570229033981,-10.653427284508627,1.1515555478539843,2.763999150115448,0.7786871815947809
1730865970.6335008,-1.8451093435287476,1.0780317783355713,-9.835271835327148,-0.23543506036104814,-0.22763209505760942,-10.65306033662944,1.14799594583621,2.701221722893023,0.6900684784583622
1730865970.6835158,-1.8778879642486572,1.068177342414856,-9.794242858886719,-0.23838190109068866,-0.22188446354599822,-10.653071401186029,1.1438521184650154,2.8332677508565087,0.8374558567732792
1730865970.7335863,-1.8792659044265747,1.0619271993637085,-9.761591911315918,-0.2426708884393733,-0.21858800886180726,-10.65333142307541,1.1390993951588577,2.7717931325286864,0.7754444408225805
1730865970.7835293,-1.8781741857528687,1.0342954397201538,-9.767451286315918,-0.24848976951735874,-0.21773794395421608,-10.653559365406263,1.1337544491849758,2.8915712196552428,0.83963924166127
1730865970.8334446,-1.8452465534210205,1.0448501110076904,-9.792409896850586,-0.2559877238781326,-0.21914604263656967,-10.653377321101026,1.1277700480976758,2.9944313735749875,0.8446084804009004
1730865970.8834481,-1.7909832000732422,1.0523160696029663,-9.833215713500977,-0.265183872450805,-0.2224663360304071,-10.652420267313467,1.121140656261088,2.935666274222932,0.7871167392181099
1730865970.9334626,-1.7380390167236328,1.0403714179992676,-9.891928672790527,-0.27587898674823075,-0.22725348719858038,-10.650463568739891,1.1138085710723997,2.876117984968593,0.7027203721782208
1730865970.9834626,-1.6841381788253784,1.027842402458191,-9.939653396606445,-0.2875977363431741,-0.23302049457131324,-10.647524525212035,1.1057762640218858,2.8160427106538686,0.5916952598524372
1730865971.0333781,-1.598343849182129,1.0370818376541138,-9.97574520111084,-0.29958153410396204,-0.23927272389201706,-10.643907149500787,1.0970289107220015,2.9278035232845565,0.83364101376352
1730865971.083417,-1.5712602138519287,1.0332560539245605,-9.993497848510742,-0.31082740398647923,-0.24553656494937506,-10.640172933886191,1.0875314691627846,2.8688550291065016,0.7719643952081084
1730865971.133399,-1.550557255744934,1.039259433746338,-9.944525718688965,-0.32017782427673375,-0.2513949070575967,-10.637036294678307,1.0772004147937193,2.9707885106346,0.8392084306116506
1730865971.1834455,-1.5575945377349854,1.0153611898422241,-9.915091514587402,-0.3264706010418127,-0.25651276985504845,-10.63519894557605,1.066087102345276,2.9124519611970068,0.779693188562474
1730865971.233443,-1.6128383874893188,0.9890211224555969,-9.859123229980469,-0.3287235922156998,-0.2606343783034221,-10.635170275130063,1.0541450742381964,2.8534205371774934,0.6935221584348925
1730865971.283348,-1.6128383874893188,0.9890211224555969,-9.859123229980469,-0.32630826734230417,-0.2635570618234827,-10.63714485551978,1.0414206729687663,2.793903289477123,0.5810883197453832
1730865971.283348,-1.700724482536316,0.9786924719810486,-9.800239562988281,-0.31906682093529004,-0.26511372718627246,-10.640973925815535,1.0413037304073551,2.793370412087785,0.5799683278748226
1730865971.3333108,-1.7688379287719727,1.0146944522857666,-9.755945205688477,-0.30736296222700143,-0.2651874164479169,-10.646201289214243,1.0279027026087955,2.9046702639508024,0.8359224117214377
1730865971.3833656,-1.8208271265029907,1.02140212059021,-9.763900756835938,-0.2920828969301851,-0.2637520914301509,-10.652124910529828,1.013626363150236,2.9985779123349667,0.8460712260440182
1730865971.433279,-1.8217395544052124,1.0340009927749634,-9.765320777893066,-0.2745610709766064,-0.2609117215533635,-10.657897888514341,0.9986348569197948,2.9409807507697545,0.7903991706974814
1730865971.48329,-1.782911777496338,1.0537012815475464,-9.80487060546875,-0.25639535834263827,-0.25690903006597177,-10.662678209684996,0.9829961414767533,3.028716707631251,0.8412337569519337
1730865971.5332751,-1.7525897026062012,1.0612386465072632,-9.85537052154541,-0.23918343080653048,-0.25210461808020956,-10.66578948746872,0.9667015102295274,2.9715690673317185,0.7823214590819308
1730865971.5832372,-1.7406247854232788,1.1116029024124146,-9.87990665435791,-0.22427232832714628,-0.24694783232196865,-10.66685028250631,0.9498690156714614,2.9139400304213696,0.6969465104499463
1730865971.633259,-1.770524501800537,1.115897536277771,-9.90289306640625,-0.21261316278354525,-0.24195312633751473,-10.665834602138645,0.9324193284944556,2.8554599155234555,0.5844783017051542
1730865971.683197,-1.7900440692901611,1.1545110940933228,-9.899785995483398,-0.20474993830207822,-0.23767596650324824,-10.663043174515073,0.914601158015713,2.9527751217505367,0.8345829360761188
1730865971.7331789,-1.8505797386169434,1.163799524307251,-9.896068572998047,-0.20090135422983588,-0.2346767255776063,-10.659005611870716,1.188214742314313,3.035754352839245,0.8449927407975589
1730865971.783353,-1.8505797386169434,1.163799524307251,-9.896068572998047,-0.20107029177188862,-0.23347274653049188,-10.654355722528084,1.1877826024847957,2.9791603343211124,0.7876409519308727
1730865971.783353,-1.8653908967971802,1.1624170541763306,-9.862640380859375,-0.20512343178936845,-0.23448025125371647,-10.64971544943938,1.1877764714366184,2.9786530245063227,0.7870088687885868
1730865971.8332534,-1.84821355342865,1.119704008102417,-9.858514785766602,-0.21281428730835086,-0.23794994950735204,-10.645600901405501,1.1868362302501245,2.922283429430709,0.7040036189288924
1730865971.8832345,-1.8270213603973389,1.114829421043396,-9.805334091186523,-0.22376650533527445,-0.24390899593546178,-10.642353018208663,1.1853444069182664,2.8647473025308177,0.5937316391809977
1730865971.9334147,-1.793975830078125,1.0453251600265503,-9.822367668151855,-0.2374468158875112,-0.25212435433971425,-10.64010069846028,1.1832599477598005,2.956915699976411,0.8414016228718879
1730865971.9832606,-1.7209333181381226,1.0137131214141846,-9.828447341918945,-0.2531411495965544,-0.2620924319917939,-10.638774592714848,1.1805904637080034,2.9002931191525536,0.7832102313911811
1730865972.0332992,-1.6012029647827148,0.9719731211662292,-9.870986938476562,-0.269925304369677,-0.2730562918518039,-10.638182399601337,1.1772513244889082,2.9857118382599794,0.8428421410825727
1730865972.0832047,-1.5673483610153198,0.9927900433540344,-9.874567985534668,-0.28663353263362584,-0.2840712313063576,-10.638114151035694,1.1732344611635572,2.929412710513259,0.7845734228379598
1730865972.133241,-1.5673483610153198,0.9927900433540344,-9.874567985534668,-0.3018930075349233,-0.2941321802947105,-10.638418366780122,1.168445976297748,3.0095959029470016,0.8411954873165544
1730865972.133241,-1.5617990493774414,1.0194441080093384,-9.915316581726074,-0.31427989147174157,-0.30233044960856276,-10.63902477135504,1.1683983542889906,3.009079421117542,0.8407701978260876
1730865972.1831715,-1.576568603515625,1.0584110021591187,-9.886327743530273,-0.32253632454914843,-0.3079905182275099,-10.639938060714,1.1629223425883148,2.95360485719263,0.7823399958360457
1730865972.2332606,-1.631142258644104,1.0728533267974854,-9.91388988494873,-0.32575694002068595,-0.31076152251055184,-10.641218122328567,1.1565046482432293,2.896077225738432,0.6957863451577633
1730865972.283102,-1.7173388004302979,1.079965353012085,-9.86382007598877,-0.32352959876967613,-0.3106465145925318,-10.642940982377471,1.1969976783215748,2.979650765237435,0.8463133537019313
1730865972.3331964,-1.82231605052948,1.1077828407287598,-9.826631546020508,-0.3160438008371034,-0.307963362940287,-10.64513993763605,1.1958935354531024,2.922694368542206,0.7890431304786841
1730865972.383157,-1.8533849716186523,1.1184059381484985,-9.800682067871094,-0.3041361868607726,-0.30326878774780763,-10.647737000565135,1.1940275924712282,3.0003024622199974,0.8442933059002055
1730865972.4330823,-1.8954871892929077,1.0949914455413818,-9.761144638061523,-0.28921469862624527,-0.29727115907259694,-10.65049875580419,1.1914103857215617,2.943722410908535,0.7860433078849952
1730865972.4830406,-1.8989217281341553,1.0262970924377441,-9.779446601867676,-0.2730562918246042,-0.2907139525039162,-10.65304765484792,1.1880944306620442,2.886488318003752,0.7012611602138954
1730865972.5331557,-1.8536771535873413,1.0082930326461792,-9.78778076171875,-0.2575378955793647,-0.2842278077106582,-10.654931266396444,1.1840900284337255,2.828183569322531,0.5891222892140126
1730865972.5831227,-1.783974289894104,1.004658818244934,-9.84261703491211,-0.24435049973048828,-0.27821700695943574,-10.655734524839039,1.1795112426167316,2.9152948402257013,0.8359515008001174
1730865972.6330674,-1.783974289894104,1.004658818244934,-9.84261703491211,-0.23474687572698696,-0.27284448366542985,-10.655195675166006,1.1742825509902421,2.9866566375805323,0.8457073290290279
1730865972.6330674,-1.7528783082962036,1.0574264526367188,-9.855023384094238,-0.22940524745979357,-0.2681034538616307,-10.653271543799697,1.1742326182067488,2.986146685083615,0.8453098701172105
1730865972.6830595,-1.7219197750091553,1.080628514289856,-9.910914421081543,-0.2284326099523011,-0.26392917681230804,-10.650136523052549,1.1685078530663833,3.050667547365709,0.7888419626725849
1730865972.7331333,-1.7219197750091553,1.080628514289856,-9.910914421081543,-0.23144732773196297,-0.26030005554821617,-10.646154125225824,1.1621467103329461,2.995014453976835,0.7052719790579166
1730865972.7331333,-1.704637885093689,1.1132997274398804,-9.919187545776367,-0.23769781499742054,-0.2572800939952119,-10.641835675555587,1.1620865597840921,2.994508327778664,0.7043950385948944
1730865972.7830756,-1.6880874633789062,1.1303209066390991,-9.951221466064453,-0.24620110009034266,-0.25501109352705587,-10.637770517876323,1.155176591302645,2.9386223015861908,0.5948934267050322
1730865972.8330402,-1.6880874633789062,1.1303209066390991,-9.951221466064453,-0.2558734582848576,-0.2536911673638569,-10.634551416890563,1.1475890438282061,2.881680464743452,0.45807013460297097
1730865972.8330402,-1.6892642974853516,1.1353075504302979,-9.929433822631836,-0.26564335311978593,-0.2535397354973418,-10.632712285048026,1.1475184090172184,2.8811691532213226,0.4567286139813372
1730865972.8830557,-1.6928538084030151,1.1137971878051758,-9.93874454498291,-0.2745518946980383,-0.2547441513022581,-10.632661789880167,1.139356407460942,2.824223197037322,0.2950258708002082
1730865972.9329422,-1.7044410705566406,1.0738990306854248,-9.894899368286133,-0.281832502240313,-0.2573977075650657,-10.634622894430255,1.208436136424493,2.9068683507698463,0.10643742833175553
1730865972.9829872,-1.7288248538970947,1.0470776557922363,-9.854463577270508,-0.28696390396774285,-0.2614373901241903,-10.63859172730151,1.207269910764129,2.849532593141294,-0.11124238752137791
1730865973.0330038,-1.782965898513794,1.0143132209777832,-9.822835922241211,-0.28970684368179916,-0.2666029181248232,-10.64430939219207,1.2053953411489933,2.792068787709233,-0.3534496369967296
1730865973.082945,-1.8363450765609741,1.0109021663665771,-9.767317771911621,-0.29013559556213697,-0.2724433827272605,-10.651259131387672,1.2027971028081499,2.8755601124737153,-0.6224353266616169
1730865973.132889,-1.8869452476501465,0.9894759058952332,-9.760782241821289,-0.2886545474769225,-0.2783731769416585,-10.658704774167141,1.1994774383361582,2.8185036734532334,-0.9180600031078886
1730865973.1829495,-1.8473352193832397,1.0347927808761597,-9.739604949951172,-0.2859605103983511,-0.2837616455282421,-10.665771641240848,1.1954194570767338,2.7604463180535337,-1.2419774152152308
1730865973.232936,-1.816389560699463,1.0465000867843628,-9.774761199951172,-0.28291054303139096,-0.28804381908259713,-10.671566062368594,1.1906696680133069,2.8460105226551007,0.8553428754187503
1730865973.2828844,-1.783855676651001,1.0769073963165283,-9.79489803314209,-0.2803220447715064,-0.29082768654085933,-10.675316645352323,1.1851923933439845,2.9195667733401414,0.8600017581571583
1730865973.3328242,-1.7646828889846802,1.053520679473877,-9.82564926147461,-0.27879975705868454,-0.2919523286301292,-10.676503831870287,1.179064534626357,2.863444272542784,0.804979932410099
1730865973.3828576,-1.7351040840148926,1.0145779848098755,-9.854711532592773,-0.27865199692127707,-0.2914639961129131,-10.674940630852314,1.1721888640013831,2.8061362360246958,0.7227718561750975
1730865973.432912,-1.7351040840148926,1.0145779848098755,-9.854711532592773,-0.2798876472574453,-0.28952699545787725,-10.670785488386269,1.1646330873862922,2.7482613443687227,0.6140659244171911
1730865973.432912,-1.683071255683899,0.9749651551246643,-9.900102615356445,-0.2822612214082644,-0.28633111533551625,-10.664495364696545,1.164562622927405,2.7477424528785295,0.6129774701816082
1730865973.4828544,-1.6453770399093628,0.9578630328178406,-9.910890579223633,-0.2853273720668302,-0.28203488339042515,-10.656749967570342,1.156359087968956,2.689592735744352,0.4784926233909284
1730865973.532847,-1.649688720703125,0.9565423130989075,-9.945751190185547,-0.2884890741788535,-0.27674032329244574,-10.648374375433168,1.1474092947528316,2.630502111381314,0.3170269123202396
1730865973.5828483,-1.6442580223083496,0.9954084157943726,-9.940225601196289,-0.2910699908902037,-0.2705074651861306,-10.640258923495626,1.2183981914077018,2.7280447395137375,0.8460344357477529
1730865973.632834,-1.6689367294311523,1.0497392416000366,-9.937795639038086,-0.29242409729989993,-0.263422638065576,-10.633266526618609,1.2171240878779146,2.6695731079670773,0.7863067594014661
1730865973.682793,-1.6859419345855713,1.0834542512893677,-9.915569305419922,-0.29204875645962924,-0.25569254309292455,-10.628130963435927,1.2151231506498856,2.760850127145829,0.8526317363668883
1730865973.7328548,-1.71327543258667,1.1262437105178833,-9.893120765686035,-0.28966938674873877,-0.24770639650863482,-10.625364054102864,1.2123901518742979,2.702986965676105,0.7944174568653009
1730865973.782775,-1.7269731760025024,1.1472166776657104,-9.872698783874512,-0.28528048988291194,-0.24003291327353454,-10.625193474367777,1.208939771925174,2.6445446380606326,0.7096656563680251
1730865973.8327966,-1.735066294670105,1.1401067972183228,-9.833118438720703,-0.2791358946634085,-0.23335705577754307,-10.627541533915942,1.222961468298153,2.7370526760723797,0.8501124969018763
1730865973.8827624,-1.717958927154541,1.1496965885162354,-9.815305709838867,-0.2716900152464347,-0.22837508824323355,-10.63204068805205,1.2218625593230839,2.6794215833394213,0.7901082274623159
1730865973.9327734,-1.6673269271850586,1.18075430393219,-9.812365531921387,-0.2634955454699521,-0.22568880802741742,-10.63808444544504,1.2255889654122512,2.766178463323284,0.8545325261605712
1730865973.9827108,-1.718985915184021,1.200554609298706,-9.816550254821777,-0.2550871769977479,-0.2257481303525931,-10.644919078772253,1.2250227420073334,2.7094788623883397,0.7961176879993108
1730865974.032757,-1.777178168296814,1.1863377094268799,-9.796299934387207,-0.24692791170569314,-0.22883771967998476,-10.651756438720785,1.2275116160408799,2.791680005218417,0.856089806123206
1730865974.0837018,-1.8267006874084473,1.1075407266616821,-9.833602905273438,-0.23945729903522558,-0.23504947406422358,-10.65787233883827,1.226999925944277,2.734512952253828,0.7961397417534138
1730865974.1328225,-1.8129234313964844,1.0744457244873047,-9.833734512329102,-0.2331600104066826,-0.24421000193615347,-10.662685105984481,1.22592380609986,2.6786944413770617,0.7119833560881433
1730865974.1827915,-1.7848941087722778,1.034195899963379,-9.854951858520508,-0.22854798361132284,-0.2558153410517148,-10.665817036248853,1.2242505451765704,2.62112483324522,0.5995435509314347
1730865974.2327878,-1.7069191932678223,1.0519814491271973,-9.866008758544922,-0.22604319225493735,-0.26905048965284595,-10.667122390211595,1.229356314513563,2.7126854223862815,0.8496191882248328
1730865974.2827125,-1.7330290079116821,1.0380792617797852,-9.891645431518555,-0.22583756594985838,-0.28290538871537496,-10.666680375968973,1.2286210782869758,2.6560114537226913,0.7878651888082682
1730865974.333654,-1.723747968673706,1.0607243776321411,-9.90710735321045,-0.22783339051231688,-0.29633324498433583,-10.66476889140107,1.2314671067272949,2.7411051342765673,0.8542068290760407
1730865974.383695,-1.6333900690078735,1.1029419898986816,-9.92292594909668,-0.23167999805896805,-0.30840056255813775,-10.661824771820186,1.2310001129026333,2.6847361647516816,0.7941819582268529
1730865974.4336932,-1.7185343503952026,1.0912126302719116,-9.885492324829102,-0.2368328336692722,-0.31840742634987257,-10.658381670825257,1.2299395573759695,2.6272751841868827,0.7069399855825688
1730865974.4835937,-1.7632367610931396,1.0811116695404053,-9.884361267089844,-0.2426448114011494,-0.32594508453539683,-10.654978004666727,1.2328107392779346,2.7153642050037,0.8518400017868077
1730865974.533778,-1.7660847902297974,1.066494345664978,-9.817702293395996,-0.24852550047164826,-0.3308685598997861,-10.652052239278751,1.2319701079295358,2.6581845574919116,0.7905870032200596
1730865974.583637,-1.76335608959198,1.0730304718017578,-9.786660194396973,-0.25406644705880777,-0.33322591217282227,-10.649851916002058,1.2343900333829723,2.74036963135756,0.8552140558898403
1730865974.6336203,-1.755035638809204,1.0663394927978516,-9.755593299865723,-0.2590488985088596,-0.3331995942425954,-10.648377177197407,1.2337066061243498,2.6837439390720026,0.7958549358098791
1730865974.683558,-1.7797462940216064,1.05051851272583,-9.727736473083496,-0.2633901695295327,-0.3310669467742082,-10.647381700049436,1.2355827907240333,2.761410628970716,0.8557413655646292
1730865974.7336075,-1.7905184030532837,1.0506978034973145,-9.733460426330566,-0.2671039969785472,-0.32716155816911174,-10.646432862742765,1.2347962559477568,2.704702035235291,0.7962848509191736
1730865974.7834837,-1.7196898460388184,1.0897799730300903,-9.776664733886719,-0.2702732702275935,-0.321844123119952,-10.645018055631896,1.2365721283537319,2.648981604492853,0.8558287593608804
1730865974.8335426,-1.7713710069656372,1.1019127368927002,-9.835098266601562,-0.2729984918211746,-0.3155072403553876,-10.64268968453009,1.2355993515834,2.590636825738917,0.7963006427222817
1730865974.8835092,-1.8028919696807861,1.1387075185775757,-9.852670669555664,-0.27535974587042594,-0.3086005845190879,-10.639210571209585,1.2358424867491298,2.674617719055105,0.8556982062215581
1730865974.9336016,-1.8285831212997437,1.182466745376587,-9.922863006591797,-0.27745015055577626,-0.3016456060816859,-10.634638109985636,1.2343013827923224,2.6167639273340253,0.7962897514488366
1730865974.9834633,-1.8077365159988403,1.2220063209533691,-9.935257911682129,-0.27942648363312705,-0.29523730510840335,-10.629330373600462,1.2320648916383636,2.5582266510654184,0.7103289567358331
1730865975.0335941,-1.8268399238586426,1.19771409034729,-9.958266258239746,-0.28149991878150926,-0.2900237420378867,-10.623891756477143,1.2291312723606238,2.4990412568649845,0.5979559727351471
1730865975.0834959,-1.7553056478500366,1.1827597618103027,-9.942646980285645,-0.2838754291896488,-0.28663135950379387,-10.619066184475473,1.2255013348163715,2.4392726298909504,0.4594248077374045
1730865975.1334362,-1.7702215909957886,1.131227731704712,-9.93575382232666,-0.2866763890731838,-0.2855419031824961,-10.615597233950803,1.234958473579421,2.3805170253079084,0.8479573057929354
1730865975.1834197,-1.7350672483444214,1.0756663084030151,-9.8892240524292,-0.2898892452992459,-0.28696971053833653,-10.614089620745986,1.2332164544207969,2.3191466903012485,0.7856771038326352
1730865975.2334309,-1.6980245113372803,1.014807939529419,-9.849322319030762,-0.29335152327517416,-0.2907769174783736,-10.614893846431393,1.2363493781649124,2.4321480641315802,0.8545549747865716
1730865975.2833824,-1.74787175655365,0.9247363805770874,-9.83838939666748,-0.2967752668813091,-0.2964390761368252,-10.618034139015922,1.2351128890369627,2.3717633687904214,0.7952102115730477
1730865975.3333728,-1.7218077182769775,0.9190731048583984,-9.835184097290039,-0.29980873623593685,-0.3030692419630928,-10.623210899251355,1.2375385998173651,2.476614189724225,0.8551757359190449
1730865975.3833628,-1.710154414176941,0.9689270853996277,-9.809120178222656,-0.3021169980698626,-0.30953312587380094,-10.629877147631458,1.2363856199534664,2.4165834360928615,0.7957795145674719
1730865975.4333987,-1.6837084293365479,0.9878154993057251,-9.841340065002441,-0.3034213076586004,-0.3146698748548932,-10.63734563351059,1.2381214485338599,2.5147775336195837,0.8549880509933856
1730865975.483403,-1.650559425354004,1.0081390142440796,-9.836055755615234,-0.30348903058654536,-0.3175323122916202,-10.644899851098467,1.2367685897201908,2.4553595182013774,0.7956173154165739
1730865975.5333564,-1.6746716499328613,1.0141290426254272,-9.857386589050293,-0.3021184577821418,-0.31753307306677614,-10.65189856033266,1.2346485744678175,2.545927969944105,0.8546669622726222
1730865975.5833364,-1.6851810216903687,1.004333734512329,-9.852632522583008,-0.2991575078139162,-0.31447236764833886,-10.657849367949144,1.2318028213612555,2.624853493278951,0.8605639972956832
1730865975.6333683,-1.5812643766403198,1.044628381729126,-9.859695434570312,-0.2945372403203744,-0.3084917032152867,-10.662438269709272,1.2281924801547002,2.566702397602619,0.8036435038945652
1730865975.683324,-1.7228114604949951,1.0327458381652832,-9.875347137451172,-0.2882722496122034,-0.3000063374858559,-10.665527030316355,1.2238618696587393,2.507928464121594,0.7201864013380943
1730865975.7333395,-1.7228114604949951,1.0327458381652832,-9.875347137451172,-0.28047967749258906,-0.28963250388386225,-10.667137176038569,1.2188182380912678,2.4483890423711223,0.6100235568971158
1730865975.7333395,-1.8088876008987427,1.0366780757904053,-9.752493858337402,-0.2714636334318972,-0.2780977583883318,-10.667404076067669,1.218771359618455,2.4478687347012147,0.6089498801273169
1730865975.7832942,-1.8492463827133179,1.0879586935043335,-9.823813438415527,-0.26178240223120464,-0.26615883930525297,-10.666479371420314,1.2131147920351888,2.537334005986058,0.8510077367823162
1730865975.8332365,-1.8476037979125977,1.0733569860458374,-9.768607139587402,-0.2522312777499315,-0.2545599743524517,-10.664453095371215,1.2067517714939935,2.4783985578173553,0.7926691932361837
1730865975.8832293,-1.7965223789215088,1.0459142923355103,-9.815152168273926,-0.2437315828250789,-0.24399854078371574,-10.661364415220834,1.199780201330993,2.5606418313333488,0.8555418979346919
1730865975.933179,-1.7969716787338257,1.0425485372543335,-9.871280670166016,-0.23714538415157538,-0.23505426526731057,-10.657268348847584,1.192205016011411,2.6334540645194595,0.8606039773139842
1730865975.9832678,-1.7303887605667114,1.079399585723877,-9.879664421081543,-0.23309664989436843,-0.2281226584932216,-10.652318446595618,1.1840258221386288,2.576236200787898,0.8039949503568843
1730865976.0331671,-1.6776671409606934,1.154143214225769,-9.950304985046387,-0.2318561595831141,-0.22342772734781946,-10.646830120141026,1.175274173497468,2.518517330297255,0.7208075188783739
1730865976.0831647,-1.6643404960632324,1.210000991821289,-9.945380210876465,-0.23328987418593944,-0.22111725239381005,-10.64128949827179,1.1659419710690804,2.594017043075678,0.8511172580328946
1730865976.1330926,-1.6949403285980225,1.204162359237671,-9.977410316467285,-0.2368952538420187,-0.22135930318888447,-10.636309914823709,1.156046935131303,2.537095583115507,0.7905908772807406
1730865976.1830785,-1.715383529663086,1.1504161357879639,-9.959513664245605,-0.2419436993950413,-0.22434271533212624,-10.632548345822563,1.145539667281803,2.6089447073474736,0.8538318995825335
1730865976.2331274,-1.7309974431991577,1.0735752582550049,-9.935346603393555,-0.2476667956358234,-0.23015781465032664,-10.630597669404612,1.134404756166729,2.6712798944257012,0.7943524062133149
1730865976.2831085,-1.751832365989685,1.0295008420944214,-9.867960929870605,-0.2534011562302552,-0.238634573279902,-10.630869146850983,1.1226690233617829,2.6158662970451627,0.7085015479268093
1730865976.333172,-1.7894331216812134,1.0231446027755737,-9.804779052734375,-0.2586691463798697,-0.2492532114405488,-10.633477203153863,1.1102384806868548,2.5595927751147656,0.5955948843741575
1730865976.3830342,-1.7807178497314453,0.9962002635002136,-9.770801544189453,-0.2632130669521102,-0.2611843265006293,-10.63816216947629,1.264595500421329,2.6266314453022006,0.45697698388915287
1730865976.4331918,-1.7807178497314453,0.9962002635002136,-9.770801544189453,-0.26698135792036864,-0.2734172519349047,-10.644301792399915,1.2638963920013793,2.570546181949758,0.2902741179109858
