Timestamp,IMU_Linear_Acc_X,IMU_Linear_Acc_Y,IMU_Linear_Acc_Z,Filtered_X,Filtered_Y,Filtered_Z,Pose_X,Pose_Y,Pose_Z
1730865946.8340745,-1.6464816331863403,1.1096014976501465,-9.926274299621582,-0.04160174898853063,-0.03462264224347695,-4.424542853964768,0.9019943439005843,3.8131183291623696,0.8989165208428925
1730865946.8840554,-1.6525182723999023,1.072100281715393,-9.886634826660156,-0.05284176108258533,-0.051192375878676546,-5.417054449432772,0.9019596191647969,3.8131384347727675,0.8988986955748475
1730865946.9339588,-1.6460669040679932,1.1705397367477417,-9.888028144836426,-0.06498000936283009,-0.07184427047436812,-6.419734699123187,0.9018064546098501,3.814754189216238,0.8981831818745979
1730865946.9839773,-1.5448205471038818,1.3515266180038452,-9.916738510131836,-0.07779954760693758,-0.09619066590292691,-7.39815813879744,0.9017919175607706,3.81477873843775,0.8981641760610493
1730865947.0338826,-1.4505513906478882,1.3764179944992065,-9.885746955871582,-0.09092242325580294,-0.12373339115856635,-8.321206953882685,0.8991928549306084,3.1857018044062473,0.8980122021080217
1730865947.083904,-1.483825922012329,1.3574954271316528,-9.83907413482666,-0.10373217250162675,-0.15408404888457536,-9.162730667853053,0.8963754240290979,2.7022541905369244,0.8951518952653444
1730865947.1338828,-1.5220105648040771,1.4168083667755127,-9.791072845458984,-0.1154103815004649,-0.18697193439489063,-9.902580866454233,0.8884840768865105,1.3874243961159314,0.8710147788375844
1730865947.1838188,-1.466209888458252,1.5062932968139648,-9.781386375427246,-0.12511252367563086,-0.22215470474015153,-10.527074353161705,0.8803272452437945,0.07145177033491605,0.8211271146306346
1730865947.2339377,-1.6475468873977661,1.4503509998321533,-9.745635986328125,-0.1321594422685255,-0.25938661418008907,-11.029007540297112,0.8718610713118845,-1.2430124317986546,0.7443037205318516
1730865947.2838902,-1.7597566843032837,1.3032793998718262,-9.741059303283691,-0.13621745404185306,-0.29836575755531053,-11.40730879711338,0.863507685582269,-2.482699073492545,0.6444768792691213
1730865947.3337905,-1.7597566843032837,1.3032793998718262,-9.741059303283691,-0.13747328214153842,-0.3385676662772529,-11.666391526989415,0.8548653321508006,-3.671451206922249,0.5215429253938271
1730865947.3337905,-1.6816997528076172,1.2365984916687012,-9.753911018371582,-0.1366424191691388,-0.3791019756792653,-11.815290570191696,0.8548158084195695,-3.6784089060655054,0.520754443408633
1730865947.3838024,-1.757475733757019,1.2633165121078491,-9.788309097290039,-0.13474173692305608,-0.41874293889288156,-11.866668266204039,0.84549033196749,-4.965425857892529,0.36013028202522135
1730865947.4338114,-1.9410609006881714,1.2342725992202759,-9.715015411376953,-0.1328609982293551,-0.45609522983816886,-11.835745749340425,0.8378105546492269,-6.006636045990362,0.1880154277334578
1730865947.4836771,-1.7980672121047974,1.2204742431640625,-9.816902160644531,-0.13210581295468704,-0.48978559812467315,-11.739205971596888,0.8280221587354876,-7.273271015770525,-0.029869478278514053
1730865947.5337312,-1.6201061010360718,1.2407430410385132,-9.861479759216309,-0.13350761662601646,-0.5186170571859202,-11.594178490246808,0.8178833133581811,-8.543592668584745,-0.2773097230051718
1730865947.5837328,-1.6417081356048584,1.2559638023376465,-9.932706832885742,-0.13773365625043346,-0.541685120781379,-11.417407121878648,0.8848258972415175,-9.579785535201005,0.8862660484784637
1730865947.6336718,-1.4783844947814941,1.2720919847488403,-9.962823867797852,-0.14482659099695583,-0.5584693010870089,-11.2245724351834,0.8832774024816333,-10.838077288296416,0.8401958920791106
1730865947.6836586,-1.4127205610275269,1.249739170074463,-9.95790958404541,-0.15415977979712267,-0.5688730688473254,-11.029705732448829,0.8813521980943511,-12.100089807037834,0.766214426590622
1730865947.7336457,-1.4345476627349854,1.2176520824432373,-9.960887908935547,-0.16453821512674943,-0.5731818574607206,-10.84469705057024,0.8798992429372215,-13.041800187713497,0.8391025067713914
1730865947.7836764,-1.6071974039077759,1.2252144813537598,-9.856568336486816,-0.17444952782811823,-0.5719585365730288,-10.678927780569978,0.8774662194016177,-14.291826669913803,0.7599910398005497
1730865947.8337014,-1.532752275466919,1.1856809854507446,-9.923158645629883,-0.18246216202420973,-0.5659338533425664,-10.539064097061116,0.8745817970891786,-15.545308755322894,0.6541514274857697
1730865947.8835726,-1.49844229221344,1.2116985321044922,-9.878271102905273,-0.187533308755937,-0.5559261139327929,-10.429068580227717,0.874754586903937,-16.376171827211838,0.7753238617744429
1730865947.9345996,-1.49844229221344,1.2116985321044922,-9.878271102905273,-0.18905180649816056,-0.5427937208428854,-10.350430575804115,0.8716755828832422,-17.63948013378438,0.670035320258935
1730865947.9345996,-1.521494746208191,1.106750726699829,-9.946966171264648,-0.1867532858858392,-0.5273969520827263,-10.302531525943788,0.8716564172073742,-17.646762622641386,0.6693506170913708
1730865947.9846032,-1.521494746208191,1.106750726699829,-9.946966171264648,-0.18067647698236597,-0.5105186178259254,-10.283094357015306,0.8723212945650691,-18.411564633615253,0.7510751685974082
1730865947.9846032,-1.521235466003418,1.066617727279663,-9.89339542388916,-0.17114509095017852,-0.49276843889792366,-10.288655829696967,0.8723059886445423,-18.41843509261773,0.7505578153178156
1730865948.034629,-1.521235466003418,1.066617727279663,-9.89339542388916,-0.15871787243266422,-0.4745539200954998,-10.314957774526217,0.8715071933635536,0.645009296004026,0.7688951711721957
1730865948.034629,-1.6524330377578735,0.9745575785636902,-9.893824577331543,-0.14413368126841342,-0.4561075572215334,-10.357263711822997,0.8714920535669751,0.6439047899183017,0.7683818594449772
1730865948.0845356,-1.6524330377578735,0.9745575785636902,-9.893824577331543,-0.12830683508360996,-0.43750461591147377,-10.410676819345479,0.8689276667382444,0.46787466991620047,0.673941089327926
1730865948.0845356,-1.714928388595581,0.9513433575630188,-9.833707809448242,-0.11233492179858992,-0.41867802950994504,-10.470442440150714,0.8689113898585258,0.4668192094899018,0.6732995731555799
1730865948.1347377,-1.6118273735046387,0.9223973155021667,-9.884674072265625,-0.09741996650103119,-0.3994692436032111,-10.532180016359163,0.8660489525030719,0.2886280190019618,0.552102892578746
1730865948.1846237,-1.6118273735046387,0.9223973155021667,-9.884674072265625,-0.08468186835569069,-0.3796966255404103,-10.592066236924607,0.8629597373682943,0.1094679182311762,0.4045976638504279
1730865948.1846237,-1.3661701679229736,0.9260615110397339,-9.857068061828613,-0.07491818872199055,-0.3592149248411006,-10.64699053591528,0.8629423055179345,0.10848789018150451,0.4037205612154315
1730865948.2345996,-1.2212275266647339,0.8862243294715881,-9.932165145874023,-0.06834895931480699,-0.3379637139738561,-10.694643927963938,0.8680831415316635,0.6286492472550735,0.6780921479914316
1730865948.2835228,-1.2212275266647339,0.8862243294715881,-9.932165145874023,-0.06443389490514313,-0.3159844286423118,-10.73354723466904,0.8661185820501321,0.5632172048820183,0.5639485483197966
1730865948.2835228,-1.0323896408081055,0.8774198889732361,-9.941996574401855,-0.06190724688869398,-0.29340496349496636,-10.763040761731252,0.8661061428843092,0.5628163460497504,0.5631744536010133
1730865948.3344536,-1.0323896408081055,0.8774198889732361,-9.941996574401855,-0.059002144434688965,-0.2704250761590864,-10.78320189037984,0.8675166457072259,0.6985872030889589,0.6941403926951268
1730865948.3344536,-1.2495695352554321,0.9381879568099976,-9.924843788146973,-0.053771280026724995,-0.24732142471150428,-10.794690555668595,0.867508200651212,0.6984079727052976,0.6936247095281708
1730865948.3844686,-1.4342632293701172,1.0002256631851196,-9.9284086227417,-0.04456466909046779,-0.22448346149897597,-10.798570145670016,0.8658462139920882,0.6640343450584,0.5820886306647273
1730865948.4344435,-1.6491162776947021,1.1198151111602783,-9.88106918334961,-0.03058987661661962,-0.20248212842401403,-10.796133988831583,0.8640892015406207,0.6290933636979519,0.4436484486966545
1730865948.4846096,-1.8150001764297485,1.2128596305847168,-9.911548614501953,-0.012278295900370433,-0.18214171841523458,-10.788752725624853,0.8622576148446769,0.5932576374908272,0.2763307878782665
1730865948.5345068,-1.8747748136520386,1.2866096496582031,-9.855307579040527,0.00869604844717103,-0.16456499167228425,-10.777758877607745,0.8648054433270181,0.7313322580492563,0.6238679578356046
1730865948.5845046,-1.8972151279449463,1.2438414096832275,-9.890105247497559,0.029725711056845988,-0.15105182253578514,-10.764371538969186,0.8643499082713605,0.774345223775235,0.6952372237354788
1730865948.6345894,-1.8699368238449097,1.2726092338562012,-9.829380989074707,0.04779591277891556,-0.1428911395167884,-10.749648907276153,0.8632699407398164,0.7638915435529056,0.5799699954153945
1730865948.6844258,-1.9649289846420288,1.1705948114395142,-9.842905044555664,0.060032580346065664,-0.14109689674385006,-10.734456685111807,0.8634563771059844,0.7965410735452969,0.6676334893839562
1730865948.7343395,-1.755480170249939,1.117276906967163,-9.814167976379395,0.06412260018789948,-0.14617496544618946,-10.719450081463123,0.8628247993562668,0.7902980935285107,0.5464676821336338
1730865948.7843802,-1.648979902267456,1.0715574026107788,-9.870731353759766,0.05864244346580391,-0.15796989020183794,-10.705087834991954,0.862893664953415,0.8161533974998938,0.6452916158290726
1730865948.8343627,-1.619248390197754,1.0923936367034912,-9.766934394836426,0.043321478192688445,-0.17565093084347033,-10.691674702589982,0.8625610687641923,0.8125610859897523,0.519197802367963
1730865948.8843756,-1.5719029903411865,1.1600306034088135,-9.814069747924805,0.01908654492881614,-0.1978742334099951,-10.679382272664704,0.8636718489038767,0.8332186060908783,0.6274715576243454
1730865948.9342463,-1.4718180894851685,1.2043366432189941,-9.855443000793457,-0.012154111048678709,-0.22306890944072788,-10.66825987205203,0.8636423445291842,0.8313078005238829,0.4989435645549231
1730865948.9843962,-1.5622344017028809,1.2559999227523804,-9.844598770141602,-0.04783753849619941,-0.2497297671543367,-10.65829872752748,0.864594620884224,0.8466502645649296,0.6139468483389965
1730865949.0343103,-1.6065484285354614,1.3037285804748535,-9.91126537322998,-0.08513011474093019,-0.2766203055235665,-10.649517344289766,0.8644880303572522,0.8454576763469577,0.483107586787887
1730865949.084335,-1.6464300155639648,1.3352413177490234,-9.848318099975586,-0.12135704969570034,-0.3028678595431927,-10.641998141035167,0.864121817557563,0.8435310707747452,0.32474671273736483
1730865949.1342292,-1.7890230417251587,1.2793657779693604,-9.847938537597656,-0.15436482913110441,-0.32795921004343215,-10.635857921989892,0.8640713115184621,0.8567975114750774,0.5540356998865629
1730865949.1843033,-1.9112098217010498,1.1769911050796509,-9.826825141906738,-0.1827660682773894,-0.3516209122859896,-10.631172205407648,0.8630887047787431,0.8548266404520538,0.41260009234620537
1730865949.2342906,-1.7468112707138062,1.169215440750122,-9.872337341308594,-0.20604167600018858,-0.37361941055171977,-10.627921558348053,0.861615575837969,0.8519399316648495,0.24373758597313946
1730865949.2843397,-1.7468112707138062,1.169215440750122,-9.872337341308594,-0.2243849821299902,-0.39361758365680666,-10.626009564736412,0.8624155007866866,0.8657812686839593,0.5297372777416883
1730865949.2843397,-1.7610691785812378,1.1731765270233154,-9.90518856048584,-0.2383577211990884,-0.41118290556208403,-10.625320380336653,0.8624060530325078,0.8657701098018783,0.5289882635750305
1730865949.3341703,-1.772855281829834,1.1963719129562378,-9.869773864746094,-0.24863464312660427,-0.42589193784100654,-10.62575737106132,0.8604349319413451,0.8632789222946765,0.3839192955788115
1730865949.3842542,-1.7723252773284912,1.1582468748092651,-9.856871604919434,-0.25591913504405855,-0.4374302642490251,-10.62723190940453,0.8578090798988904,0.8596783519395442,0.2105071178778531
1730865949.4341888,-1.5951693058013916,1.1924304962158203,-9.84045124053955,-0.2608816124507871,-0.4456409101713527,-10.62961609065774,0.8614018866384291,0.8750450898479303,0.5436721489893697
1730865949.4842129,-1.4303251504898071,1.1096744537353516,-9.871488571166992,-0.26399252156796843,-0.4505218319636424,-10.632712105683822,0.8588695492076629,0.8722761604013649,0.4013981007773368
1730865949.5342839,-1.4494115114212036,1.127644419670105,-9.831385612487793,-0.26530761455891516,-0.4521855346343014,-10.636268981260486,0.8602594202203147,0.8845535237975365,0.588833388954008
1730865949.5842733,-1.374488115310669,1.0864741802215576,-9.847817420959473,-0.2644150557174,-0.45080600566222967,-10.640014858736045,0.8573770060722505,0.8824894588398577,0.45531060971601056
1730865949.634126,-1.4525998830795288,1.0719263553619385,-9.802490234375,-0.2606149208047974,-0.44658587136097944,-10.643670553729882,0.8598046837059465,0.8915387273235562,0.6038583888455397
1730865949.684152,-1.5784028768539429,1.0320987701416016,-9.840079307556152,-0.2532206118031811,-0.43973966650602825,-10.646954719219183,0.8569014621315737,0.8894532123210229,0.47249661482770533
1730865949.734146,-1.5448294878005981,0.9901504516601562,-9.828018188476562,-0.24186985023761226,-0.4304716147877049,-10.649606249200676,0.8602090920005752,0.8977508108228206,0.6072202371542792
1730865949.7841535,-1.495914340019226,0.9905200004577637,-9.897010803222656,-0.2266888122563194,-0.41895478614506276,-10.651433471212403,0.8574781592846534,0.8954897753191179,0.4758039604732199
1730865949.8341901,-1.5989469289779663,0.96947181224823,-9.889765739440918,-0.2082305935595704,-0.40533618520607806,-10.652374491766741,0.8605729988854812,0.9050700478153986,0.60696970287332
1730865949.8841543,-1.5671354532241821,0.9694827198982239,-9.91878890991211,-0.18734356885852174,-0.38977096551575785,-10.652532114660039,0.8621533361672122,0.91124349975345,0.6564931324258659
1730865949.9341342,-1.4966825246810913,0.9941743016242981,-9.964380264282227,-0.16506515130292812,-0.37246527540540264,-10.652165403641376,0.8600256141598162,0.9099974963317701,0.5348910320128633
1730865949.984129,-1.4800490140914917,0.969645619392395,-9.981051445007324,-0.14246369378105359,-0.35371334624804085,-10.651663672907695,0.85752511714739,0.9078498054986291,0.387323606873594
1730865950.0342054,-1.459653377532959,1.016774296760559,-9.992463111877441,-0.12045608013642196,-0.3339155323644122,-10.651513149801822,0.8546863398285964,0.9048323566114094,0.2125316120185301
1730865950.0840492,-1.5144121646881104,1.049118995666504,-9.973414421081543,-0.09972321823420617,-0.313581830077003,-10.652232093033899,0.8600534438737649,0.916817650044762,0.5260668555393475
1730865950.1340241,-1.6105612516403198,1.0086636543273926,-9.94045639038086,-0.08076039680326395,-0.2933280373222971,-10.654271903599945,0.8579376665334176,0.9146487297654013,0.3781496290903041
1730865950.1840804,-1.5536221265792847,1.06661057472229,-9.94149398803711,-0.06399606143217684,-0.2738356928460984,-10.657916515962714,0.8608938578628785,0.9257739308815314,0.5693552272722727
1730865950.2339597,-1.603241205215454,1.065562129020691,-9.964529037475586,-0.049853123704267935,-0.2557873286289549,-10.663232146520755,0.8592382109486116,0.9247141915906003,0.43087934932808825
1730865950.2839465,-1.879683494567871,1.0326447486877441,-9.866992950439453,-0.038759865561589446,-0.23981363239048037,-10.670078989658522,0.857440304959557,0.9230090699113366,0.2629072687904752
1730865950.3339956,-2.0737950801849365,0.9914940595626831,-9.809025764465332,-0.031285591264285324,-0.226422676788261,-10.678113581222274,0.8623391908144731,0.9334809266486589,0.5351295036870755
1730865950.3840535,-2.0737950801849365,0.9914940595626831,-9.809025764465332,-0.028354456070134575,-0.2159058138041487,-10.686759124561483,0.8613122169296014,0.9323988685736656,0.3888936784638138
1730865950.3840535,-1.8243703842163086,0.9407444000244141,-9.798154830932617,-0.031188088734563385,-0.20828237721019624,-10.695234931919202,0.8613061922178863,0.9323911994509583,0.38798856555826083
1730865950.4339852,-1.6435387134552002,1.0102969408035278,-9.805895805358887,-0.04081906343783842,-0.20331649908675853,-10.70268104442141,0.865336449651717,0.9442802200119306,0.5832527920256898
1730865950.4839067,-1.5730770826339722,1.1460793018341064,-9.76155948638916,-0.05748579332932702,-0.20062703109312313,-10.708297906341725,0.8648832192418598,0.9446628532304353,0.449209743628608
1730865950.5338778,-1.402429223060608,1.2469379901885986,-9.80485725402832,-0.0803252168938101,-0.19990156236232118,-10.711437874327359,0.8642637529559135,0.9445455560749743,0.289920708356985
1730865950.5837739,-1.2801685333251953,1.27745521068573,-9.844583511352539,-0.10742482171701366,-0.20110585564508915,-10.711672169295353,0.8634048409088767,0.9439268687568231,0.10260913004464509
1730865950.6338754,-1.3144124746322632,1.2810062170028687,-9.876189231872559,-0.13607580428536478,-0.20452905409123326,-10.708867389289047,0.8622446821985003,0.942803925210609,-0.11088468107573615
1730865950.6837897,-1.3720238208770752,1.2254197597503662,-9.91110610961914,-0.16319033378356834,-0.2106383479355346,-10.703238214220626,0.860706846769675,0.9411584551492771,-0.3517630697368695
1730865950.7338083,-1.4993278980255127,1.1518988609313965,-9.931300163269043,-0.1858572795580656,-0.21983592322266096,-10.695333098666964,0.8587352078801876,0.9529589504832313,0.42764738727595525
1730865950.78379,-1.6006672382354736,1.0863429307937622,-9.86929702758789,-0.20187593409480176,-0.23222140128215263,-10.6859463788315,0.8562767989038409,0.9518898947477051,0.2628669770311366
1730865950.8337855,-1.81550133228302,1.01986563205719,-9.81452465057373,-0.21012689894105244,-0.24744046187760305,-10.675953824642033,0.8704991206948124,0.9608728610085614,0.541919022424497
1730865950.8837059,-1.9375649690628052,0.9927679896354675,-9.77560806274414,-0.21075290587077997,-0.26466137513997245,-10.66610951424466,0.8691081876558449,0.9603272947668487,0.3976622153926492
1730865950.9336746,-2.0457820892333984,0.9714118242263794,-9.726194381713867,-0.20514073529782698,-0.282673268056617,-10.656894548203788,0.8672000852008014,0.9591002138626802,0.22694161444347935
1730865950.9836621,-2.0869340896606445,1.0083929300308228,-9.737180709838867,-0.195679273696792,-0.30007305015026237,-10.648471169776442,0.8737081424705796,0.9705367402567349,0.527724616458644
1730865951.0336392,-2.0562994480133057,1.051559329032898,-9.758321762084961,-0.1853289388623205,-0.31550014565404455,-10.64073979099513,0.8722517995815684,0.9699848307202463,0.38077752858816666
1730865951.083622,-1.9736506938934326,1.1039338111877441,-9.822582244873047,-0.17709354370347652,-0.3278692178764189,-10.633476199208474,0.8703381768710656,0.9814798591223035,0.5672418269570603
1730865951.133597,-1.9302725791931152,1.1401413679122925,-9.887577056884766,-0.1735058058826065,-0.3365405357527381,-10.626503406720953,0.8679912922364761,0.9817437322840901,0.4282280814130961
1730865951.1835477,-1.8705997467041016,1.1601102352142334,-9.892549514770508,-0.17625597018591244,-0.341384171096232,-10.619830018894962,0.8652112960024935,0.9923081075997766,0.5801323694624267
1730865951.233644,-1.852792739868164,1.1702474355697632,-9.919771194458008,-0.18604079241317276,-0.3427355368180099,-10.613691201399602,0.8619672796928626,0.9930733377556811,0.4436719257879226
1730865951.2836158,-1.850260853767395,1.1229956150054932,-9.914119720458984,-0.2026160669231233,-0.3412667842081124,-10.608488238497898,0.858254563881054,1.0037595783638358,0.5846406420537675
1730865951.3335752,-1.8229795694351196,1.0839333534240723,-9.910886764526367,-0.22498579598880403,-0.33780244694833717,-10.604681625107336,0.8540033144004615,1.0047438408588183,0.4500339272185152
1730865951.3836124,-1.7985893487930298,1.0479875802993774,-9.888747215270996,-0.25163987176337177,-0.3331246106866025,-10.602681337745903,0.8491520060535783,1.0144047941993426,0.5857634730752487
1730865951.4335694,-1.7535266876220703,0.9978740811347961,-9.872357368469238,-0.2807680298116484,-0.3278272751438278,-10.602753099257768,0.8436661927383271,1.0240685429423184,0.6385725289659355
1730865951.4836032,-1.7225205898284912,0.9698752164840698,-9.863229751586914,-0.3104309668835819,-0.322245290548972,-10.60495873128658,0.8373940238583856,1.02604980877882,0.5157289254220803
1730865951.533507,-1.668954610824585,0.9353963732719421,-9.8529052734375,-0.3386991815241451,-0.3164478015450256,-10.609143748307247,0.8303343149748893,1.0272256957144703,0.366839219091027
1730865951.583536,-1.6359572410583496,0.9215210676193237,-9.852986335754395,-0.36376709994954926,-0.3102825813373554,-10.614968235355061,0.8223581626870395,1.0276200470941155,0.19057299113080473
1730865951.6334298,-1.6144894361495972,0.9229671359062195,-9.850465774536133,-0.3840500681991498,-0.30345706900268865,-10.62196414962281,0.8952569425801113,1.0362485235956451,0.5096775713229986
1730865951.6834772,-1.6067534685134888,0.9610587358474731,-9.857247352600098,-0.39827651561469785,-0.2956461276604067,-10.62960269757994,0.8916163356989194,1.0364302909070664,0.36026931382803346
1730865951.7344527,-1.5976148843765259,1.0084751844406128,-9.867647171020508,-0.4055728763039217,-0.28661850298104474,-10.637361019487308,0.9044348757387821,1.0487114740657524,0.553424999068087
1730865951.7843916,-1.6114647388458252,1.0301212072372437,-9.874835968017578,-0.4055224254602039,-0.2763521372688329,-10.644780815744364,0.9012548732770026,1.0499880720779127,0.41267746738597716
1730865951.8344188,-1.5975745916366577,1.018343448638916,-9.889068603515625,-0.3981842407099136,-0.26508350236202216,-10.651511452787295,0.8970861799706562,1.0505840716140762,0.24597255288656192
1730865951.8845086,-1.6075562238693237,0.9683912396430969,-9.893061637878418,-0.38406556493398153,-0.25325215006566215,-10.657332433603283,0.9061684869487356,1.0604091805359597,0.5218900405390794
1730865951.934418,-1.626556634902954,0.905511736869812,-9.897462844848633,-0.3640554909253742,-0.24135662782768916,-10.662154142398027,0.902310611629089,1.06112354627113,0.37547497019166537
1730865951.9844997,-1.6508206129074097,0.8503293991088867,-9.890620231628418,-0.3393466370723248,-0.2297853952270543,-10.665997467186225,0.9091163673228478,1.0748387316321644,0.5592647383984014
1730865952.034278,-1.668717384338379,0.7852784395217896,-9.882685661315918,-0.31135698429867886,-0.21869151839026213,-10.668956950084889,0.9057193935890305,1.0769906039689239,0.4209137912905653
1730865952.0843859,-1.668717384338379,0.7852784395217896,-9.882685661315918,-0.2816381260851784,-0.20795097102057103,-10.671159049080291,0.9114811135287197,1.0863447976249259,0.5739025809081857
1730865952.0843859,-1.666137456893921,0.7490000128746033,-9.847501754760742,-0.25175952230759246,-0.1972117602318738,-10.672725427645002,0.9114658985158478,1.0863602213143337,0.5731966629675931
1730865952.134316,-1.6244356632232666,0.7482098340988159,-9.854060173034668,-0.2231755181533755,-0.1860019644986054,-10.67374165432432,0.9085513622589451,1.088803706041092,0.43758730472430796
1730865952.1843207,-1.5937052965164185,0.7874472141265869,-9.882034301757812,-0.19709029315472476,-0.1738524613430817,-10.674246326865418,0.9050869566514766,1.0908195182507376,0.27414818323153833
1730865952.2342668,-1.5937052965164185,0.7874472141265869,-9.882034301757812,-0.17435202588904017,-0.1604182173233214,-10.674261621746764,0.9106232753542177,1.099389909151503,0.5536042081553842
1730865952.2342668,-1.5707736015319824,0.8576775789260864,-9.910017013549805,-0.15541661079100277,-0.1455807496279164,-10.673841943364884,0.9106083431611453,1.0994039801217224,0.5529076308248531
1730865952.2842512,-1.5707736015319824,0.8576775789260864,-9.910017013549805,-0.1403808642355369,-0.12950625657745454,-10.673102119969649,0.9119530158878576,1.1093964327312416,0.6472580720817205
1730865952.2842512,-1.587791085243225,0.9232023358345032,-9.935588836669922,-0.12905409829971465,-0.11265094105802999,-10.672220302117307,0.9119409876728516,1.1094161200850108,0.6466998484430605
1730865952.3342435,-1.5839658975601196,0.9715844392776489,-9.951668739318848,-0.12105106648753142,-0.09572516008058608,-10.671428043401404,0.9095687515401997,1.112933765967132,0.5303319834846698
1730865952.3842833,-1.5839658975601196,0.9715844392776489,-9.951668739318848,-0.11588393732464301,-0.07963246193527088,-10.67099411777988,0.9098027222051965,1.121256856972087,0.6499751985591843
1730865952.3842833,-1.6285433769226074,0.9795622229576111,-9.949352264404297,-0.11303404595182003,-0.06536923577770964,-10.67119473635043,0.9097888321962163,1.121280681098085,0.6493836153713733
1730865952.4342704,-1.6731714010238647,0.9589577913284302,-9.931402206420898,-0.11202363008733544,-0.0538799582411217,-10.67226561026974,0.9072286598650596,1.1253664992298837,0.5330219991314135
1730865952.4843504,-1.7608195543289185,0.9085907340049744,-9.892904281616211,-0.11250645810936095,-0.04590500943838016,-10.674345274949747,0.9043663979902639,1.1293620696169635,0.3890094385663016
1730865952.5342863,-1.7608195543289185,0.9085907340049744,-9.892904281616211,-0.11434702453181109,-0.041857243554464484,-10.677425092374623,0.9071469423450168,1.135387855597828,0.6197543822414363
1730865952.5342863,-1.8198007345199585,0.8613375425338745,-9.845653533935547,-0.11763488724212871,-0.04175912725552491,-10.681327126673828,0.907132920603552,1.1354118929699824,0.6190615950976053
1730865952.5842535,-1.8743910789489746,0.8098325729370117,-9.812735557556152,-0.12263450650416531,-0.045245799915158216,-10.685711246113176,0.9047016565918502,1.139262065062103,0.49318014791888193
1730865952.634168,-1.8814746141433716,0.8248398900032043,-9.78154468536377,-0.1297202389997788,-0.05160935144220379,-10.69009339378142,0.9058784609608955,1.1497736326963952,0.6506171093475088
1730865952.6841817,-1.8178749084472656,0.9012826681137085,-9.799697875976562,-0.13928851250158394,-0.05990725334450113,-10.693886099589665,0.9034670598978162,1.1548264454143933,0.5306011032700364
1730865952.7341259,-1.8178749084472656,0.9012826681137085,-9.799697875976562,-0.15161411845507333,-0.06915531682839171,-10.696484224469701,0.9040017648231565,1.160848327179503,0.6510409792891805
1730865952.7341259,-1.7743693590164185,0.9895063042640686,-9.821540832519531,-0.16670857220136548,-0.07852690464731932,-10.697375965399944,0.9039873836189137,1.1608783328535863,0.6503835654250311
1730865952.7841399,-1.7743693590164185,0.9895063042640686,-9.821540832519531,-0.18426092411416778,-0.08747672888800881,-10.696232225122156,0.9014014436533404,1.1656880677868373,0.5293427064495555
1730865952.7841399,-1.7426655292510986,1.0704177618026733,-9.879551887512207,-0.20366338163569303,-0.09578452279186273,-10.692955513702625,0.9013820430011772,1.1657204650122346,0.5284169259749619
1730865952.834016,-1.7426655292510986,1.0704177618026733,-9.879551887512207,-0.2240856585685725,-0.10353891765096432,-10.68770080759375,0.9037485068271209,1.173242431040429,0.6648701007300863
1730865952.834016,-1.7173658609390259,1.144403100013733,-9.899643898010254,-0.24457035513421277,-0.11108078263589986,-10.680864899073452,0.9037375447745318,1.1732678933156402,0.6643573206974084
1730865952.884022,-1.7238008975982666,1.201750636100769,-9.902915954589844,-0.2641313656759535,-0.1189354036530138,-10.67302904969624,0.9012353504744688,1.1781679790140815,0.5494000163610785
1730865952.9340377,-1.7645459175109863,1.1820310354232788,-9.86949348449707,-0.281854968773926,-0.12774672703311468,-10.664864741526866,0.9039755616066588,1.1833913232419655,0.6733696123346214
1730865952.9839852,-1.83077871799469,1.1543887853622437,-9.82955265045166,-0.29701903565801663,-0.13817358534711788,-10.657016406661771,0.905069052714019,1.190893395772219,0.7089688041462873
1730865953.0339887,-1.8594506978988647,1.0799541473388672,-9.79504680633545,-0.30921715155950463,-0.15072230681546997,-10.6499777588392,0.9026069082814583,1.1955193137253266,0.6033090256081814
1730865953.0839276,-1.8404059410095215,1.018115758895874,-9.759230613708496,-0.3184195860021951,-0.16556923782826743,-10.644002087827129,0.8993604883814716,1.1997496144986513,0.47104240369113815
1730865953.1339393,-1.7897979021072388,0.9865586757659912,-9.764646530151367,-0.3249099950108254,-0.18245039089076015,-10.639079830272458,0.895322068220713,1.2035353339711572,0.3126410195628772
1730865953.1840162,-1.698754072189331,1.0258070230484009,-9.786855697631836,-0.32911203589253935,-0.20067758340743602,-10.634992126773522,0.9021805884571087,1.2069689887058388,0.5832426643580642
1730865953.2339149,-1.6195176839828491,1.096706748008728,-9.849236488342285,-0.33137893968487175,-0.21930336613865192,-10.631430740307149,0.8984779940723671,1.2098937335583348,0.44549929178118625
1730865953.2839737,-1.5690386295318604,1.1863417625427246,-9.894932746887207,-0.3318315720956956,-0.23738483644350722,-10.628148431415692,0.8938934774692548,1.2122723309635823,0.27927227280406003
1730865953.3338645,-1.5596836805343628,1.2637195587158203,-9.941064834594727,-0.33031273731063643,-0.2542423816459941,-10.625082708827886,0.9007986104030314,1.219081019812922,0.5643947170106015
1730865953.384044,-1.5596836805343628,1.2637195587158203,-9.941064834594727,-0.32647005471903084,-0.2696109616905381,-10.622401984772512,0.8965832985965608,1.2214493840817862,0.4206646428634575
1730865953.384044,-1.59630286693573,1.3051685094833374,-9.960204124450684,-0.3199168102596648,-0.2836339118257269,-10.620460893358253,0.8965571303792371,1.2214608023176845,0.4197760641726599
1730865953.4338489,-1.6284863948822021,1.3273265361785889,-9.94701862335205,-0.3104041285037549,-0.29674496483488677,-10.619698516404211,0.8916679194101806,1.2230683687055557,0.2536615613734625
1730865953.4840422,-1.6553434133529663,1.316172480583191,-9.920696258544922,-0.2979529980320787,-0.3095267302056962,-10.620523275102748,0.899763379318338,1.2315164134627297,0.5623666843830707
1730865953.5338588,-1.6599690914154053,1.2806527614593506,-9.860176086425781,-0.2829082122195033,-0.3225706613558068,-10.623199889724965,0.903950503846225,1.2433015560160066,0.6470608643293542
1730865953.583919,-1.6765570640563965,1.1801283359527588,-9.819402694702148,-0.26590509552153474,-0.3363195238257882,-10.627746631936002,0.9009489040590546,1.2464604126287995,0.5252919203706674
1730865953.6338382,-1.6720153093338013,1.0732054710388184,-9.787087440490723,-0.24777868030735287,-0.35089697150663973,-10.63387578550775,0.9058334436940083,1.2538329336600131,0.6297039269942195
1730865953.6838663,-1.6663193702697754,0.9791675806045532,-9.763050079345703,-0.22945183242937722,-0.36596701459535913,-10.641009450297522,0.9032575861870994,1.2561230556800687,0.5040669579737621
1730865953.7339408,-1.6707918643951416,0.9239218235015869,-9.750232696533203,-0.21182508722320212,-0.3806918027576209,-10.648363468902701,0.9001211917881008,1.2574849983756642,0.35138110582477
1730865953.7837968,-1.6994575262069702,0.9047927856445312,-9.781537055969238,-0.1956943042393532,-0.393830926951275,-10.655071801031337,0.9074586021201206,1.2660585382511942,0.56882571655673
1730865953.8338177,-1.7137017250061035,0.9450106620788574,-9.824131965637207,-0.18171702825904407,-0.4039660720072008,-10.660336976686784,0.9050800916767362,1.2670283872833936,0.4292126366435939
1730865953.8838098,-1.7199853658676147,1.0237822532653809,-9.900525093078613,-0.17041111712296492,-0.40979902453535055,-10.66359071482936,0.9111636729770416,1.2783746968160112,0.588588477542059
1730865953.933771,-1.7199853658676147,1.0237822532653809,-9.900525093078613,-0.16214978276661798,-0.41043987727847375,-10.664619527537454,0.9152588398862018,1.2871971177809916,0.6457550129460595
1730865953.933771,-1.7121604681015015,1.109671950340271,-9.941783905029297,-0.15714196319581442,-0.4055853592569915,-10.663597993443824,0.9152538644824669,1.2872118336092844,0.6450975412535088
1730865953.9838536,-1.7125602960586548,1.1412822008132935,-9.991416931152344,-0.15541256141393678,-0.3955593894343195,-10.661030571855857,0.9142350261698861,1.2891571741273327,0.5227981519090659
1730865954.033785,-1.7383090257644653,1.1559922695159912,-9.991555213928223,-0.156804309765244,-0.38125434636914046,-10.657659995888128,0.9128295034460393,1.2901379955167116,0.3741237518610563
1730865954.0837812,-1.7700742483139038,1.0934906005859375,-9.966474533081055,-0.16101950759344116,-0.3639758982388014,-10.654355191310753,0.9177185608347613,1.299619586023753,0.5886740476458194
1730865954.1337168,-1.7700742483139038,1.0934906005859375,-9.966474533081055,-0.16768981927981835,-0.3451985250521902,-10.651962438674014,0.9164585345493719,1.3003265569338,0.4552893105996501
1730865954.1337168,-1.7931220531463623,1.0574482679367065,-9.924484252929688,-0.17643257962266212,-0.32631755488324415,-10.65115861632259,0.9164501539903034,1.3003281394317898,0.45445261964196
1730865954.1838078,-1.7931220531463623,1.0574482679367065,-9.924484252929688,-0.18687456670329633,-0.3084842125989403,-10.652354590639664,0.9208997463923456,1.3140100835076982,0.6182559846368925
1730865954.1838078,-1.8051255941390991,0.9757516384124756,-9.861323356628418,-0.1986576852186976,-0.2925232794845732,-10.655653045985297,0.9208950980838122,1.3140241364322396,0.6176331021486533
1730865954.233678,-1.8243852853775024,0.909440279006958,-9.807530403137207,-0.2114417014701092,-0.2788788514121129,-10.660837964601711,0.9198059577473434,1.3161847928138575,0.49346885078104524
1730865954.2837088,-1.831785798072815,0.8526820540428162,-9.77783489227295,-0.22491265797413643,-0.2675684422015311,-10.667381378769301,0.9237683528427794,1.3241950151318918,0.6396763735377254
1730865954.3335953,-1.7967559099197388,0.8678164482116699,-9.767488479614258,-0.23878633345649197,-0.2581960832512374,-10.67449334253672,0.9226190804599663,1.3261639647746273,0.5197146004417389
1730865954.3836603,-1.7605763673782349,0.9291214346885681,-9.799591064453125,-0.2527784824689148,-0.25008338118725004,-10.6812431493911,0.9263402688752695,1.335961019971252,0.6404116637140909
1730865954.433618,-1.710945725440979,1.0032237768173218,-9.818702697753906,-0.2665437189098081,-0.2425058786077295,-10.686730895583384,0.9249760145807908,1.3382560761898308,0.5180793871521417
1730865954.4836576,-1.7012803554534912,1.053971767425537,-9.838756561279297,-0.2796273766213513,-0.23494183773662994,-10.690251166153558,0.9291107273453639,1.3400490559105385,0.6337643384754944
1730865954.5335536,-1.6881037950515747,1.0379717350006104,-9.849413871765137,-0.29147359875465895,-0.227217529341906,-10.69139343455133,0.9275901677518221,1.3411888468829358,0.5082686951598206
1730865954.5836434,-1.7113316059112549,0.9963055849075317,-9.854170799255371,-0.3014959240052232,-0.21948428983732649,-10.690063224502696,0.9305900639988968,1.3419841282057914,0.6243674936607124
1730865954.6335702,-1.745736837387085,0.9328804016113281,-9.85682487487793,-0.30918593245352055,-0.21205622683654132,-10.686443451561622,0.92861133557447,1.342055411107052,0.4961481735715773
1730865954.683587,-1.7479357719421387,0.8603179454803467,-9.831171989440918,-0.3142220426614227,-0.20520291136927077,-10.680919085853867,0.9258475992255878,1.3416056606289435,0.34083396949157985
1730865954.733575,-1.7491909265518188,0.843873918056488,-9.839099884033203,-0.3165296844286869,-0.19899102927304815,-10.673983909713932,0.9303972756296756,1.3409375684206735,0.5662894699887936
1730865954.7836032,-1.719849944114685,0.8954249024391174,-9.856204986572266,-0.3162635685029828,-0.19324662395383213,-10.666160775015555,0.927480367442132,1.3395092455154325,0.4252041196523201
1730865954.8335345,-1.69038987159729,1.013269066810608,-9.893735885620117,-0.3137284720543499,-0.18767508104428388,-10.65796864681866,0.9319597982004146,1.3381860969228847,0.587529210737389
1730865954.8834958,-1.6407148838043213,1.1782209873199463,-9.94733715057373,-0.3092748712393132,-0.1821048935457028,-10.649936871342042,0.9350147606294811,1.33692987676213,0.6452993951124617
1730865954.9335127,-1.5968351364135742,1.3148117065429688,-9.980710983276367,-0.30320051408554805,-0.1767518664916438,-10.642636927278913,0.9327970287700813,1.3342480548922235,0.5220949575382445
1730865954.9834745,-1.5788203477859497,1.3853707313537598,-9.986942291259766,-0.29568530197062104,-0.17237169313816747,-10.63668992528387,0.9298270884456076,1.3311267750892908,0.3721327894963938
1730865955.0333755,-1.59587824344635,1.345052719116211,-9.986001014709473,-0.28678802091331557,-0.17019498324513224,-10.632718519324552,0.9344074434507336,1.3285002236306138,0.5660733415109723
1730865955.0834413,-1.6471034288406372,1.241713523864746,-9.92891788482666,-0.2765193039464185,-0.17162751959832634,-10.631247650414775,0.9314571596940736,1.324559736668634,0.42597605101153874
1730865955.1334794,-1.7504501342773438,1.1041513681411743,-9.85863208770752,-0.2649753257746954,-0.17781398860024517,-10.632576889905224,0.9278259777456602,1.3201789166645317,0.259129569893094
1730865955.1834555,-1.8304283618927002,0.9711137413978577,-9.74976921081543,-0.2524905597187981,-0.1892312816613706,-10.636647945267484,0.935565709513813,1.316725926091297,0.5309432857724011
1730865955.2333221,-1.9156988859176636,0.9128645658493042,-9.670672416687012,-0.23974563772936983,-0.2054606430158326,-10.642945393941991,0.9326694341838198,1.3114807316563626,0.38548571021865596
1730865955.2834413,-1.9563443660736084,0.903839647769928,-9.61693286895752,-0.22777278267600312,-0.22521860896659468,-10.650481890465958,0.9291518093623263,1.3056340967094364,0.21157294242661337
1730865955.3332965,-1.9563443660736084,0.903839647769928,-9.61693286895752,-0.2178432063333957,-0.24662307606975567,-10.657905385128124,0.925130741620306,1.299284451701039,0.01367096240086844
1730865955.3332965,-1.9662718772888184,0.9583784937858582,-9.625625610351562,-0.21126589053032313,-0.26757534701513147,-10.663717379557726,0.9251054005373746,1.2992451468167026,0.012424219300249593
1730865955.3834836,-1.923431158065796,1.0500279664993286,-9.705564498901367,-0.20916175823777514,-0.2861435075419867,-10.666544614340399,0.9205035331222311,1.2941491357282808,0.4819792905196091
1730865955.4342368,-1.923431158065796,1.0500279664993286,-9.705564498901367,-0.212277019305862,-0.30087583991915123,-10.665391455005226,0.9153339049020247,1.2863308758100689,0.3294672577278336
1730865955.4342368,-1.8367159366607666,1.1513241529464722,-9.823517799377441,-0.2208643822165737,-0.31097804552721836,-10.659809561136171,0.9153036730915504,1.2862852986842823,0.3285440038123431
1730865955.4842105,-1.7143102884292603,1.2665013074874878,-9.948857307434082,-0.2346125972815859,-0.31636082492447093,-10.649984307880146,0.9096835299381475,1.2809332512089164,0.5681320718579219
1730865955.5342638,-1.5934988260269165,1.3747628927230835,-10.055098533630371,-0.25259019109238223,-0.31763759061428987,-10.63677833070626,0.9033878696144407,1.2717347333915958,0.43585512643171914
1730865955.5842412,-1.4835880994796753,1.4298890829086304,-10.111140251159668,-0.2732299241749906,-0.316074718875355,-10.621699928695318,0.9415863459881549,6.372420721314256,0.5963426593782303
1730865955.6342456,-1.443881630897522,1.4316983222961426,-10.103753089904785,-0.29442360309959437,-0.3134252221568008,-10.606724902931814,0.9388430750751792,6.6004202149737985,0.46807912485303055
1730865955.6842623,-1.4952565431594849,1.3775787353515625,-10.049909591674805,-0.31376767123714383,-0.3116311154697961,-10.593974900811729,0.9481902898940553,6.542107104420901,0.3124002383969917
1730865955.7341847,-1.6399167776107788,1.2702287435531616,-9.953142166137695,-0.32895485208806097,-0.3124516979473936,-10.58532854748941,0.9457221966229755,6.659988417309941,0.1322586201575714
1730865955.7842758,-1.8158236742019653,1.1555479764938354,-9.814238548278809,-0.33824576891646957,-0.31710308567062906,-10.582057520813967,0.9527847801287274,6.644816095587771,0.509886095723036
1730865955.8341494,-1.987913966178894,1.0372942686080933,-9.684324264526367,-0.340886345860146,-0.3259963968088965,-10.584559910559706,0.9572033360815849,6.658149420215056,0.6133270551542234
1730865955.8841746,-2.1046435832977295,0.9711049795150757,-9.589987754821777,-0.33732622750756003,-0.3386429060938146,-10.592247642895543,0.9554715850347335,6.702012334420576,0.4845218138704461
1730865955.9341092,-2.1483964920043945,0.9394667744636536,-9.553539276123047,-0.3291562258525171,-0.35375393870932004,-10.603631528289506,0.9529446212108311,6.744266960828378,0.3316929981100156
1730865955.9841945,-2.121264934539795,0.9565346837043762,-9.586009979248047,-0.3187757595846904,-0.36951026427930406,-10.616603691925585,0.9495759370935971,6.786149283169765,0.1504123228473519
1730865956.0340698,-2.039263963699341,0.9619608521461487,-9.645097732543945,-0.3088828119806596,-0.38392172922893686,-10.628855616365087,0.9575657369292417,6.7150054642758334,0.5038567376928814
1730865956.0840585,-1.9312196969985962,0.9948458671569824,-9.719782829284668,-0.3019231503548066,-0.3951724171102894,-10.638321542222334,0.954553644536103,6.7364858736226605,0.35371586236155356
1730865956.1340225,-1.8107657432556152,1.0069457292556763,-9.799466133117676,-0.2996301288050266,-0.4018750082405133,-10.643532807697039,0.9507963529608048,6.7569351621169105,0.17728615676705714
1730865956.184022,-1.7375962734222412,1.0039891004562378,-9.883305549621582,-0.302748458029463,-0.4032048901983326,-10.643820255832058,0.9462812010862311,6.7764086150338345,-0.025988827455814198
1730865956.2339506,-1.6901278495788574,0.9899908900260925,-9.963652610778809,-0.31098836480007813,-0.39891238874441337,-10.639363108590924,0.9410184903712144,6.70445688831593,0.46010946193969887
1730865956.2840056,-1.6511867046356201,1.0167818069458008,-10.022025108337402,-0.3231912792638265,-0.3892464624773208,-10.631110044711544,0.9348939951148094,6.71244934729385,0.30123674891732144
1730865956.3338845,-1.626352071762085,1.0566904544830322,-10.058816909790039,-0.3376193894461439,-0.3748587979294317,-10.620599240930787,0.9280698601246989,6.6816593276826,0.5356040433075472
1730865956.3839247,-1.6089198589324951,1.1275053024291992,-10.08283519744873,-0.35227085883850007,-0.35673893672518364,-10.609708651974607,0.9202466857273791,6.684488937273802,0.3914181977424512
1730865956.433835,-1.548673152923584,1.161179542541504,-10.08017635345459,-0.36515483342978206,-0.33617141432265196,-10.600380518864219,0.9116816993455404,6.665936956988166,0.5599295704197587
1730865956.4838657,-1.5168516635894775,1.1840696334838867,-10.051786422729492,-0.37448486413981824,-0.314666116121041,-10.594360266267167,0.9020966075385274,6.656864780123098,0.6205688024070221
1730865956.533793,-1.4813148975372314,1.1318827867507935,-9.987784385681152,-0.37879064323878586,-0.29381999299424283,-10.59297026727068,0.8916121173010876,6.655896973492124,0.4967949092153443
1730865956.5838237,-1.4938756227493286,1.0512200593948364,-9.905617713928223,-0.3769912341637628,-0.27510374274360005,-10.596929835248165,0.8801365072308922,6.654213673537346,0.34598325233141697
1730865956.6337664,-1.5253958702087402,0.9455553293228149,-9.82075309753418,-0.36846776230901507,-0.25961114953242603,-10.606240563753524,0.8677585179911795,6.651866980458222,0.169073636891798
1730865956.683823,-1.6069215536117554,0.8572342395782471,-9.72569751739502,-0.35314376594192376,-0.2478477138520078,-10.620160495815458,0.964546203077237,6.64612287656646,0.4937225768141224
1730865956.7337284,-1.7038275003433228,0.803158164024353,-9.66273307800293,-0.3315598156388829,-0.23963807448351998,-10.637277361970105,0.9593137613760198,6.64356989900672,0.3448809947814758
1730865956.7837372,-1.8090814352035522,0.8006678223609924,-9.635173797607422,-0.30491347711395955,-0.23419364660782638,-10.655679545674925,0.9532694355131828,6.64088145554989,0.542656329773299
1730865956.8336544,-1.8927173614501953,0.8072279691696167,-9.634767532348633,-0.2750267668460229,-0.23032357165316472,-10.673213821420287,0.946518031559961,6.639936091668336,0.6143429307460471
1730865956.883653,-1.9440635442733765,0.8602471947669983,-9.668485641479492,-0.24421200477750515,-0.22671912197045274,-10.687791284982655,0.9390852792652702,6.637598841964982,0.48919669685376627
1730865956.9336395,-1.9826576709747314,0.9154075980186462,-9.733817100524902,-0.21503933500906341,-0.222233411482084,-10.697685692903491,0.9310688804327645,6.634696390542312,0.33711234331900763
1730865956.9837236,-1.9989776611328125,0.9727869033813477,-9.810914993286133,-0.19005053049800533,-0.2161013166312908,-10.701779035274411,0.9225497043671089,6.636684560338867,0.5424227619884163
1730865957.033659,-1.9968469142913818,1.0430967807769775,-9.891023635864258,-0.17147962293455088,-0.2080651107613318,-10.699718867502954,0.9136152517987163,6.634024705429599,0.40180470407473173
1730865957.083661,-1.9078164100646973,1.1033395528793335,-9.982389450073242,-0.1610103457163508,-0.1984008081620735,-10.691963839774992,0.9042131581827023,6.630840370621225,0.23357865624738344
1730865957.1336153,-1.811535358428955,1.1505705118179321,-10.037453651428223,-0.15956415054008352,-0.1878616815259879,-10.679717078054685,0.8944828594331614,6.635184136369112,0.5148022260468921
1730865957.1835968,-1.684177279472351,1.158101201057434,-10.068291664123535,-0.16713216732472588,-0.17754931333657625,-10.664756603411657,0.8843076669108765,6.632549970474361,0.3683187167785627
1730865957.2335598,-1.607757568359375,1.1402833461761475,-10.083259582519531,-0.1827100392826367,-0.1687202930064933,-10.649181114840362,0.8736897129348165,6.629481849283347,0.19513276404825827
1730865957.2836456,-1.5794684886932373,1.0847864151000977,-10.054425239562988,-0.2043966839807928,-0.16255321441747006,-10.635114957664534,0.8625801188626988,6.6259972789324975,-0.004793198570324456
1730865957.3335211,-1.6266781091690063,1.0333889722824097,-10.00820255279541,-0.22967644030488107,-0.1599205234172979,-10.624420137944838,0.8510403964851193,6.627156203690426,0.4603999021172803
1730865957.3835816,-1.7076492309570312,0.985153317451477,-9.948284149169922,-0.2558408942550126,-0.16122050220250672,-10.618451325974176,0.8388537490908942,6.621934616080538,0.5872325730447548
1730865957.4335127,-1.7076492309570312,0.985153317451477,-9.948284149169922,-0.2804304164014235,-0.16631826428351548,-10.61790070156496,0.8259400129788912,6.617630852128885,0.45534905823785715
1730865957.4335127,-1.7534598112106323,0.9991579055786133,-9.872818946838379,-0.3015455964220578,-0.17461579112187112,-10.62277003498302,0.825864745111849,6.617605248123157,0.4545251038553524
1730865957.4836228,-1.761965274810791,1.019677996635437,-9.80775260925293,-0.31797030144179117,-0.1852211988153801,-10.632435823082385,0.8122524143752856,6.612878660518881,0.2965919559739439
1730865957.5335631,-1.7332777976989746,1.0601274967193604,-9.740081787109375,-0.32915231276365803,-0.1971496629314643,-10.645741317864475,0.7977949324514199,6.607662243971736,0.11170496179522986
1730865957.5835302,-1.7360866069793701,1.0578792095184326,-9.706241607666016,-0.33508992689779604,-0.20949389073955987,-10.661112165959986,0.7824813823967469,6.601928144045208,-0.10015049867261946
1730865957.633568,-1.7078824043273926,1.0534155368804932,-9.675688743591309,-0.3361717954346639,-0.2215230447303244,-10.676724654580493,0.7664919634218682,6.604466871727972,0.47332906752422543
1730865957.683474,-1.7233083248138428,1.0290294885635376,-9.678693771362305,-0.33302900179088657,-0.23269675402446283,-10.690716685791621,0.7495392971333175,6.599069609098544,0.31963063708692907
1730865957.733404,-1.7296462059020996,1.0342074632644653,-9.693284034729004,-0.32643044555796813,-0.2426265061420731,-10.701406286879878,0.7319785060883265,6.5907252418004925,0.5611382440227359
1730865957.7834828,-1.7782323360443115,1.0552161931991577,-9.738544464111328,-0.31722773202304566,-0.2510415739108355,-10.707488403834564,0.713370357627997,6.583429607455091,0.4226424654206006
1730865957.833414,-1.8271551132202148,1.1032934188842773,-9.756502151489258,-0.3063432119298813,-0.257797104481431,-10.708183124942217,0.6940277969312366,6.575516203194371,0.257750539934764
1730865957.8834038,-1.8970963954925537,1.1459044218063354,-9.80887222290039,-0.2947822144577137,-0.26291889842609917,-10.703307525452505,0.6738876360369248,6.566932799110762,0.0656889618375251
1730865957.933347,-1.8970963954925537,1.1459044218063354,-9.80887222290039,-0.2836335115086641,-0.2666391741179857,-10.693260212144565,1.0025476448303154,6.571933794153188,0.49514257685741137
1730865957.933347,-1.9201931953430176,1.1988476514816284,-9.833016395568848,-0.2740143349001149,-0.26938032084512803,-10.67892708853892,1.0025236410926524,6.571894242176193,0.494364586620685
1730865957.983341,-1.93211030960083,1.2210768461227417,-9.855461120605469,-0.26696206455299787,-0.2717002734539218,-10.66153511271629,0.9979201278536137,6.5645171483556535,0.34267347819892
1730865958.0332818,-1.8952357769012451,1.1917591094970703,-9.863088607788086,-0.2633188484220868,-0.27422641735877173,-10.642496380910083,0.9926546430152295,6.556929646186079,0.5783022401581909
1730865958.0833924,-1.8952357769012451,1.1917591094970703,-9.863088607788086,-0.2636329704957539,-0.27756236470760903,-10.623263220240858,0.9866545966905066,6.547828127217405,0.4427187727024492
1730865958.0833924,-1.8420480489730835,1.143674373626709,-9.883455276489258,-0.26808582718424534,-0.2821725052628405,-10.60519590301858,0.9866221256703113,6.547779671084301,0.4419545414631162
1730865958.1332362,-1.7618697881698608,1.129366159439087,-9.8805570602417,-0.2764505802188766,-0.2882882912339653,-10.589459499313346,1.0221924078325388,6.541226812064513,0.6135459348081191
1730865958.1833367,-1.694387674331665,1.115341305732727,-9.905627250671387,-0.2880690336475403,-0.2958664030758249,-10.576962269307781,1.0195270073464224,6.531320027131422,0.48823030988473604
1730865958.2332082,-1.6100733280181885,1.094612956047058,-9.931663513183594,-0.30185613156701624,-0.3046075146297271,-10.568334472515497,1.0161390893351139,6.520713916268842,0.3371647083103018
1730865958.2832747,-1.5418109893798828,1.0807050466537476,-9.972339630126953,-0.31636037891013613,-0.31401753417923356,-10.563947967101004,1.0303085569501123,6.51951257648536,0.5779409680971404
1730865958.3331993,-1.499990701675415,1.0729589462280273,-10.015694618225098,-0.32988377951093883,-0.32348226584930173,-10.563967253959058,1.0360794810806266,6.508556708122759,0.6510103549425184
1730865958.383289,-1.4388550519943237,1.0682786703109741,-10.016959190368652,-0.3406466806826326,-0.33234592639172844,-10.568403616308808,1.0341925575363828,6.497385789902186,0.5309617993503886
1730865958.4332135,-1.4234479665756226,1.0768064260482788,-10.036955833435059,-0.3469681724411168,-0.33999056906071534,-10.577140110946726,1.0404421932743408,6.484714117853559,0.6294498696934565
1730865958.4831707,-1.4432932138442993,1.1116139888763428,-10.005428314208984,-0.3474401045559459,-0.3459134385821836,-10.589919645101464,1.0386015063897802,6.471282139386291,0.5036671619188537
1730865958.5341525,-1.5085569620132446,1.1484904289245605,-9.962830543518066,-0.3411017220673366,-0.3498036986280674,-10.60630840745559,1.0358489971061469,6.456747196879173,0.34872830157136825
1730865958.5831633,-1.5824558734893799,1.1850098371505737,-9.87814998626709,-0.3276077080746115,-0.35160694402964005,-10.625641627470326,1.0423796400278618,6.466809378670618,0.5677399351975543
1730865958.6341417,-1.7026240825653076,1.1562330722808838,-9.797066688537598,-0.30735043905342874,-0.3515415297134351,-10.646965880092175,1.0396161041610283,6.455061628788607,0.4253234059977745
1730865958.6841717,-1.8434793949127197,1.0966352224349976,-9.701960563659668,-0.28151028775087983,-0.3500254250287822,-10.669009355947518,1.0361671948120326,6.4426726385604765,0.2589866589658094
1730865958.7341104,-1.9647480249404907,1.0394996404647827,-9.635427474975586,-0.2520287003083398,-0.3475175158078615,-10.690209816318067,1.0320546052398465,6.429419116562883,0.06609232504753353
1730865958.7841659,-2.0362460613250732,0.9632866978645325,-9.589738845825195,-0.2214808257332474,-0.34434295424767025,-10.708815691513362,1.0432194619146293,6.4509637604064345,0.4897137224483201
1730865958.8331368,-2.0580220222473145,0.9396564364433289,-9.595098495483398,-0.1928180236841501,-0.34058006322456597,-10.723059871520526,1.0403485482899038,6.440982753593001,0.33885565280467195
1730865958.8841126,-2.0260348320007324,0.9472898840904236,-9.640368461608887,-0.16899749196504552,-0.3360522657446765,-10.731389157755084,1.0471747251721075,6.445735293378972,0.553282641003182
1730865958.9341154,-1.9630955457687378,1.0134309530258179,-9.721592903137207,-0.15256964432829506,-0.3304368900116549,-10.732714250772451,1.0450377388037324,6.436177857549616,0.4111239781492474
1730865958.984118,-1.895137906074524,1.0919886827468872,-9.815616607666016,-0.14531430537780204,-0.3234586091573938,-10.7266282977728,1.050195959157421,6.435955703056277,0.5755530736802875
1730865959.0339692,-1.8222602605819702,1.1473636627197266,-9.905097961425781,-0.14800541676368648,-0.31508847580323657,-10.71353749430492,1.0485634823643772,6.426205335866596,0.43812695498851967
1730865959.0840662,-1.8222602605819702,1.1473636627197266,-9.905097961425781,-0.16035337355466728,-0.3056512353304335,-10.694651728157382,1.0537627004404948,6.4250802080962774,0.5825931261837647
1730865959.0840662,-1.7455374002456665,1.1361726522445679,-9.956357955932617,-0.18112526599847184,-0.2957832863255725,-10.671811962136802,1.0537569615953963,6.425020544040155,0.5818411040446957
1730865959.1339521,-1.700907826423645,1.1482601165771484,-10.000899314880371,-0.2083702552982552,-0.2862796071541944,-10.647218091674866,1.0525700628305263,6.415004465443464,0.4468887766595001
1730865959.1839936,-1.7207727432250977,1.1174755096435547,-10.020934104919434,-0.23967298156540007,-0.277926125746669,-10.623166700172302,1.0508083963492152,6.404164896937622,0.28373804689940535
1730865959.233999,-1.7523990869522095,1.134559988975525,-9.988039016723633,-0.2724403376181443,-0.27137542993287245,-10.601826613246855,1.0557036874246768,6.4119557939631395,0.5594110197737986
1730865959.2839696,-1.8286563158035278,1.1376848220825195,-9.950651168823242,-0.304228484782319,-0.2670785355342385,-10.585018552841701,1.0537178074566973,6.402879349284123,0.42098358243006834
1730865959.3339097,-1.8731988668441772,1.1633003950119019,-9.883402824401855,-0.33304485987948745,-0.26527685104577814,-10.574009346757872,1.0580376840381356,6.400734467994545,0.5938170053073867
1730865959.3839538,-1.87714421749115,1.2097761631011963,-9.829784393310547,-0.3575395790759972,-0.2660433827139386,-10.569369968008889,1.059923609667832,6.395118629341734,0.6523407120847177
1730865959.43391,-1.87714421749115,1.2097761631011963,-9.829784393310547,-0.3770359699375927,-0.2693463165695613,-10.57094115668192,1.0576236385701503,6.386039702433093,0.534578778949464
1730865959.43391,-1.8527741432189941,1.2444229125976562,-9.779115676879883,-0.3914233367374929,-0.2750992573750717,-10.577923771669015,1.0576100147297673,6.385993281535718,0.5339339484620141
1730865959.483997,-1.7791498899459839,1.2536530494689941,-9.761033058166504,-0.40097805494967825,-0.28318077473328507,-10.589050041204656,1.0542877512294193,6.376048129179591,0.38733625456768245
1730865959.5338774,-1.7433054447174072,1.2289862632751465,-9.7857084274292,-0.40616137836792315,-0.2934308217618701,-10.602775946953905,1.0594668167158676,6.371561216505239,0.5970423687148364
1730865959.583923,-1.7001326084136963,1.2023404836654663,-9.813427925109863,-0.40744508996827544,-0.3056192616439193,-10.617490168073681,1.0559723111122294,6.361118472121604,0.4652675817579698
1730865959.6338441,-1.658395528793335,1.1724835634231567,-9.855494499206543,-0.40521294689238707,-0.319392471487842,-10.631732866131696,1.0609549796969093,6.350169015216828,0.6157759954473535
1730865959.6838272,-1.589672565460205,1.1396898031234741,-9.88569164276123,-0.39972671088018186,-0.33423548835170447,-10.644373528928295,1.0632188157796914,6.3360798910452205,0.6686053151895112
1730865959.733828,-1.5081108808517456,1.1046420335769653,-9.922158241271973,-0.39110969442408294,-0.34947212975507824,-10.654709237887635,1.059987216060136,6.322667574442082,0.5512128654177201
1730865959.7838185,-1.5081108808517456,1.1046420335769653,-9.922158241271973,-0.37934004871976934,-0.364302543225995,-10.662477987661928,1.0558062021568364,6.3084222271694435,0.4076772841485215
1730865959.7838185,-1.4295170307159424,1.1049782037734985,-9.95274543762207,-0.3642870115278704,-0.3778804608785812,-10.667800005891426,1.0557831057314524,6.308349306546092,0.4068990449017379
1730865959.833836,-1.4295170307159424,1.1049782037734985,-9.95274543762207,-0.34578654174363976,-0.3894187938605339,-10.67107863871831,1.050711100393361,6.2932113021295475,0.23722191098891432
1730865959.833836,-1.4276865720748901,1.1359474658966064,-9.951932907104492,-0.32372503502706873,-0.398291172698104,-10.672891067262338,1.0506847009856064,6.293136348408088,0.23634409245174642
1730865959.8838398,-1.4276865720748901,1.1359474658966064,-9.951932907104492,-0.29812799353291786,-0.4041078176859818,-10.673879209304978,1.0612481858888712,6.303236139159535,0.57065510047483
1730865959.8838398,-1.4848183393478394,1.1582427024841309,-9.916403770446777,-0.269244829650381,-0.4067550296878593,-10.674647517209902,1.0612314195869934,6.303175748396253,0.5700551396013931
1730865959.9337692,-1.4848183393478394,1.1582427024841309,-9.916403770446777,-0.2376075487180237,-0.4063901279827891,-10.67567670681963,1.065540241802254,6.294702749841371,0.6685054260564812
1730865959.9337692,-1.5948827266693115,1.1681678295135498,-9.850994110107422,-0.20405491697584044,-0.4033990533222487,-10.677259893040592,1.0655327884992174,6.29466235526499,0.6681770913839659
1730865959.9839382,-1.7093874216079712,1.1369863748550415,-9.79179573059082,-0.16974219654612632,-0.398326793575691,-10.679455033721705,1.0630842777180192,6.282048992961984,0.5562939691077855
1730865960.0338023,-1.8193243741989136,1.1080282926559448,-9.737626075744629,-0.1361592097666744,-0.391782019308588,-10.682046241993604,1.067991801770045,6.275459462383286,0.6741222734521716
1730865960.083812,-1.884267807006836,1.1029753684997559,-9.714607238769531,-0.10511156022213908,-0.38433351363391094,-10.684542587044035,1.0663322479720865,6.262463128977584,0.5607157864846084
1730865960.1337838,-1.9105286598205566,1.1115912199020386,-9.716594696044922,-0.07859412899447277,-0.37644366387817274,-10.686251600923791,1.0644591891365955,6.248638813176734,0.42176588795580783
1730865960.1837988,-1.9257912635803223,1.116139531135559,-9.744019508361816,-0.058559569688785104,-0.36846458776191404,-10.686422438995278,1.0699764130245457,6.248094474889378,0.6261273952696411
1730865960.2337227,-1.9447674751281738,1.1083884239196777,-9.78177261352539,-0.04665810916440062,-0.3606678389380818,-10.684418349717966,1.0688928237511095,6.234709751720565,0.49755612674187294
1730865960.28374,-1.942165493965149,1.0875669717788696,-9.824285507202148,-0.04403241456657982,-0.3532622763212835,-10.679869183734876,1.0729242928641822,6.229713396114904,0.6396592580469838
1730865960.3336928,-1.9253342151641846,1.0885087251663208,-9.844911575317383,-0.0511983661338995,-0.34638772571848775,-10.67276237608622,1.0723886816740922,6.215935952223495,0.512160414032385
1730865960.383695,-1.8715403079986572,1.0781447887420654,-9.8873929977417,-0.0679923342607056,-0.34010674594159634,-10.663453669362404,1.071700414529848,6.201224336038994,0.3571811161749461
1730865960.4336674,-1.8378441333770752,1.0401469469070435,-9.917705535888672,-0.093565819459105,-0.3344065889881409,-10.652614289650145,1.070818210920908,6.185815957511353,0.17720927123884653
1730865960.48365,-1.7672381401062012,1.032460331916809,-9.951805114746094,-0.12643216997803183,-0.3291969444660032,-10.641147132817983,1.075536950607506,6.202213360503838,0.5421709648232
1730865960.5337403,-1.7021394968032837,1.0370874404907227,-9.975760459899902,-0.16456693412611206,-0.32431110092662596,-10.630088823187993,1.0746883183238534,6.189998129612492,0.39384662655276476
1730865960.5838394,-1.65043306350708,1.073177456855774,-10.0149564743042,-0.20554874403055579,-0.31954411580584313,-10.620507088076753,1.0791245823223177,6.176789294297274,0.5883373703447635
1730865960.6337297,-1.6014059782028198,1.14634108543396,-10.020565032958984,-0.24673632581335647,-0.31473853488515363,-10.613405958236774,1.07824564646364,6.163039595134743,0.4505453125881009
1730865960.6836996,-1.5850491523742676,1.22859787940979,-9.987622261047363,-0.2854775491520697,-0.3098984861295828,-10.609632364769501,1.0819676012697008,6.148218396456643,0.6005794777739654
1730865960.733647,-1.6096011400222778,1.2526041269302368,-9.945744514465332,-0.3193370527739399,-0.30528420319515914,-10.60976529187938,1.080674723375037,6.132846891916434,0.4654253838779433
1730865960.7837098,-1.665219783782959,1.2559261322021484,-9.857342720031738,-0.3463314357958768,-0.3014158723776966,-10.613996438412048,1.07853894742185,6.116627742557937,0.30287360973311694
1730865960.8336103,-1.7471556663513184,1.2027697563171387,-9.769553184509277,-0.3651489363395505,-0.29895478168907086,-10.622033284729632,1.0755395683003688,6.099811881233625,0.11544765985424896
1730865960.8836133,-1.8258168697357178,1.1118991374969482,-9.667461395263672,-0.37530942559122316,-0.29849799954359446,-10.633050875393858,1.0822423462909505,6.081807576472892,0.503108841463115
1730865960.9335773,-1.8815194368362427,1.0185134410858154,-9.608986854553223,-0.37721770463409343,-0.300352316343067,-10.645718672428371,1.0791914010290036,6.063492396954773,0.3507719201015007
1730865960.9835758,-1.8815194368362427,1.0185134410858154,-9.608986854553223,-0.37207617904122753,-0.3043759559368121,-10.658331429717988,1.084396149332678,6.0438509227890345,0.5603056197781301
1730865960.9835758,-1.8734042644500732,0.954424262046814,-9.58102798461914,-0.3616574273254707,-0.3099695956012057,-10.669042610056854,1.0843837016398128,6.043760506843978,0.5597126883157959
1730865961.033538,-1.8734042644500732,0.954424262046814,-9.58102798461914,-0.34799854099004013,-0.3161996185140405,-10.676130840693279,1.0812707767096363,6.02389526533641,0.41876061235867057
1730865961.033538,-1.824157476425171,0.9195178747177124,-9.613903045654297,-0.3331080649920585,-0.32196615761239117,-10.678219461954308,1.081253218438055,6.023794927689977,0.417996811582739
1730865961.0836797,-1.7324042320251465,0.9404146075248718,-9.695297241210938,-0.31872068541428855,-0.3261669907585292,-10.674442701361272,1.0772728243174698,6.002939906996804,0.2488838073811147
1730865961.133535,-1.6441199779510498,0.9858413338661194,-9.814929962158203,-0.30608656755291747,-0.3278552740799129,-10.664586821016554,1.086125517902909,5.980797559421641,0.569728274601228
1730865961.1836119,-1.5686087608337402,1.074684739112854,-9.920032501220703,-0.29582047054047855,-0.32639941338144113,-10.649195128927934,1.083118425810987,5.958212815595366,0.4332533524902125
1730865961.2334654,-1.542607307434082,1.151999592781067,-10.003628730773926,-0.2878713603275409,-0.321631857009359,-10.629582973074157,1.088954844339571,5.933932684554414,0.6086455262441435
1730865961.283573,-1.5542049407958984,1.2301385402679443,-10.041191101074219,-0.2816408256120371,-0.3139385148999033,-10.607713758813695,1.0863561061435778,5.909678738513267,0.4792035720493323
1730865961.3333614,-1.6225168704986572,1.2406723499298096,-10.066964149475098,-0.2762252435184668,-0.30423829588961115,-10.585942168248934,1.0831057639857884,5.885016964670958,0.3254600672542075
1730865961.3834236,-1.7253564596176147,1.2138913869857788,-10.027120590209961,-0.27072324529431546,-0.2938294112947021,-10.566682281701038,1.0791132544992619,5.859192294758362,0.14254523185800438
1730865961.4334004,-1.8377536535263062,1.1672279834747314,-9.96264362335205,-0.2645358478600579,-0.2841270127747375,-10.552061526370068,1.0890181872924594,5.83172383704326,0.5280644579664597
1730865961.4834306,-1.8791604042053223,1.118408203125,-9.90227222442627,-0.2575734381444822,-0.27637435921732584,-10.543613518419011,1.0858638890476802,5.804436155675067,0.3801380104136254
1730865961.5334456,-1.8703622817993164,1.049418330192566,-9.87574577331543,-0.25028503162820764,-0.27141621130847465,-10.542079981234046,1.092457739523412,5.774688922485985,0.5819414804571817
1730865961.5833516,-1.7904411554336548,0.9940613508224487,-9.860814094543457,-0.24348389607911583,-0.26957234408410014,-10.54737930211952,1.096202510379032,5.743213455926946,0.648013132668023
1730865961.6333067,-1.6464136838912964,0.9628157019615173,-9.86606502532959,-0.23802842408796326,-0.27061489177417386,-10.558731029516082,1.094372439638172,5.713862881618083,0.5259132510660591
1730865961.683353,-1.5627888441085815,0.9482263922691345,-9.848698616027832,-0.23447239346542365,-0.27384879218209746,-10.574866236365732,1.0919390823242061,5.68368913221069,0.3766405053255338
1730865961.7333167,-1.562458872795105,0.9341247081756592,-9.841981887817383,-0.2328375766295539,-0.2782717288182027,-10.594245584572896,1.088940740062265,5.653050166757046,0.20206370052659148
1730865961.783527,-1.5797141790390015,0.9555282592773438,-9.840194702148438,-0.2326264854651288,-0.28276465099695824,-10.615242808945325,1.0953811788093326,2.073256589674271,0.5244774196479433
1730865961.8334281,-1.656130313873291,1.0449622869491577,-9.828990936279297,-0.23304493240408317,-0.286287568683002,-10.636291317760802,1.092728391072276,1.9528017878220096,0.37761045995786524
1730865961.883437,-1.656130313873291,1.0449622869491577,-9.828990936279297,-0.2332892453845145,-0.28807046414727344,-10.655997102546662,1.089468606935375,1.8305086070936445,0.20278906627872648
1730865961.883437,-1.7408385276794434,1.130565881729126,-9.812065124511719,-0.23276794906116458,-0.28774767865568535,-10.673214106456513,1.089452076748336,1.8299380817867548,0.2019134311286384
1730865961.933372,-1.8037424087524414,1.1793253421783447,-9.80042552947998,-0.23122525217315482,-0.2854007659523126,-10.687081190991856,1.0856455698270921,1.70807780862154,0.0022073112646022863
1730865961.9834905,-1.8700915575027466,1.1633671522140503,-9.820185661315918,-0.22879890037744322,-0.2815247334264055,-10.697031204759854,1.095215527285107,1.742530193843251,0.49416523100993204
1730865962.0333447,-1.9134926795959473,1.100498914718628,-9.80792236328125,-0.2260157410737728,-0.2768987624221084,-10.702791917341148,1.0923009157722343,1.6848633678095957,0.3442733549097089
1730865962.083408,-1.9134926795959473,1.100498914718628,-9.80792236328125,-0.22370355488475147,-0.27236462629130487,-10.704377026233889,1.09684680807673,1.6711520522986218,0.5695222154242787
1730865962.083408,-1.9817607402801514,0.9967160820960999,-9.799867630004883,-0.22283856757465598,-0.26860763303086843,-10.702049504409766,1.0968344268092536,1.6709750416485736,0.5688843263070793
1730865962.1332574,-2.009242534637451,0.8998187184333801,-9.762540817260742,-0.22439629557071694,-0.26599576636747824,-10.6962575384619,1.0941776428481522,1.6366155597049161,0.43307004339762817
1730865962.1833553,-2.0146119594573975,0.8520634174346924,-9.732019424438477,-0.2292462907932682,-0.26446901495569075,-10.687549353334052,1.0978386674380427,1.63559801932307,0.6116458434799174
1730865962.2332752,-1.9653370380401611,0.8578269481658936,-9.763777732849121,-0.23805365567458497,-0.2635285791190516,-10.67649057936279,1.0990964772119185,1.6303462766899344,0.6708151773966288
1730865962.2832632,-1.8760980367660522,0.9307280778884888,-9.811843872070312,-0.2511461410951306,-0.26238676167100383,-10.6636405542294,1.0967550236134345,1.6156014572579078,0.5558043417022224
1730865962.3331802,-1.7786275148391724,1.0387083292007446,-9.875558853149414,-0.2683659325275564,-0.260245309502091,-10.649607055560706,1.093769868519552,1.6002237546322349,0.4144072757346005
1730865962.3832405,-1.7020138502120972,1.1243410110473633,-9.926508903503418,-0.28896898474046495,-0.25659792974601264,-10.635123632479543,1.0900504873516261,1.5840371463632812,0.24469664787956882
1730865962.4332123,-1.6601722240447998,1.1989141702651978,-9.964488983154297,-0.3116384968976105,-0.25143864357938117,-10.621081646201931,1.0965212376888296,1.6093937335525834,0.5521147960239517
1730865962.4832904,-1.6342209577560425,1.2611186504364014,-9.975395202636719,-0.334634014059962,-0.24530940468691154,-10.608488376684264,1.0930269982881895,1.599129965216888,0.40831789795687
1730865962.5331616,-1.622498869895935,1.2675787210464478,-9.962905883789062,-0.3560327572564832,-0.23920040612059434,-10.598358120253295,1.097316289626967,1.6135124960532043,0.5919153222115968
1730865962.5832772,-1.639206886291504,1.2061913013458252,-9.937066078186035,-0.373992522372241,-0.23433797822882468,-10.591565217403677,1.0936219032065586,1.6061917833150572,0.45554927915101223
1730865962.6331246,-1.6860491037368774,1.1449236869812012,-9.880510330200195,-0.3869903811537413,-0.2318938822161738,-10.588696603734233,1.08900594726557,1.5983424912382582,0.2937711062331173
1730865962.6834114,-1.7109571695327759,1.0855287313461304,-9.83228588104248,-0.3940140726900212,-0.2326959862762451,-10.589935356263627,1.0959148062896311,1.6148418823490736,0.5536364648829379
1730865962.7330935,-1.709753394126892,1.0741137266159058,-9.788422584533691,-0.3946670588884773,-0.23704808185643836,-10.595001894176862,1.0914532224840239,1.6091980008490705,0.40929749153238293
1730865962.7832174,-1.6724727153778076,1.0828081369400024,-9.795247077941895,-0.38914558032166247,-0.2447161706102858,-10.603180689927932,1.0965337085817846,1.603124160398788,0.587668348995746
1730865962.8330767,-1.6206578016281128,1.0981696844100952,-9.837224006652832,-0.37809387265522504,-0.25505664331431704,-10.61344916655538,1.0920330429716059,1.5961854560400717,0.44867026753970396
1730865962.8830912,-1.5427521467208862,1.13316011428833,-9.84755802154541,-0.3623929713056119,-0.2672099892347289,-10.624682087628099,1.0966908297440214,1.588984878349241,0.6000730348455333
1730865962.933006,-1.5629488229751587,1.1618047952651978,-9.863628387451172,-0.34296261557670227,-0.28028997425794744,-10.635849367240386,1.0923751416276166,1.5808967999814816,0.46684612485201843
1730865962.9830446,-1.629149079322815,1.215698003768921,-9.845447540283203,-0.3206696115809093,-0.29353466801891254,-10.64613197602279,1.0871690187995589,1.5719824175252373,0.305124699852049
1730865963.0340078,-1.6967530250549316,1.2590280771255493,-9.838217735290527,-0.2963822342863805,-0.3064109524929334,-10.654946543327373,1.0811150524119646,1.5622032392616951,0.11431729926590851
1730865963.084012,-1.7413307428359985,1.2730633020401,-9.82457160949707,-0.27108645524190644,-0.31866509738136284,-10.661915127331408,1.0937333144254375,1.5520670790761508,0.504216590511801
1730865963.1339903,-1.7413307428359985,1.2730633020401,-9.82457160949707,-0.24593394707146005,-0.33030229536896805,-10.666822703386973,1.0892727572700422,1.5409296794607834,0.35199011616315784
1730865963.1339903,-1.7646113634109497,1.2583575248718262,-9.81188678741455,-0.2221739209153092,-0.3414975379870659,-10.669585623768421,1.089240391038561,1.5408512606956315,0.3508662742532048
1730865963.1839724,-1.7786732912063599,1.2127102613449097,-9.802888870239258,-0.20102194741553892,-0.3524714473216531,-10.670228229914574,1.096954674867774,1.5293681156404868,0.5768970032023734
1730865963.233917,-1.8130278587341309,1.14822256565094,-9.807696342468262,-0.18354421661093623,-0.3633605822907957,-10.668860853512648,1.0936355365087118,1.5165551805326922,0.4423008611922268
1730865963.2838762,-1.809478998184204,1.100132703781128,-9.810400009155273,-0.17058608775750145,-0.3741043024577937,-10.66566536407153,1.0898382461895442,1.5026839060091917,0.27958412519416614
1730865963.333905,-1.797210454940796,1.1131501197814941,-9.829365730285645,-0.16272229965952098,-0.3843934797155095,-10.6608935025089,1.0981956914722237,1.4887001252092587,0.5561904523550443
1730865963.383851,-1.7991148233413696,1.125964879989624,-9.836786270141602,-0.16021004557548585,-0.3937265944368802,-10.654870871513044,1.0954014688808222,1.4729417362490398,0.414528245664007
1730865963.4338167,-1.7826963663101196,1.1695894002914429,-9.845488548278809,-0.16296268863936644,-0.4015555866579938,-10.647993573151298,1.1009982150182362,1.4575310721842911,0.5918464353496558
1730865963.4838102,-1.7767739295959473,1.2048052549362183,-9.856528282165527,-0.17056292528608796,-0.4074498929442875,-10.64070901610979,1.0987583137861436,1.4398717588137235,0.4568160376701065
1730865963.5337822,-1.8129676580429077,1.1983704566955566,-9.851751327514648,-0.1823166964780159,-0.41121125657313484,-10.633483519208001,1.102871558471716,1.4224953229078419,0.6011257991245017
1730865963.5838563,-1.865580439567566,1.1427628993988037,-9.82577133178711,-0.19735803059243343,-0.41288887973432203,-10.626757617757399,1.1008157729948145,1.4031222650101183,0.4694119397609269
1730865963.633715,-1.881205439567566,1.0834192037582397,-9.824111938476562,-0.2147924778695841,-0.4126816037827065,-10.62088915331341,1.0981363719501238,1.381841163972402,0.30446055895973356
1730865963.68373,-1.863053321838379,1.0553536415100098,-9.826824188232422,-0.233809091783097,-0.4107897065213223,-10.616108725571333,1.1036215685285835,1.3625427971268977,0.557567388714043
1730865963.7337158,-1.8265241384506226,1.0528087615966797,-9.850543975830078,-0.25369952031560833,-0.4073177011805205,-10.612519003155152,1.1010744971068869,1.3394003300886559,0.4114602029546551
1730865963.7837036,-1.7715882062911987,1.0776413679122925,-9.877630233764648,-0.27379831644643504,-0.4022804375153526,-10.61013796896113,1.0979872409593798,1.3162186943783913,0.24539312706125804
1730865963.8336518,-1.7354477643966675,1.0973707437515259,-9.941924095153809,-0.2934056639351517,-0.3956860463354827,-10.608966267627359,1.1042700072993406,1.294276930570177,0.5371867094901139
1730865963.8837056,-1.689695954322815,1.1317925453186035,-9.966397285461426,-0.31174531112173626,-0.38763340172356,-10.609058235406302,1.1012418893390183,1.2686425813139175,0.3901559344341468
1730865963.9335935,-1.6389662027359009,1.1293141841888428,-9.971222877502441,-0.32797258156527265,-0.3783734004616265,-10.610560263550765,1.0974358682656389,1.2422157820322783,0.21761429796269735
1730865963.9836588,-1.6623183488845825,1.1505361795425415,-9.938908576965332,-0.3412243689587745,-0.36831218127412857,-10.613676761085465,1.1044840367440714,5.531308487266636,0.5293215399598439
1730865964.0335605,-1.685981035232544,1.114296793937683,-9.907242774963379,-0.35071962407974516,-0.3579612500788625,-10.618569604194228,1.1007565246476196,5.650441568901772,0.37736278082608843
1730865964.0836053,-1.7127622365951538,1.098321795463562,-9.828071594238281,-0.35590141299773975,-0.34785075764760975,-10.625237424864748,1.1055981670842188,5.74781508031302,0.5755653450131127
1730865964.1335196,-1.7381293773651123,1.0863145589828491,-9.812661170959473,-0.3565576783635187,-0.3384331919292597,-10.63342117357993,1.1018887019458024,5.805874638719996,0.4366013931117418
1730865964.1835907,-1.7394286394119263,1.1070185899734497,-9.751754760742188,-0.35286560423927826,-0.3300239100034308,-10.642574119592723,1.1059843944937107,5.854101676940956,0.27238965081277583
1730865964.2335656,-1.7783422470092773,1.099996566772461,-9.74980354309082,-0.3453593100073488,-0.3228031964850432,-10.651908956930486,1.1021285726630023,5.885666666594424,0.078423085626908
1730865964.2834716,-1.775434136390686,1.1180026531219482,-9.734968185424805,-0.3348537644312245,-0.31685269956900497,-10.660501907881436,1.0974983536775382,5.915870479761635,-0.1384871658399752
1730865964.3334875,-1.775434136390686,1.1180026531219482,-9.734968185424805,-0.32234707401148055,-0.31219113772198887,-10.667425368382899,1.1046481768487697,5.917749207970744,-0.3826910745676974
1730865964.3334875,-1.7961090803146362,1.0978853702545166,-9.74190616607666,-0.3089080979860147,-0.3087944090939744,-10.671876599856976,1.1046264338725709,5.917840024648755,-0.3841809601214756
1730865964.3834748,-1.8024729490280151,1.096219539642334,-9.761283874511719,-0.2955752596242074,-0.3065928985065025,-10.673278396851494,1.1004978246559343,5.93316110227232,-0.6551235540881979
1730865964.4334664,-1.8024729490280151,1.096219539642334,-9.761283874511719,-0.2832856054629501,-0.3054594423720286,-10.671343855571209,1.1064547184671152,5.926066187703846,-0.9527901508085884
1730865964.4334664,-1.8615046739578247,1.0873790979385376,-9.789366722106934,-0.27283014304771336,-0.30521302472644796,-10.666098147366547,1.1064365766666633,5.926099720989773,-0.9545448699912574
1730865964.4834557,-1.8906596899032593,1.113863468170166,-9.796687126159668,-0.2648472506868869,-0.3056410955215081,-10.657860586195014,1.1028725942850897,5.93168463651388,-1.2803950500792214
1730865964.533443,-1.8906596899032593,1.113863468170166,-9.796687126159668,-0.2598449700618093,-0.3065338839036415,-10.647196687568428,1.0986806615349958,5.936472761852167,-1.6305493244901836
1730865964.533443,-1.8843986988067627,1.1354656219482422,-9.818350791931152,-0.25819744873818984,-0.30772196058530954,-10.634844427552322,1.0986552915291155,5.9364975218056895,-1.632591186875279
1730865964.5834439,-1.8520234823226929,1.1645499467849731,-9.829914093017578,-0.2600947965653331,-0.3091053085067365,-10.621633512717766,1.0937881977058577,5.940539451698951,-2.01134079450234
1730865964.6334517,-1.8085271120071411,1.176212191581726,-9.861815452575684,-0.26547739901991546,-0.3106730890343906,-10.608421299220062,1.1062209061094115,5.9222083073254295,0.30833444628366635
1730865964.6834452,-1.7181299924850464,1.1627516746520996,-9.876137733459473,-0.27397725871653855,-0.31250321013686166,-10.596047072008012,1.1027407796254003,5.920900322404253,0.13297928472850334
1730865964.7333987,-1.6924563646316528,1.1392431259155273,-9.905946731567383,-0.2848803657428549,-0.3147197282432598,-10.585294772156251,1.108331881046581,5.907127316451784,0.5315573729829994
1730865964.7834475,-1.6710063219070435,1.1597439050674438,-9.915834426879883,-0.29715160292118825,-0.3174247866943702,-10.576857797952911,1.1051454889954428,5.902350201661718,0.39137969284000246
1730865964.8333828,-1.6623401641845703,1.1732234954833984,-9.910504341125488,-0.3095518381684299,-0.32066037959918736,-10.571300187968784,1.1010836277568394,5.896608359573195,0.2197923115098426
1730865964.8834436,-1.664509892463684,1.188157320022583,-9.918722152709961,-0.3208093435346955,-0.3244229097556523,-10.569011234878793,1.096444012227729,5.890347526132704,0.030435135746112986
1730865964.933397,-1.664509892463684,1.188157320022583,-9.918722152709961,-0.3297836641625305,-0.3286950484521044,-10.570168525909525,1.1069291371253331,5.8872852947442444,0.5149554290121687
1730865964.933397,-1.6572636365890503,1.1673773527145386,-9.908549308776855,-0.3355866832635136,-0.333454077537355,-10.57472671538799,1.1069069217984973,5.887247311911176,0.5141089511495417
1730865964.9834638,-1.6591688394546509,1.130024790763855,-9.90406608581543,-0.33764678248329216,-0.3386443344298855,-10.58242676317846,1.102888394913134,5.8806759333986935,0.36385257241570323
1730865965.0333724,-1.6591688394546509,1.130024790763855,-9.90406608581543,-0.3357226256975002,-0.3441319934628317,-10.592819549436332,1.109023374765393,5.872372041651483,0.6098205795528528
1730865965.0333724,-1.6374982595443726,1.1253414154052734,-9.897210121154785,-0.32988089161713,-0.3496858619733378,-10.605308184777646,1.1090043667927738,5.872327411599186,0.6091334847229153
1730865965.0834715,-1.6542800664901733,1.1127800941467285,-9.890379905700684,-0.32044586030194433,-0.35500500133550816,-10.61920237374154,1.11138775587826,5.8609782435746265,0.6947830397629238
1730865965.1333466,-1.6624219417572021,1.1077226400375366,-9.87459659576416,-0.30794152798884217,-0.3597647741781853,-10.633769432833638,1.1083391997684024,5.85171933843563,0.5835832613594156
1730865965.183495,-1.6803877353668213,1.1172305345535278,-9.872438430786133,-0.29304811510102075,-0.363656844319623,-10.648276459267151,1.1045263140947774,5.841509714959058,0.44529768542123443
1730865965.2333581,-1.6803877353668213,1.1172305345535278,-9.872438430786133,-0.27656363631357295,-0.3664278841826075,-10.662030918861516,1.1100413753828273,5.841437601021534,0.638520121728697
1730865965.2333581,-1.6642932891845703,1.1443051099777222,-9.851571083068848,-0.2593469841889494,-0.36791841185969826,-10.674421930411789,1.1100246587082048,5.841389292605711,0.6378939312510555
1730865965.2835011,-1.676072597503662,1.1518168449401855,-9.866317749023438,-0.24224041197137813,-0.368094170640945,-10.684951893272633,1.1066339009246164,5.832004902035655,0.5088746928362171
1730865965.3333554,-1.688549518585205,1.173169493675232,-9.839729309082031,-0.2260013127485359,-0.3670622951248117,-10.693255010321012,1.1115196512509995,5.826502975583636,0.6671730004260052
1730865965.3832452,-1.7406500577926636,1.1670211553573608,-9.839791297912598,-0.21127757917410506,-0.36506237180415724,-10.699103206294676,1.1086828995123843,5.8163089758374245,0.5447181710743354
1730865965.4331973,-1.7592371702194214,1.1434805393218994,-9.807424545288086,-0.19862665895733378,-0.36242389936904157,-10.702393966022512,1.1126545408387347,5.811120629244493,0.6697399750870399
1730865965.4832108,-1.7919294834136963,1.1425443887710571,-9.786770820617676,-0.1885430151557197,-0.35949521971404297,-10.703121418451833,1.1101340372912383,5.800180931889683,0.544452884941645
1730865965.5332005,-1.8289555311203003,1.1339582204818726,-9.734051704406738,-0.18146477485607476,-0.3565756243532886,-10.701335646604225,1.1071761608818178,5.788449812250151,0.3936806203044096
1730865965.5832748,-1.8289555311203003,1.1339582204818726,-9.734051704406738,-0.17776068598265962,-0.35388147091548305,-10.697100877110831,1.1127710981755417,5.790846338268534,0.6145154256787786
1730865965.5832748,-1.906752586364746,1.1017496585845947,-9.722082138061523,-0.17771067548356256,-0.3515385303773887,-10.6904799900209,1.112758601223844,5.790787304713806,0.6138174292561548
1730865965.6332035,-1.9440362453460693,1.0649313926696777,-9.711519241333008,-0.18150426259781027,-0.34957117449955133,-10.681557066722036,1.1103231727954836,5.779908634306144,0.47711854889988914
1730865965.6832056,-1.954621434211731,1.0486096143722534,-9.747272491455078,-0.18925950433412064,-0.34788142601236266,-10.670476999057588,1.1134610076300608,5.77574726196173,0.6483052205652576
1730865965.733109,-1.9300211668014526,1.0519165992736816,-9.785317420959473,-0.20101051644320628,-0.3462488115800429,-10.657493684476542,1.1109823483256598,5.763876027026588,0.5169441062248258
1730865965.7832572,-1.8917458057403564,1.0662336349487305,-9.863221168518066,-0.21663395550142064,-0.3443798354467908,-10.643032695910652,1.108075529579429,5.751563639429895,0.3638988969038174
1730865965.8331983,-1.8917458057403564,1.0662336349487305,-9.863221168518066,-0.23576196200615213,-0.3419899584847836,-10.62774088366093,1.1045689383716564,5.738229705815124,0.18242975173466094
1730865965.8331983,-1.8261340856552124,1.0515388250350952,-9.917787551879883,-0.2577429712429634,-0.3388697972155714,-10.612473845608873,1.1045470745310955,5.738150558690186,0.1813096385330353
1730865965.8832433,-1.7325536012649536,1.0188775062561035,-9.973783493041992,-0.2816440395391373,-0.33490031147345445,-10.598224061873594,1.1117915874341173,5.755054864196899,0.574008638727084
1730865965.9331484,-1.6438817977905273,1.0134690999984741,-9.997303009033203,-0.3062490944213576,-0.3300236510175827,-10.586040827509208,1.1086725658509606,5.744979133400066,0.4331123964545105
1730865965.9832146,-1.6068297624588013,1.0392526388168335,-10.010113716125488,-0.33007263010063465,-0.32421650298936283,-10.57694917388079,1.111973863261244,5.741461300680413,0.62533286603537
1730865966.0331244,-1.5930547714233398,1.1113393306732178,-9.983500480651855,-0.3514580786266937,-0.31751603597870326,-10.571839525146018,1.1085229892441308,5.730384028960844,0.4943319116941347
1730865966.0831685,-1.6152253150939941,1.2080261707305908,-9.939994812011719,-0.36877449074585256,-0.3101085183976492,-10.571333001942145,1.1111569013614206,5.728711571989422,0.6390110097665008
1730865966.1329873,-1.6628810167312622,1.2549554109573364,-9.904179573059082,-0.38065659287543685,-0.30243273317248925,-10.57565700513969,1.1072560689011053,5.717793385026502,0.510163738638823
1730865966.183079,-1.7237470149993896,1.2498868703842163,-9.840123176574707,-0.38622388973069766,-0.2952079242964284,-10.584570398969,1.1023613162339687,5.706033399647407,0.35371122261483806
1730865966.232996,-1.7540323734283447,1.1959750652313232,-9.810408592224121,-0.38522608769437905,-0.2893212242420577,-10.597359215261406,1.1083280944117002,5.707924509789841,0.5921028158197426
1730865966.282932,-1.7761001586914062,1.1373709440231323,-9.77637004852295,-0.378071321480944,-0.2856037568324897,-10.612903725100201,1.1095399454083532,5.697940778035686,0.6676022394367468
1730865966.3329697,-1.7739691734313965,1.080772876739502,-9.734260559082031,-0.3657290993163914,-0.28459823025453446,-10.629803667844016,1.1051899218190353,5.686284739602031,0.5432687161513642
1730865966.3838212,-1.7863746881484985,1.0190056562423706,-9.72805404663086,-0.34955055103939364,-0.2864095142815506,-10.646529691540087,1.1073313609370738,5.678511983113289,0.6437892634128797
1730865966.4338863,-1.7863746881484985,1.0190056562423706,-9.72805404663086,-0.33106956486527733,-0.290673722004091,-10.661580447570527,1.1027030528516384,5.665921910142582,0.5136501174877176
1730865966.4338863,-1.763444423675537,0.9958710074424744,-9.702902793884277,-0.3118246198169209,-0.29664223650405463,-10.673634401885494,1.1025617022860963,5.665559372283475,0.5096262229918683
1730865966.4838243,-1.7485802173614502,0.980993390083313,-9.72205638885498,-0.29320611819781267,-0.30333847195105595,-10.681666473611594,1.0973106416455753,5.652637062466319,0.3573300973622945
1730865966.5338418,-1.7739217281341553,0.9647471904754639,-9.749009132385254,-0.27634224642238525,-0.3097174659442519,-10.685021609150347,1.105039083006775,5.658746108910097,0.5988831680908626
1730865966.5839176,-1.776928424835205,1.0090956687927246,-9.792386054992676,-0.2620552249476572,-0.31479933328119886,-10.683468656894963,1.1006808349567314,5.647543529833841,0.46185508550215604
1730865966.6337254,-1.7719019651412964,1.0469619035720825,-9.85647201538086,-0.2508780685085091,-0.31779901616583295,-10.677237281386033,1.1055670614579556,5.642832572308927,0.6246521439638504
1730865966.6840096,-1.742720127105713,1.0767850875854492,-9.918389320373535,-0.24307756444370426,-0.3182492110817282,-10.667023269630587,1.1016297635478016,5.630823174772115,0.49119549487443803
1730865966.733826,-1.7308605909347534,1.0838773250579834,-9.983128547668457,-0.23865745207350839,-0.31606478466295945,-10.653952084523663,1.1058049446724858,5.628703786590305,0.6310198877180974
1730865966.7839155,-1.7244657278060913,1.1198302507400513,-10.016728401184082,-0.2373662436186496,-0.311520561630672,-10.639490353086408,1.1021962453937089,5.616970099778502,0.4990963677470142
1730865966.8337839,-1.7244657278060913,1.1198302507400513,-10.016728401184082,-0.23873918560924956,-0.30517329757272604,-10.625296646028287,1.1067063269163657,5.612884724722903,0.6311801201826103
1730865966.8337839,-1.6922295093536377,1.1217204332351685,-10.01152515411377,-0.2421664604433599,-0.2977609775317095,-10.61301994658373,1.1066889874301105,5.612819528873643,0.6304876671207893
1730865966.8839517,-1.6949405670166016,1.091368556022644,-10.003122329711914,-0.2469564423913625,-0.2900840048561727,-10.604089167376248,1.1034131564040002,5.60130557994908,0.4987324156819142
1730865966.9338105,-1.6541407108306885,1.079060673713684,-9.937772750854492,-0.25238327545301986,-0.2828782661039719,-10.599542348431923,1.108254859362227,5.597946902594956,0.6456927649302711
1730865966.9837117,-1.6971153020858765,1.0559735298156738,-9.882655143737793,-0.2577330503001264,-0.27671017001805986,-10.59990337831491,1.1052898262807804,5.586710940885608,0.5186108035704269
1730865967.0336804,-1.7184339761734009,1.0200108289718628,-9.829143524169922,-0.2623718504063529,-0.2719149045014794,-10.605108147339507,1.1101013196305827,5.579514063526842,0.6477548493610172
1730865967.0837424,-1.7796587944030762,0.9819168448448181,-9.78043270111084,-0.26584188473886805,-0.2685703682630514,-10.61450880453545,1.1074115393898785,5.566967312263269,0.5202198923452467
1730865967.1336548,-1.7767276763916016,0.9837790727615356,-9.749464988708496,-0.267945816478581,-0.26650111424294176,-10.626966946115122,1.1040798736998516,5.553862454175954,0.36731904303209284
1730865967.1838517,-1.7815088033676147,1.03798508644104,-9.75819206237793,-0.2687618910600955,-0.2653394133038133,-10.641017462795205,1.1103130349556656,5.558895124392453,0.5954077014087393
1730865967.2337184,-1.7815088033676147,1.03798508644104,-9.75819206237793,-0.2685783111245513,-0.2646535284128815,-10.655079633931525,1.1072725457564676,5.547592241406694,0.45673326739488607
1730865967.2337184,-1.7619465589523315,1.1153185367584229,-9.77953052520752,-0.2677900024682599,-0.2640895334065551,-10.66767506553817,1.1072518493894956,5.5475209277287565,0.4558015414872934
1730865967.283684,-1.7306779623031616,1.2181533575057983,-9.794438362121582,-0.2667956177101758,-0.263487359614314,-10.677604218275095,1.1035424846317807,5.535559359970359,0.2904773571774342
1730865967.3336196,-1.73723566532135,1.2622041702270508,-9.825244903564453,-0.26591006167005093,-0.26297681161926534,-10.68405945908506,1.099183469712031,5.522977295806547,0.09914511356317286
1730865967.3837023,-1.7728885412216187,1.2536513805389404,-9.841352462768555,-0.26532620239725296,-0.2630047145904093,-10.686675206459599,1.1106850278676241,5.541515103372559,0.5463613835597839
1730865967.4336104,-1.7957485914230347,1.2329119443893433,-9.852080345153809,-0.26515009731874584,-0.2642261342154726,-10.685517620508392,1.107413915650124,5.531851927569944,0.39939911267640116
1730865967.4835632,-1.8130037784576416,1.187165379524231,-9.869086265563965,-0.2654708213639854,-0.2672979540561931,-10.681020379254988,1.1133936791629142,5.528708429652686,0.6090828929937735
1730865967.5335834,-1.8403993844985962,1.1168467998504639,-9.861696243286133,-0.26640681249624676,-0.27266991694507414,-10.67388560768893,1.1104416730146072,5.5184674457960465,0.4727955063511874
1730865967.5836523,-1.8365612030029297,1.1099493503570557,-9.855596542358398,-0.268113703384672,-0.28043755087918193,-10.664967920367214,1.1158154669698703,5.509639186006779,0.6265727628085597
1730865967.6335382,-1.8015090227127075,1.1125519275665283,-9.858222961425781,-0.2707553404289903,-0.2903053616916538,-10.655156334569842,1.1188284269634496,5.496884424865634,0.6817723868116
1730865967.683565,-1.7416749000549316,1.0947171449661255,-9.853496551513672,-0.27443001213563917,-0.301669420262206,-10.645277576823688,1.1166686161291082,5.484290959912855,0.5614381186533487
1730865967.7336876,-1.707353949546814,1.0896289348602295,-9.870576858520508,-0.2790723726769315,-0.3137512116583545,-10.636037014700927,1.1137821842659843,5.470771023278405,0.41273411530949433
1730865967.7836096,-1.6856294870376587,1.0882185697555542,-9.87708854675293,-0.2843916206992535,-0.32571576548542536,-10.627995982075088,1.1102154525339454,5.456577077077714,0.23873623638304992
1730865967.833548,-1.6856732368469238,1.1131680011749268,-9.89499282836914,-0.2898916525845623,-0.33677093518259044,-10.62157532526511,1.1181195179380121,5.4655403458348735,0.5531761987746645
1730865967.8835711,-1.6620116233825684,1.1451038122177124,-9.884458541870117,-0.29495849698834675,-0.34626420726478324,-10.617067066447607,1.1149823797318055,5.453366738736367,0.40551333175305504
1730865967.9334772,-1.6606212854385376,1.1801331043243408,-9.870457649230957,-0.29896195080522264,-0.3537716930420071,-10.614633992431362,1.120820641245614,5.44795979606162,0.5958100615979417
1730865967.9834714,-1.653437852859497,1.1797866821289062,-9.851520538330078,-0.3013371487030409,-0.3591511365022133,-10.614291567958857,1.1178955610523436,5.434634177382356,0.4560070743126834
1730865968.0334425,-1.6758476495742798,1.1824043989181519,-9.821070671081543,-0.3016485912654767,-0.3625293403446562,-10.615886804846207,1.1142637585543453,5.420598599588832,0.2918304943864215
1730865968.0835173,-1.7237505912780762,1.1566532850265503,-9.81063461303711,-0.2996520060337946,-0.36422547253166726,-10.619092662355417,1.1098497827053901,5.4055316667323865,0.09971087097438133
1730865968.1334534,-1.7996176481246948,1.1426687240600586,-9.782665252685547,-0.295364443777218,-0.3646432574628408,-10.623428182390962,1.1204177126777786,5.423561817791983,0.5137544167344626
1730865968.1835039,-1.8628112077713013,1.1092867851257324,-9.77823543548584,-0.28913202471756916,-0.36416784213078224,-10.628303400516959,1.1168074596543687,5.411549330712529,0.35853238844737007
1730865968.2334023,-1.8774480819702148,1.0935637950897217,-9.79169750213623,-0.2816500969876786,-0.363089879135691,-10.633084356748972,1.1238814020686114,5.408091852649111,0.5782455657334614
1730865968.2834685,-1.8534674644470215,1.108945369720459,-9.822172164916992,-0.27388239912677076,-0.36157345458006157,-10.637180049686231,1.127201690877417,5.3943076914954355,0.652331771610623
1730865968.3333826,-1.7973651885986328,1.1064001321792603,-9.855999946594238,-0.26687356036594545,-0.35967821477538814,-10.6401421238598,1.1247898813573662,5.379747426249446,0.5262640610016266
1730865968.3833833,-1.749116063117981,1.0848197937011719,-9.900351524353027,-0.26151665287779524,-0.35740954446247303,-10.641749300958118,1.1217348881185734,5.3643712954752845,0.3744376919197514
1730865968.4334073,-1.6887575387954712,1.0780417919158936,-9.944061279296875,-0.25836130833479215,-0.35474877721978154,-10.642054561269074,1.1179706646363556,5.347839798423239,0.19313467481031166
1730865968.4834383,-1.660573959350586,1.0784896612167358,-9.943114280700684,-0.2575172514535575,-0.3516590923329792,-10.641382070785173,1.1264643710608582,5.362553420105276,0.5323830747323636
1730865968.5333052,-1.6808581352233887,1.0688133239746094,-9.9386625289917,-0.25867257624634044,-0.34809548337658014,-10.640258913156991,1.1298701334245174,5.3546746422732,0.6334559629470773
1730865968.5834394,-1.6925055980682373,1.0484857559204102,-9.91047477722168,-0.2612207466574955,-0.3440189886772541,-10.639288945370964,1.1273261010394438,5.341324321356709,0.5031884903487701
1730865968.6333168,-1.7340891361236572,1.0040960311889648,-9.874168395996094,-0.26444738230417203,-0.33939167470509896,-10.639009068812154,1.1314813719997638,5.33841582010651,0.6217049974207806
1730865968.6832635,-1.7513102293014526,0.9668171405792236,-9.831408500671387,-0.2677050900596548,-0.33414505529188554,-10.63976696466759,1.1289928739607824,5.325655170760653,0.4898567416732372
1730865968.7332773,-1.7555934190750122,0.9132131338119507,-9.825553894042969,-0.27052666284573884,-0.3281400932829889,-10.641648330039025,1.1258124139610282,5.311972025437852,0.3304039327893323
1730865968.783267,-1.7511773109436035,0.8991687297821045,-9.808719635009766,-0.27265693304273286,-0.321146416747229,-10.644476495072283,1.1316824905401348,5.315046237355564,0.5660915489191096
1730865968.833155,-1.7669599056243896,0.9138646125793457,-9.811017036437988,-0.27402193534089897,-0.3128682332266269,-10.647877665623913,1.1287047608269698,5.302340553416702,0.42181183478431983
1730865968.8833268,-1.7647291421890259,0.9623916149139404,-9.817171096801758,-0.2746807062113751,-0.30303304700386396,-10.651376569568347,1.1250618346728531,5.288947133635202,0.2518914774053076
1730865968.9331322,-1.7647291421890259,0.9623916149139404,-9.817171096801758,-0.2747826164981003,-0.29151357542715284,-10.654492317572673,1.1325190967713938,5.295945610897514,0.5441288286990731
1730865968.9331322,-1.774051547050476,0.9942019581794739,-9.836055755615234,-0.2745271760351128,-0.27841237299929755,-10.656816888523933,1.1325020962430092,5.295877014558511,0.5433213575645424
1730865968.9830694,-1.7563841342926025,1.0308074951171875,-9.850176811218262,-0.2741270972432301,-0.26407708422504783,-10.658070450764288,1.1293524974614892,5.2842111985217635,0.39665082348856545
1730865969.0331802,-1.7418923377990723,1.052126407623291,-9.863423347473145,-0.27377225384232623,-0.2490748467983761,-10.658135045349763,1.1254670332398742,5.2717278241531496,0.2209952699090118
1730865969.0830772,-1.7634446620941162,1.1164103746414185,-9.859697341918945,-0.2735965133325869,-0.23415077398470346,-10.657059633452723,1.1209687208039052,5.258852228057014,0.02187540256860996
1730865969.1331055,-1.7613576650619507,1.1499154567718506,-9.857751846313477,-0.2736709617969818,-0.22017905832770676,-10.65502955729569,1.1333513436836689,5.273803267920895,0.5188173967273728
1730865969.1830616,-1.7668864727020264,1.152148723602295,-9.854114532470703,-0.2740257876392671,-0.20810231939578555,-10.65231193460713,1.1374741965391955,5.262573761422683,0.6393196808105449
1730865969.2330203,-1.7597706317901611,1.146106243133545,-9.849930763244629,-0.274669801215923,-0.19883385252050473,-10.649199691155022,1.1348509597179746,5.250915574052301,0.5117406959219476
1730865969.2830868,-1.7832831144332886,1.1196283102035522,-9.831854820251465,-0.27559713784299267,-0.19312532779769243,-10.645966053741912,1.1390092489837778,5.244381416050405,0.6348600407098175
1730865969.3329446,-1.7911642789840698,1.0579688549041748,-9.824539184570312,-0.27679854058552505,-0.19143650914710625,-10.642827731773624,1.136411714275174,5.232801964296757,0.5056630652353203
1730865969.3830001,-1.793712854385376,1.0126854181289673,-9.833224296569824,-0.2782794987804502,-0.19383212586707863,-10.639922785296228,1.1410580330877866,5.225417140437309,0.6281193282815953
1730865969.432937,-1.7517714500427246,1.0202561616897583,-9.849518775939941,-0.2800585136423852,-0.1999387917952811,-10.637319075623504,1.138539483963462,5.213842571279516,0.49731334832166263
1730865969.4829564,-1.7155946493148804,1.0792349576950073,-9.881749153137207,-0.28212350991752444,-0.20901590195983966,-10.635054596513381,1.1433190378546176,5.204543492479863,0.6226711884742071
1730865969.532836,-1.6973638534545898,1.1483683586120605,-9.885079383850098,-0.28436857580477004,-0.22014906534768094,-10.633186944509529,1.1408640499585745,5.1922387266153525,0.49047623574753635
1730865969.5827827,-1.6990910768508911,1.1914793252944946,-9.90003490447998,-0.28656632711984487,-0.23248614680566188,-10.63182045940532,1.1376779157720387,5.179290753497416,0.330799457896107
1730865969.6338701,-1.7048535346984863,1.1952179670333862,-9.894710540771484,-0.2884046356881761,-0.24540098177966027,-10.63109729689375,1.1336829458088538,5.165464629705586,0.1403761439446401
1730865969.6838133,-1.7279154062271118,1.140415906906128,-9.889106750488281,-0.2895653184367455,-0.25851587194173625,-10.6311634656706,1.1290765806822494,5.151398736182678,-0.07130847501345192
1730865969.7338028,-1.727390170097351,1.0967813730239868,-9.850716590881348,-0.2898044592696344,-0.27159557088653463,-10.632121418763994,1.1424338394980704,5.175354804766764,-0.31132998265577594
1730865969.7837937,-1.7448590993881226,1.0502889156341553,-9.854978561401367,-0.2890038101957515,-0.2843953961901883,-10.633979317121458,1.138907280703587,5.16496226767809,-0.5762072295887389
1730865969.8337355,-1.7205950021743774,1.0371060371398926,-9.837763786315918,-0.2871799505825134,-0.2965587733917528,-10.636623152039988,1.1468806295444731,5.162397703807626,-0.8683790395322751
1730865969.8838043,-1.7044275999069214,1.004769206047058,-9.838481903076172,-0.28445138900998784,-0.30760362563298366,-10.639829228149354,1.1439798501264953,5.15098424435979,-1.188162924894983
1730865969.9337204,-1.6762114763259888,1.0011883974075317,-9.852025985717773,-0.28097613131804267,-0.3169733794578661,-10.643305773046153,1.140384241073674,5.138834156012441,-1.5333088602289346
1730865969.9836867,-1.6579885482788086,0.9812003374099731,-9.872231483459473,-0.2768881170078733,-0.32411200029343123,-10.646751490128848,1.13607174629264,5.1258223151705575,-1.9067966550048496
1730865970.0337353,-1.6788157224655151,1.0039273500442505,-9.869159698486328,-0.2722648832769655,-0.3285414993814082,-10.64991739313411,1.1476816607795401,5.138860665183685,0.258547420865336
1730865970.0836577,-1.7302862405776978,0.9892690777778625,-9.866273880004883,-0.267152457175042,-0.32993346195679596,-10.652641994377419,1.144388544386569,5.128041437668405,0.06748980597514231
1730865970.1336935,-1.7302862405776978,0.9892690777778625,-9.866273880004883,-0.26163882822407647,-0.3281568318655413,-10.654846890045608,1.1519803400550452,5.125156632157045,0.49235838787380576
1730865970.1336935,-1.7561147212982178,1.0005706548690796,-9.84821891784668,-0.2559141159689182,-0.32328773537063393,-10.656511001688493,1.1519605639604942,5.125061200659303,0.49115231357248806
1730865970.1836424,-1.7367112636566162,1.0267400741577148,-9.844929695129395,-0.25026884522951365,-0.3155993597964517,-10.657640622134522,1.1547245756432767,5.111596583152892,0.6200391638368256
1730865970.2335315,-1.7292639017105103,1.0034098625183105,-9.847564697265625,-0.24503976693078958,-0.3055466378742837,-10.658245871145619,1.1525059882658648,5.097774818728273,0.49264908205144675
1730865970.283596,-1.7082710266113281,1.0320013761520386,-9.856908798217773,-0.24053414427960823,-0.2937282987798636,-10.658337273307009,1.1496886635162165,5.083245308944202,0.3390593538720022
1730865970.3336132,-1.7297741174697876,1.0265306234359741,-9.872505187988281,-0.23696822018675245,-0.28082761340689394,-10.657943406429094,1.1462498792505493,5.067885822465936,0.1575207863895626
1730865970.3835676,-1.73284912109375,1.026072382926941,-9.879054069519043,-0.23445154918909256,-0.2675544409708065,-10.657134141359409,1.1534678592668346,5.086414388226027,0.5247207840615024
1730865970.4335475,-1.7507237195968628,1.0402652025222778,-9.899032592773438,-0.23301362901976252,-0.25459190089373795,-10.656034455828808,1.1505532980757733,5.074840423652675,0.3760161964069958
1730865970.4835615,-1.7441734075546265,1.067531943321228,-9.886956214904785,-0.23263879858729009,-0.2425565262228975,-10.654821514108278,1.1470881321115998,5.062763203439715,0.20226621345324497
1730865970.5335526,-1.7646288871765137,1.0706843137741089,-9.89332103729248,-0.23328614947794452,-0.231985252303458,-10.653701764322399,1.1555686376484005,5.075950959741238,0.5264995934843247
1730865970.583584,-1.8092890977859497,1.0768513679504395,-9.85693645477295,-0.23490621541450674,-0.22332994155452435,-10.652869732316484,1.1528575494039048,5.06635416365383,0.3795704536292528
1730865970.6335008,-1.8451093435287476,1.0780317783355713,-9.835271835327148,-0.23747762177531295,-0.21693758879890176,-10.652455311657267,1.149555675102042,5.05619371854348,0.20595050760259434
1730865970.6835158,-1.8778879642486572,1.068177342414856,-9.794242858886719,-0.24105242256889658,-0.21302319965804253,-10.652471091858203,1.1583550905953084,5.060726198786251,0.5220133756871069
1730865970.7335863,-1.8792659044265747,1.0619271993637085,-9.761591911315918,-0.24577034707382295,-0.2116476850512214,-10.652776987271535,1.155790358800553,5.051067427984566,0.3734235918575373
1730865970.7835293,-1.8781741857528687,1.0342954397201538,-9.767451286315918,-0.25182112494929465,-0.2127039672946363,-10.653080801533093,1.162016911495286,5.046497324152554,0.5649703220849671
1730865970.8334446,-1.8452465534210205,1.0448501110076904,-9.792409896850586,-0.25936720375126765,-0.21591649012290756,-10.65299396125614,1.1652224163601577,5.0383054653525345,0.6317527960570664
1730865970.8834481,-1.7909832000732422,1.0523160696029663,-9.833215713500977,-0.2684496794963743,-0.2208696272737193,-10.652141752258249,1.1634650329861773,5.027146020374853,0.5060972431440623
1730865970.9334626,-1.7380390167236328,1.0403714179992676,-9.891928672790527,-0.2788973198588603,-0.22706730269987355,-10.65029116549627,1.1610347372986787,5.015489443292371,0.3545664695242185
1730865970.9834626,-1.6841381788253784,1.027842402458191,-9.939653396606445,-0.29026620882687476,-0.233990646244634,-10.647452655485312,1.1578856059286815,5.003220248398096,0.17594851684807697
1730865971.0333781,-1.598343849182129,1.0370818376541138,-9.97574520111084,-0.30183021899972773,-0.2411309042709055,-10.64392500963562,1.1652185754432944,5.015543393945075,0.5065354826357553
1730865971.083417,-1.5712602138519287,1.0332560539245605,-9.993497848510742,-0.3126178400571039,-0.24801614611637215,-10.640266103360592,1.1622887741420573,5.005715677114375,0.35588288605978263
1730865971.133399,-1.550557255744934,1.039259433746338,-9.944525718688965,-0.32150038004675907,-0.2542442108888603,-10.637188248870293,1.1682035783523188,5.004390658696606,0.5544731099927501
1730865971.1834455,-1.5575945377349854,1.0153611898422241,-9.915091514587402,-0.327340622380805,-0.2595054720218303,-10.635392408392411,1.165437279529431,4.9941759637927206,0.4140280800370954
1730865971.233443,-1.6128383874893188,0.9890211224555969,-9.859123229980469,-0.3291767568114575,-0.2635769274345249,-10.635388366886733,1.1618649956666143,4.983345226338667,0.24763520744999623
1730865971.283348,-1.700724482536316,0.9786924719810486,-9.800239562988281,-0.3264102873595609,-0.2662914507781776,-10.637362131392775,1.1574484814343462,4.971779576999957,0.05351406435819845
1730865971.3333108,-1.7688379287719727,1.0146944522857666,-9.755945205688477,-0.31896931681317153,-0.2675195229614851,-10.641116435386497,1.1677859217304822,4.987304806642373,0.4767496352770673
1730865971.3833656,-1.8208271265029907,1.02140212059021,-9.763900756835938,-0.30739012004470817,-0.2671974146739193,-10.646093654194862,1.1723410771090188,4.980935741797299,0.594270906305028
1730865971.433279,-1.8217395544052124,1.0340009927749634,-9.765320777893066,-0.2927642470050734,-0.26537704077854674,-10.651490805658161,1.1695837054736622,4.971157502454351,0.4625601482221899
1730865971.48329,-1.782911777496338,1.0537012815475464,-9.80487060546875,-0.27654934108193585,-0.2622483533455875,-10.656437245609675,1.175949029352994,4.965424338853264,0.5885028353835252
1730865971.5332751,-1.7525897026062012,1.0612386465072632,-9.85537052154541,-0.2602952195749343,-0.2581274876799533,-10.660179367983016,1.1737786617311912,4.954874704441989,0.4556333725460628
1730865971.5832372,-1.7406247854232788,1.1116029024124146,-9.87990665435791,-0.24537921033923366,-0.2534328841701943,-10.662229952076169,1.1709607384991845,4.943615389529428,0.2951863231904841
1730865971.633259,-1.770524501800537,1.115897536277771,-9.90289306640625,-0.2328444156278658,-0.24866393336615567,-10.662444882342905,1.1675549424541012,4.931768257882892,0.10864958700721743
1730865971.683197,-1.7900440692901611,1.1545110940933228,-9.899785995483398,-0.22337136156312462,-0.24437692264042638,-10.661007042839397,1.178336643486105,4.945511303690154,0.4880509782308354
1730865971.7331789,-1.8505797386169434,1.163799524307251,-9.896068572998047,-0.21734309794899528,-0.24114737456627844,-10.658337779618066,1.1823753702934767,4.940366229577726,0.598170097231185
1730865971.783353,-1.8653908967971802,1.1624170541763306,-9.862640380859375,-0.21494185528097806,-0.23951928946057066,-10.654972921220494,1.1804846246738483,4.930888298908976,0.46645298049747963
1730865971.8332534,-1.84821355342865,1.119704008102417,-9.858514785766602,-0.2162183712586363,-0.23993619024448445,-10.65143651085562,1.178058185591394,4.92083720546027,0.30838064567364626
1730865971.8832345,-1.8270213603973389,1.114829421043396,-9.805334091186523,-0.22109287660321003,-0.24265575915377896,-10.648139771567674,1.1750915622062728,4.910208527021011,0.12409812733365232
1730865971.9334147,-1.793975830078125,1.0453251600265503,-9.822367668151855,-0.22930529898910312,-0.24767861828999813,-10.64532062717399,1.1833085210926,4.920927772357446,0.4910036805191762
1730865971.9832606,-1.7209333181381226,1.0137131214141846,-9.828447341918945,-0.24036381934338583,-0.2547116548213208,-10.643038958337723,1.1808491608390725,4.912266021082962,0.33939461570283547
1730865972.0332992,-1.6012029647827148,0.9719731211662292,-9.870986938476562,-0.25350011349725415,-0.2631684870111398,-10.641237088674547,1.1867940587605068,4.909302852396083,0.5482743670261998
1730865972.0832047,-1.5673483610153198,0.9927900433540344,-9.874567985534668,-0.26763230836817664,-0.2722261997184428,-10.639833758391047,1.184604268302945,4.899734145301165,0.4074871174203275
1730865972.133241,-1.5673483610153198,0.9927900433540344,-9.874567985534668,-0.2814013692441325,-0.2809501998864309,-10.638792170890472,1.1893573300853857,4.8960961463000725,0.5693235236473124
1730865972.133241,-1.5617990493774414,1.0194441080093384,-9.915316581726074,-0.2933345617319901,-0.28845321601736085,-10.638137455570927,1.1893463307553893,4.896038216161858,0.5685929294552736
1730865972.1831715,-1.576568603515625,1.0584110021591187,-9.886327743530273,-0.30207343699154704,-0.2940377519870534,-10.637947644356116,1.1871158881245734,4.885902950659203,0.43215619231441244
1730865972.2332606,-1.631142258644104,1.0728533267974854,-9.91388988494873,-0.30657332428121,-0.2972954336460581,-10.63833315240438,1.1841118992465853,4.874965384320882,0.26830697457655583
1730865972.283102,-1.7173388004302979,1.079965353012085,-9.86382007598877,-0.30625766681306626,-0.2981452633252477,-10.639398617315301,1.1907599449064277,4.881633860185599,0.5521790896125793
1730865972.3331964,-1.7173388004302979,1.079965353012085,-9.86382007598877,-0.30112196552809184,-0.2967991180124686,-10.641192384225423,1.1879620030767344,4.872379862031228,0.4122457214348353
1730865972.3331964,-1.82231605052948,1.1077828407287598,-9.826631546020508,-0.2917443896859184,-0.2936818377741529,-10.643659976420189,1.1879440960684107,4.872325622307524,0.41138164320260645
1730865972.383157,-1.8533849716186523,1.1184059381484985,-9.800682067871094,-0.2792067764579405,-0.289353297048899,-10.646618117903195,1.1942207845662602,4.869046014056417,0.5994221302039386
1730865972.4330823,-1.8954871892929077,1.0949914455413818,-9.761144638061523,-0.2649697447626234,-0.28444243118364027,-10.649750628200877,1.191990290221156,4.859112661380733,0.4712059104379142
1730865972.4830406,-1.8989217281341553,1.0262970924377441,-9.779446601867676,-0.25070434032420313,-0.27955814517367383,-10.652627587143261,1.189139669894107,4.848574201795533,0.3177277904435599
1730865972.5331557,-1.8536771535873413,1.0082930326461792,-9.78778076171875,-0.23807661709316197,-0.2751664804120001,-10.65476759835312,1.1856405147695959,4.837215604308484,0.13563803581971828
1730865972.5831227,-1.783974289894104,1.004658818244934,-9.84261703491211,-0.2285071170682206,-0.27149753254388503,-10.655744079845606,1.195363809319716,4.849914219568901,0.5259022281042969
1730865972.6330674,-1.7528783082962036,1.0574264526367188,-9.855023384094238,-0.22295044937681557,-0.26855519743505507,-10.655298275471658,1.201199372754155,4.834384975918968,0.6278820532685342
1730865972.6830595,-1.7219197750091553,1.080628514289856,-9.910914421081543,-0.22177042109303302,-0.2662251738521211,-10.653414662201165,1.2044550303533952,4.823014340852232,0.668822623891273
1730865972.7331333,-1.704637885093689,1.1132997274398804,-9.919187545776367,-0.22475133667593764,-0.26440597750494926,-10.650339355631811,1.2036927354768177,4.809160724816533,0.5522033129666802
1730865972.7830756,-1.6880874633789062,1.1303209066390991,-9.951221466064453,-0.23120938547568134,-0.2630915045260403,-10.646545738252247,1.202372804225136,4.794796744288613,0.41037809734656566
1730865972.8330402,-1.6892642974853516,1.1353075504302979,-9.929433822631836,-0.24014773864012626,-0.26238672210988967,-10.642655875003404,1.2004541006679996,4.7796649335918495,0.24087090890685012
1730865972.8830557,-1.6928538084030151,1.1137971878051758,-9.93874454498291,-0.2504224296109976,-0.26246939625430504,-10.639331328256306,1.1979302694834117,4.763930193491054,0.045404645094861834
1730865972.9329422,-1.7044410705566406,1.0738990306854248,-9.894899368286133,-0.2608992660955636,-0.2635113639159029,-10.637157509124656,1.2046188351460312,4.794006425723761,0.4911484098573577
1730865972.9829872,-1.7288248538970947,1.0470776557922363,-9.854463577270508,-0.2705855792890647,-0.26558345244628057,-10.63653929239878,1.202246007567572,4.783024735337249,0.336870535348097
1730865973.0330038,-1.782965898513794,1.0143132209777832,-9.822835922241211,-0.2787338833157469,-0.26858429973295916,-10.637618517110617,1.1991860229983977,4.771378625873225,0.15600744152873858
1730865973.082945,-1.8363450765609741,1.0109021663665771,-9.767317771911621,-0.2849244570259927,-0.272224092429109,-10.6402335282605,1.207077551174121,4.784575856089396,0.5127372241409774
1730865973.132889,-1.8869452476501465,0.9894759058952332,-9.760782241821289,-0.28911857062599094,-0.27606410814662097,-10.643934177757426,1.2045623891989654,4.7743604358060034,0.36317300750184817
1730865973.1829495,-1.8473352193832397,1.0347927808761597,-9.739604949951172,-0.29164468973319313,-0.27959562959797213,-10.648050971854364,1.2013160121485478,4.763427921546855,0.1866726412271326
1730865973.232936,-1.816389560699463,1.0465000867843628,-9.774761199951172,-0.2930792662624936,-0.2823447072508012,-10.651812126296441,1.2087126791713085,4.774369601148052,0.5177686750083212
1730865973.2828844,-1.783855676651001,1.0769073963165283,-9.79489803314209,-0.29405076181095147,-0.2839773387845304,-10.654489414927049,1.212202948674627,4.769277620153707,0.6178739964260427
1730865973.3328242,-1.7646828889846802,1.053520679473877,-9.82564926147461,-0.29506343559348536,-0.2843585305487038,-10.655537286789881,1.2099195310424462,4.7594865225973795,0.48915614408181585
1730865973.3828576,-1.7351040840148926,1.0145779848098755,-9.854711532592773,-0.2964050444005955,-0.2835315203874885,-10.65468631277118,1.2068962158670158,4.748984056208538,0.33377435946433026
1730865973.432912,-1.7351040840148926,1.0145779848098755,-9.854711532592773,-0.2981316756201983,-0.28163329303820916,-10.651970349125532,1.2031167175883237,4.737739388486722,0.15114888687771774
1730865973.432912,-1.683071255683899,0.9749651551246643,-9.900102615356445,-0.3000985528029056,-0.27880747854995025,-10.647694189794999,1.2030921566579296,4.737670842793497,0.14999017757065064
1730865973.4828544,-1.6453770399093628,0.9578630328178406,-9.910890579223633,-0.30199949676134197,-0.27515337890358393,-10.642371634249251,1.1985843510234486,4.725799606745902,-0.05816988652068028
1730865973.532847,-1.649688720703125,0.9565423130989075,-9.945751190185547,-0.30340035483273253,-0.2707063522374116,-10.636660449253286,1.1933318022964303,4.7132670182681,-0.2924421189215881
1730865973.5828483,-1.6442580223083496,0.9954084157943726,-9.940225601196289,-0.30379775232610284,-0.26545747094398237,-10.631292593327881,1.2103314201102302,4.743581084682615,0.4422209774675319
1730865973.632834,-1.6689367294311523,1.0497392416000366,-9.937795639038086,-0.30271685161341955,-0.259426244765371,-10.626989597632345,1.2066720007388196,4.734872711333529,0.28245269448561416
1730865973.682793,-1.6859419345855713,1.0834542512893677,-9.915569305419922,-0.29981470355251244,-0.2527582620439177,-10.624366541655125,1.2147633636934734,4.738937835822878,0.5527726257046892
1730865973.7328548,-1.71327543258667,1.1262437105178833,-9.893120765686035,-0.2949575219931452,-0.24578997275717068,-10.623842629293627,1.2117090473721097,4.730651617228173,0.4111897159096996
1730865973.782775,-1.7269731760025024,1.1472166776657104,-9.872698783874512,-0.28825667126044713,-0.2390473877075632,-10.625580304840337,1.207970932982054,4.721874672538427,0.24510452742109332
1730865973.8327966,-1.735066294670105,1.1401067972183228,-9.833118438720703,-0.2800561026036494,-0.23318367606199777,-10.629463521990901,1.2158949450260759,4.723923962510281,0.5420167818916147
1730865973.8827624,-1.717958927154541,1.1496965885162354,-9.815305709838867,-0.27087281225288395,-0.22887430051306715,-10.635111275270878,1.2127046424285013,4.715389494638485,0.397891450978263
1730865973.9327734,-1.6673269271850586,1.18075430393219,-9.812365531921387,-0.26129544184874526,-0.226710687318608,-10.64192542224556,1.2187194447582979,4.712621117078178,0.5838414612711071
1730865973.9827108,-1.718985915184021,1.200554609298706,-9.816550254821777,-0.2518702640606123,-0.22714174888808658,-10.649178568675076,1.2159693549454595,4.703649390229788,0.4467562199070761
1730865974.032757,-1.777178168296814,1.1863377094268799,-9.796299934387207,-0.2430507620276613,-0.23045909750117094,-10.656122661236507,1.2208353516308084,4.700676155171271,0.5991332092735769
1730865974.0837018,-1.8267006874084473,1.1075407266616821,-9.833602905273438,-0.23524977802431588,-0.23676789703575682,-10.662083062465783,1.218286214765307,4.691382015020362,0.46219168578373054
1730865974.1328225,-1.8129234313964844,1.0744457244873047,-9.833734512329102,-0.22891231337079354,-0.2459126207081364,-10.666532961926762,1.2152524156118172,4.681810546799552,0.3036606590982331
1730865974.1827915,-1.7848941087722778,1.034195899963379,-9.854951858520508,-0.22450192173757272,-0.2574100759551381,-10.669151068558755,1.211587629724379,4.671405792732488,0.11509816663219918
1730865974.2327878,-1.7069191932678223,1.0519814491271973,-9.866008758544922,-0.22238750884480518,-0.27046735743612216,-10.669846366874896,1.221180040915297,4.680336148196759,0.5072728874984581
1730865974.2827125,-1.7330290079116821,1.0380792617797852,-9.891645431518555,-0.2227068759311941,-0.28409643593509476,-10.668748479334393,1.2183828381789874,4.671378051795075,0.35444153756589813
1730865974.333654,-1.723747968673706,1.0607243776321411,-9.90710735321045,-0.22531020287014314,-0.2972713196819925,-10.666179449594695,1.2244820343223837,4.6707026029251395,0.5643281261217796
1730865974.383695,-1.6333900690078735,1.1029419898986816,-9.92292594909668,-0.22979920033570064,-0.3090771817697314,-10.662612691642632,1.2220999726080841,4.661616033399931,0.4225922267178474
1730865974.4336932,-1.7185343503952026,1.0912126302719116,-9.885492324829102,-0.2355879854559328,-0.31883000414943063,-10.658610194806064,1.2191351439896732,4.651741198390222,0.25414649931799194
1730865974.4835937,-1.7632367610931396,1.0811116695404053,-9.884361267089844,-0.241995603278653,-0.32613377652187486,-10.65473034883529,1.2257218617443892,4.654128387961358,0.536915443676361
1730865974.533778,-1.7660847902297974,1.066494345664978,-9.817702293395996,-0.2484057784803181,-0.3308529585150334,-10.65142358232125,1.223051429737039,4.6446884029241575,0.38852840373051056
1730865974.583637,-1.76335608959198,1.0730304718017578,-9.786660194396973,-0.25439227222860944,-0.333041796354776,-10.6489421129575,1.2280947911056281,4.641886153466618,0.5760034901856127
1730865974.6336203,-1.755035638809204,1.0663394927978516,-9.755593299865723,-0.25972619801526275,-0.33288589998150847,-10.647284469096673,1.2256019850601896,4.63201743108737,0.4368607201722709
1730865974.683558,-1.7797462940216064,1.05051851272583,-9.727736473083496,-0.2643216328385315,-0.3306630852273522,-10.646197591279584,1.229651705779511,4.6284810244557395,0.5910679796111608
1730865974.7336075,-1.7905184030532837,1.0506978034973145,-9.733460426330566,-0.26819496989604563,-0.3267051678158738,-10.645238245578962,1.227105969047215,4.61811586034841,0.45435374927974265
1730865974.7834837,-1.7196898460388184,1.0897799730300903,-9.776664733886719,-0.271436496107586,-0.32136930426977983,-10.643880580191995,1.2307400320687587,4.613534553506378,0.5967028463031059
1730865974.8335426,-1.7713710069656372,1.1019127368927002,-9.835098266601562,-0.27415763754484046,-0.3150432859233736,-10.641662304965259,1.2280518072976723,4.603001604417922,0.4610658954691107
1730865974.8835092,-1.8028919696807861,1.1387075185775757,-9.852670669555664,-0.276451727069384,-0.30817119161612005,-10.638331146641082,1.2304918666529228,4.5956156982197465,0.59857167775606
1730865974.9336016,-1.8285831212997437,1.182466745376587,-9.922863006591797,-0.2784263336352799,-0.301268529394159,-10.63392990185213,1.2274443589210755,4.584275206029826,0.4637158852704001
1730865974.9834633,-1.8077365159988403,1.2220063209533691,-9.935257911682129,-0.28025289032073075,-0.2949243955825749,-10.628803259105158,1.2237153549746922,4.572245650232824,0.30301202157793655
1730865975.0335941,-1.8268399238586426,1.19771409034729,-9.958266258239746,-0.28215659206373833,-0.2897813029615942,-10.62354396941212,1.2192620701059083,4.559419818308824,0.11483413238123702
1730865975.0834959,-1.7553056478500366,1.1827597618103027,-9.942646980285645,-0.28435513833124254,-0.28646074629909907,-10.61888639802046,1.2141256204978905,4.545941632292363,-0.09885185978064513
