Timestamp,IMU_Linear_Acc_X,IMU_Linear_Acc_Y,IMU_Linear_Acc_Z,Filtered_X,Filtered_Y,Filtered_Z,Pose_X,Pose_Y,Pose_Z
1730865946.8840554,-1.6464816331863403,1.1096014976501465,-9.926274299621582,0.050541910162391,-0.10034326442920845,-7.348863160596274,0.9018183232730923,3.8119985442541,0.8987350724684006
1730865946.9339588,-1.6460669040679932,1.1705397367477417,-9.888028144836426,0.05384267974452765,-0.16308784475356322,-9.106587857194931,0.9016656168090257,3.8119978246474813,0.8979515207369695
1730865946.9839773,-1.5448205471038818,1.3515266180038452,-9.916738510131836,0.05274542903804639,-0.19811374388995243,-9.843974626269343,0.9016539832907116,3.8119976515063376,0.8979295267856755
1730865947.0338826,-1.4505513906478882,1.3764179944992065,-9.885746955871582,0.05006081322750515,-0.23417914260122824,-10.46680883747701,0.8989720803818093,3.8119252406745754,0.8977491892117754
1730865947.083904,-1.4505513906478882,1.3764179944992065,-9.885746955871582,0.04633745023232469,-0.2705860824226847,-10.968124521290072,0.8973678560322748,3.81186637891724,0.8958307916704611
1730865947.083904,-1.483825922012329,1.3574954271316528,-9.83907413482666,0.04240463177516982,-0.3069572199742284,-11.347136555375881,0.8973398246830728,3.811865017707734,0.8957838245157789
1730865947.1338828,-1.5220105648040771,1.4168083667755127,-9.791072845458984,0.039192402830363654,-0.3430833064179849,-11.608493227665063,0.8905595109993378,3.8111089362362454,0.8701709124626866
1730865947.1838188,-1.466209888458252,1.5062932968139648,-9.781386375427246,0.03751178361726893,-0.37882154323939893,-11.76130046933589,0.8839019056985407,3.8094430561209087,0.8150069362201182
1730865947.2339377,-1.6475468873977661,1.4503509998321533,-9.745635986328125,0.037910856293808436,-0.4140954535350333,-11.818045793521527,0.8773575448614687,3.80678771022838,0.7304327819220203
1730865947.2838902,-1.7597566843032837,1.3032793998718262,-9.741059303283691,0.04055383714387489,-0.44885571275233777,-11.793520840843438,0.8712209021208692,3.803037675085331,0.6219452388492598
1730865947.3337905,-1.7597566843032837,1.3032793998718262,-9.741059303283691,0.045088897206742945,-0.48290897529069,-11.703795915148216,0.8651229106575299,3.798179353330984,0.4901492688638627
1730865947.3337905,-1.6816997528076172,1.2365984916687012,-9.753911018371582,0.05066836352375455,-0.5157578700648435,-11.56529162894534,0.8650979496751495,3.7981572129514554,0.489521897317573
1730865947.3838024,-1.757475733757019,1.2633165121078491,-9.788309097290039,0.05619278872280964,-0.5466082351272092,-11.393984207907803,0.8589695205845453,3.791972518552332,0.3194083990756098
1730865947.4338114,-1.9410609006881714,1.2342725992202759,-9.715015411376953,0.060546518897865116,-0.5745092228248636,-11.204743298944965,0.8545976334358891,3.784402921488367,0.14056196096930132
1730865947.4836771,-1.7980672121047974,1.2204742431640625,-9.816902160644531,0.06265440660232141,-0.5985200001527091,-11.010789781781867,0.8489568854206961,3.775375105572963,-0.08316308404906682
1730865947.5337312,-1.6201061010360718,1.2407430410385132,-9.861479759216309,0.061566118969140736,-0.6178419600443648,-10.823326255397706,0.8434603440292844,3.7648114582105987,-0.3345749362487142
1730865947.5837328,-1.6417081356048584,1.2559638023376465,-9.932706832885742,0.05673687500331297,-0.6319173802545924,-10.651388617659748,0.8849504924596595,3.752672449931571,0.8765447163637926
1730865947.6336718,-1.4783844947814941,1.2720919847488403,-9.962823867797852,0.04827657893171288,-0.6405084754317913,-10.501844924541857,0.8842318367840871,3.738932458925581,0.8362333349262391
1730865947.6836586,-1.4783844947814941,1.2720919847488403,-9.962823867797852,0.03697157207136205,-0.643733963512783,-10.379441528145353,0.8836216657730086,3.7236288956813888,0.7699737735056944
1730865947.6836586,-1.4127205610275269,1.249739170074463,-9.95790958404541,0.024149787747430408,-0.6420391937447054,-10.286870340500188,0.8836195274188804,3.7235678175425924,0.7696733108760572
1730865947.7336457,-1.4345476627349854,1.2176520824432373,-9.960887908935547,0.0114607592562663,-0.6361040898366503,-10.224882355633468,0.8802127020272417,3.7067193659450024,0.8723935663639003
1730865947.7836764,-1.6071974039077759,1.2252144813537598,-9.856568336486816,0.0005763704060176428,-0.6267232783053256,-10.19246846057476,0.8787073449794172,3.688235400283202,0.8318556962100018
1730865947.8337014,-1.532752275466919,1.1856809854507446,-9.923158645629883,-0.0071485625198422255,-0.6147072758214733,-10.187099763137235,0.8771905899912776,3.6681587649673078,0.7657241370210125
1730865947.8835726,-1.49844229221344,1.2116985321044922,-9.878271102905273,-0.010894809390572757,-0.6008235900817902,-10.205048215500577,0.8761957993871844,3.6466478189742437,0.8705330955937467
1730865947.9345996,-1.521494746208191,1.106750726699829,-9.946966171264648,-0.010355300880961206,-0.5857565218535103,-10.241799313626773,0.8747403009102528,3.6231204665571752,0.8282937371597794
1730865947.9846032,-1.521494746208191,1.106750726699829,-9.946966171264648,-0.0056061959867349815,-0.5700538044857474,-10.292492285665947,0.8748478349175414,3.598526550273616,0.8685456952357518
1730865947.9846032,-1.521235466003418,1.066617727279663,-9.89339542388916,0.0029766216444869834,-0.5540729226894292,-10.352299997185135,0.8748415660356608,3.598370715628792,0.8683659432051872
1730865948.034629,-1.6524330377578735,0.9745575785636902,-9.893824577331543,0.014758200459192425,-0.5379637519362963,-10.416685306880787,0.8733229515542982,0.6613041067307617,0.8706570380020221
1730865948.0845356,-1.6524330377578735,0.9745575785636902,-9.893824577331543,0.028849238219689502,-0.5216731701141578,-10.481555605528103,0.8724659839022036,0.4954201980287035,0.8303018913398934
1730865948.0845356,-1.714928388595581,0.9513433575630188,-9.833707809448242,0.04410957068216811,-0.504973585621091,-10.543383405940304,0.8724611133617193,0.4944318700610025,0.8299844570502634
1730865948.1347377,-1.6118273735046387,0.9223973155021667,-9.884674072265625,0.059240514425186394,-0.487543469548584,-10.599295999856299,0.8717145258191005,0.3272840183652169,0.7632151964645116
1730865948.1846237,-1.3661701679229736,0.9260615110397339,-9.857068061828613,0.07302714872261684,-0.4690641854181337,-10.647131866020743,0.8711323029792588,0.1588110453830368,0.6698971409578056
1730865948.2345996,-1.2212275266647339,0.8862243294715881,-9.932165145874023,0.08471454249507876,-0.4492901863694715,-10.685485606830532,0.8722325185783486,0.8201316389214474,0.8691469565884735
1730865948.2835228,-1.0323896408081055,0.8774198889732361,-9.941996574401855,0.09435112694512962,-0.42808673904262556,-10.713732401891207,0.8721145840546105,0.8167310995221261,0.8281200048717019
1730865948.3344536,-1.2495695352554321,0.9381879568099976,-9.924843788146973,0.10284617627417877,-0.405451424445321,-10.731997530167622,0.8704707586577102,0.8360205694258086,0.8673760879838573
1730865948.3844686,-1.2495695352554321,0.9381879568099976,-9.924843788146973,0.11162557971934901,-0.38155512895693333,-10.741035413319945,0.8701890550149257,0.8365065004530022,0.8239856491137594
1730865948.3844686,-1.4342632293701172,1.0002256631851196,-9.9284086227417,0.12206089969083606,-0.3567918894474574,-10.74204310623594,0.8701881991199245,0.8365065346704137,0.8236402992010495
1730865948.4344435,-1.6491162776947021,1.1198151111602783,-9.88106918334961,0.13496152433049607,-0.3318085466510193,-10.736474094100934,0.8702150154350056,0.8361024684050675,0.7540498954119607
1730865948.4846096,-1.8150001764297485,1.2128596305847168,-9.911548614501953,0.15023741462068807,-0.30753695145047016,-10.725874799558932,0.870601918655365,0.8348855713332506,0.6561426928700318
1730865948.5345068,-1.8150001764297485,1.2128596305847168,-9.911548614501953,0.16678450576157985,-0.28520167361976423,-10.711760671498968,0.8677367426824628,0.8407466451907323,0.868633016359307
1730865948.5345068,-1.8747748136520386,1.2866096496582031,-9.855307579040527,0.182688525437827,-0.2662192450984012,-10.695540617657592,0.8677345169260675,0.8407503495221049,0.8684540527691367
1730865948.5845046,-1.8972151279449463,1.2438414096832275,-9.890105247497559,0.1956556670333472,-0.25200141208258786,-10.678451867170313,0.8656727248855045,0.8464043629203607,0.8694909125196345
1730865948.6345894,-1.8699368238449097,1.2726092338562012,-9.829380989074707,0.2034509320380952,-0.2437443973640125,-10.661500910886298,0.8653798227508229,0.8479659585301921,0.8280683218408706
1730865948.6844258,-1.9649289846420288,1.1705948114395142,-9.842905044555664,0.20423000017774479,-0.24224368011299457,-10.645435093414502,0.8649697802426337,0.8511329906660916,0.8679915130567719
1730865948.7343395,-1.755480170249939,1.117276906967163,-9.814167976379395,0.19676026536784416,-0.24773982005051867,-10.6307399966169,0.865147396732464,0.8526683634645601,0.8260217162816192
1730865948.7843802,-1.648979902267456,1.0715574026107788,-9.870731353759766,0.18061021492073354,-0.2598196480461104,-10.617669796074866,0.8639860303802289,0.8579834746617961,0.8678534243820542
1730865948.8343627,-1.619248390197754,1.0923936367034912,-9.766934394836426,0.1563238112618137,-0.27743686499422704,-10.606305781760287,0.8641731477166121,0.859870253377018,0.8256399470227412
1730865948.8843756,-1.5719029903411865,1.1600306034088135,-9.814069747924805,0.12541721330366368,-0.29909305586922375,-10.596591923610255,0.8652506744151272,0.8649571415586323,0.8678239571715411
1730865948.9342463,-1.4718180894851685,1.2043366432189941,-9.855443000793457,0.09014725364165471,-0.3231306019400637,-10.588358544025823,0.865995292661967,0.8671676572443929,0.8258126929391943
1730865948.9843962,-1.5622344017028809,1.2559999227523804,-9.844598770141602,0.05319370541701801,-0.3480234774929366,-10.581396808539932,0.8659198951122276,0.8694909794316771,0.8674896699809165
1730865949.0343103,-1.6065484285354614,1.3037285804748535,-9.91126537322998,0.017301468112307254,-0.37257232695644094,-10.5755517794123,0.8664975651449263,0.8712620691349192,0.8256386370753463
1730865949.084335,-1.6464300155639648,1.3352413177490234,-9.848318099975586,-0.015111727741089561,-0.3959880466595141,-10.570764053863517,0.8670905885041676,0.8721054387624882,0.7562245254108103
1730865949.1342292,-1.7890230417251587,1.2793657779693604,-9.847938537597656,-0.042274880005228194,-0.4178740877441556,-10.56704271221506,0.8646589357455277,0.8736316668632965,0.8699012567690906
1730865949.1843033,-1.9112098217010498,1.1769911050796509,-9.826825141906738,-0.06326435139269727,-0.43809322866375955,-10.56438986437964,0.8643388434673656,0.873575323972498,0.8283817265431996
1730865949.2342906,-1.7468112707138062,1.169215440750122,-9.872337341308594,-0.07806386937595769,-0.4565550007184427,-10.562745299167283,0.863842376171597,0.8724055657565207,0.7605077270454128
1730865949.2843397,-1.7610691785812378,1.1731765270233154,-9.90518856048584,-0.08737341201289518,-0.4730618516924534,-10.56200677919196,0.8638424402534423,0.8800370390576898,0.8715492016095947
1730865949.3341703,-1.772855281829834,1.1963719129562378,-9.869773864746094,-0.09224135349147963,-0.4873138391143495,-10.562090396354973,0.8632662034176081,0.8804233035456215,0.8302479810497733
1730865949.3842542,-1.7723252773284912,1.1582468748092651,-9.856871604919434,-0.09378843469980888,-0.49900909272739347,-10.562946175612144,0.8624494245415905,0.8795761150652479,0.7619267603661574
1730865949.4341888,-1.5951693058013916,1.1924304962158203,-9.84045124053955,-0.09306420014582589,-0.5079256065358285,-10.564509297663784,0.8646901254238627,0.8877862258491999,0.8735522384130473
1730865949.4842129,-1.4303251504898071,1.1096744537353516,-9.871488571166992,-0.0908598736041448,-0.5139484590899088,-10.566656604407328,0.8644848873847443,0.8883794650730255,0.8319631287021314
1730865949.5342839,-1.4494115114212036,1.127644419670105,-9.831385612487793,-0.08748183479567143,-0.5170533836423747,-10.569213403743145,0.8635241565892794,0.8967077705862856,0.8754423002028918
1730865949.5842733,-1.374488115310669,1.0864741802215576,-9.847817420959473,-0.08269406295184722,-0.5172723006617307,-10.57197847534265,0.8628150027824096,0.8987475215878211,0.8341413589150525
1730865949.634126,-1.4525998830795288,1.0719263553619385,-9.802490234375,-0.07589882082169712,-0.5146742150156218,-10.574732714344368,0.864419104160098,0.9023230325192547,0.8772497820040079
1730865949.684152,-1.5784028768539429,1.0320987701416016,-9.840079307556152,-0.0664437858519156,-0.5093579217777665,-10.57724140491855,0.8643079145021391,0.9035823643483986,0.836068531658083
1730865949.734146,-1.5448294878005981,0.9901504516601562,-9.828018188476562,-0.05394201116723401,-0.5014355109103112,-10.57927541862136,0.8661995712441355,0.9087345782431939,0.8786340787765399
1730865949.7841535,-1.495914340019226,0.9905200004577637,-9.897010803222656,-0.038447085996913065,-0.49101414888776695,-10.580660544327,0.866534771743966,0.9095246768719398,0.8368828125547718
1730865949.8341901,-1.5989469289779663,0.96947181224823,-9.889765739440918,-0.020403617624900082,-0.4782013021395892,-10.58133898478918,0.8667089029722885,0.9167751324553215,0.8806335892402053
1730865949.8841543,-1.5671354532241821,0.9694827198982239,-9.91878890991211,-0.0005276895952285778,-0.4631371865602585,-10.581406133487011,0.8674262226685084,0.9213331102236718,0.8802291949576048
1730865949.9341342,-1.4966825246810913,0.9941743016242981,-9.964380264282227,0.02028793556065782,-0.4460344998771958,-10.5811044278375,0.8678968373981636,0.923151015683087,0.8385185440489055
1730865949.984129,-1.4800490140914917,0.969645619392395,-9.981051445007324,0.041121685837020666,-0.42721154546078455,-10.580799823747462,0.868450168225153,0.9238890158870543,0.7696860216284709
1730865950.0342054,-1.459653377532959,1.016774296760559,-9.992463111877441,0.06119695755267689,-0.4071058907561652,-10.580950937982246,0.8691278365621662,0.9235759027841213,0.6748029816441362
1730865950.0840492,-1.5144121646881104,1.049118995666504,-9.973414421081543,0.07995981094775645,-0.3862734508859651,-10.582046485824002,0.8666293055055531,0.9278563684090213,0.8801322643237793
1730865950.1340241,-1.6105612516403198,1.0086636543273926,-9.94045639038086,0.09702369853841863,-0.36538044793127844,-10.584508436812921,0.8668497440498165,0.9286317088261075,0.8382428639498395
1730865950.1840804,-1.5536221265792847,1.06661057472229,-9.94149398803711,0.11204762552449046,-0.3451596005444979,-10.58859310088828,0.8661750782328111,0.9369116636384077,0.8802613040322058
1730865950.2339597,-1.603241205215454,1.065562129020691,-9.964529037475586,0.12467348550172266,-0.326342223313597,-10.594342182097844,0.8664283903255263,0.9393812647038903,0.8383975350167172
1730865950.2839465,-1.879683494567871,1.0326447486877441,-9.866992950439453,0.13451529472162044,-0.30960291480836327,-10.601595380934013,0.8670077718924634,0.9410799173881738,0.7696756513456082
1730865950.3339956,-2.0737950801849365,0.9914940595626831,-9.809025764465332,0.1410249108033591,-0.29548701739285016,-10.609993281114534,0.8682508313585383,0.9440464299565138,0.8786539399697856
1730865950.3840535,-1.8243703842163086,0.9407444000244141,-9.798154830932617,0.14332236651117458,-0.2843069132993493,-10.618946027628422,0.8691967235183491,0.9451800751515529,0.8356873185838681
1730865950.4339852,-1.6435387134552002,1.0102969408035278,-9.805895805358887,0.14038528912757997,-0.27607785238154514,-10.627659641359369,0.8701961132408114,0.9546555963521178,0.8771332509522634
1730865950.4839067,-1.5730770826339722,1.1460793018341064,-9.76155948638916,0.13160756506403548,-0.2705881455423783,-10.635256539305608,0.8715481279454731,0.9581138912147675,0.8340370215309268
1730865950.5338778,-1.402429223060608,1.2469379901885986,-9.80485725402832,0.11725206673512889,-0.26761727359455856,-10.640912722351272,0.8731957126389468,0.9608728624621491,0.7649938742330957
1730865950.5837739,-1.2801685333251953,1.27745521068573,-9.844583511352539,0.09855350201163574,-0.267161205660305,-10.643975105628641,0.875117466042698,0.9629796319862887,0.6692780737471465
1730865950.6338754,-1.3144124746322632,1.2810062170028687,-9.876189231872559,0.07757501999050839,-0.26949210148197245,-10.64407605279958,0.8772704561044256,0.9644256311018959,0.546359767882392
1730865950.6837897,-1.3720238208770752,1.2254197597503662,-9.91110610961914,0.05686279143349844,-0.27502600900112445,-10.641213255045066,0.879595759766299,0.9651880754481225,0.3964663021208019
1730865950.7338083,-1.4993278980255127,1.1518988609313965,-9.931300163269043,0.038931075166468584,-0.2840912962591428,-10.635753292488792,0.8820257004477552,0.9592597536666096,0.87575964845302
1730865950.78379,-1.6006672382354736,1.0863429307937622,-9.86929702758789,0.025744687498148882,-0.2967009610059202,-10.628353841720664,0.8845495154241113,0.9595436860218216,0.832890171891759
1730865950.8337855,-1.81550133228302,1.01986563205719,-9.81452465057373,0.018345636107284506,-0.31240947899016763,-10.61980305698305,0.875392558550403,0.9676614247956272,0.8742518276172189
1730865950.8837059,-1.9375649690628052,0.9927679896354675,-9.77560806274414,0.016656472529122987,-0.3302959263141793,-10.610815422427255,0.8765698059514618,0.9692273789048583,0.8314920927349627
1730865950.9336746,-2.0457820892333984,0.9714118242263794,-9.726194381713867,0.019473863543553953,-0.3490672570799066,-10.601875904782629,0.877790812589118,0.9699451478952926,0.762345946801424
1730865950.9836621,-2.0869340896606445,1.0083929300308228,-9.737180709838867,0.02468130019726025,-0.36724875974114946,-10.593187150684948,0.8780034549518648,0.9791692555782368,0.872690086405974
1730865951.0336392,-2.0562994480133057,1.051559329032898,-9.758321762084961,0.029648961855230936,-0.38342097606061876,-10.584718252922055,0.8790556240443171,0.9812777129171847,0.8299904338723566
1730865951.083622,-1.9736506938934326,1.1039338111877441,-9.822582244873047,0.031732208752830275,-0.39645343475448536,-10.576333219652096,0.8801958386851345,0.9909137675070904,0.8709488669155108
1730865951.133597,-1.9302725791931152,1.1401413679122925,-9.887577056884766,0.028759372585235504,-0.40567503656521076,-10.567954299235783,0.8813930192346634,0.994685573506432,0.8282630207516084
1730865951.1835477,-1.8705997467041016,1.1601102352142334,-9.892549514770508,0.019380641710665645,-0.4109374764594531,-10.559692559380792,0.8826594753126139,1.001372568397086,0.8697462857820147
1730865951.233644,-1.852792739868164,1.1702474355697632,-9.919771194458008,0.0032015112669037766,-0.4125694112480794,-10.551882166897524,0.8839560686295005,1.0055309065000846,0.8267749865100111
1730865951.2836158,-1.850260853767395,1.1229956150054932,-9.914119720458984,-0.01928212971703229,-0.411246080930213,-10.545014581906106,0.8852303256635529,1.0137971477475705,0.8706612816548546
1730865951.3335752,-1.8229795694351196,1.0839333534240723,-9.910886764526367,-0.046880497653435216,-0.4078029465391501,-10.539627705418038,0.8864208896751823,1.0177763984045742,0.8287338601318002
1730865951.3836124,-1.7985893487930298,1.0479875802993774,-9.888747215270996,-0.0779502889672089,-0.4030387776842088,-10.536193616279187,0.8874667259246213,1.0234771871118826,0.8706213129181963
1730865951.4335694,-1.7535266876220703,0.9978740811347961,-9.872357368469238,-0.11060731531382073,-0.39756798650236874,-10.535023619629317,0.8882644196163803,1.034312165450595,0.8711939112574392
1730865951.4836032,-1.7225205898284912,0.9698752164840698,-9.863229751586914,-0.1428930486728394,-0.39174769280390564,-10.53620854626674,0.8887509979536468,1.0396146082394064,0.8292060513595566
1730865951.533507,-1.668954610824585,0.9353963732719421,-9.8529052734375,-0.17290645171458896,-0.38566952927999915,-10.53960726112877,0.8888402410729405,1.0439008968732817,0.7613707693480639
1730865951.583536,-1.6359572410583496,0.9215210676193237,-9.852986335754395,-0.1989094734220441,-0.379202618918799,-10.54487920543809,0.8884651605912252,1.047256589945932,0.6667778932001236
1730865951.6334298,-1.6144894361495972,0.9229671359062195,-9.850465774536133,-0.21941456119868932,-0.3720735626543015,-10.551543889730015,0.911235956969079,1.0429860824558055,0.8708081920523045
1730865951.6834772,-1.6067534685134888,0.9610587358474731,-9.857247352600098,-0.23326718110068395,-0.3639734587524953,-10.559050774894189,0.9114958210549678,1.044696901756456,0.8284895091982817
1730865951.7344527,-1.5976148843765259,1.0084751844406128,-9.867647171020508,-0.23972151099911276,-0.3546839194697988,-10.56684857779629,0.9139887093348634,1.0575361314404763,0.8703312080647246
1730865951.7843916,-1.6114647388458252,1.0301212072372437,-9.874835968017578,-0.23849091915306747,-0.3441922124152206,-10.574446467554367,0.9143938223466767,1.0624110698460312,0.8277333482574502
1730865951.8344188,-1.5975745916366577,1.018343448638916,-9.889068603515625,-0.22975976683166022,-0.332740652130205,-10.581459553597554,0.9142137285242345,1.0664276256038454,0.758871814811737
1730865951.8845086,-1.6075562238693237,0.9683912396430969,-9.893061637878418,-0.2141500161720403,-0.32077139673547955,-10.587633447934492,0.9150064354039877,1.0685380388104866,0.8701515810562431
1730865951.934418,-1.626556634902954,0.905511736869812,-9.897462844848633,-0.19265065444643667,-0.30878275081744716,-10.592846742376597,0.914693259528159,1.07093830102879,0.8284239119570219
1730865951.9844997,-1.6508206129074097,0.8503293991088867,-9.890620231628418,-0.1665365953014115,-0.2971605639195678,-10.597091967556658,0.9178654182498788,1.085041643038402,0.8706679773060512
1730865952.034278,-1.668717384338379,0.7852784395217896,-9.882685661315918,-0.13728913668204157,-0.28605345835698087,-10.600439675040095,0.9183983049317153,1.0909374529890332,0.8289086132621152
1730865952.0843859,-1.666137456893921,0.7490000128746033,-9.847501754760742,-0.10650364111092259,-0.27532558996703893,-10.602991339109973,0.9202210534169192,1.0937669278067887,0.8706689861410248
1730865952.134316,-1.6244356632232666,0.7482098340988159,-9.854060173034668,-0.07576668042467602,-0.2645918072532628,-10.604830008027932,0.9210171600317703,1.0981846827572836,0.8285263954406256
1730865952.1843207,-1.5937052965164185,0.7874472141265869,-9.882034301757812,-0.04650327502537706,-0.2533345655400418,-10.605998237072894,0.9216692899896859,1.10200415378932,0.7592272290625264
1730865952.2342668,-1.5707736015319824,0.8576775789260864,-9.910017013549805,-0.019832687221540114,-0.24108377949005058,-10.606530693534305,0.9177584624542574,1.1040962381742296,0.8709744587616517
1730865952.2842512,-1.587791085243225,0.9232023358345032,-9.935588836669922,0.0035077478732739066,-0.22760852869368098,-10.606517792695376,0.9164786375196013,1.116456358317298,0.8710846269399535
1730865952.3342435,-1.5839658975601196,0.9715844392776489,-9.951668739318848,0.023146014157189095,-0.2130520845269867,-10.606148773384518,0.9159297785711155,1.121632740895305,0.8289917281211446
1730865952.3842833,-1.6285433769226074,0.9795622229576111,-9.949352264404297,0.03899446398188685,-0.1979550443815945,-10.605708524283859,0.9131386575961654,1.1255843147020148,0.8706776536618417
1730865952.4342704,-1.6731714010238647,0.9589577913284302,-9.931402206420898,0.05114090687387857,-0.18315316998090833,-10.60552945696322,0.9117606553309304,1.130578680356281,0.8283694562273501
1730865952.4843504,-1.7608195543289185,0.9085907340049744,-9.892904281616211,0.0597261877685614,-0.16958358485289493,-10.605911173737098,0.9105133351972913,1.1351613092598742,0.7591190756036438
1730865952.5342863,-1.8198007345199585,0.8613375425338745,-9.845653533935547,0.06482537583877798,-0.1580633025273897,-10.607028613159988,0.9112470070656248,1.1375708579090873,0.8707193780881478
1730865952.5842535,-1.8743910789489746,0.8098325729370117,-9.812735557556152,0.06637031968857905,-0.1491082868986853,-10.608856733914678,0.9106880549336901,1.1411382952933011,0.8284522784996385
1730865952.634168,-1.8814746141433716,0.8248398900032043,-9.78154468536377,0.06415086159413123,-0.14284631929210723,-10.611141897770317,0.909217411610467,1.1538262573838212,0.8707602646411735
1730865952.6841817,-1.8178749084472656,0.9012826681137085,-9.799697875976562,0.0579107310201068,-0.13906190941570856,-10.613438164115284,0.9084704343339056,1.1603069518952978,0.8284401027273814
1730865952.7341259,-1.7743693590164185,0.9895063042640686,-9.821540832519531,0.04752132696953053,-0.13737390513870507,-10.615207927668887,0.9072198452687686,1.162162219705593,0.8707029931610888
1730865952.7841399,-1.7743693590164185,0.9895063042640686,-9.821540832519531,0.033152902994485256,-0.1374547137602148,-10.615954739973109,0.9063336771821228,1.1670673048392337,0.8281804154556123
1730865952.7841399,-1.7426655292510986,1.0704177618026733,-9.879551887512207,0.015340971613388706,-0.13916044577875147,-10.615335170387702,0.9063299518218791,1.1670881799003046,0.8279335427656919
1730865952.834016,-1.7173658609390259,1.144403100013733,-9.899643898010254,-0.005058870009300356,-0.1425558978258171,-10.613230368217483,0.9078333475384559,1.1753361091293892,0.8718751518960607
1730865952.884022,-1.7238008975982666,1.201750636100769,-9.902915954589844,-0.026964131606482408,-0.14790951377690834,-10.609775875360619,0.9076687374526624,1.1808381595432893,0.8305944267881005
1730865952.9340377,-1.7238008975982666,1.201750636100769,-9.902915954589844,-0.04918218221416745,-0.15566225553132906,-10.605327647256978,0.9085075140358828,1.1839930193757793,0.8711297102369249
1730865952.9340377,-1.7645459175109863,1.1820310354232788,-9.86949348449707,-0.07055009613859699,-0.16632007046084948,-10.600366887799735,0.9085078172915199,1.184013378889726,0.8710025248854589
1730865952.9839852,-1.7645459175109863,1.1820310354232788,-9.86949348449707,-0.09007269070800178,-0.18028761796682688,-10.595384000800664,0.9092485941406467,1.1943818745270711,0.8731389149862638
1730865952.9839852,-1.83077871799469,1.1543887853622437,-9.82955265045166,-0.1070283409261899,-0.19772299624855602,-10.590780828080684,0.9092510361096501,1.1944717755458065,0.8727066134749116
1730865953.0339887,-1.83077871799469,1.1543887853622437,-9.82955265045166,-0.12103097154508827,-0.21846505381864595,-10.586810662118356,0.909256999554573,1.1998908612191377,0.8323439488313368
1730865953.0339887,-1.8594506978988647,1.0799541473388672,-9.79504680633545,-0.1320408160786619,-0.24202259484119554,-10.583556588192728,0.9092563565423961,1.1999143233339427,0.8321015905864185
1730865953.0839276,-1.8404059410095215,1.018115758895874,-9.759230613708496,-0.14031360548934174,-0.26758400224738954,-10.58093511681801,0.9089397821330746,1.2047872788342768,0.7652194640949362
1730865953.1339393,-1.7897979021072388,0.9865586757659912,-9.764646530151367,-0.14629213263354005,-0.294034470041189,-10.578712895065129,0.9082638929873873,1.2089917588242634,0.6715288889104187
1730865953.1840162,-1.698754072189331,1.0258070230484009,-9.786855697631836,-0.1504503831870682,-0.32003270796513383,-10.57655378204129,0.909565815779611,1.2065010133063299,0.8730193843867224
1730865953.2339149,-1.6195176839828491,1.096706748008728,-9.849236488342285,-0.15311586054727896,-0.34419747773159687,-10.574119080620859,0.909146486998203,1.2091375278514875,0.8318775719381042
1730865953.2839737,-1.5690386295318604,1.1863417625427246,-9.894932746887207,-0.15433481168335883,-0.3653697164285742,-10.571198544028004,0.9083349178379699,1.2109143691442907,0.763603538275689
1730865953.3338645,-1.5596836805343628,1.2637195587158203,-9.941064834594727,-0.1538484768194888,-0.38285255407954466,-10.567815756536394,0.9086928969612561,1.2202068395825247,0.871870580599247
1730865953.384044,-1.59630286693573,1.3051685094833374,-9.960204124450684,-0.15119925627592304,-0.39653937413646867,-10.564260689955736,0.9078912897338483,1.2237372366884038,0.8294576448002738
1730865953.4338489,-1.6284863948822021,1.3273265361785889,-9.94701862335205,-0.14592426997101668,-0.40689095135897246,-10.561035562645003,0.9067372561165076,1.2262055310731246,0.7617118563407943
1730865953.4840422,-1.6284863948822021,1.3273265361785889,-9.94701862335205,-0.137747107477447,-0.41478446001353514,-10.558734173170016,0.9081990905283619,1.2345611744112917,0.8716039804368209
1730865953.4840422,-1.6553434133529663,1.316172480583191,-9.920696258544922,-0.12668402664362505,-0.4212984447499638,-10.557901948736422,0.9081963020423977,1.2345800960483833,0.8714570944365994
1730865953.5338588,-1.6599690914154053,1.2806527614593506,-9.860176086425781,-0.11305341913169917,-0.42749514770652125,-10.55891471331481,0.911880257233739,1.25195141169991,0.8742388029950942
1730865953.583919,-1.6765570640563965,1.1801283359527588,-9.819402694702148,-0.09742964381639682,-0.4342252565195919,-10.561880993781426,0.9127300622624118,1.2585760142532407,0.8334876181944064
1730865953.6338382,-1.6720153093338013,1.0732054710388184,-9.787087440490723,-0.08056879390148898,-0.44195065929955313,-10.566584247168866,0.9143202748051852,1.2592864668057115,0.8728171169770625
1730865953.6838663,-1.6663193702697754,0.9791675806045532,-9.763050079345703,-0.06331575521536287,-0.45060448611088744,-10.572497761612077,0.9152725270241487,1.2629041475681466,0.8311202108645604
1730865953.7339408,-1.6707918643951416,0.9239218235015869,-9.750232696533203,-0.04650638356086552,-0.45955061317632473,-10.57886899062668,0.9160914320102557,1.2653972853494706,0.7627308785626523
1730865953.7837968,-1.6994575262069702,0.9047927856445312,-9.781537055969238,-0.030892167745817996,-0.4676862457724684,-10.584845387101064,0.9166178049486766,1.2713939420929945,0.8725115994293426
1730865953.8338177,-1.7137017250061035,0.9450106620788574,-9.824131965637207,-0.017109426773089152,-0.4736715014501762,-10.589627098300644,0.917453477802558,1.2743589725014968,0.8304698558673851
1730865953.8838098,-1.7199853658676147,1.0237822532653809,-9.900525093078613,-0.0056776513760362236,-0.4762338498878956,-10.592630343893397,0.9195312837730282,1.2861312703236056,0.8726781256514341
1730865953.933771,-1.7121604681015015,1.109671950340271,-9.941783905029297,0.003009248703119362,-0.4744783513239609,-10.593622972709275,0.9226480753504441,1.2953999882700846,0.8733659607016626
1730865953.9838536,-1.7125602960586548,1.1412822008132935,-9.991416931152344,0.008709479595312887,-0.46811370323838064,-10.592785478877094,0.9245402110526917,1.3003602866101263,0.8312252062055212
1730865954.033785,-1.7383090257644653,1.1559922695159912,-9.991555213928223,0.01135279214857567,-0.4575115087731708,-10.590673022989112,0.9264379170208182,1.3041197117918986,0.7631944080866931
1730865954.0837812,-1.7700742483139038,1.0934906005859375,-9.966474533081055,0.011021583676296904,-0.4435802367336378,-10.588086068169902,0.923766821873076,1.3068558915817328,0.872742835360552
1730865954.1337168,-1.7931220531463623,1.0574482679367065,-9.924484252929688,0.007894558938629097,-0.4275109537528867,-10.58587940501101,0.9244844560036585,1.3093374580738133,0.8306496615643089
1730865954.1838078,-1.7931220531463623,1.0574482679367065,-9.924484252929688,0.002192026863937448,-0.41050546263452226,-10.584769765059109,0.9262228292448664,1.3233234056517151,0.8728770599029766
1730865954.1838078,-1.8051255941390991,0.9757516384124756,-9.861323356628418,-0.005843402919125847,-0.39358596897822773,-10.585207654379943,0.9262278870949293,1.323350883434327,0.8727482212600713
1730865954.233678,-1.8051255941390991,0.9757516384124756,-9.861323356628418,-0.015938023220129133,-0.37749319410820165,-10.587325806382552,0.9273409028830477,1.3290375811681079,0.8308088118468011
1730865954.233678,-1.8243852853775024,0.909440279006958,-9.807530403137207,-0.027778539537443556,-0.3626403917514158,-10.590943054897423,0.9273461205490818,1.3290624945773117,0.8305461692917345
1730865954.2837088,-1.8243852853775024,0.909440279006958,-9.807530403137207,-0.04101824113967561,-0.3491203988516195,-10.595611410194756,0.9285273742179219,1.3297714842732369,0.8746579448927182
1730865954.2837088,-1.831785798072815,0.8526820540428162,-9.77783489227295,-0.055291682045605944,-0.3367568528519781,-10.60069502552899,0.9285321095411366,1.3297875859015909,0.8745348422057936
1730865954.3335953,-1.7967559099197388,0.8678164482116699,-9.767488479614258,-0.07022098511900732,-0.32517955519163066,-10.605464798808729,0.9295050719019371,1.332990232625031,0.8340793869604476
1730865954.3836603,-1.7967559099197388,0.8678164482116699,-9.767488479614258,-0.08540399685186398,-0.3139201495742021,-10.609192458782545,0.9313696624025029,1.3433326908837733,0.8741752348619529
1730865954.3836603,-1.7605763673782349,0.9291214346885681,-9.799591064453125,-0.10039754260694733,-0.3025326685885511,-10.611242354480295,0.9313744076366249,1.3433544738527086,0.8740479371681451
1730865954.433618,-1.7605763673782349,0.9291214346885681,-9.799591064453125,-0.11471601677015386,-0.29071997836145086,-10.61116238780047,0.9322845604937695,1.3478212091648691,0.832856425053234
1730865954.433618,-1.710945725440979,1.0032237768173218,-9.818702697753906,-0.1278467263397696,-0.2784234352165402,-10.608748050091487,0.9322881999130207,1.3478406510996301,0.8326000635095278
1730865954.4836576,-1.710945725440979,1.0032237768173218,-9.818702697753906,-0.13927111411088913,-0.26585415399158696,-10.60405409157959,0.9346559038496665,1.3516788968460012,0.8746591110209982
1730865954.4836576,-1.7012803554534912,1.053971767425537,-9.838756561279297,-0.14849458955858963,-0.2534701044149832,-10.597363273652716,0.9346617169493391,1.3516946719679737,0.8745327131445342
1730865954.5335536,-1.6881037950515747,1.0379717350006104,-9.849413871765137,-0.15509319788359305,-0.24190548987233607,-10.589136701252059,0.9357407250999111,1.3548411726512508,0.8340240618186806
1730865954.5836434,-1.6881037950515747,1.0379717350006104,-9.849413871765137,-0.15876148677722388,-0.23186250391935626,-10.579957875949209,0.9355192112020824,1.3574511756869152,0.8743960998665256
1730865954.5836434,-1.7113316059112549,0.9963055849075317,-9.854170799255371,-0.15934811869911786,-0.22398108934032052,-10.570468401761294,0.9355217823574304,1.3574613703410332,0.8742712834783332
1730865954.6335702,-1.745736837387085,0.9328804016113281,-9.85682487487793,-0.1568922782761779,-0.218704994272864,-10.56129967260394,0.9359065197978065,1.3594887666611104,0.8329766893480057
1730865954.683587,-1.7479357719421387,0.8603179454803467,-9.831171989440918,-0.15165745528877572,-0.21616143968108278,-10.553011154689916,0.935907129232646,1.3609899757235433,0.7647002280669359
1730865954.733575,-1.7479357719421387,0.8603179454803467,-9.831171989440918,-0.14412604706753357,-0.21608972427316958,-10.546035681751633,0.936424048440742,1.3619350037829567,0.8745877364620436
1730865954.733575,-1.7491909265518188,0.843873918056488,-9.839099884033203,-0.1349378255345196,-0.21787235684858974,-10.540642912706572,0.9364242145688424,1.3619382070534163,0.8744560122376284
1730865954.7836032,-1.719849944114685,0.8954249024391174,-9.856204986572266,-0.12479765087801534,-0.2206751181127903,-10.536944742131839,0.9363039004938478,1.362344737224201,0.8332862261491654
1730865954.8335345,-1.69038987159729,1.013269066810608,-9.893735885620117,-0.1143762392816286,-0.2236566304749858,-10.534942475481172,0.9386369570135348,1.3621988726585574,0.8745589792261836
1730865954.8834958,-1.69038987159729,1.013269066810608,-9.893735885620117,-0.10422073212945913,-0.22619497629973892,-10.534588542337348,0.9412367052970451,1.361493053895425,0.8734575884356549
1730865954.8834958,-1.6407148838043213,1.1782209873199463,-9.94733715057373,-0.0947009050911084,-0.22805197429912782,-10.535834320116194,0.9412438705138366,1.3614885635818097,0.8733276247508928
1730865954.9335127,-1.5968351364135742,1.3148117065429688,-9.980710983276367,-0.0859861767547008,-0.2294578355864665,-10.538662416855486,0.9427120322107582,1.3602152537938268,0.8316153126595742
1730865954.9834745,-1.5788203477859497,1.3853707313537598,-9.986942291259766,-0.07803257271905535,-0.23115439589293424,-10.543109605813337,0.9439872333474434,1.3583509946878025,0.763006430299921
1730865955.0333755,-1.5788203477859497,1.3853707313537598,-9.986942291259766,-0.07060217594314802,-0.2343337096244546,-10.549256178418627,0.9414966283885998,1.355937128845429,0.8745407762985551
1730865955.0333755,-1.59587824344635,1.345052719116211,-9.986001014709473,-0.06334132707876142,-0.24039714549054222,-10.557171482028119,0.9414975936446018,1.3559272208162163,0.8744385395353381
1730865955.0834413,-1.59587824344635,1.345052719116211,-9.986001014709473,-0.05589136786708721,-0.2506157248552233,-10.566851915168403,0.941692791353636,1.3528936799388234,0.8331679652665132
1730865955.0834413,-1.6471034288406372,1.241713523864746,-9.92891788482666,-0.04798802370318217,-0.2658363789330703,-10.578175113710397,0.9416932814837614,1.3528805999583675,0.8329550710126605
1730865955.1334794,-1.7504501342773438,1.1041513681411743,-9.85863208770752,-0.039549078168768445,-0.2862773414711923,-10.590849720090132,0.9417693597813164,1.3491575130444058,0.7648763247721174
1730865955.1834555,-1.8304283618927002,0.9711137413978577,-9.74976921081543,-0.03077296675427054,-0.3113816374664643,-10.604343816538174,0.9444098788719976,1.3446918399787025,0.8746539692261094
1730865955.2333221,-1.9156988859176636,0.9128645658493042,-9.670672416687012,-0.022216920245805686,-0.33976723108275175,-10.617819610048347,0.9451622307553855,1.3394610930311008,0.8337285917873233
1730865955.2834413,-1.9156988859176636,0.9128645658493042,-9.670672416687012,-0.014782969467087624,-0.36936546034173634,-10.630138834688994,0.9458770023500351,1.333282563149634,0.7657443959175384
1730865955.2834413,-1.9563443660736084,0.903839647769928,-9.61693286895752,-0.009584842909546601,-0.3977485387935461,-10.639985317721644,0.9458803261198715,1.333250831187029,0.765355606511136
1730865955.3332965,-1.9563443660736084,0.903839647769928,-9.61693286895752,-0.0077484244274434975,-0.42252196870903946,-10.646060508532713,0.9465583344042995,1.3261653990223077,0.671793494845039
1730865955.3332965,-1.9662718772888184,0.9583784937858582,-9.625625610351562,-0.01022615562447575,-0.4416553091821005,-10.647268880251824,0.9465613174519012,1.3261314528729902,0.6713173609726938
1730865955.3834836,-1.923431158065796,1.0500279664993286,-9.705564498901367,-0.017657137733710554,-0.45372892860925784,-10.64287777186205,0.9472181012875032,1.3178257547704268,0.8733147766160837
1730865955.4342368,-1.8367159366607666,1.1513241529464722,-9.823517799377441,-0.03025377335735428,-0.4581210325130897,-10.632675301538958,0.9478150967529728,1.3083461878840477,0.831015496292364
1730865955.4842105,-1.7143102884292603,1.2665013074874878,-9.948857307434082,-0.04769292002412012,-0.45511697220673225,-10.617116002946519,0.9483083369836267,1.297838942158537,0.8730104056635298
1730865955.5342638,-1.5934988260269165,1.3747628927230835,-10.055098533630371,-0.06902617669815703,-0.4459061709874493,-10.597397540182525,0.9486575705125204,1.2861454302703643,0.8306695008556195
1730865955.5842412,-1.4835880994796753,1.4298890829086304,-10.111140251159668,-0.09266150036588092,-0.43245513186677753,-10.575402653129766,0.9551468924017277,6.958552351904997,0.8729289279366825
1730865955.6342456,-1.4835880994796753,1.4298890829086304,-10.111140251159668,-0.11647306381938119,-0.41725346760527204,-10.553480931777331,0.956428706464173,7.248616322548226,0.8308057417122874
1730865955.6342456,-1.443881630897522,1.4316983222961426,-10.103753089904785,-0.13805993841082148,-0.40295646674469665,-10.534108160920225,0.9564342981913968,7.250042082753564,0.8305331213050611
1730865955.6842623,-1.4952565431594849,1.3775787353515625,-10.049909591674805,-0.15509459753299698,-0.392003130913229,-10.519513245197956,0.9572292416612175,6.686575382646322,0.7622317425042717
1730865955.7341847,-1.6399167776107788,1.2702287435531616,-9.953142166137695,-0.1656805194167034,-0.3862828817161774,-10.511354068348227,0.9576611306534412,6.691988600646953,0.6676719357688864
1730865955.7842758,-1.6399167776107788,1.2702287435531616,-9.953142166137695,-0.16866872689077134,-0.3868913404839629,-10.510492121635572,0.9608686151696644,6.656161668399176,0.8678577525538823
1730865955.7842758,-1.8158236742019653,1.1555479764938354,-9.814238548278809,-0.16385196739342095,-0.39402809497480673,-10.51690798639649,0.9608751072410479,6.656140264796014,0.8677257104981707
1730865955.8341494,-1.987913966178894,1.0372942686080933,-9.684324264526367,-0.15201301776994536,-0.40702911866467006,-10.529728314397143,0.964854277100313,6.6510031732122,0.8670749149709377
1730865955.8841746,-2.1046435832977295,0.9711049795150757,-9.589987754821777,-0.1348961927410241,-0.4244581281151519,-10.54729284166135,0.9666571617311349,6.646261313023001,0.8249855186308731
1730865955.9341092,-2.1046435832977295,0.9711049795150757,-9.589987754821777,-0.11506237933651739,-0.4442695656685586,-10.567299787827572,0.9681430964203519,6.640450679863795,0.7567017424907136
1730865955.9341092,-2.1483964920043945,0.9394667744636536,-9.553539276123047,-0.09554194978694253,-0.4640943417872515,-10.587099087669518,0.9681489909978478,6.6404227215923655,0.7563438426839075
1730865955.9841945,-2.121264934539795,0.9565346837043762,-9.586009979248047,-0.07937097316570119,-0.48158345549352466,-10.604070725947693,0.9693927553589182,6.633448879752837,0.6615111115436152
1730865956.0340698,-2.039263963699341,0.9619608521461487,-9.645097732543945,-0.06915914583156386,-0.4947046240928886,-10.615977803772513,0.9659855853877268,6.645565077584826,0.8641714289492495
1730865956.0840585,-2.039263963699341,0.9619608521461487,-9.645097732543945,-0.06675359402457402,-0.5019487982533278,-10.621239221670535,0.9664383882736012,6.641785513434535,0.8215332725195977
1730865956.0840585,-1.9312196969985962,0.9948458671569824,-9.719782829284668,-0.07304013225302311,-0.5024388028076453,-10.619081027168392,0.9664402980830742,6.641762607912044,0.8212422736988342
1730865956.1340225,-1.9312196969985962,0.9948458671569824,-9.719782829284668,-0.08790452550061531,-0.4959515694427015,-10.609552167085319,0.9666949648858671,6.636802745019469,0.7529318305894825
1730865956.1340225,-1.8107657432556152,1.0069457292556763,-9.799466133117676,-0.11031915291582003,-0.4828716690700431,-10.593441187670814,0.9666954921498973,6.636782721427339,0.7526393662944756
1730865956.184022,-1.8107657432556152,1.0069457292556763,-9.799466133117676,-0.13850994505787134,-0.4640851331408779,-10.572133077400999,0.9666708298575326,6.630597106211417,0.6575701525961816
1730865956.184022,-1.7375962734222412,1.0039891004562378,-9.883305549621582,-0.17017880382095335,-0.4408340925916947,-10.547433371878046,0.9666699052721988,6.630565439308601,0.6570633717320709
1730865956.2339506,-1.7375962734222412,1.0039891004562378,-9.883305549621582,-0.20276423992760145,-0.41456026304278687,-10.521383321084475,0.9662226220601692,6.63942958127185,0.863182697997434
1730865956.2339506,-1.6901278495788574,0.9899908900260925,-9.963652610778809,-0.23370624924580347,-0.386756751006724,-10.49608284402579,0.9662194943999044,6.639416963545959,0.8630572874826763
1730865956.2840056,-1.6511867046356201,1.0167818069458008,-10.022025108337402,-0.260669991771102,-0.35884515589812127,-10.473542041293127,0.9651893474403854,6.636129163538954,0.8217182843760478
1730865956.3338845,-1.626352071762085,1.0566904544830322,-10.058816909790039,-0.28170027633802347,-0.33210147935079143,-10.455576668367645,0.9634932665852168,6.639162468209687,0.8613567115286196
1730865956.3839247,-1.626352071762085,1.0566904544830322,-10.058816909790039,-0.29531937558399124,-0.3076355138361655,-10.443718006088961,0.9610596243788807,6.637277802371015,0.8197082150324188
1730865956.3839247,-1.6089198589324951,1.1275053024291992,-10.08283519744873,-0.30059631738434706,-0.286391537791868,-10.439105198141593,0.961046829007271,6.637267439631074,0.819458215815148
1730865956.433835,-1.6089198589324951,1.1275053024291992,-10.08283519744873,-0.2971814825813381,-0.26914962851300916,-10.442390778422252,0.957912153037402,6.637572770226235,0.8586122505363688
1730865956.433835,-1.548673152923584,1.161179542541504,-10.08017635345459,-0.28528012454943397,-0.2565229677850089,-10.453699340201961,0.9578965854672359,6.63756598457534,0.8584859108385957
1730865956.4838657,-1.548673152923584,1.161179542541504,-10.08017635345459,-0.2655592123715091,-0.248937726793849,-10.47263821693847,0.9540400689629189,6.638541989333454,0.8602363502847478
1730865956.4838657,-1.5168516635894775,1.1840696334838867,-10.051786422729492,-0.23902190839842136,-0.24660324316963936,-10.49834622844393,0.9540218002951265,6.638539323588864,0.8601167662306471
1730865956.533793,-1.5168516635894775,1.1840696334838867,-10.051786422729492,-0.20689487769477788,-0.2494950689241363,-10.52957041312499,0.9495944585910925,6.6376220765617715,0.8197885977944948
1730865956.533793,-1.4813148975372314,1.1318827867507935,-9.987784385681152,-0.17053537484812395,-0.2573468394059998,-10.564758853344905,0.9495735643461941,6.637616606963644,0.8195505537453373
1730865956.5838237,-1.4938756227493286,1.0512200593948364,-9.905617713928223,-0.13134583990511467,-0.2696197377932268,-10.602143937293333,0.9447039676977442,6.636048236249333,0.7527039440814152
1730865956.6337664,-1.5253958702087402,0.9455553293228149,-9.82075309753418,-0.09070997198398223,-0.2854386245692732,-10.639792672191268,0.9395529531540378,6.633787135055439,0.6593401391237411
1730865956.683823,-1.6069215536117554,0.8572342395782471,-9.72569751739502,-0.04998098138991629,-0.3035364165558145,-10.67564498446885,0.9854703079711848,6.63782947820226,0.8597073598708381
1730865956.7337284,-1.7038275003433228,0.803158164024353,-9.66273307800293,-0.010526555140480905,-0.3222697032698099,-10.70758212705065,0.986185924140346,6.6364917257368,0.8181190863393932
1730865956.7837372,-1.8090814352035522,0.8006678223609924,-9.635173797607422,0.026205294903621286,-0.33974694146577655,-10.73354814343331,0.9869259042573737,6.637121337943887,0.8581609583790293
1730865956.8336544,-1.8090814352035522,0.8006678223609924,-9.635173797607422,0.05866711997379208,-0.35405904147617173,-10.75172742459259,0.9877698675759884,6.638875196058885,0.8614099365757308
1730865956.8336544,-1.8927173614501953,0.8072279691696167,-9.634767532348633,0.08529648446076772,-0.3635412222009064,-10.760746471413398,0.9877739007760614,6.638873341695355,0.8612863729802158
1730865956.883653,-1.9440635442733765,0.8602471947669983,-9.668485641479492,0.10466536473684912,-0.3669878876991904,-10.759841336614713,0.9888283465470785,6.637986019604579,0.8194444482090033
1730865956.9336395,-1.9826576709747314,0.9154075980186462,-9.733817100524902,0.11560527111014539,-0.3637980270370802,-10.748960211027963,0.9901489974592569,6.6361965481391385,0.7511636271840044
1730865956.9837236,-1.9826576709747314,0.9154075980186462,-9.733817100524902,0.11729904557003204,-0.3540454191249066,-10.728796319948952,0.9917712362524529,6.639317274662405,0.8645015325721114
1730865956.9837236,-1.9989776611328125,0.9727869033813477,-9.810914993286133,0.10937021433112132,-0.3384453460704456,-10.700733405706309,0.9917789771117645,6.639314114074073,0.8643783688325462
1730865957.033659,-1.9968469142913818,1.0430967807769775,-9.891023635864258,0.09194974268353812,-0.318240397032862,-10.66672095394633,0.9936440270514127,6.638205608826275,0.823329560797873
1730865957.083661,-1.9078164100646973,1.1033395528793335,-9.982389450073242,0.06570190380788303,-0.29507627084648913,-10.629139437223632,0.9957268878795829,6.63631758369081,0.7551801378335314
1730865957.1336153,-1.9078164100646973,1.1033395528793335,-9.982389450073242,0.03182848256656677,-0.2708719462496816,-10.590654441126599,0.9979224519099823,6.639985492514551,0.8669347725395042
1730865957.1336153,-1.811535358428955,1.1505705118179321,-10.037453651428223,-0.007960004352674582,-0.24764284764855868,-10.554008719404766,0.997932498570275,6.63998308854479,0.866810371134801
1730865957.1835968,-1.684177279472351,1.158101201057434,-10.068291664123535,-0.051516058704701766,-0.22729991047574918,-10.521775684335061,1.0000997308097568,6.639165352347342,0.8260481491181653
1730865957.2335598,-1.607757568359375,1.1402833461761475,-10.083259582519531,-0.09633422824168385,-0.2114759423216459,-10.496152141117161,1.0020836645704587,6.637802018466246,0.759150632268996
1730865957.2836456,-1.5794684886932373,1.0847864151000977,-10.054425239562988,-0.1396643772890524,-0.2013767875034779,-10.478806153079582,1.0037841498656273,6.635911477110361,0.6654818560904383
1730865957.3335211,-1.5794684886932373,1.0847864151000977,-10.054425239562988,-0.17873104792103442,-0.1976552835054461,-10.470757185066892,1.0050726311711748,6.630196993348175,0.8691696146181863
1730865957.3335211,-1.6266781091690063,1.0333889722824097,-10.00820255279541,-0.21103947826137776,-0.2003542747683313,-10.472304026755708,1.0050767074737794,6.630187005393245,0.8690652742402537
1730865957.3835816,-1.6266781091690063,1.0333889722824097,-10.00820255279541,-0.23467324309463977,-0.2089428005987955,-10.483026426827116,1.0058590199964677,6.620606328642049,0.8720659925455393
1730865957.3835816,-1.7076492309570312,0.985153317451477,-9.948284149169922,-0.24850014801701803,-0.22241759640962308,-10.501857622962927,1.0058611584073738,6.620585660426364,0.8719501846707393
1730865957.4335127,-1.7076492309570312,0.985153317451477,-9.948284149169922,-0.2522575630771089,-0.23943649326657326,-10.527207405204617,1.0060324165780166,6.6156012792014165,0.8325995144001804
1730865957.4335127,-1.7534598112106323,0.9991579055786133,-9.872818946838379,-0.24652238607462323,-0.25847229247487913,-10.557112845058395,1.0060317951568614,6.615578222866603,0.8323706169161085
1730865957.4836228,-1.761965274810791,1.019677996635437,-9.80775260925293,-0.23257964040933227,-0.27798833681063784,-10.589386133861472,1.0055947089091088,6.609905327792802,0.7661679901649773
1730865957.5335631,-1.7332777976989746,1.0601274967193604,-9.740081787109375,-0.21221890331315835,-0.296616461995114,-10.621733975734665,1.0046092863136886,6.603567575803413,0.6742062966454776
1730865957.5835302,-1.7360866069793701,1.0578792095184326,-9.706241607666016,-0.18748889130302726,-0.31329519162987274,-10.651867528137124,1.0031090675272716,6.5963848580876885,0.5543528987240929
1730865957.633568,-1.7078824043273926,1.0534155368804932,-9.675688743591309,-0.16045289896267323,-0.32733045208471184,-10.677639405796725,1.0012054869381217,6.607727593498138,0.8732764305441709
1730865957.683474,-1.7233083248138428,1.0290294885635376,-9.678693771362305,-0.13299830654884506,-0.3383685048460628,-10.697205096059038,0.9989058271075213,6.603344738798939,0.8317744070923572
1730865957.733404,-1.7233083248138428,1.0290294885635376,-9.678693771362305,-0.10672358199326484,-0.3463151797607885,-10.709177826687425,0.9963571628517824,6.590365507108726,0.8741166219945893
1730865957.733404,-1.7296462059020996,1.0342074632644653,-9.693284034729004,-0.08289345801325623,-0.351256925843777,-10.7127450983187,0.9963472425133176,6.590335951394679,0.874014317186799
1730865957.7834828,-1.7296462059020996,1.0342074632644653,-9.693284034729004,-0.06243394970981182,-0.3534136912962962,-10.707721707532327,0.9935546994657579,6.58180755317674,0.8326614480157062
1730865957.7834828,-1.7782323360443115,1.0552161931991577,-9.738544464111328,-0.04595074210694435,-0.35311586651597004,-10.694535143280477,0.9935443341168076,6.5817751635495085,0.8324638778402814
1730865957.833414,-1.8271551132202148,1.1032934188842773,-9.756502151489258,-0.033784651981693746,-0.35079602800047116,-10.674164817130814,0.9906232575492474,6.57233986284652,0.7642023090956558
1730865957.8834038,-1.8970963954925537,1.1459044218063354,-9.80887222290039,-0.02610636458420973,-0.34700060182164705,-10.648053832691419,0.9876278628926872,6.562034153870912,0.6693036005512205
1730865957.933347,-1.9201931953430176,1.1988476514816284,-9.833016395568848,-0.023011343304705563,-0.3424087442732938,-10.617995793019304,1.0281746663597322,6.578097735968315,0.8748901687032704
1730865957.983341,-1.93211030960083,1.2210768461227417,-9.855461120605469,-0.024561534877985958,-0.33782659982684815,-10.585996123416326,1.0289763642885987,6.573333370942164,0.8335192945546561
1730865958.0332818,-1.93211030960083,1.2210768461227417,-9.855461120605469,-0.030755346583354718,-0.3341329395501243,-10.55410877340417,1.029708981704658,6.55859501390734,0.8733608427466887
1730865958.0332818,-1.8952357769012451,1.1917591094970703,-9.863088607788086,-0.041454847831124166,-0.33217083544837467,-10.52426185225433,1.0297115679982447,6.5585613438346675,0.8732532901400469
1730865958.0833924,-1.8952357769012451,1.1917591094970703,-9.863088607788086,-0.056311828667952556,-0.3326132758539289,-10.498103561256254,1.0303374823789275,6.549064457046208,0.8309713963013908
1730865958.0833924,-1.8420480489730835,1.143674373626709,-9.883455276489258,-0.0747245393444921,-0.3358542033678502,-10.476898057299266,1.0303396866129664,6.549025031597194,0.8307504755933511
1730865958.1332362,-1.7618697881698608,1.129366159439087,-9.8805570602417,-0.09582597932640356,-0.3419515315405898,-10.46148120973912,1.037325218172077,6.54352611163819,0.8751288584511089
1730865958.1833367,-1.7618697881698608,1.129366159439087,-9.8805570602417,-0.11848974508558613,-0.35062574110748423,-10.452260811660665,1.0387668005552737,6.534229007826715,0.8348038705926456
1730865958.1833367,-1.694387674331665,1.115341305732727,-9.905627250671387,-0.14137945463244297,-0.36131979941511905,-10.449243639215487,1.0387712904121804,6.534195190958898,0.8346182711868488
1730865958.2332082,-1.694387674331665,1.115341305732727,-9.905627250671387,-0.16305716148039529,-0.3732997429179328,-10.45209142281201,1.0398534233787862,6.524063703297396,0.7686134040454381
1730865958.2332082,-1.6100733280181885,1.094612956047058,-9.931663513183594,-0.18210709577893178,-0.3857544452885746,-10.46020157985676,1.0398574159620961,6.524015639673432,0.7682552043707481
1730865958.2832747,-1.6100733280181885,1.094612956047058,-9.931663513183594,-0.19723481539131849,-0.3978749685204322,-10.472792622183539,1.0411526768366612,6.52645824754502,0.8741188715278687
1730865958.2832747,-1.5418109893798828,1.0807050466537476,-9.972339630126953,-0.20734068937947314,-0.4089154653860264,-10.488984725217263,1.0411562845977806,6.526431863851212,0.8740276793326104
1730865958.3331993,-1.5418109893798828,1.0807050466537476,-9.972339630126953,-0.2115787386073655,-0.41824091225452154,-10.50787613884345,1.0446759562152161,6.50730213728786,0.8746024183941635
1730865958.3331993,-1.499990701675415,1.0729589462280273,-10.015694618225098,-0.20940267479269106,-0.42536235471388145,-10.528610160591228,1.044682160957272,6.507252424441642,0.8744721138642969
1730865958.383289,-1.4388550519943237,1.0682786703109741,-10.016959190368652,-0.2005858485729587,-0.4299572803404161,-10.550425262208325,1.0457450051658161,6.496160136504467,0.8334797003327852
1730865958.4332135,-1.4388550519943237,1.0682786703109741,-10.016959190368652,-0.18520092420922551,-0.4318745330101204,-10.572679745583105,1.0489166330572408,6.485700255814691,0.8739031841307832
1730865958.4332135,-1.4234479665756226,1.0768064260482788,-10.036955833435059,-0.1635861160220909,-0.43112916625489206,-10.594845949087865,1.0489234071604356,6.485653909089674,0.8738116571775743
1730865958.4831707,-1.4432932138442993,1.1116139888763428,-10.005428314208984,-0.13633601648334334,-0.4278992051884424,-10.616487850318157,1.0508384442796594,6.470843488229417,0.8323019795692064
1730865958.5341525,-1.5085569620132446,1.1484904289245605,-9.962830543518066,-0.10431483155545837,-0.4225338042629516,-10.637225092903252,1.0524705395840142,6.45476937068649,0.7632143898720095
1730865958.5831633,-1.5824558734893799,1.1850098371505737,-9.87814998626709,-0.06868408389640918,-0.4155649946478106,-10.65666548867799,1.0505881277863736,6.483930653570063,0.8737899014629211
1730865958.6341417,-1.5824558734893799,1.1850098371505737,-9.87814998626709,-0.030916187300433738,-0.40769405531979236,-10.674328353388095,1.0513295674371574,6.478678628294089,0.8312314910768561
1730865958.6341417,-1.7026240825653076,1.1562330722808838,-9.797066688537598,0.00725776588397864,-0.39972150368939074,-10.689618342141564,1.051332673473709,6.478653023934613,0.8309815565675222
1730865958.6841717,-1.8434793949127197,1.0966352224349976,-9.701960563659668,0.043931424905203034,-0.3924151541832428,-10.701847568434182,1.0520748715889152,6.472495205764891,0.7622860399717718
1730865958.7341104,-1.9647480249404907,1.0394996404647827,-9.635427474975586,0.07706086637829027,-0.3863499123657395,-10.710249436688192,1.0529641488482329,6.465395052431712,0.6673308463152887
1730865958.7841659,-1.9647480249404907,1.0394996404647827,-9.635427474975586,0.10450991909813961,-0.38178678393910437,-10.71400278329994,1.0530274374410356,6.473604376662032,0.8725850556309336
1730865958.7841659,-2.0362460613250732,0.9632866978645325,-9.589738845825195,0.12421200710062605,-0.37864429064030475,-10.712328436625452,1.0530316156262338,6.473586465396373,0.87245729949697
1730865958.8331368,-2.0580220222473145,0.9396564364433289,-9.595098495483398,0.1344117422369855,-0.37654057699829496,-10.704630515932925,1.0541176253305289,6.469168454732846,0.8313944067101062
1730865958.8841126,-2.0260348320007324,0.9472898840904236,-9.640368461608887,0.1338748307649716,-0.37486652952844,-10.690621367156869,1.0560063061186453,6.460082773756279,0.8725715446924316
1730865958.9341154,-2.0260348320007324,0.9472898840904236,-9.640368461608887,0.12204035410850742,-0.3729011117972053,-10.670420195857776,1.0575278826305592,6.453942948391946,0.8303767531913285
1730865958.9341154,-1.9630955457687378,1.0134309530258179,-9.721592903137207,0.0991174092949598,-0.3699666927811017,-10.644612431564877,1.0575352743771187,6.453913776462523,0.830131704249134
1730865958.984118,-1.895137906074524,1.0919886827468872,-9.815616607666016,0.06610952166447406,-0.36559334323650683,-10.614263118395865,1.0578116699090572,6.446605353741197,0.8726843287093659
1730865959.0339692,-1.8222602605819702,1.1473636627197266,-9.905097961425781,0.024774383755345526,-0.3596636856054698,-10.580908560889771,1.059015961134215,6.439000309065038,0.8313306607827209
1730865959.0840662,-1.8222602605819702,1.1473636627197266,-9.905097961425781,-0.022491095806541666,-0.3524784205288972,-10.546497263894556,1.060754350821483,6.435902226324362,0.8715369552942421
1730865959.0840662,-1.7455374002456665,1.1361726522445679,-9.956357955932617,-0.07286221262936765,-0.3446858625365477,-10.513220971112535,1.0607617572702615,6.435866219614309,0.8714031887981629
1730865959.1339521,-1.700907826423645,1.1482601165771484,-10.000899314880371,-0.12334402521766925,-0.3371091411576457,-10.483275170535995,1.0622059791605432,6.427695606748118,0.8297085412872233
1730865959.1839936,-1.7207727432250977,1.1174755096435547,-10.020934104919434,-0.17101020499964953,-0.3305656407157892,-10.458649396779709,1.0633062895909966,6.418535487661521,0.7609260595278649
1730865959.233999,-1.7207727432250977,1.1174755096435547,-10.020934104919434,-0.2132350281859654,-0.3257320973981246,-10.440972689540892,1.0611100713794999,6.425259777815134,0.8746910998739525
1730865959.233999,-1.7523990869522095,1.134559988975525,-9.988039016723633,-0.24792168421772903,-0.323065166445079,-10.431381879505903,1.0611100541144018,6.425235956582582,0.8745611622162237
1730865959.2839696,-1.8286563158035278,1.1376848220825195,-9.950651168823242,-0.2736810283523293,-0.3227876583381858,-10.430408609559636,1.0607648158208545,6.419784053731805,0.8339973119455997
1730865959.3339097,-1.8731988668441772,1.1633003950119019,-9.883402824401855,-0.28994174800399003,-0.3249264314717195,-10.437907797151809,1.0635566699522754,6.4091460925763215,0.8767118828022644
1730865959.3839538,-1.87714421749115,1.2097761631011963,-9.829784393310547,-0.2969705491945878,-0.32937329051284275,-10.453046529534577,1.0647796458034198,6.399176093371119,0.876617501340578
1730865959.43391,-1.8527741432189941,1.2444229125976562,-9.779115676879883,-0.29575659009892497,-0.3359603378318558,-10.474364959639535,1.0644830522924065,6.391650867027464,0.8360902971340339
1730865959.483997,-1.7791498899459839,1.2536530494689941,-9.761033058166504,-0.2877659605218602,-0.34452792539771804,-10.499916043450181,1.0634450398907431,6.383132984159541,0.768378066618812
1730865959.5338774,-1.7433054447174072,1.2289862632751465,-9.7857084274292,-0.2746396046645602,-0.3549411488847667,-10.527481013279097,1.0660480430546722,6.376253844163364,0.8777841517354766
1730865959.583923,-1.7001326084136963,1.2023404836654663,-9.813427925109863,-0.25793073202237904,-0.3670405258103614,-10.554838055140172,1.065547399787946,6.3669249538136805,0.836413750908163
1730865959.6338441,-1.658395528793335,1.1724835634231567,-9.855494499206543,-0.2389440587606998,-0.380564010412607,-10.580031565242479,1.0684071008460247,6.351553007556098,0.8789875052790082
1730865959.6838272,-1.589672565460205,1.1396898031234741,-9.88569164276123,-0.21866420854898905,-0.39509140738627385,-10.601578026661063,1.0698189523411883,6.3337626092983825,0.8810540794708861
1730865959.733828,-1.5081108808517456,1.1046420335769653,-9.922158241271973,-0.1977228886218822,-0.4100324697111122,-10.61857392635261,1.0699871174549616,6.319721682977061,0.8398947404247019
1730865959.7838185,-1.4295170307159424,1.1049782037734985,-9.95274543762207,-0.17638020854879657,-0.42465713551005463,-10.63070947867725,1.069683017806148,6.304577698321095,0.7717347026862265
1730865959.833836,-1.4276865720748901,1.1359474658966064,-9.951932907104492,-0.15454450208095522,-0.43817443312176874,-10.638206622427619,1.0689678195301187,6.2884861487953145,0.6775803285958895
1730865959.8838398,-1.4848183393478394,1.1582427024841309,-9.916403770446777,-0.1318861322441691,-0.4498583969445006,-10.64168933202445,1.0708435933707412,6.317716018490574,0.8812815793686517
1730865959.9337692,-1.5948827266693115,1.1681678295135498,-9.850994110107422,-0.1080663363064676,-0.4591752145229937,-10.641991976516763,1.0728846886823182,6.298957030647843,0.8828661131653365
1730865959.9839382,-1.7093874216079712,1.1369863748550415,-9.79179573059082,-0.08301823036740093,-0.46584625038997785,-10.639940653904164,1.073351175146185,6.287932866757165,0.8407637082935312
1730865960.0338023,-1.8193243741989136,1.1080282926559448,-9.737626075744629,-0.05717001321396978,-0.46981995368617624,-10.636170818514849,1.074785299605136,6.280436390734638,0.8840807256768413
1730865960.083812,-1.884267807006836,1.1029753684997559,-9.714607238769531,-0.03152447633202385,-0.471188750897772,-10.631034914659491,1.0754831412331856,6.269270465843355,0.842444278923878
1730865960.1337838,-1.9105286598205566,1.1115912199020386,-9.716594696044922,-0.00756586063887075,-0.4701210599928815,-10.624616720080537,1.0761308216097594,6.256949936896476,0.7743398043378983
1730865960.1837988,-1.9257912635803223,1.116139531135559,-9.744019508361816,0.012973576280872255,-0.4668444439857158,-10.616833996945521,1.0762650869743446,6.258359169342161,0.8849009276289408
1730865960.2337227,-1.9447674751281738,1.1083884239196777,-9.78177261352539,0.02840085103840338,-0.46165406079975535,-10.607586813084039,1.0769658955443693,6.247668156243376,0.8429867776096943
1730865960.28374,-1.942165493965149,1.0875669717788696,-9.824285507202148,0.03731086431546267,-0.4549039725908951,-10.596899780372867,1.0781166215689826,6.23855511726277,0.8844215984672433
1730865960.3336928,-1.9253342151641846,1.0885087251663208,-9.844911575317383,0.03875808968666607,-0.44697159675508225,-10.585014073350429,1.079134914829474,6.226546211481546,0.842216817656638
1730865960.383695,-1.8715403079986572,1.0781447887420654,-9.8873929977417,0.03236471367132099,-0.43821987484306646,-10.572407939177658,1.0802429047109077,6.213421474763104,0.7735507899609493
1730865960.4336674,-1.8378441333770752,1.0401469469070435,-9.917705535888672,0.018379665477929803,-0.4289710857645389,-10.55975996203771,1.0814130196068314,6.1992289817051605,0.6785958993827138
1730865960.48365,-1.7672381401062012,1.032460331916809,-9.951805114746094,-0.0023196354076368787,-0.41947929091449626,-10.547885379313637,1.080140790288569,6.221169956705263,0.8822902537889099
1730865960.5337403,-1.7021394968032837,1.0370874404907227,-9.975760459899902,-0.028286693060100235,-0.40991001253183224,-10.537660303693919,1.0806299656567033,6.214533143936051,0.8394306748722286
1730865960.5838394,-1.65043306350708,1.073177456855774,-10.0149564743042,-0.0576147290801141,-0.40036130623223926,-10.529941584105504,1.083713129763563,6.206934380981955,0.8800094391649386
1730865960.6337297,-1.6014059782028198,1.14634108543396,-10.020565032958984,-0.08809092411203069,-0.39093698250741626,-10.525493428120347,1.084896581476384,6.198365999335462,0.8372225219405827
1730865960.6836996,-1.5850491523742676,1.22859787940979,-9.987622261047363,-0.11739180184519894,-0.38185271480122496,-10.524913299890738,1.0865392027630993,6.188828961354934,0.8781965754008025
1730865960.733647,-1.6096011400222778,1.2526041269302368,-9.945744514465332,-0.14330554340719176,-0.37352676120360717,-10.528537518695527,1.0875595957013895,6.178313363738147,0.8351941059943404
1730865960.7837098,-1.665219783782959,1.2559261322021484,-9.857342720031738,-0.16396909678136165,-0.36658368628958304,-10.536335076629332,1.088193733200371,6.166892373042593,0.7659284732086767
1730865960.8336103,-1.7471556663513184,1.2027697563171387,-9.769553184509277,-0.17809564312857196,-0.36173843599346944,-10.547820404418053,1.0884004811926353,6.154579788653548,0.6704750577346339
1730865960.8836133,-1.8258168697357178,1.1118991374969482,-9.667461395263672,-0.1851467807131021,-0.3595963046740902,-10.562011454581835,1.0880722598442545,6.14134564347627,0.8764825288169233
1730865960.9335773,-1.8815194368362427,1.0185134410858154,-9.608986854553223,-0.18540094561445322,-0.3604338262416712,-10.577459696926436,1.0880380206311044,6.127250309554662,0.8338924952595582
1730865960.9835758,-1.8734042644500732,0.954424262046814,-9.58102798461914,-0.17988140031112929,-0.3640376710719804,-10.592376661697774,1.0909657351098234,6.112190300196474,0.8744990053310866
1730865961.033538,-1.824157476425171,0.9195178747177124,-9.613903045654297,-0.1701343231763514,-0.3696727545152191,-10.604859846903913,1.0912633769893916,6.096271960401315,0.8316240041736018
1730865961.0836797,-1.7324042320251465,0.9404146075248718,-9.695297241210938,-0.15789675382425128,-0.3762012388788809,-10.613189234231012,1.091150600068093,6.0793000260561785,0.7617481183779332
1730865961.133535,-1.6441199779510498,0.9858413338661194,-9.814929962158203,-0.1447417128734735,-0.3823176327170709,-10.616141446308719,1.0937037732008212,6.061556207512212,0.8749199993370111
1730865961.1836119,-1.5686087608337402,1.074684739112854,-9.920032501220703,-0.13179960598392132,-0.3868345868532119,-10.613250398756932,1.0940851786430947,6.042643756577633,0.832254268664122
1730865961.2334654,-1.542607307434082,1.151999592781067,-10.003628730773926,-0.11962802789024177,-0.3889459369194726,-10.60493557078262,1.0961921085002824,6.022993711066352,0.8748485606766274
1730865961.283573,-1.5542049407958984,1.2301385402679443,-10.041191101074219,-0.10825339178675242,-0.38840159521463313,-10.592448221658309,1.0969327612272,6.0022310607811145,0.8325436802404542
1730865961.3333614,-1.6225168704986572,1.2406723499298096,-10.066964149475098,-0.0973568907262898,-0.3855473032934603,-10.577649679957865,1.0974133430004775,5.980647540432377,0.7642609582732901
1730865961.3834236,-1.7253564596176147,1.2138913869857788,-10.027120590209961,-0.08654377857761038,-0.38120950263483894,-10.562686931381133,1.0976681814096563,5.957859451128481,0.6686415941112822
1730865961.4334004,-1.8377536535263062,1.1672279834747314,-9.96264362335205,-0.07562070068511727,-0.37645350484752665,-10.549633388027024,1.097807763083576,5.9343577169680195,0.8746437193064103
1730865961.4834306,-1.8791604042053223,1.118408203125,-9.90227222442627,-0.0647926152042818,-0.37230068334499805,-10.540154173345888,1.0980234924568537,5.909765084377865,0.8324817703445804
1730865961.5334456,-1.8703622817993164,1.049418330192566,-9.87574577331543,-0.05469213862613038,-0.3694967386045785,-10.535271591849986,1.1005044227904899,5.884262435925008,0.8743643302862992
1730865961.5833516,-1.7904411554336548,0.9940613508224487,-9.860814094543457,-0.04621294391961466,-0.36837202854360884,-10.535292992467085,1.1031574932885728,5.857985737970877,0.8744599532974099
1730865961.6333067,-1.6464136838912964,0.9628157019615173,-9.86606502532959,-0.040203818586906095,-0.36880046260092075,-10.539894111447115,1.1046984057881881,5.830714905051685,0.8325661002522985
1730865961.683353,-1.5627888441085815,0.9482263922691345,-9.848698616027832,-0.03713548206272249,-0.37025864615411874,-10.548290751958742,1.1061461480702157,5.802457134154053,0.7642038960541734
1730865961.7333167,-1.562458872795105,0.9341247081756592,-9.841981887817383,-0.03689135802335939,-0.37196369840520777,-10.559422755319947,1.1075017100570916,5.773258755578496,0.6693736002611613
1730865961.783527,-1.5797141790390015,0.9555282592773438,-9.840194702148438,-0.03879861964380593,-0.3730424432367239,-10.572109357024019,1.1026871475051632,1.5142465712280926,0.8757343782434104
1730865961.8334281,-1.656130313873291,1.0449622869491577,-9.828990936279297,-0.04186802586626004,-0.3727078896730641,-10.585174340343183,1.1027895011394377,1.385759889965822,0.833930280722044
1730865961.883437,-1.7408385276794434,1.130565881729126,-9.812065124511719,-0.04511073587960024,-0.3704480474292008,-10.59754149664386,1.102783512348573,1.2555065564661583,0.7653098649884436
1730865961.933372,-1.8037424087524414,1.1793253421783447,-9.80042552947998,-0.047816997406529504,-0.36618927552376257,-10.608293272227339,1.1026619422627404,1.1252254569304505,0.6707705089519174
1730865961.9834905,-1.8700915575027466,1.1633671522140503,-9.820185661315918,-0.04972083936663535,-0.3603411911174893,-10.616705266645187,1.1028497792854446,1.6228007245996865,0.877154517134986
1730865962.0333447,-1.9134926795959473,1.100498914718628,-9.80792236328125,-0.0510265117826333,-0.35366788240439284,-10.622278295057633,1.102766629895955,1.618461461865757,0.8353144011096257
1730865962.083408,-1.9817607402801514,0.9967160820960999,-9.799867630004883,-0.052332959518250496,-0.347025078050165,-10.624758104741211,1.1031684143650577,1.6328143301133617,0.8789559043717082
1730865962.1332574,-2.009242534637451,0.8998187184333801,-9.762540817260742,-0.054509736116837654,-0.34106413535543456,-10.624114488196597,1.1031111611403348,1.6314574881750312,0.8374933205033264
1730865962.1833553,-2.0146119594573975,0.8520634174346924,-9.732019424438477,-0.058548914369213056,-0.33601535124682935,-10.620478120130894,1.103456626388539,1.6337565776677943,0.8803449409768036
1730865962.2332752,-1.9653370380401611,0.8578269481658936,-9.763777732849121,-0.06538760674383214,-0.33163725322461785,-10.614072870714248,1.1036285713597889,1.6341543100835596,0.8827287845783169
1730865962.2832632,-1.8760980367660522,0.9307280778884888,-9.811843872070312,-0.07570177712444609,-0.3273537483500819,-10.605201504740734,1.103492604275568,1.6330387463864349,0.8416368165315729
1730865962.3331802,-1.7786275148391724,1.0387083292007446,-9.875558853149414,-0.08970221957962178,-0.3225258222194254,-10.594302038281933,1.1031512784353843,1.6311188696253687,0.7743300942000706
1730865962.3832405,-1.7020138502120972,1.1243410110473633,-9.926508903503418,-0.10699344433872537,-0.3167524541187079,-10.582020605372321,1.1025614680291826,1.628387057610243,0.6801062411352449
1730865962.4332123,-1.6601722240447998,1.1989141702651978,-9.964488983154297,-0.12655992845240369,-0.3100813472214664,-10.569234562634879,1.103677172741122,1.634508113769761,0.8813244650784957
1730865962.4832904,-1.6342209577560425,1.2611186504364014,-9.975395202636719,-0.14689910185277733,-0.3030618709894922,-10.556998688038055,1.1032127233423432,1.6333851434797464,0.839052708150016
1730865962.5331616,-1.622498869895935,1.2675787210464478,-9.962905883789062,-0.16625561425135443,-0.29665267933164147,-10.546422737558272,1.1042178276487742,1.634963759716075,0.8814921120864296
1730865962.5832772,-1.639206886291504,1.2061913013458252,-9.937066078186035,-0.18288426631755914,-0.29201804510431906,-10.538510447491381,1.1037256233427457,1.633932519687141,0.8393237030245371
1730865962.6331246,-1.6860491037368774,1.1449236869812012,-9.880510330200195,-0.1952940208718655,-0.29024597209112735,-10.533998515859496,1.102766829963141,1.632185006877185,0.7712725667116583
1730865962.6834114,-1.7109571695327759,1.0855287313461304,-9.83228588104248,-0.20244833824916245,-0.2920674592444311,-10.533227761408412,1.1046589921685468,1.6354963068651727,0.881097868643197
1730865962.7330935,-1.709753394126892,1.0741137266159058,-9.788422584533691,-0.20388136515362065,-0.2976841987729383,-10.536073635686368,1.1040227697346547,1.634485601924978,0.8385034110529024
1730865962.7832174,-1.6724727153778076,1.0828081369400024,-9.795247077941895,-0.19968708695573056,-0.3067616968227966,-10.541964264109936,1.105087700792599,1.6327485807425903,0.8838892211380873
1730865962.8330767,-1.6206578016281128,1.0981696844100952,-9.837224006652832,-0.19038660332755064,-0.3185630224622532,-10.550002835816551,1.104510641710067,1.630194565244975,0.842529568244012
1730865962.8830912,-1.5427521467208862,1.13316011428833,-9.84755802154541,-0.1767281797602069,-0.3321467215190452,-10.559167642094456,1.1055332798136084,1.6268785387338072,0.8854946269735183
1730865962.933006,-1.5629488229751587,1.1618047952651978,-9.863628387451172,-0.1594990269643517,-0.34655882929084936,-10.568507562121416,1.1050695224981726,1.6226683767163341,0.844277496130048
1730865962.9830446,-1.629149079322815,1.215698003768921,-9.845447540283203,-0.13944180750230806,-0.36098543764669344,-10.577257450898012,1.104226501381176,1.6175515092483577,0.7762061600150195
1730865963.0340078,-1.6967530250549316,1.2590280771255493,-9.838217735290527,-0.11731526708970356,-0.3748575849282677,-10.584863745223934,1.1030465531739637,1.6114443562948544,0.68036719273511
1730865963.084012,-1.7413307428359985,1.2730633020401,-9.82457160949707,-0.09401474504118616,-0.3879012318945876,-10.590956439194901,1.106061550602276,1.6044645539915572,0.8841383421874383
1730865963.1339903,-1.7646113634109497,1.2583575248718262,-9.81188678741455,-0.07062651094470496,-0.40011295195563523,-10.595307519522473,1.1058392854843324,1.5965651180266274,0.842208208356561
1730865963.1839724,-1.7786732912063599,1.2127102613449097,-9.802888870239258,-0.0483719300233139,-0.4116553825937314,-10.597796516440894,1.1070132063924827,1.587574969979703,0.8840024897555587
1730865963.233917,-1.8130278587341309,1.14822256565094,-9.807696342468262,-0.028485578354395823,-0.42270272493893335,-10.598388975126078,1.1071585400710795,1.5774607697509275,0.8411010589805326
1730865963.2838762,-1.809478998184204,1.100132703781128,-9.810400009155273,-0.01209103841768643,-0.4332895515510997,-10.597131462697977,1.1072503881937832,1.5665234454801042,0.7730881254294204
1730865963.333905,-1.797210454940796,1.1131501197814941,-9.829365730285645,-9.636965465990941e-05,-0.4432276262518856,-10.594159399433348,1.108073938028131,1.5543489798458618,0.8838892511576171
1730865963.383851,-1.7991148233413696,1.125964879989624,-9.836786270141602,0.006895895005569561,-0.4521391098043924,-10.589706792688402,1.1083666803131664,1.54105800635009,0.841586591296576
1730865963.4338167,-1.7826963663101196,1.1695894002914429,-9.845488548278809,0.008647286080070149,-0.4595870006550554,-10.584105463061906,1.1093427842656274,1.5266406603629408,0.8838930411638882
1730865963.4838102,-1.7767739295959473,1.2048052549362183,-9.856528282165527,0.00529270579319914,-0.46522984223169606,-10.577765894624058,1.1099174238075082,1.511039018617969,0.8416115000694864
1730865963.5337822,-1.8129676580429077,1.1983704566955566,-9.851751327514648,-0.0026995888503607386,-0.46893201066781814,-10.57114293224478,1.1100633074572894,1.4940114078425697,0.8833254888629022
1730865963.5838563,-1.865580439567566,1.1427628993988037,-9.82577133178711,-0.014626207912355499,-0.4707780075917518,-10.564687795286599,1.1104847382416392,1.4761620007547513,0.8410022763592174
1730865963.633715,-1.881205439567566,1.0834192037582397,-9.824111938476562,-0.029691368161059432,-0.470976433679667,-10.558787000235709,1.1108614728703317,1.4565453517882403,0.7700425932924885
1730865963.68373,-1.863053321838379,1.0553536415100098,-9.826824188232422,-0.04712277108817284,-0.469715357937152,-10.55371321959304,1.11082152353901,1.4369724889139577,0.884760821374122
1730865963.7337158,-1.8265241384506226,1.0528087615966797,-9.850543975830078,-0.06619790909840773,-0.4670697300022026,-10.549619950506465,1.1109050275219188,1.414924361313904,0.8420809017657526
1730865963.7837036,-1.7715882062911987,1.0776413679122925,-9.877630233764648,-0.0861937389127275,-0.4630125327000683,-10.546580369617395,1.1107987410110152,1.3928239255229111,0.7757108323384376
1730865963.8336518,-1.7354477643966675,1.0973707437515259,-9.941924095153809,-0.10631988284005509,-0.4575027417356634,-10.544650766473373,1.1116928684249903,1.3692058866522154,0.8839138669610856
1730865963.8837056,-1.689695954322815,1.1317925453186035,-9.966397285461426,-0.12568727192521217,-0.4505874128455603,-10.54393828788066,1.1116010186843583,1.344229284375512,0.841809378264403
1730865963.9335935,-1.689695954322815,1.1317925453186035,-9.966397285461426,-0.14333490055641263,-0.4424673674996133,-10.544635920305913,1.1111759048563266,1.3183504522524159,0.7738624823277036
1730865963.9335935,-1.6389662027359009,1.1293141841888428,-9.971222877502441,-0.1583052022063799,-0.4335010415278892,-10.546990133892276,1.1111732625883943,1.318234693903577,0.7735074968019654
1730865963.9836588,-1.6623183488845825,1.1505361795425415,-9.938908576965332,-0.1697361797638513,-0.4241545070370497,-10.551217608552413,1.1124574336402984,6.109874066423171,0.8861738358343164
1730865964.0335605,-1.685981035232544,1.114296793937683,-9.907242774963379,-0.17695615361518963,-0.4149325330756858,-10.557411900784544,1.1120649651711696,6.258719763124853,0.8425120688594522
1730865964.0836053,-1.7127622365951538,1.098321795463562,-9.828071594238281,-0.17958488091700825,-0.4063049475872683,-10.565457872214303,1.1130494890592368,5.973097324090748,0.886545259176604
1730865964.1335196,-1.7381293773651123,1.0863145589828491,-9.812661170959473,-0.17761204741073194,-0.3986309655739875,-10.57496881104682,1.1126812569995572,5.97192989175947,0.8453169628269839
1730865964.1835907,-1.7394286394119263,1.1070185899734497,-9.751754760742188,-0.17141097464270558,-0.39211680747474403,-10.585278356675781,1.1136402914241583,5.946426586378591,0.7782780544133677
1730865964.2335656,-1.7783422470092773,1.099996566772461,-9.74980354309082,-0.16168559980193453,-0.38683132650669894,-10.59550156082647,1.1132858244330506,5.939051779130849,0.684504408699986
1730865964.2834716,-1.775434136390686,1.1180026531219482,-9.734968185424805,-0.149381976871051,-0.38275265417518584,-10.604646531474705,1.112547358487463,5.930756482673005,0.5648780726008936
1730865964.3334875,-1.775434136390686,1.1180026531219482,-9.734968185424805,-0.13558487026442384,-0.3798110185839324,-10.611749631080983,1.1141477758002474,5.936894291635715,0.4184858305858673
1730865964.3334875,-1.7961090803146362,1.0978853702545166,-9.74190616607666,-0.12140490187803088,-0.3779132083463062,-10.61600301887757,1.1141467009405355,5.936872050947055,0.4176499848517957
1730865964.3834748,-1.8024729490280151,1.096219539642334,-9.761283874511719,-0.10788074997562908,-0.37694187163688253,-10.6168515985715,1.1138043895106384,5.932131070896305,0.24395251245542712
1730865964.4334664,-1.8024729490280151,1.096219539642334,-9.761283874511719,-0.09591422400016925,-0.3767435349030063,-10.614052468297519,1.1150507326263084,5.92424624428937,0.045776790186649846
1730865964.4334664,-1.8615046739578247,1.0873790979385376,-9.789366722106934,-0.086233179082737,-0.3771308454241759,-10.607690586006925,1.1150509305454326,5.924222611488613,0.04493045033117278
1730865964.4834557,-1.8906596899032593,1.113863468170166,-9.796687126159668,-0.07939316785961047,-0.3779023468165401,-10.598154588231417,1.1150010126306378,5.917796830576042,-0.18150339011500183
1730865964.533443,-1.8843986988067627,1.1354656219482422,-9.818350791931152,-0.07580686810731149,-0.378877172763876,-10.586086589952874,1.1147578923717658,5.91044667206058,-0.43367994735041576
1730865964.5834439,-1.8520234823226929,1.1645499467849731,-9.829914093017578,-0.07574019260695547,-0.37994244117467213,-10.572313773973978,1.1143226035493967,5.902091764864547,-0.7141995225197019
1730865964.6334517,-1.8085271120071411,1.176212191581726,-9.861815452575684,-0.07924897817928338,-0.3810908697274591,-10.55777207035213,1.1154477979606003,5.912781974984872,0.8986992831179423
1730865964.6834452,-1.7181299924850464,1.1627516746520996,-9.876137733459473,-0.08609321331318934,-0.3824202403760999,-10.54343570183341,1.115286492702983,5.907407667526968,0.8581141950341752
1730865964.7333987,-1.6924563646316528,1.1392431259155273,-9.905946731567383,-0.09567465874595062,-0.38408376263134447,-10.530256143431096,1.1159999666408418,5.8980045415572775,0.9000336396836308
1730865964.7834475,-1.6710063219070435,1.1597439050674438,-9.915834426879883,-0.10704654957711425,-0.38621642410911977,-10.519106876237451,1.1158613135074196,5.890442719141968,0.8600078388182585
1730865964.8333828,-1.6623401641845703,1.1732234954833984,-9.910504341125488,-0.11902306492760702,-0.38889251537925423,-10.510728433354238,1.1154189581948124,5.881350235782416,0.7898995503981466
1730865964.8834436,-1.664509892463684,1.188157320022583,-9.918722152709961,-0.13034891758953304,-0.39213716911665164,-10.505670773002684,1.1147134517896349,5.8720193408318275,0.7000698318803981
1730865964.933397,-1.6572636365890503,1.1673773527145386,-9.908549308776855,-0.13986438005534718,-0.39595278676978374,-10.504246081817069,1.116311102950197,5.885513332949138,0.9027188298044494
1730865964.9834638,-1.6591688394546509,1.130024790763855,-9.90406608581543,-0.1466289921524013,-0.4003118529066749,-10.50650762442477,1.1158659748948943,5.880386331657136,0.8611558104750783
1730865965.0333724,-1.6591688394546509,1.130024790763855,-9.90406608581543,-0.1499937396932673,-0.4051155223317324,-10.512255620783463,1.1167718487564904,5.870732255963817,0.9056308258382619
1730865965.0333724,-1.6374982595443726,1.1253414154052734,-9.897210121154785,-0.14962448287728117,-0.4101669069819448,-10.521068492072825,1.116771030177,5.870700357368665,0.9055147056705539
1730865965.0834715,-1.6542800664901733,1.1127800941467285,-9.890379905700684,-0.14548407955925313,-0.41519096735363026,-10.532353111349252,1.1174169700918064,5.8569910032076615,0.9099342534975219
1730865965.1333466,-1.6624219417572021,1.1077226400375366,-9.87459659576416,-0.13779595882966814,-0.41987643128577795,-10.545399058939022,1.1172047540548247,5.84711759604978,0.8708417564441868
1730865965.183495,-1.6803877353668213,1.1172305345535278,-9.872438430786133,-0.12701254943121765,-0.4239144136924232,-10.559429314842205,1.1166550422478383,5.836057218908467,0.8045763827169142
1730865965.2333581,-1.6642932891845703,1.1443051099777222,-9.851571083068848,-0.11377815243997558,-0.42704228033090863,-10.57364930157743,1.1177766424705908,5.84661127963319,0.9077208192396512
1730865965.2835011,-1.676072597503662,1.1518168449401855,-9.866317749023438,-0.09886534866930097,-0.4290964194615286,-10.587296161542346,1.1174958692425447,5.8405666060631996,0.8658727488155231
1730865965.3333554,-1.688549518585205,1.173169493675232,-9.839729309082031,-0.08309819713100544,-0.43005134383916144,-10.599687243610374,1.1185664044889507,5.830122210214406,0.9081951685734836
1730865965.3832452,-1.7406500577926636,1.1670211553573608,-9.839791297912598,-0.06729981691950872,-0.4300240382719861,-10.610257801471818,1.1185693406674564,5.821049324789439,0.8664349245135822
1730865965.4331973,-1.7592371702194214,1.1434805393218994,-9.807424545288086,-0.05227851542648887,-0.4292386232186838,-10.618575593217338,1.1193877122161526,5.815821373880856,0.9057244931715144
1730865965.4832108,-1.7919294834136963,1.1425443887710571,-9.786770820617676,-0.03882454332332825,-0.42795973393025655,-10.624332747145692,1.1195710144993791,5.806561928022116,0.8628250210985394
1730865965.5332005,-1.8289555311203003,1.1339582204818726,-9.734051704406738,-0.027689484112178198,-0.4264266808883894,-10.627319944990884,1.119672479682936,5.7961503028858905,0.7928834675623788
1730865965.5832748,-1.906752586364746,1.1017496585845947,-9.722082138061523,-0.019563273145570145,-0.4248142255769035,-10.627391921927607,1.1200303319765084,5.801397441988614,0.9046933872970581
1730865965.6332035,-1.9440362453460693,1.0649313926696777,-9.711519241333008,-0.015073536222255298,-0.423204493797582,-10.6244498019288,1.12021546112357,5.7937608370404305,0.8621358540964625
1730865965.6832056,-1.954621434211731,1.0486096143722534,-9.747272491455078,-0.01478254936972976,-0.42155807648911126,-10.61846624110111,1.1189055709678184,5.7828896819534785,0.9032794095947289
1730865965.733109,-1.9300211668014526,1.0519165992736816,-9.785317420959473,-0.01913237869180071,-0.41971196600495003,-10.609552506379641,1.1185282401536167,5.772289812084062,0.8592213345129454
1730865965.7832572,-1.8917458057403564,1.0662336349487305,-9.863221168518066,-0.028335634860453176,-0.41742882431798156,-10.598042266519789,1.1181042242058008,5.760986639241641,0.7903342175517677
1730865965.8331983,-1.8261340856552124,1.0515388250350952,-9.917787551879883,-0.042257263062348914,-0.4144756614460573,-10.584559832273186,1.117588383025666,5.748535302689757,0.694541956628544
1730865965.8832433,-1.7325536012649536,1.0188775062561035,-9.973783493041992,-0.06032621983951406,-0.41067759715760704,-10.570039215887927,1.1183775708087058,5.77125471105351,0.9023327627926243
1730865965.9331484,-1.6438817977905273,1.0134690999984741,-9.997303009033203,-0.08149213448052525,-0.40591887777391505,-10.55566937723548,1.117988134834018,5.766024855763307,0.8599940327924211
1730865965.9832146,-1.6068297624588013,1.0392526388168335,-10.010113716125488,-0.10425044981492682,-0.40012864059923386,-10.542768182587174,1.1176815335425632,5.75016405225086,0.9024275118875842
1730865966.0331244,-1.5930547714233398,1.1113393306732178,-9.983500480651855,-0.1267727960535281,-0.3933110517205126,-10.532611078090634,1.116978136553361,5.739790227060303,0.8603528524679109
1730865966.0831685,-1.6152253150939941,1.2080261707305908,-9.939994812011719,-0.14714004416164103,-0.3856353344354925,-10.526245052485798,1.1171088429088822,5.737931059135792,0.9020542389214311
1730865966.1329873,-1.6628810167312622,1.2549554109573364,-9.904179573059082,-0.1636197925960372,-0.3775385715680011,-10.524322824158606,1.1162603158395876,5.729374954194489,0.8605540287711642
1730865966.183079,-1.7237470149993896,1.2498868703842163,-9.840123176574707,-0.17492131834905897,-0.3697516704535262,-10.526996428478586,1.1149592045765397,5.719631400147181,0.7912419009889183
1730865966.232996,-1.7540323734283447,1.1959750652313232,-9.810408592224121,-0.1803732909615658,-0.36318398667048524,-10.533890601777875,1.1166174165246419,5.719857622675063,0.90232302606291
1730865966.282932,-1.7761001586914062,1.1373709440231323,-9.77637004852295,-0.17997938081740728,-0.35869624573734477,-10.54415597552169,1.1157876171400354,5.700052701792259,0.9022655345895885
1730865966.3329697,-1.7739691734313965,1.080772876739502,-9.734260559082031,-0.17434289331789854,-0.3568649252508912,-10.556587810884166,1.1147080768826747,5.688791981353738,0.860252642205735
1730865966.3838212,-1.7863746881484985,1.0190056562423706,-9.72805404663086,-0.16450272435508467,-0.35782984991323663,-10.569777121968638,1.114868789489056,5.6846041630296975,0.9009789048250026
1730865966.4338863,-1.7863746881484985,1.0190056562423706,-9.72805404663086,-0.151744345484425,-0.36126069766008095,-10.582272355847426,1.1136737236297132,5.672638190737346,0.857990771556206
1730865966.4338863,-1.763444423675537,0.9958710074424744,-9.702902793884277,-0.13742607235772245,-0.36643896488706384,-10.592739417914244,1.1136113478228369,5.672081391499529,0.8554442713163933
1730865966.4838243,-1.7485802173614502,0.980993390083313,-9.72205638885498,-0.12282610354319476,-0.3724132283159373,-10.600088939866769,1.1121397508388058,5.659814043552208,0.788751072276824
1730865966.5338418,-1.7739217281341553,0.9647471904754639,-9.749009132385254,-0.10902419348058287,-0.3781578000422738,-10.603561793116135,1.114972852586406,5.672115755841802,0.9019523059987099
1730865966.5839176,-1.776928424835205,1.0090956687927246,-9.792386054992676,-0.09685073244585854,-0.382705768340038,-10.602795250739794,1.1144227944592418,5.665296159332931,0.859841526399341
1730865966.6337254,-1.7719019651412964,1.0469619035720825,-9.85647201538086,-0.08689427757291152,-0.3852787947979409,-10.597871740668948,1.114406550896202,5.650794790958534,0.9009591036860874
1730865966.6840096,-1.742720127105713,1.0767850875854492,-9.918389320373535,-0.07951412188684735,-0.38541046638143295,-10.589334923310023,1.1138080906314245,5.640078618644245,0.8583238302244016
1730865966.733826,-1.7308605909347534,1.0838773250579834,-9.983128547668457,-0.0748326777564488,-0.38301142444483305,-10.578162505747995,1.1142018355176395,5.638417554287009,0.9009649433790013
1730865966.7839155,-1.7244657278060913,1.1198302507400513,-10.016728401184082,-0.07273279329692516,-0.3783480620035917,-10.565685205370693,1.1137329185172302,5.62927520195044,0.8586142728980284
1730865966.8337839,-1.7244657278060913,1.1198302507400513,-10.016728401184082,-0.07289004535914353,-0.37196551466913885,-10.553443096570678,1.115298551259144,5.619884339953089,0.9007977308107102
1730865966.8337839,-1.6922295093536377,1.1217204332351685,-10.01152515411377,-0.07483251276254453,-0.36458800763999494,-10.542987746642211,1.1152988122010452,5.61984402630337,0.9006602061321743
1730865966.8839517,-1.6949405670166016,1.091368556022644,-10.003122329711914,-0.07799710916598038,-0.3570010564883914,-10.535673614614906,1.1152550163541775,5.610895156277843,0.8583280925231641
1730865966.9338105,-1.6541407108306885,1.079060673713684,-9.937772750854492,-0.0817718783874467,-0.34992545445900286,-10.532487542355971,1.116134263314454,5.60508366463659,0.9023859765246822
1730865966.9837117,-1.6971153020858765,1.0559735298156738,-9.882655143737793,-0.08553854992754356,-0.343913105538361,-10.533924431915496,1.1161717077702369,5.596161609752467,0.8613733094932005
1730865967.0336804,-1.7184339761734009,1.0200108289718628,-9.829143524169922,-0.08873854905874506,-0.3392859224925868,-10.539911301911848,1.1178610892509657,5.586620845936235,0.9007390439220021
1730865967.0837424,-1.7796587944030762,0.9819168448448181,-9.78043270111084,-0.09096852759455808,-0.3361102348171688,-10.549808688861027,1.1184132494169248,5.574052277194615,0.8584744351441694
1730865967.1336548,-1.7767276763916016,0.9837790727615356,-9.749464988708496,-0.09206531937233589,-0.3342010433930216,-10.562500507562977,1.1187329344681074,5.56079143809951,0.7905495521906785
1730865967.1838517,-1.7815088033676147,1.03798508644104,-9.75819206237793,-0.09212268480911835,-0.3331832394767238,-10.576554361785458,1.1185546131064688,5.572460375966626,0.9004165205037777
1730865967.2337184,-1.7815088033676147,1.03798508644104,-9.75819206237793,-0.09142803866916556,-0.33261989470226416,-10.590429123795925,1.1185600581201192,5.565261513697008,0.8582265421248838
1730865967.2337184,-1.7619465589523315,1.1153185367584229,-9.77953052520752,-0.09036205367278877,-0.3321539777631156,-10.602689570009527,1.1185594447792804,5.56521856541395,0.8579139620226133
1730865967.283684,-1.7306779623031616,1.2181533575057983,-9.794438362121582,-0.08929875080022917,-0.33162420566024414,-10.612179965006074,1.1183392948537632,5.557193358479396,0.7892742042955441
1730865967.3336196,-1.73723566532135,1.2622041702270508,-9.825244903564453,-0.08852115039509828,-0.3311607965331902,-10.618134629164974,1.1178988180572857,5.548351496131384,0.6943560009519739
1730865967.3837023,-1.73723566532135,1.2622041702270508,-9.825244903564453,-0.08817998986565523,-0.3312137466302866,-10.620223416520382,1.1198311816060942,5.559828363674662,0.9011993301888884
1730865967.3837023,-1.7728885412216187,1.2536513805389404,-9.841352462768555,-0.08831371308432673,-0.3324505909743232,-10.618531803335484,1.1198318460940575,5.559801143379328,0.9010422132557897
1730865967.4336104,-1.7957485914230347,1.2329119443893433,-9.852080345153809,-0.08891077747816117,-0.33556504116806096,-10.61348960955133,1.119843698102232,5.554452437632478,0.8595606131085286
1730865967.4835632,-1.8130037784576416,1.187165379524231,-9.869086265563965,-0.08997664851413557,-0.3410894936305992,-10.605779683469073,1.1212592129462577,5.536081651216861,0.9018254938891165
1730865967.5335834,-1.8130037784576416,1.187165379524231,-9.869086265563965,-0.09156856076116027,-0.3492640242159143,-10.596246219108394,1.1214094359292717,5.5269070736686094,0.8604756015578159
1730865967.5335834,-1.8403993844985962,1.1168467998504639,-9.861696243286133,-0.09378854228308715,-0.35997861903711914,-10.585800261750933,1.1214096540851932,5.526849200643618,0.8601471334424895
1730865967.5836523,-1.8365612030029297,1.1099493503570557,-9.855596542358398,-0.09675913302231824,-0.37277772161643474,-10.575321273835232,1.123742657353572,5.512948488419872,0.9015488117220621
1730865967.6335382,-1.8015090227127075,1.1125519275665283,-9.858222961425781,-0.1005914871987174,-0.3869162275005486,-10.565571723612374,1.1256517185081885,5.495851259201896,0.9011127382002487
1730865967.683565,-1.7416749000549316,1.0947171449661255,-9.853496551513672,-0.10532394610184945,-0.40147166047054894,-10.557144825575154,1.1265225056531323,5.482327716861403,0.859429055849502
1730865967.7336876,-1.707353949546814,1.0896289348602295,-9.870576858520508,-0.11083624432788597,-0.4154789460185514,-10.550448694282974,1.127128698248641,5.46762707502604,0.7905769395558107
1730865967.7836096,-1.6856294870376587,1.0882185697555542,-9.87708854675293,-0.11679537010082702,-0.42803904992395947,-10.545719887653034,1.127443444337383,5.452014387894261,0.6959505406174868
1730865967.833548,-1.6856732368469238,1.1131680011749268,-9.89499282836914,-0.12267970976102889,-0.4384016162077604,-10.543056081925313,1.126680897110892,5.48098249910376,0.9004718953274544
1730865967.8835711,-1.6620116233825684,1.1451038122177124,-9.884458541870117,-0.12786762266844393,-0.4460408314513566,-10.542449951930262,1.1267107413604318,5.473187778950392,0.8582192574048568
1730865967.9334772,-1.6620116233825684,1.1451038122177124,-9.884458541870117,-0.13173835652717697,-0.45071569120248267,-10.54380682279908,1.1288316219182826,5.4572295803481925,0.9004820324476062
1730865967.9334772,-1.6606212854385376,1.1801331043243408,-9.870457649230957,-0.13375298960559945,-0.4524863934926343,-10.546945113475267,1.1288342096113457,5.457179009560808,0.9003589054220686
1730865967.9834714,-1.653437852859497,1.1797866821289062,-9.851520538330078,-0.13351421840435568,-0.45168224935362106,-10.551591641326967,1.1292717408745632,5.444819843309388,0.8585070565594176
1730865968.0334425,-1.6758476495742798,1.1824043989181519,-9.821070671081543,-0.1308061337859937,-0.4488379408011657,-10.557377718365311,1.1293816173520848,5.431297287193535,0.7902267494899273
1730865968.0835173,-1.7237505912780762,1.1566532850265503,-9.81063461303711,-0.12562367126138413,-0.44460320918722646,-10.563839724187657,1.129169115634575,5.4165563863468575,0.6948627274173103
1730865968.1334534,-1.7237505912780762,1.1566532850265503,-9.81063461303711,-0.1182005595984579,-0.43963694533260217,-10.570440538622025,1.1301577403156329,5.443767576791021,0.9014718301695328
1730865968.1334534,-1.7996176481246948,1.1426687240600586,-9.782665252685547,-0.1090162454720077,-0.43451769424141673,-10.57661829199299,1.1301581545503616,5.4437437125693915,0.9013516353176598
1730865968.1835039,-1.8628112077713013,1.1092867851257324,-9.77823543548584,-0.09878070849638745,-0.4296879394433572,-10.581838184687406,1.1301322537277756,5.437545728244326,0.8595627948662744
1730865968.2334023,-1.8628112077713013,1.1092867851257324,-9.77823543548584,-0.08840865836476315,-0.42542241712790885,-10.585631083565495,1.1328097335723664,5.419213367215768,0.9011133952997671
1730865968.2334023,-1.8774480819702148,1.0935637950897217,-9.79169750213623,-0.0789447522924725,-0.42182115243502205,-10.587632581627366,1.1328132771457748,5.419164682101101,0.900992334058759
1730865968.2834685,-1.8534674644470215,1.108945369720459,-9.822172164916992,-0.07142100871857074,-0.41883841147542367,-10.587630746448173,1.1345802044497963,5.39611018223223,0.9011135865013383
1730865968.3333826,-1.7973651885986328,1.1064001321792603,-9.855999946594238,-0.06669071973747454,-0.4163386983416088,-10.585613501453754,1.1355265656111468,5.3799914263719,0.8599414832052987
1730865968.3833833,-1.749116063117981,1.0848197937011719,-9.900351524353027,-0.06527641389544628,-0.41415187785778396,-10.581802639671686,1.1363044699641485,5.362913197366183,0.7926293960698436
1730865968.4334073,-1.6887575387954712,1.0780417919158936,-9.944061279296875,-0.06726059549202881,-0.41210035913205634,-10.576662596029266,1.136921993241247,5.344665787041972,0.6982357909294581
1730865968.4834383,-1.6887575387954712,1.0780417919158936,-9.944061279296875,-0.07225955073790681,-0.4100037174292114,-10.570871178815555,1.135524637002226,5.383737548211863,0.8990143911856309
1730865968.4834383,-1.660573959350586,1.0784896612167358,-9.943114280700684,-0.07949905377291197,-0.4076900233098624,-10.565236578496965,1.1355260430565142,5.383703291995623,0.8988752299382436
1730865968.5333052,-1.660573959350586,1.0784896612167358,-9.943114280700684,-0.08796163142583072,-0.4050194250848136,-10.560571417323102,1.137043820047289,5.3614382932529665,0.9006471340043882
1730865968.5333052,-1.6808581352233887,1.0688133239746094,-9.9386625289917,-0.09655280495443347,-0.40190224311572326,-10.55757190893328,1.1370476038130786,5.361351858994463,0.900429219197259
1730865968.5834394,-1.6925055980682373,1.0484857559204102,-9.91047477722168,-0.10425865496992597,-0.3982977837055714,-10.556733996631902,1.13739731782978,5.349896115199142,0.8596279508285932
1730865968.6333168,-1.7340891361236572,1.0040960311889648,-9.874168395996094,-0.11027985400954199,-0.3941881740435269,-10.558296993578528,1.1391053665862234,5.349075100894842,0.9000548788896675
1730865968.6832635,-1.7513102293014526,0.9668171405792236,-9.831408500671387,-0.11412330827855818,-0.3895310385135962,-10.562203449320343,1.139644379651968,5.339882016609919,0.8586099260088433
1730865968.7332773,-1.7555934190750122,0.9132131338119507,-9.825553894042969,-0.11563590761472417,-0.3842096029905833,-10.568091134094175,1.1398948099122541,5.329762623072343,0.7910011345120732
1730865968.783267,-1.7511773109436035,0.8991687297821045,-9.808719635009766,-0.11496960959748259,-0.3780064134186938,-10.575341813010585,1.139702230885505,5.329821553769902,0.8982947331060742
1730865968.833155,-1.7669599056243896,0.9138646125793457,-9.811017036437988,-0.11249620543539107,-0.3706270280417002,-10.583181702059738,1.1396944273304535,5.320771573786054,0.8560500569382438
1730865968.8833268,-1.7647291421890259,0.9623916149139404,-9.817171096801758,-0.10871652630831377,-0.3617888345447907,-10.590800152084416,1.1394071313057452,5.310727402908862,0.7867348515552736
1730865968.9331322,-1.774051547050476,0.9942019581794739,-9.836055755615234,-0.10418773350142548,-0.35134993205722376,-10.59746137940656,1.1412109547813842,5.311888473179319,0.8982036306141787
1730865968.9830694,-1.7563841342926025,1.0308074951171875,-9.850176811218262,-0.09946219592713404,-0.3394150031791091,-10.602597016956901,1.1412885774720354,5.304224880059874,0.8563574566150279
1730865969.0331802,-1.7418923377990723,1.052126407623291,-9.863423347473145,-0.09502768000067627,-0.32636966520046795,-10.605865697947177,1.141122354735085,5.295628787641886,0.7872968440576222
1730865969.0830772,-1.7634446620941162,1.1164103746414185,-9.859697341918945,-0.09125721198636966,-0.3128491137404102,-10.607167868049926,1.1407229165849857,5.2862747828165215,0.6919449672729697
1730865969.1331055,-1.7613576650619507,1.1499154567718506,-9.857751846313477,-0.08839438742820549,-0.299680879217142,-10.606615073545193,1.1426815260840542,5.290702203670073,0.897842547668919
1730865969.1830616,-1.7668864727020264,1.152148723602295,-9.854114532470703,-0.08657406774852927,-0.2878138870512582,-10.60446929023311,1.14460475882266,5.265292805174454,0.8978753925204948
1730865969.2330203,-1.7597706317901611,1.146106243133545,-9.849930763244629,-0.08584587837725194,-0.2782094351433385,-10.601076874644246,1.1451020142642334,5.252811028176997,0.8555185234385461
1730865969.2830868,-1.7832831144332886,1.1196283102035522,-9.831854820251465,-0.08618859208103832,-0.2716974544785832,-10.596810601938339,1.1463346038303213,5.2492675417866455,0.897587259653926
1730865969.3329446,-1.7911642789840698,1.0579688549041748,-9.824539184570312,-0.08753146768744989,-0.2688352881852801,-10.592019405509172,1.1468629012578728,5.238970769985366,0.855468243227953
1730865969.3830001,-1.793712854385376,1.0126854181289673,-9.833224296569824,-0.08978366076320132,-0.2697946324878372,-10.586992939485349,1.1489345117967904,5.229592786738074,0.8954831801922708
1730865969.432937,-1.7517714500427246,1.0202561616897583,-9.849518775939941,-0.09284400399755315,-0.27430989473235673,-10.581957722478233,1.1496745316902248,5.219289528178451,0.8526002672140431
1730865969.4829564,-1.7155946493148804,1.0792349576950073,-9.881749153137207,-0.09656839725140329,-0.28174211722630893,-10.577106774110351,1.1512512185176422,5.2080309402051785,0.8938588697455422
1730865969.532836,-1.6973638534545898,1.1483683586120605,-9.885079383850098,-0.10071640440316187,-0.2912671178303709,-10.572640388505523,1.152065286253264,5.196068000690866,0.8510373239965604
1730865969.5827827,-1.6990910768508911,1.1914793252944946,-9.90003490447998,-0.10493195280700723,-0.30210790433159207,-10.568786760217915,1.1526242349683746,5.183346683029189,0.7817922132456141
1730865969.6338701,-1.7048535346984863,1.1952179670333862,-9.894710540771484,-0.10878664431038107,-0.3136963224701397,-10.565788739392444,1.1529208848692158,5.169461246969882,0.6830677974337296
1730865969.6838133,-1.7279154062271118,1.140415906906128,-9.889106750488281,-0.11186319143529225,-0.3256948753228931,-10.563867626897736,1.1529306958321872,5.155213172037056,0.5609086916829462
1730865969.7338028,-1.727390170097351,1.0967813730239868,-9.850716590881348,-0.11383869175794119,-0.33789120739201667,-10.563175375375746,1.1527168933744483,5.196269684877968,0.4115122925212075
1730865969.7837937,-1.727390170097351,1.0967813730239868,-9.850716590881348,-0.11453439489426955,-0.35005544805506944,-10.56374430581213,1.1527159695348899,5.191157565107876,0.23676928035887163
1730865969.7837937,-1.7448590993881226,1.0502889156341553,-9.854978561401367,-0.11392186848485529,-0.3618604852207593,-10.565462824502672,1.1527151498336479,5.191125900325681,0.2356968964952868
1730865969.8337355,-1.7205950021743774,1.0371060371398926,-9.837763786315918,-0.11210210198117367,-0.3728788288362345,-10.56809812276989,1.1559611900376168,5.173090698051894,0.03486716662574182
1730865969.8838043,-1.7044275999069214,1.004769206047058,-9.838481903076172,-0.10926466982524294,-0.3826114039450814,-10.571341485959334,1.1568046345326772,5.162250241434484,-0.19392386367362233
1730865969.9337204,-1.6762114763259888,1.0011883974075317,-9.852025985717773,-0.10562513110978491,-0.39053046795173635,-10.574850747753906,1.157376860371304,5.150481801731224,-0.4483297399798296
1730865969.9836867,-1.6579885482788086,0.9812003374099731,-9.872231483459473,-0.10136181723040723,-0.39613639115292676,-10.578299387041866,1.157690945540033,5.137743207083927,-0.7288713223450585
1730865970.0337353,-1.6788157224655151,1.0039273500442505,-9.869159698486328,-0.09658437978059102,-0.3990205388889978,-10.581430655347688,1.15787256809228,5.154754168450127,0.885499378075876
1730865970.0836577,-1.7302862405776978,0.9892690777778625,-9.866273880004883,-0.09135995471187948,-0.39892557764819225,-10.58408660985431,1.1580878869561628,5.147994742369137,0.8429071033002545
1730865970.1336935,-1.7561147212982178,1.0005706548690796,-9.84821891784668,-0.08579249569877422,-0.39578703247685154,-10.586195877187697,1.1610680688836847,5.134866606108561,0.8818808899068787
1730865970.1836424,-1.7367112636566162,1.0267400741577148,-9.844929695129395,-0.08009157447782239,-0.38974659010410173,-10.587736585447116,1.1608610169187872,5.1132849860798295,0.8785484625005133
1730865970.2335315,-1.7292639017105103,1.0034098625183105,-9.847564697265625,-0.07456191039620386,-0.38114471770705677,-10.588704006209044,1.1610791468520734,5.097198820471023,0.8340441646527044
1730865970.283596,-1.7082710266113281,1.0320013761520386,-9.856908798217773,-0.06952460855949182,-0.37048911991884875,-10.58910266326096,1.161117174903947,5.080164920438586,0.7630317680450738
1730865970.3336132,-1.7297741174697876,1.0265306234359741,-9.872505187988281,-0.06523933549425662,-0.3584011987831841,-10.58896119957518,1.160986066397358,5.062171679618163,0.6652397519167988
1730865970.3835676,-1.7297741174697876,1.0265306234359741,-9.872505187988281,-0.06187488358697792,-0.34555969754313964,-10.588352366611208,1.160969563137813,5.108043166555132,0.8770888375602585
1730865970.3835676,-1.73284912109375,1.026072382926941,-9.879054069519043,-0.05952117725844169,-0.3326435730186842,-10.58739925814086,1.160969469562151,5.108021058548451,0.8769628091149957
1730865970.4335475,-1.7507237195968628,1.0402652025222778,-9.899032592773438,-0.058210564113988644,-0.3202781673211791,-10.586265676548505,1.160874727139341,5.102416935245612,0.8340740116267156
1730865970.4835615,-1.7441734075546265,1.067531943321228,-9.886956214904785,-0.057934931236775664,-0.3090062407245446,-10.585142538004737,1.1606339932296306,5.095996820510017,0.7644472656919776
1730865970.5335526,-1.7646288871765137,1.0706843137741089,-9.89332103729248,-0.058659198087608985,-0.2992872959602113,-10.58422892760281,1.1642062817349972,5.094816259547631,0.8755739542616618
1730865970.583584,-1.8092890977859497,1.0768513679504395,-9.85693645477295,-0.06033838670431198,-0.2914999280265806,-10.583698375615413,1.1646938929104755,5.089758294993275,0.8334291811632684
1730865970.6335008,-1.8451093435287476,1.0780317783355713,-9.835271835327148,-0.06295458802098558,-0.28592741330614896,-10.58365224254603,1.1650317022391428,5.083945353668935,0.7646511508028462
1730865970.6835158,-1.8778879642486572,1.068177342414856,-9.794242858886719,-0.06656255543646578,-0.2827338722667927,-10.584071844418428,1.1672028481329004,5.074360171613958,0.8713977031724457
1730865970.7335863,-1.8792659044265747,1.0619271993637085,-9.761591911315918,-0.0713041535457797,-0.2819436985661962,-10.584786690315944,1.1679423920428944,5.066606754803284,0.8282365943249131
1730865970.7835293,-1.8781741857528687,1.0342954397201538,-9.767451286315918,-0.07737083765524512,-0.28342779680715713,-10.585477593076568,1.169752360713302,5.056149307742689,0.8705096463073883
1730865970.8334446,-1.8452465534210205,1.0448501110076904,-9.792409896850586,-0.08492648528970304,-0.2869021544402399,-10.58573402467159,1.1717140036886555,5.042392351114156,0.869594528838862
1730865970.8834481,-1.7909832000732422,1.0523160696029663,-9.833215713500977,-0.09401340758184476,-0.2919545526676729,-10.585165194062043,1.1727672582522517,5.031516845433399,0.826765924855247
1730865970.9334626,-1.7380390167236328,1.0403714179992676,-9.891928672790527,-0.10446142700161623,-0.29810200894674455,-10.583528100652371,1.1735744264049472,5.01987681772359,0.7573270982919548
1730865970.9834626,-1.6841381788253784,1.027842402458191,-9.939653396606445,-0.11582755651183294,-0.3048460180426659,-10.58082900848514,1.1741051991223908,5.007487602976489,0.6614109682436459
1730865971.0333781,-1.598343849182129,1.0370818376541138,-9.97574520111084,-0.12738649183030273,-0.31170301419028545,-10.577367673915447,1.1730536997489265,5.032856672807431,0.8700808373811891
1730865971.083417,-1.5712602138519287,1.0332560539245605,-9.993497848510742,-0.13816744999141783,-0.3182287567322894,-10.573707224113285,1.1731330265854245,5.0275408754218045,0.8279740781134187
1730865971.133399,-1.550557255744934,1.039259433746338,-9.944525718688965,-0.14704237466096098,-0.3240492040920616,-10.570568502127006,1.1758778885479573,5.01526907636356,0.8703304317049322
1730865971.1834455,-1.5575945377349854,1.0153611898422241,-9.915091514587402,-0.15287459407319096,-0.3288815348185221,-10.568663240472459,1.1765250496521193,5.006203945800438,0.8281640727679734
1730865971.233443,-1.6128383874893188,0.9890211224555969,-9.859123229980469,-0.15470275207135864,-0.3325268693527398,-10.568513231964127,1.176787638002099,4.996311377017709,0.7595654864102562
1730865971.283348,-1.700724482536316,0.9786924719810486,-9.800239562988281,-0.15192871674918632,-0.3348385428428271,-10.570316820915322,1.1766677023685423,4.985616734098539,0.6648487860905915
1730865971.3333108,-1.7688379287719727,1.0146944522857666,-9.755945205688477,-0.14448086724568565,-0.33570323731303064,-10.57388863209991,1.1770910507615235,5.004839778787552,0.8702485224521622
1730865971.3833656,-1.8208271265029907,1.02140212059021,-9.763900756835938,-0.1328956713915499,-0.3350689128406631,-10.578681866910095,1.1800855134431223,4.986954372291225,0.8705347764399534
1730865971.433279,-1.8217395544052124,1.0340009927749634,-9.765320777893066,-0.11826479513423502,-0.3329947129344757,-10.583902850491071,1.1809151745482889,4.977287550406606,0.8284806396464011
1730865971.48329,-1.782911777496338,1.0537012815475464,-9.80487060546875,-0.10204592921652836,-0.32967365589658715,-10.58868843739141,1.185139096186547,4.971470418346856,0.8703326942323235
1730865971.5332751,-1.7525897026062012,1.0612386465072632,-9.85537052154541,-0.08578887945949956,-0.3254212670423054,-10.592290574242972,1.187098053262609,4.961440606299178,0.828093561431879
1730865971.5832372,-1.7406247854232788,1.1116029024124146,-9.87990665435791,-0.07087091419053582,-0.32065231481632334,-10.594225643833145,1.1888570296647902,4.950629624423303,0.7595497293836021
1730865971.633259,-1.770524501800537,1.115897536277771,-9.90289306640625,-0.05833503929519694,-0.3158601415489499,-10.594351293217393,1.1904636889576605,4.938959183711877,0.6640240956961144
1730865971.683197,-1.7900440692901611,1.1545110940933228,-9.899785995483398,-0.048861658784884465,-0.31159331631165765,-10.592850522849838,1.188462994486937,4.962603325052252,0.8704960212619646
1730865971.7331789,-1.8505797386169434,1.163799524307251,-9.896068572998047,-0.04283368510835408,-0.30841865672667745,-10.590143404315572,1.1898508233870368,4.946654825487313,0.8707021635314381
1730865971.783353,-1.8653908967971802,1.1624170541763306,-9.862640380859375,-0.04043320566189062,-0.30687109761757386,-10.586763392108594,1.1906436270269734,4.938192960896995,0.8283447154359359
1730865971.8332534,-1.84821355342865,1.119704008102417,-9.858514785766602,-0.041710817500767466,-0.3073852792292623,-10.583231360554873,1.191329191383903,4.929013721911625,0.7597982827817383
1730865971.8832345,-1.8270213603973389,1.114829421043396,-9.805334091186523,-0.04658661985677148,-0.31021062810129346,-10.579954867798712,1.1919051023325062,4.9190596705647565,0.6648395995859846
1730865971.9334147,-1.793975830078125,1.0453251600265503,-9.822367668151855,-0.05480042317613156,-0.3153404744835242,-10.577167953896097,1.191718170742331,4.935292558271714,0.8703941013617469
1730865971.9832606,-1.7209333181381226,1.0137131214141846,-9.828447341918945,-0.06586030893204375,-0.32247560636163697,-10.574926640543643,1.1920628040015366,4.930381005431411,0.8283455020201538
1730865972.0332992,-1.7209333181381226,1.0137131214141846,-9.828447341918945,-0.07901796023532812,-0.33103186431725606,-10.573162482598363,1.194340412152872,4.917608274198009,0.8706443879448366
1730865972.0332992,-1.6012029647827148,0.9719731211662292,-9.870986938476562,-0.09328469165306649,-0.3402099404198822,-10.57175925881397,1.1943458489140735,4.917559429279568,0.8704824536673337
1730865972.0832047,-1.5673483610153198,0.9927900433540344,-9.874567985534668,-0.10747422013252561,-0.3491095024335639,-10.570622203646796,1.1951797970964861,4.908439966451667,0.8285916945044244
1730865972.133241,-1.5617990493774414,1.0194441080093384,-9.915316581726074,-0.12026727938012369,-0.3568555371393846,-10.569730159278208,1.1964061928245355,4.903581361155148,0.8719539400420022
1730865972.1831715,-1.576568603515625,1.0584110021591187,-9.886327743530273,-0.13034237161806717,-0.3627331416443337,-10.569154287745857,1.197087606387754,4.894523616969224,0.8307751739009611
1730865972.2332606,-1.631142258644104,1.0728533267974854,-9.91388988494873,-0.13657246909852577,-0.3663047403590518,-10.569033602967579,1.197441840780392,4.88441405586895,0.7623107554118698
1730865972.283102,-1.7173388004302979,1.079965353012085,-9.86382007598877,-0.13822682596286012,-0.36746007019667737,-10.569521096859242,1.1979134580067863,4.89288652608692,0.870881046944486
1730865972.3331964,-1.82231605052948,1.1077828407287598,-9.826631546020508,-0.13513638688169496,-0.3663898036568122,-10.570714352508965,1.1979775558876542,4.887289155528294,0.8285518623492444
1730865972.383157,-1.82231605052948,1.1077828407287598,-9.826631546020508,-0.12777738950867112,-0.36351875657050076,-10.572585288843008,1.2013743444982532,4.875553974505204,0.8708473745224145
1730865972.383157,-1.8533849716186523,1.1184059381484985,-9.800682067871094,-0.11720718589451609,-0.3594273506119283,-10.574950408581994,1.2013818592013046,4.875494503265859,0.8706473869727397
1730865972.4330823,-1.8533849716186523,1.1184059381484985,-9.800682067871094,-0.1048597360531684,-0.3547672423361093,-10.577499960654464,1.20232996494223,4.866515270309042,0.8287672517160464
1730865972.4330823,-1.8954871892929077,1.0949914455413818,-9.761144638061523,-0.09230428621141445,-0.35017635573448097,-10.57984991592278,1.202335834545622,4.866447637910187,0.8283720280644521
1730865972.4830406,-1.8954871892929077,1.0949914455413818,-9.761144638061523,-0.08105320289989237,-0.34619948747973767,-10.581584987169038,1.2030480243878066,4.856668449851867,0.7607170004094657
1730865972.4830406,-1.8989217281341553,1.0262970924377441,-9.779446601867676,-0.07242542827622996,-0.3432190006602125,-10.582300754383542,1.2030526361706224,4.856591644035714,0.7601099561001566
1730865972.5331557,-1.8989217281341553,1.0262970924377441,-9.779446601867676,-0.06744274023349758,-0.34139975124759014,-10.581664289780882,1.2035894208119629,4.845796038724172,0.6648006409357945
1730865972.5331557,-1.8536771535873413,1.0082930326461792,-9.78778076171875,-0.06675243473641955,-0.3406684539485205,-10.579475815502217,1.2035930615273596,4.845705460818601,0.66392359829712
1730865972.5831227,-1.783974289894104,1.004658818244934,-9.84261703491211,-0.0705673974618275,-0.34075191174769154,-10.575705966918967,1.203550331978345,4.864576864491428,0.8729436515369993
1730865972.6330674,-1.783974289894104,1.004658818244934,-9.84261703491211,-0.07862487446250725,-0.3412561962528893,-10.570518090381455,1.2080703765532923,4.838128949809553,0.8713650586130541
1730865972.6330674,-1.7528783082962036,1.0574264526367188,-9.855023384094238,-0.09021169500255687,-0.34175910618254224,-10.564267632853904,1.2080920777718582,4.837986762537379,0.8711335106328704
1730865972.6830595,-1.7528783082962036,1.0574264526367188,-9.855023384094238,-0.10427896798760414,-0.34191037094240573,-10.557452710541842,1.2100510157430302,4.826619730580761,0.8759930086436244
1730865972.6830595,-1.7219197750091553,1.080628514289856,-9.910914421081543,-0.11959600229882211,-0.34151081942933714,-10.550641707785235,1.2100665460203985,4.826511834943458,0.8757954296077132
1730865972.7331333,-1.7219197750091553,1.080628514289856,-9.910914421081543,-0.13489112828232017,-0.34053436672251414,-10.5444256664435,1.2119366037822041,4.8119225829439145,0.836670393479726
1730865972.7331333,-1.704637885093689,1.1132997274398804,-9.919187545776367,-0.14896652453449793,-0.33910465765372555,-10.539387222075025,1.21195078164237,4.811797433736358,0.8362342945294723
1730865972.7830756,-1.6880874633789062,1.1303209066390991,-9.951221466064453,-0.16078664624853994,-0.3374628616172204,-10.53605597396873,1.2134410603379153,4.796477121876378,0.7713050514217675
1730865972.8330402,-1.6880874633789062,1.1303209066390991,-9.951221466064453,-0.1695365230207888,-0.3359367689636283,-10.534864881734515,1.2145381600350444,4.780129006508278,0.6793264821285847
1730865972.8330402,-1.6892642974853516,1.1353075504302979,-9.929433822631836,-0.17465688214225553,-0.33489555895087564,-10.536118705761966,1.21454499449064,4.779999174848985,0.6785114953698856
1730865972.8830557,-1.6892642974853516,1.1353075504302979,-9.929433822631836,-0.17586637763949936,-0.3346898724673433,-10.539954788990322,1.2152008406080146,4.7630008912244985,0.5613860231843406
1730865972.8830557,-1.6928538084030151,1.1137971878051758,-9.93874454498291,-0.17316496151536176,-0.33559561311187047,-10.546311776814196,1.215204152932901,4.762869434760158,0.5604034739771042
1730865972.9329422,-1.6928538084030151,1.1137971878051758,-9.93874454498291,-0.16681159775858323,-0.33776926104444516,-10.554941980702235,1.2102334771207113,4.822472436901393,0.8762686766318467
1730865972.9329422,-1.7044410705566406,1.0738990306854248,-9.894899368286133,-0.15728256374914457,-0.34121698209626045,-10.565450551979804,1.2102332705634016,4.8224447201698455,0.8760599193200471
1730865972.9829872,-1.7044410705566406,1.0738990306854248,-9.894899368286133,-0.1452202917225906,-0.34578181741374386,-10.577319929807654,1.2100252683693855,4.818404304648819,0.8356913514306366
1730865972.9829872,-1.7288248538970947,1.0470776557922363,-9.854463577270508,-0.13138002367403076,-0.35115340155325536,-10.58992308611666,1.2100223445952782,4.818370682993625,0.8352886963849341
1730865973.0330038,-1.7288248538970947,1.0470776557922363,-9.854463577270508,-0.1165793425857449,-0.35690352355265453,-10.602552539899543,1.2094890245701428,4.81346192128761,0.7686361898509154
1730865973.0330038,-1.782965898513794,1.0143132209777832,-9.822835922241211,-0.10165601743276534,-0.36253664436043864,-10.614468029623055,1.209483808187082,4.813420745725689,0.768022059997944
1730865973.082945,-1.782965898513794,1.0143132209777832,-9.822835922241211,-0.08743894640725866,-0.3675379989342885,-10.624952068339255,1.2138739383775405,4.805679516328232,0.8781015471471271
1730865973.082945,-1.8363450765609741,1.0109021663665771,-9.767317771911621,-0.0747257152823084,-0.3714184109648872,-10.633358749127922,1.2138812029238193,4.805626532701064,0.8778825825594364
1730865973.132889,-1.8869452476501465,0.9894759058952332,-9.760782241821289,-0.06426363782834478,-0.3737601098717085,-10.639140103158832,1.2146921809290718,4.7986713819745415,0.8379166797097177
1730865973.1829495,-1.8473352193832397,1.0347927808761597,-9.739604949951172,-0.056730911587615576,-0.37425802920996976,-10.641858068915436,1.2153619963689692,4.790703153773568,0.7709764720257927
1730865973.232936,-1.816389560699463,1.0465000867843628,-9.774761199951172,-0.05267576274807867,-0.3727630180721788,-10.641212129265103,1.2160604145353924,4.792284901147834,0.8786228208538737
1730865973.2828844,-1.816389560699463,1.0465000867843628,-9.774761199951172,-0.05240620168788878,-0.3693222709077537,-10.637092384239496,1.2186442216604894,4.776296514210419,0.8792562708762656
1730865973.2828844,-1.783855676651001,1.0769073963165283,-9.79489803314209,-0.05591010082822792,-0.36418272027430076,-10.629628228312127,1.2186530814812295,4.776227668654727,0.8790297668294096
1730865973.3328242,-1.783855676651001,1.0769073963165283,-9.79489803314209,-0.06285292346364492,-0.3577556720239532,-10.619196713298981,1.2196725578439738,4.767255332235767,0.8377833751570456
1730865973.3328242,-1.7646828889846802,1.053520679473877,-9.82564926147461,-0.07262840935324742,-0.3505612262985549,-10.606388861802493,1.2196801247985103,4.767179635361924,0.8373457904671732
1730865973.3828576,-1.7646828889846802,1.053520679473877,-9.82564926147461,-0.08443710728217094,-0.3431488103640655,-10.591956471970226,1.2205159950618305,4.757346570286362,0.7698326516245363
1730865973.3828576,-1.7351040840148926,1.0145779848098755,-9.854711532592773,-0.0973743680029767,-0.3360081248959397,-10.576752074119664,1.220521501781003,4.75726930852402,0.7692253206257158
