Timestamp,IMU_Linear_Acc_X,IMU_Linear_Acc_Y,IMU_Linear_Acc_Z,Filtered_X,Filtered_Y,Filtered_Z,Pose_X,Pose_Y,Pose_Z
1731474160.7696915,-0.31146132946014404,0.49782794713974,-9.991044998168945,0.0,0.0,-9.424107032678735e-06,1.274999976158142,7.684999942779541,0.8870000187848801
1731474160.7696915,-0.27925825119018555,0.5191643238067627,-9.976333618164062,2.893401969689777e-08,-1.917043884962928e-08,-8.32565476460083e-05,1.2749999761581468,7.6849999427795375,0.887000018585815
1731474160.8196826,-0.26903486251831055,0.5131709575653076,-9.989280700683594,2.64841523322355e-07,-1.6400169667474141e-07,-0.00037093952171319487,1.274999976484658,7.684999942577312,0.8869995440383978
1731474160.8696597,-0.26903486251831055,0.5131709575653076,-9.989280700683594,1.2203484718622388e-06,-7.07195415810759e-07,-0.001137789735720926,1.2797185898051349,7.684999941836516,0.886998461275562
1731474160.8696597,-0.2614664137363434,0.5186227560043335,-10.001703262329102,3.862992810202338e-06,-2.108214379797242e-06,-0.0027533925439313326,1.2797240957708425,7.684999941828546,0.8869984482260138
1731474160.9207711,-0.2614664137363434,0.5186227560043335,-10.001703262329102,9.626446645561152e-06,-4.996127658976852e-06,-0.005670886642397158,1.2810367126383855,7.684999933387803,0.8869879109387124
1731474160.9207711,-0.2740640342235565,0.5009732246398926,-9.956851959228516,2.0359293026699428e-05,-1.0143530948393723e-05,-0.010408049548446228,1.2810422890591193,7.684999933323967,0.8869878344428838
1731474160.9705622,-0.274027019739151,0.5083372592926025,-10.000702857971191,3.82186674531227e-05,-1.839682312750928e-05,-0.01753001969004897,1.279423839668197,7.684999917898927,0.8869755648699453
1731474161.02048,-0.274027019739151,0.5083372592926025,-10.000702857971191,6.553196418180401e-05,-3.058904685553061e-05,-0.02763370069764242,1.2841753070035933,7.68499988408562,0.8869455863620622
1731474161.02048,-0.2422710508108139,0.5382094979286194,-10.02502155303955,0.00010472036332602426,-4.7532438553284045e-05,-0.04133392121515367,1.284186532886862,7.684999883582166,0.8869451259316209
1731474161.070523,-0.2966766655445099,0.5066756010055542,-9.966814994812012,0.0001583018224859714,-7.00983442204488e-05,-0.05925111825724427,1.2862658629384465,7.684999703770168,0.8867866703887716
1731474161.1204453,-0.24885393679141998,0.5543649792671204,-9.974495887756348,0.00022885536908625616,-9.92912641625673e-05,-0.08200021108490313,1.2883664336286142,7.684999310426772,0.8864500792815809
1731474161.1704516,-0.24885393679141998,0.5543649792671204,-9.974495887756348,0.0003189623520750249,-0.00013632097048841594,-0.11018063187258578,1.290456736768913,7.684998625838386,0.8858760051318105
1731474161.1704516,-0.2737577557563782,0.5325854420661926,-10.017370223999023,0.00043123050459593784,-0.00018270266804261144,-0.1443677177112303,1.2904688895732739,7.684998620867123,0.885871866605541
1731474161.2202854,-0.2737577557563782,0.5325854420661926,-10.017370223999023,0.0005682772551603819,-0.00024025101873748075,-0.18510551344086731,1.283824674737988,7.684999533843467,0.8866743934150949
1731474161.2202854,-0.2906055152416229,0.5151991844177246,-9.989680290222168,0.0007325736552034721,-0.00031091524808389586,-0.2329007163568694,1.2838262622906322,7.684999529714878,0.8866711724329516
1731474161.2703397,-0.3137006163597107,0.5183002948760986,-9.986680030822754,0.0009262475060751497,-0.0003965884770245577,-0.28821743279112877,1.2840987548490739,7.684998334189484,0.8857645847810667
1731474161.3202085,-0.3137006163597107,0.5183002948760986,-9.986680030822754,0.001150893402731543,-0.0004989811121179613,-0.35147269327024344,1.2811612062368,7.684998918791097,0.8862546829092859
1731474161.3202085,-0.3133438229560852,0.5345419645309448,-10.003192901611328,0.0014074281090734157,-0.0006195853655706986,-0.42303288133911554,1.2811571416462668,7.684998908046085,0.8862470105210686
1731474161.370244,-0.3098906874656677,0.528404951095581,-10.000290870666504,0.0016960660446254227,-0.0007597262196307501,-0.5032111065341952,1.2823984781726536,7.684998426761379,0.8859620082631349
1731474161.4202275,-0.33454248309135437,0.49304723739624023,-9.936529159545898,0.0020163716074164946,-0.0009205937857182825,-0.5922653125646564,1.2826543145554377,7.684994945761435,0.883656477655794
1731474161.470167,-0.3619610667228699,0.5299280881881714,-10.047443389892578,0.0023672464898436456,-0.0011031662386655793,-0.6903969588495864,1.282912490059962,7.684988997585563,0.8797883157703608
1731474161.5199888,-0.36124423146247864,0.5293492674827576,-9.995766639709473,0.002746802430032269,-0.0013081487140890503,-0.7977504376933118,1.2831784238371247,7.6849800189716575,0.874048908586038
1731474161.570011,-0.3769206404685974,0.5511707663536072,-9.91990852355957,0.0031522367546635392,-0.001536073844617277,-0.9144131547365224,1.283643241959485,7.629579710669636,0.8842758703702366
1731474161.6198852,-0.3769206404685974,0.5511707663536072,-9.91990852355957,0.003579810775990764,-0.001787480847166285,-1.040415781649055,1.2839312102863352,7.618353095322642,0.8795294510441658
1731474161.6198852,-0.3783719837665558,0.543317973613739,-9.976374626159668,0.004024909972203531,-0.002063032311281381,-1.1757327723402478,1.283932810260327,7.618291664130242,0.8794963496170447
1731474161.6698837,-0.24439649283885956,0.7247949242591858,-9.980547904968262,0.004482275456048162,-0.0023636821684199835,-1.3202836959741147,1.284229522884721,7.607109946089835,0.8718347185302275
1731474161.7198694,0.5133981704711914,1.6614665985107422,-9.919093132019043,0.004947292094445695,-0.002692072111235265,-1.473935256586413,1.283786534288194,7.570943678166433,0.8828093612593171
1731474161.769799,0.2999531030654907,1.1952157020568848,-10.016883850097656,0.0054191845915208415,-0.003056120570194303,-1.6365034915706347,1.2839224716297515,7.5530783993888715,0.8755037137951076
1731474161.8197489,0.4892212450504303,1.505788803100586,-9.938413619995117,0.005904402929823778,-0.003472399524838863,-1.8077561540182827,1.2840730386472006,7.535141583647588,0.8638689216057663
1731474161.8706505,-0.516516387462616,-0.022402653470635414,-9.965340614318848,0.006416904901053589,-0.003965345465374328,-1.9874153675731143,1.2839253587919928,7.500077514797081,0.8800923068843531
1731474161.9206002,-0.9550522565841675,-0.21024510264396667,-10.16689682006836,0.006973751967692178,-0.004560899241673439,-2.175160572910591,1.283875527655107,7.4301823238195,0.8800474724429114
1731474161.9705899,-0.7593311667442322,-0.04050649330019951,-10.03207015991211,0.007588064728812737,-0.0052778314111494385,-2.3706320197627857,1.2839375516149898,7.395316998324258,0.8688428327396798
1731474162.0203743,-0.5015047788619995,0.2697582244873047,-10.028075218200684,0.008264544642912784,-0.006123182257393381,-2.573434374809748,1.283598059398247,7.344346550978078,0.877574400560438
1731474162.0706327,-0.6376875638961792,0.10086476802825928,-9.939265251159668,0.009000025683775791,-0.007093696010102083,-2.783139643001248,1.2835596905465758,7.303688164513788,0.8636203139310663
1731474162.1203902,-0.4812456965446472,0.29825708270072937,-9.977543830871582,0.00978600968823259,-0.0081790168913917,-2.9992896557863626,1.283545381220837,7.26353534467795,0.8425928850712489
1731474162.1703827,-0.5795964598655701,0.24074093997478485,-9.958183288574219,0.010610378417873916,-0.009363822274850546,-3.2213988389046566,1.283556313716771,7.223664401072766,0.814058743525866
1731474162.2203078,-0.5795964598655701,0.24074093997478485,-9.958183288574219,0.011458286702667554,-0.010629214919281508,-3.448957399186491,1.283152964426685,7.322948518118048,0.8732685893903451
1731474162.2203078,-0.508014976978302,0.46040502190589905,-9.957934379577637,0.01231270361071744,-0.011953873369787964,-3.681434680773231,1.2831526990115012,7.322883406389544,0.8732021637532525
1731474162.2702415,-0.508804440498352,0.4490143060684204,-9.982624053955078,0.013154977666107199,-0.013315374036441154,-3.918282537922904,1.2831119654717762,7.308897672011911,0.8541227162135238
1731474162.320172,-0.48865872621536255,0.4541880786418915,-9.978496551513672,0.013965616325811414,-0.01469168532791338,-4.1589387463179674,1.2831045857257026,7.294762159074206,0.824853035698567
1731474162.370213,-0.5410983562469482,0.4174778163433075,-9.919493675231934,0.014724934942724656,-0.016062060830130797,-4.402830339833531,1.282753465439503,7.306485098580583,0.8727660187648394
1731474162.4201007,-0.47556886076927185,0.47924375534057617,-9.938119888305664,0.015413384201321044,-0.01740718802779275,-4.649376666585406,1.2827198986881398,7.29682871475339,0.8500149482733174
1731474162.47022,-0.47460830211639404,0.529241681098938,-10.030539512634277,0.016011823619428517,-0.0187092782173561,-4.897992344248687,1.2827256142808958,7.2871355937817395,0.8153580280852915
1731474162.5199964,-0.4850676357746124,0.5224998593330383,-9.974165916442871,0.01650191271442266,-0.01995243726770276,-5.148090463813936,1.2818425787741066,7.281522344801356,0.8673558447473281
1731474162.5699408,-0.48955443501472473,0.4771479666233063,-9.996931076049805,0.016866420474717914,-0.021122981598482273,-5.39908581156657,1.2816603412290895,7.271340700395631,0.8394472261288758
1731474162.6199024,-0.4665283262729645,0.4885329604148865,-9.979948997497559,0.017089344916626194,-0.022209341032398452,-5.650397692541755,1.2811672763170519,7.253912244840699,0.8650129602048057
1731474162.669962,-0.46965348720550537,0.5105751752853394,-9.998185157775879,0.01715601951691749,-0.02320174952564667,-5.901452452702562,1.279746155603579,7.2258037014761225,0.8660569165685478
1731474162.7198188,-0.4509274959564209,0.5246589779853821,-10.004263877868652,0.017053283296110246,-0.024092115165859962,-6.1516859241413275,1.27907513605847,7.206833597579081,0.8351146922770089
1731474162.7698064,-0.4414564073085785,0.5083518624305725,-9.974061965942383,0.016769650472723614,-0.024874066496108873,-6.400545767588701,1.278447678959198,7.187840430650423,0.7885677937209301
1731474162.8197534,-0.41812509298324585,0.5166147947311401,-9.975350379943848,0.01629547112295388,-0.025542935452746086,-6.6474935818017755,1.2787733257696958,7.150950653451587,0.8584580599252563
1731474162.8696876,-0.38708367943763733,0.5227304100990295,-9.974908828735352,0.015623115486617422,-0.026095630081283627,-6.89200676991406,1.2784760262931032,7.130178541191777,0.8216202071443771
1731474162.9196005,-0.36882284283638,0.5231413841247559,-9.979649543762207,0.014747190467451765,-0.026530514118158405,-7.133580298106329,1.275780244834005,7.065917970548637,0.8577010917245981
1731474162.970591,-0.3273898661136627,0.5379171371459961,-10.020581245422363,0.013664760230229797,-0.026847331621554827,-7.371728434089803,1.274702170565496,7.030485407398099,0.8177337539527627
1731474163.0204976,-0.3707225024700165,0.505232036113739,-9.976547241210938,0.012375486640040788,-0.027047120704451824,-7.605986424439071,1.2736777866279152,6.995671217011119,0.7596806461935731
1731474163.070438,-0.3476724922657013,0.5362069010734558,-9.949875831604004,0.01088156100111797,-0.027132067342389266,-7.835911912798787,1.272685322353983,6.960893173505501,0.6826289716714597
1731474163.1203568,-0.3835640251636505,0.5246970653533936,-9.991329193115234,0.009187417557356772,-0.027105349031903637,-8.061085992175235,1.2736480312035614,6.997661421338143,0.850440832726132
1731474163.1703653,-0.3614824414253235,0.5287243723869324,-9.99287223815918,0.007299377755806324,-0.026971036640581914,-8.28111415574742,1.2730848784336335,6.977673595591645,0.8048331177159119
1731474163.2202575,-0.377625972032547,0.5039097666740417,-9.963214874267578,0.005225343260683565,-0.026733986496007542,-8.495627293581881,1.270591815597328,6.922301405670847,0.8514475043758466
1731474163.2702463,-0.3766827881336212,0.5053097605705261,-10.006082534790039,0.002974552663625859,-0.02639964609819468,-8.70428252316615,1.2693918991977404,6.889567217496744,0.8048642606245121
1731474163.3201778,-0.37935033440589905,0.516689121723175,-9.970401763916016,0.0005573634602753272,-0.02597384566771881,-8.906763799819487,1.2678071504658603,6.831348791326058,0.8494994369439376
1731474163.3702471,-0.40080633759498596,0.4964871406555176,-10.002296447753906,-0.0020149732154524794,-0.02546267364747727,-9.102782403550613,1.2662948741912972,6.783724588625255,0.8003680047379989
1731474163.4201424,-0.38300633430480957,0.5083088278770447,-10.015450477600098,-0.00473054357161469,-0.024872402970801014,-9.292077317170948,1.2647750664231376,6.736066129226477,0.7282342214444202
1731474163.470025,-0.443865567445755,0.4779611825942993,-10.014248847961426,-0.007577008589990147,-0.02420939010459633,-9.474415526850116,1.2660500473904976,6.81224068168252,0.8444590523866038
1731474163.5200374,-0.3783123791217804,0.5307408571243286,-9.943964958190918,-0.010541844235206502,-0.023479976942436843,-9.649592130917197,1.265174192550678,6.793661394161457,0.7911834873536853
1731474163.569949,-0.4149475693702698,0.529784619808197,-9.995633125305176,-0.013612490472330948,-0.022690514846007006,-9.817430090846784,1.2648221564207767,6.78495987217748,0.8451603527006235
1731474163.6199312,-0.4006003737449646,0.5575022101402283,-9.984058380126953,-0.016776371358135703,-0.021847540079408027,-9.977779831283115,1.2637311499115473,6.771016408406444,0.8491449833601176
1731474163.6698508,-0.4396592080593109,0.5405032634735107,-9.956144332885742,-0.0200209502787171,-0.02095795144380897,-10.130518916615628,1.2628588278520927,6.755591030370421,0.7965699840207955
1731474163.719805,-0.4295702874660492,0.5543187260627747,-9.9859037399292,-0.02333390911459217,-0.02002905637846359,-10.275551656459463,1.2619273390595334,6.740026354359272,0.7181960707769395
1731474163.7697442,-0.42668965458869934,0.5741111636161804,-9.961564064025879,-0.02670333016025189,-0.019068531248237514,-10.412808565855869,1.2609385820782264,6.724495375883519,0.6145178190268773
1731474163.8196783,-0.4360142648220062,0.5671287775039673,-9.956544876098633,-0.030117769827230356,-0.018084407742615556,-10.542245759889333,1.2622746173611652,6.72399831866008,0.836691535629924
1731474163.8696399,-0.4315682351589203,0.557338535785675,-9.982433319091797,-0.033566263162636736,-0.017085056717160943,-10.663844265557174,1.2616604312145923,6.710612502818752,0.776340524900582
1731474163.9195507,-0.42473089694976807,0.5397765636444092,-10.009066581726074,-0.03703832368814827,-0.016079053455529662,-10.7776093326503,1.2609549410242316,6.697128093962024,0.6888011700292839
1731474163.9695463,-0.42673540115356445,0.5290296673774719,-9.97465991973877,-0.040523918691355826,-0.01507492814825647,-10.883569799939966,1.2608661237321772,6.674475550097438,0.8367507933282232
1731474164.0205133,-0.41879597306251526,0.5388911366462708,-9.974834442138672,-0.044013419837789114,-0.01408091666893867,-10.981777310678652,1.2600898760511416,6.656297182573453,0.7733420329939851
1731474164.070491,-0.38974595069885254,0.5596628785133362,-10.005626678466797,-0.0474975339094834,-0.013104837868909822,-11.072305304736183,1.2592131711035903,6.638454720749509,0.6831930079170219
1731474164.1204576,-0.38974595069885254,0.5596628785133362,-10.005626678466797,-0.050967171717457994,-0.012154138851961555,-11.155248016569832,1.259035505498105,6.626971866117188,0.8348566236219016
1731474164.1204576,-0.38453778624534607,0.5208667516708374,-9.979079246520996,-0.054413298026626755,-0.011235962688703586,-11.230719526705473,1.2590323398006058,6.626906335290841,0.8346594133765127
1731474164.1704335,-0.3518224358558655,0.524154782295227,-9.996140480041504,-0.0578268375311439,-0.010357049060045429,-11.298852675821399,1.2581671281786124,6.5778725026024985,0.8498679123992945
1731474164.2203336,-0.34355854988098145,0.5191760063171387,-10.006608963012695,-0.06119858178732919,-0.009523520170212059,-11.359797868215587,1.2573065065229707,6.5526112416782425,0.7946296784097657
1731474164.270315,-0.3270731568336487,0.5440074801445007,-9.949302673339844,-0.06451905741307425,-0.00874076820170059,-11.413721886411746,1.2565211914761742,6.522499826720545,0.8422023818757269
1731474164.3202639,-0.3096349239349365,0.5479848384857178,-10.00139331817627,-0.06777842159828258,-0.008013525020390447,-11.460806642269139,1.2554660416553518,6.496407590978266,0.7807190385240149
1731474164.3701947,-0.3083556592464447,0.5252760648727417,-10.021833419799805,-0.07096641447677138,-0.007345995658118379,-11.501247940726756,1.2542433672933264,6.470423672820319,0.6909565630008931
1731474164.4201214,-0.32990550994873047,0.5256478190422058,-9.975671768188477,-0.07407239665291737,-0.006741886775858852,-11.535254410156778,1.252837379281602,6.444365993385301,0.5723049490513132
1731474164.4701505,-0.3092363774776459,0.5399481058120728,-9.969268798828125,-0.0770855134485336,-0.006204337226692213,-11.563046367943528,1.2557615329223533,6.480755272190648,0.8314709302295149
1731474164.520042,-0.2887982428073883,0.5596032738685608,-9.972800254821777,-0.0799948733171614,-0.005735927885187176,-11.584854454183057,1.2550273830443772,6.46591431692852,0.7649733575770468
1731474164.5699935,-0.3595009446144104,0.7189980745315552,-9.982955932617188,-0.08278965921570536,-0.005338973118481917,-11.600918286737695,1.2543065594476115,6.435441922138037,0.8358303992579552
1731474164.6199439,-0.6427477598190308,1.415651559829712,-9.925313949584961,-0.08545961870959451,-0.005016853571708102,-11.611485253354411,1.2532199085147484,6.413627216810355,0.7707812543909915
1731474164.6699345,-0.6165494918823242,0.5551245808601379,-9.866538047790527,-0.08799642084829573,-0.004776447983733873,-11.616809189615887,1.251930245693042,6.392053106198123,0.6776110232972214
1731474164.719879,-1.4786083698272705,0.4926488995552063,-10.089213371276855,-0.09039595053952416,-0.004628673052735077,-11.617149022233228,1.2533830349219708,6.4028750766370575,0.8316612672872375
1731474164.7698503,-0.5003513693809509,0.51936936378479,-9.853687286376953,-0.09266092509438151,-0.004585494946560849,-11.612767832661953,1.2525379302381496,6.390363475280357,0.7652342697960042
1731474164.8198128,0.04512631148099899,0.05102386325597763,-10.057523727416992,-0.09480067417854629,-0.004656436468852913,-11.60393212683125,1.2518574709529824,6.362683495616845,0.8348259087445
1731474164.869673,0.020476045086979866,0.24266284704208374,-10.213884353637695,-0.09682593018234553,-0.004846399286789847,-11.590911159266772,1.2507114873964271,6.344603589905476,0.7704715824792423
1731474164.9197352,-0.06659018248319626,0.2546806335449219,-9.995284080505371,-0.09874300818367067,-0.005154446771491141,-11.573976696505708,1.2506656049860574,6.316868663375381,0.835150814470831
1731474164.9696233,-0.22866807878017426,0.2495405673980713,-9.991610527038574,-0.10055218590179127,-0.0055740387121039495,-11.553402440539188,1.2494663572013214,6.293217748542743,0.7708799894752041
1731474165.0195842,-0.17199070751667023,0.28089892864227295,-9.977840423583984,-0.10224925100946843,-0.006094230626032235,-11.529462374877472,1.248005649030449,6.269399293843856,0.6773176790914878
1731474165.0705101,-0.17834487557411194,0.4154818058013916,-9.964560508728027,-0.10382728405134001,-0.00670082867549469,-11.502428978809363,1.249826811623949,6.278671825348865,0.8308063398137718
1731474165.1204085,-0.16542883217334747,0.4964807629585266,-9.969206809997559,-0.10527756553636093,-0.007377712687018441,-11.472572014858375,1.2488771004090276,6.263817077639976,0.7646206627237991
1731474165.1703877,-0.23587629199028015,0.5165247917175293,-9.943984985351562,-0.10659000106392097,-0.008108415459145708,-11.440157613125175,1.2493489507231066,6.232345578118481,0.8351788199963246
1731474165.220306,-0.22092512249946594,0.4952094256877899,-9.973434448242188,-0.10775365559188743,-0.00887733461616741,-11.4054474510083,1.2484270701754314,6.210936270034706,0.7711210326249438
1731474165.2703137,-0.2323492467403412,0.5198451280593872,-9.967941284179688,-0.10875737907208102,-0.009670223200917104,-11.368698060480483,1.2472357986968199,6.189527152146222,0.6786908245839784
1731474165.3203123,-0.25136658549308777,0.5174309611320496,-9.953958511352539,-0.1095902722752627,-0.010474248154528415,-11.330160252662102,1.2457607293368986,6.16794215795643,0.5569790316387759
1731474165.37022,-0.22930991649627686,0.5732638835906982,-9.989588737487793,-0.11024198839517062,-0.01127802953708654,-11.290078573702116,1.2440323418732757,6.146614938799504,0.408803808266157
1731474165.4201612,-0.27895158529281616,0.5520592331886292,-10.02342414855957,-0.11070296671241235,-0.012071785100421832,-11.248690853090046,1.2487726265727348,6.17904717250208,0.8280142621248602
1731474165.4701998,-0.257144570350647,0.5125899314880371,-9.987648010253906,-0.11096465269782677,-0.012847404228520012,-11.206227918470928,1.2488118754158266,6.129180308844715,0.8413192045217993
1731474165.520094,-0.257144570350647,0.5125899314880371,-9.987648010253906,-0.11101968896466721,-0.013598234940445722,-11.162913262383073,1.2480865445935732,6.104615337182803,0.7809476497359353
1731474165.520094,-0.27159884572029114,0.5109673142433167,-10.002777099609375,-0.1108619970015865,-0.014318707084384673,-11.118962535368356,1.2480808915035086,6.104454722037249,0.7804613018030105
1731474165.5700138,-0.2805241048336029,0.5076335072517395,-10.030702590942383,-0.11048680979237485,-0.015004073703928693,-11.074583101291216,1.2470899181761772,6.080143626372903,0.693274705595013
1731474165.6199641,-0.29612553119659424,0.549163281917572,-9.971040725708008,-0.10989076771765371,-0.01565033571076594,-11.029973760634721,1.245805912886097,6.055382740731381,0.5769025491999422
1731474165.6699429,-0.11691132932901382,0.7504041194915771,-9.982314109802246,-0.10907187868117166,-0.01625449692791441,-10.98532441139529,1.2442656348621153,6.0308817594270865,0.4346101517403921
1731474165.7198658,0.6160908341407776,1.6543776988983154,-9.985828399658203,-0.10802830342774297,-0.016816210329364333,-10.940815594524178,1.248397886013795,6.0387473008651815,0.8374933978382255
1731474165.7698388,0.2742922902107239,1.1484307050704956,-9.935419082641602,-0.10675527146746731,-0.0173414231149246,-10.896618117189407,1.2477031432863483,6.019905502855471,0.7763324505416336
1731474165.8198068,0.5598775744438171,1.5156831741333008,-9.900559425354004,-0.10524212520551934,-0.017845510506626545,-10.852892701667308,1.2479761685094846,5.97555205596496,0.8404068547667811
1731474165.8697546,-0.5117053389549255,-0.020943261682987213,-10.053956031799316,-0.10347248626913755,-0.018352307835372852,-10.80978967940996,1.247209717351723,5.947097105893616,0.7809016802480205
1731474165.9196506,-0.9748305082321167,-0.22038394212722778,-10.095508575439453,-0.1014287932209243,-0.01888780319795782,-10.767449220026734,1.247281047869814,5.913797514599019,0.8395124083243836
1731474165.9696872,-0.8960928916931152,-0.2285120189189911,-10.036360740661621,-0.09909953427211271,-0.019471329079466596,-10.726002086024934,1.2464201979982514,5.882692363572228,0.7798486157427049
1731474166.0196366,-0.5056830048561096,0.34094709157943726,-10.030682563781738,-0.09648412835431744,-0.02011051403605707,-10.685570072009032,1.2467210055009768,5.856468341214446,0.8387540387490542
1731474166.069539,-0.6234802007675171,0.0900634303689003,-9.969280242919922,-0.09359238679509546,-0.02080260092911772,-10.646265766951448,1.245938928823454,5.830475685275376,0.7797361962313368
1731474166.120549,-0.49311283230781555,0.2666221857070923,-9.95162296295166,-0.0904413578611144,-0.021538130894764147,-10.60819204715391,1.2448075129125096,5.785516378925627,0.8382468177793734
1731474166.1704626,-0.5917204022407532,0.2500773072242737,-9.959190368652344,-0.08705300170945984,-0.022303343613466788,-10.571441667305788,1.2433684071456435,5.7566004226191065,0.845078934890226
1731474166.2203753,-0.5344301462173462,0.44564783573150635,-9.94918155670166,-0.08345303991258644,-0.02308164543475167,-10.536097121611459,1.241951385327102,5.727728937929398,0.7882565026664126
1731474166.2703657,-0.5411988496780396,0.44175106287002563,-10.002894401550293,-0.07967021799801242,-0.02385524027489982,-10.502230819327245,1.240345788789782,5.699091022852582,0.7058426781952581
1731474166.3203707,-0.4982243478298187,0.440775603055954,-9.996415138244629,-0.07573557389370275,-0.0246066578562223,-10.469905502724043,1.2385192781605256,5.669958872947526,0.5956411184721163
1731474166.3701982,-0.5401157140731812,0.4218352735042572,-9.947385787963867,-0.07168166168349464,-0.02531956493632773,-10.43917470874518,1.2418570015190173,5.668742291641179,0.8348716641463372
1731474166.4201555,-0.5067511796951294,0.471881628036499,-9.999462127685547,-0.06754191662822359,-0.025978936842775337,-10.410083044933177,1.240911235629364,5.642568624221736,0.7741421745318958
1731474166.4702005,-0.4705067574977875,0.552297055721283,-9.99241828918457,-0.06335015062396995,-0.02657120634063568,-10.38266640411548,1.2401301933077844,5.579110145330189,0.8401156302674044
1731474166.520082,-0.46714261174201965,0.5296739935874939,-9.957019805908203,-0.05913997432936272,-0.027084707678267712,-10.356952307391847,1.2389600015517266,5.540490328269399,0.7822570911695318
1731474166.5699782,-0.5027879476547241,0.7166739106178284,-10.007081985473633,-0.054944233388624135,-0.027510251790793035,-10.33296023752794,1.237645042127076,5.501722521082232,0.6984622711108465
1731474166.619982,-0.7795722484588623,1.4734464883804321,-9.913012504577637,-0.05079497609670101,-0.027842471930465105,-10.310701886416366,1.2361964665073188,5.46284595423919,0.5887570660103904
1731474166.6698933,-0.6510591506958008,0.6669668555259705,-9.871582984924316,-0.0467242446384314,-0.02808235380865811,-10.2901812628254,1.2384828923762232,5.510539962541501,0.8352680158711109
1731474166.7198677,-0.7435884475708008,0.8559263348579407,-9.995081901550293,-0.04276493844184053,-0.028238314780719226,-10.271394691761795,1.237704374437928,5.489323982343397,0.7755646176493904
1731474166.7698317,-1.0246074199676514,0.7830585241317749,-10.052181243896484,-0.038951196123257516,-0.028324176741606477,-10.254331260016983,1.2371274494527584,5.432335087926972,0.840693493311285
1731474166.819787,-0.6633448600769043,-0.09543535858392715,-9.869963645935059,-0.03531873455373007,-0.028355968571493216,-10.238973758792838,1.2357047143167543,5.352211880527769,0.8466610387659486
1731474166.869679,0.09758414328098297,0.14885461330413818,-10.152352333068848,-0.031903872960581336,-0.028348052416197693,-10.225299384905163,1.2345662579384535,5.302278575977766,0.79232604038357
1731474166.9196308,-0.10657283663749695,0.15302258729934692,-10.094240188598633,-0.028739517477298655,-0.028309278843607236,-10.213280376020233,1.233346037658591,5.252012217885522,0.7121605117064285
1731474166.9695954,-0.24901315569877625,0.22527316212654114,-9.930318832397461,-0.02585089190057724,-0.02824190682727195,-10.20288486834728,1.2320637356131223,5.201916275679222,0.6069784391960726
1731474167.0195537,-0.2635975480079651,0.19347549974918365,-10.03125,-0.023254842084869203,-0.028142934460366174,-10.19407714627638,1.2338328141844108,5.307354038816682,0.835725519995168
1731474167.0694854,-0.25550612807273865,0.27125734090805054,-9.987833023071289,-0.020961630078028197,-0.028005531535698194,-10.186817344413843,1.2331938831382507,5.274874354779748,0.846285614275784
1731474167.1204903,-0.25550612807273865,0.27125734090805054,-9.987833023071289,-0.01897640791018175,-0.027820098114716175,-10.18106150791264,1.232483543393583,5.250055119873599,0.7902246828567597
1731474167.1204903,-0.23449304699897766,0.3860339820384979,-9.952412605285645,-0.01729989575009007,-0.02757530422055372,-10.176761900142735,1.2324791441681435,5.249906407729164,0.7898091435810315
1731474167.1704047,-0.27211546897888184,0.46041738986968994,-9.987509727478027,-0.01592883068267897,-0.027259257757602837,-10.173867205865117,1.2317469027702097,5.225785572841228,0.7099330107266263
1731474167.220449,-0.22294831275939941,0.4955655038356781,-9.976760864257812,-0.01485642153996776,-0.026860767577721163,-10.172322804429525,1.2309629345501116,5.201170661343135,0.602996239989104
1731474167.2703028,-0.29952070116996765,0.47761327028274536,-9.947431564331055,-0.014072826233606738,-0.02637035061025862,-10.172071164553335,1.2301567895098957,5.17691887862676,0.47272346373926055
1731474167.3202782,-0.2390664666891098,0.5071632862091064,-9.96912670135498,-0.013565648165234654,-0.025780670877973387,-10.173052183128572,1.2323061459244824,5.230134792588148,0.8418995210657236
1731474167.3702247,-0.2619829773902893,0.5499357581138611,-9.986207962036133,-0.01332039276810415,-0.025086610721354662,-10.175203498919027,1.2320941988927334,5.185977817377409,0.8493136625762068
1731474167.4201815,-0.29614388942718506,0.557115912437439,-10.006966590881348,-0.01332083000717105,-0.024285354337969134,-10.178460959520347,1.2317739499386613,5.163306514730307,0.7958118219483543
1731474167.4701643,-0.2842969596385956,0.5422245264053345,-9.993300437927246,-0.013549398000055304,-0.023376480469748957,-10.18275918495015,1.2316291897631733,5.122455266383144,0.8433491145792573
1731474167.5200758,-0.3237045407295227,0.5025440454483032,-10.022774696350098,-0.013987686468188064,-0.02236181052278703,-10.188032048081773,1.231277202222711,5.091323537988607,0.7871623100520081
1731474167.570104,-0.304080992937088,0.5387887954711914,-10.006502151489258,-0.014616863451473325,-0.021244997041869332,-10.194213053376242,1.2308888387853492,5.060080635874533,0.7054107310110236
1731474167.6199863,-0.31559836864471436,0.5186578035354614,-10.001282691955566,-0.015417987643533602,-0.020031128908319783,-10.201235646128533,1.231757447583744,5.081637969792283,0.8384020518275519
1731474167.6699455,-0.3472784459590912,0.548546552658081,-10.006768226623535,-0.01637223800022078,-0.01872652004413318,-10.209033429160705,1.2316129725668332,5.063509399974835,0.7802283883999206
1731474167.719859,-0.3457614779472351,0.5572443008422852,-9.950666427612305,-0.017461160304811527,-0.01733862028381451,-10.21754028944637,1.2323650255990266,5.033966370961937,0.8415581552166832
1731474167.7698534,-0.38967204093933105,0.5511984825134277,-9.947484970092773,-0.01866696985337715,-0.015875968666786842,-10.226690413019341,1.2324173652067962,5.009893255742028,0.7847972317021246
1731474167.8198857,-0.4002406895160675,0.520408034324646,-9.988666534423828,-0.01997286365836213,-0.014348076338219572,-10.236418269582549,1.23287166506051,5.015048402735357,0.8412033549035514
1731474167.8697584,-0.4084441363811493,0.5258782505989075,-9.968122482299805,-0.021363303571842365,-0.01276514372976828,-10.246658803469519,1.2329577296514673,4.999655897916479,0.7842019334526044
1731474167.9197118,-0.4301626682281494,0.5229345560073853,-9.957510948181152,-0.02282420636966856,-0.011137724385335595,-10.257347781604981,1.2332579885820232,4.971132892392166,0.8412798658459494
1731474167.969659,-0.41579771041870117,0.5198242664337158,-9.984099388122559,-0.02434301898644755,-0.009476492809469557,-10.268422053158663,1.2345382385097823,4.912221994432225,0.8469410099861574
1731474168.0196166,-0.41738006472587585,0.5069164037704468,-9.992772102355957,-0.02590868932874544,-0.007792093591431827,-10.279819777206813,1.2350587145618634,4.877126779000593,0.7921607206588119
1731474168.06953,-0.42933446168899536,0.48471972346305847,-9.986830711364746,-0.027511547627780228,-0.006094965750159035,-10.291480734705749,1.2355068597882009,4.842448919026528,0.7126819251283822
1731474168.1195025,-0.4029156267642975,0.4935304522514343,-9.959948539733887,-0.029143165325330397,-0.004395123768936223,-10.303346579582215,1.2356137148518969,4.888277388019742,0.8378883055255629
1731474168.1705012,-0.3817252516746521,0.5115475058555603,-10.00704574584961,-0.03079617236866065,-0.002702005413180485,-10.315360941622934,1.2358960484227162,4.8728643870905985,0.7779093116624123
1731474168.2204661,-0.36732563376426697,0.506420373916626,-9.940675735473633,-0.03246396295419744,-0.0010244812549265237,-10.327469502975193,1.2360949240491315,4.85762744401333,0.6924768482027198
1731474168.2703533,-0.3569742441177368,0.48454442620277405,-9.957109451293945,-0.03414036783970584,0.0006290812658371133,-10.339620045519885,1.2360326393942889,4.845171855927774,0.8374826887221287
1731474168.320453,-0.32014575600624084,0.5220609307289124,-10.007949829101562,-0.03581938614201603,0.0022508332550318618,-10.35176245932651,1.2361044359196152,4.828170608520165,0.7781014142251542
1731474168.3703187,-0.32703259587287903,0.5110530853271484,-10.006678581237793,-0.037494954219841836,0.0038334515321222914,-10.36384893549237,1.237524561513488,4.794184658473164,0.840698335076447
1731474168.4203556,-0.2884915769100189,0.5135928392410278,-9.9750337600708,-0.03916074811472585,0.005370066198877104,-10.375834297101058,1.2379120563996742,4.771371449290615,0.7824461463819634
1731474168.4702427,-0.2992408573627472,0.52889484167099,-10.00160026550293,-0.04081004806598943,0.00685420137652244,-10.387676136196783,1.2391005228149423,4.772286981346016,0.8411119868299635
1731474168.5202298,-0.24781231582164764,0.5297985672950745,-9.992883682250977,-0.04243564220708349,0.008279739735575449,-10.399334780612701,1.2396037838103722,4.756676067333827,0.7832842686463986
1731474168.5700824,-0.21631523966789246,0.5367860794067383,-10.009201049804688,-0.044029691541479524,0.009640864847188525,-10.410773311921798,1.2401646772458337,4.735595252470634,0.8410099381075845
1731474168.6200504,-0.2374487668275833,0.5250668525695801,-9.978850364685059,-0.045583548057267026,0.010932027456739112,-10.42195761170756,1.2404683297402062,4.719417540704605,0.7828441591759546
1731474168.6699843,-0.24436978995800018,0.5449917912483215,-9.986490249633789,-0.04708772047864705,0.012147964148044013,-10.432856317275693,1.2413991875723962,4.690482368197603,0.8408419499951346
1731474168.7199814,-0.26492181420326233,0.5421296954154968,-10.024519920349121,-0.048532122348033835,0.013283712529374495,-10.443440743564567,1.2417497619901567,4.670333671691414,0.7828489234846759
1731474168.769875,-0.24497844278812408,0.5146592259407043,-9.960634231567383,-0.04990643954724357,0.014334619694073722,-10.453684882868831,1.2419773682991064,4.650216677026378,0.6987330345078255
1731474168.819899,-0.26854559779167175,0.523851752281189,-10.006988525390625,-0.0512004151936602,0.015296431001985421,-10.463565383388552,1.2420786987382906,4.630091098017265,0.5881948863705561
1731474168.869745,-0.274250328540802,0.5105048418045044,-10.02233600616455,-0.05240405607131055,0.01616543895774991,-10.473061479925423,1.2420509088934202,4.6102083057581655,0.45288965597822606
1731474168.9196699,-0.3091917932033539,0.5198943614959717,-9.959775924682617,-0.053507875070829554,0.016938578245630442,-10.482154995216092,1.242861310471951,4.652769255452986,0.8330834952126216
1731474168.9696105,-0.3320220708847046,0.510865330696106,-9.982586860656738,-0.05450321563025101,0.017613448435741638,-10.490830260235931,1.2435316064298,4.616096237290608,0.8448933789769135
1731474169.0195947,-0.36096951365470886,0.5243552327156067,-10.011935234069824,-0.05538261805231094,0.01818829945390811,-10.499073911604551,1.243670491788417,4.597679775551174,0.7888338869811831
1731474169.0695426,-0.3873808979988098,0.5039497017860413,-9.998730659484863,-0.05614016528367223,0.01866200117364037,-10.506874843334217,1.2451057548181264,4.568594490577633,0.8407396266228234
1731474169.1195629,-0.3768446445465088,0.5270870327949524,-9.98342227935791,-0.0567717362222104,0.01903401926968017,-10.514224268579285,1.2454573899409613,4.547807148957856,0.7821370981882563
1731474169.1693566,-0.40214788913726807,0.529925525188446,-9.958992958068848,-0.057275099932285314,0.019304369365182678,-10.521115610557072,1.245664898212593,4.527156719186036,0.6974792946741568
1731474169.2205336,-0.3875490427017212,0.5355784893035889,-10.005823135375977,-0.05764986595688225,0.019473510176620593,-10.527544266440364,1.2460918849004248,4.519565427650577,0.835775891180428
1731474169.2704382,-0.3973613977432251,0.5048602819442749,-9.982096672058105,-0.05789735856961003,0.01954225460992344,-10.533507490137877,1.2462030936580304,4.501153959447678,0.7748424998901478
1731474169.3202848,-0.4208195209503174,0.5127977132797241,-9.961091041564941,-0.058020470815645125,0.01951180563445409,-10.539004376943891,1.247592277983571,4.47051445363007,0.8398523888688783
1731474169.3702781,-0.3880281150341034,0.5406675338745117,-10.021201133728027,-0.058023540621138056,0.019383830077751733,-10.544035785605713,1.248568760157894,4.451420740775404,0.8455781982741546
1731474169.4202564,-0.40732821822166443,0.511802613735199,-9.964009284973145,-0.057912197420098066,0.019160415183719703,-10.548604268236705,1.2489787889160693,4.43173581980002,0.7892918447320318
1731474169.4702406,-0.39098721742630005,0.5393107533454895,-9.937568664550781,-0.057693137629923126,0.01884396635353032,-10.552713985189941,1.2492435501647512,4.412137082976336,0.7067477717670493
1731474169.5202496,-0.3430268168449402,0.5632885694503784,-10.020954132080078,-0.057373853248893665,0.018437116502385477,-10.556370488280159,1.2494475098391975,4.405556531996811,0.8366151117061866
1731474169.570042,-0.35746142268180847,0.5226518511772156,-9.970314979553223,-0.05696227593305503,0.017942598980178925,-10.559580614601643,1.249515123722703,4.389967124215546,0.77675652877578
1731474169.620104,-0.3644109070301056,0.5411407947540283,-9.935940742492676,-0.056466432114170705,0.0173631846877999,-10.562352513385742,1.2502137513211975,4.352869727172474,0.8393763754656456
1731474169.6699798,-0.32590430974960327,0.5505774617195129,-10.00048828125,-0.05589426868975548,0.01670173387332624,-10.564695501575386,1.2503261957936866,4.329502751942908,0.7806952621450055
1731474169.7200387,-0.31107252836227417,0.5735057592391968,-9.995644569396973,-0.055253515925762026,0.01596117557372014,-10.566619925690965,1.250994430543632,4.331278504004481,0.8396000118397811
1731474169.769812,-0.28647172451019287,0.557266116142273,-9.9751558303833,-0.05455143064572649,0.015144369828728604,-10.568137239976028,1.2511050663103125,4.315922348418291,0.7811556008738495
1731474169.8198006,-0.3067576587200165,0.5384560823440552,-9.999095916748047,-0.05379454346314903,0.014254040781034401,-10.569260038181783,1.2510819811965166,4.30050794401711,0.6961291857407249
1731474169.8697455,-0.30355140566825867,0.5481085181236267,-10.006450653076172,-0.05298858187681614,0.013292875485738629,-10.570001964961637,1.2512684976303219,4.283486898727949,0.8361481968280383
1731474169.9197433,-0.25701940059661865,0.528659462928772,-9.968534469604492,-0.05213851690713014,0.012263674013545795,-10.570377646106012,1.25117171324617,4.265769850490798,0.775577113212082
1731474169.969654,-0.3092585504055023,0.5482136011123657,-10.02397346496582,-0.05124856851508418,0.011169435331511051,-10.57040259155735,1.2518694820297973,4.231585082035748,0.8398903908041253
1731474170.0196478,-0.28313058614730835,0.5053752660751343,-10.031719207763672,-0.05032222432609269,0.010013399734245702,-10.570093127302481,1.2525183270371754,4.210933499968554,0.8454749789844183
1731474170.0695612,-0.2960771322250366,0.49699968099594116,-9.990872383117676,-0.04936237200251557,0.008799142943323499,-10.569466433563443,1.2526566786190116,4.190234225921172,0.7889950661784674
1731474170.1195238,-0.3306671380996704,0.48303064703941345,-9.955171585083008,-0.0483714711035407,0.00753075413050636,-10.568540429091714,1.252672583207157,4.169638674957535,0.7063806269817818
1731474170.1195238,-0.3306671380996704,0.48303064703941345,-9.955171585083008,-0.04735176757531499,0.006212990100804688,-10.567333358959882,1.2526525650198634,4.1631002991044435,0.67463297286814
1731474170.1195238,-0.3306671380996704,0.48303064703941345,-9.955171585083008,-0.04630553983692816,0.004851308111776566,-10.565863372776455,1.2526521011893421,4.16298397611056,0.6740440554885895
1731474170.501167,-0.33358314633369446,0.5432917475700378,-9.975793838500977,-0.04523523529790554,0.003451742360794401,-10.564148346952289,1.2502424220958321,4.014257552138195,0.13330133236301778
1731474170.551062,-0.33446788787841797,0.5545161366462708,-9.994386672973633,-0.04414348685585137,0.002020571507977538,-10.562205935515717,1.2494227073053497,3.9972622940696283,-0.07906312171423092
1731474170.6009803,-0.3757934272289276,0.5390514731407166,-9.997224807739258,-0.04303313709418251,0.0005638931781471721,-10.560053730701863,1.2519065794159578,4.004413907689527,0.5927760197327119
1731474170.651021,-0.3854354918003082,0.5245512127876282,-9.94626235961914,-0.041907371284911114,-0.0009125952614609061,-10.557709350939913,1.2522206046154216,3.969010960109322,0.743752751916554
1731474170.70092,-0.35533973574638367,0.5358597040176392,-10.005644798278809,-0.04076988821500186,-0.002403541590754581,-10.555190339773132,1.2518353509707703,3.9390099232653824,0.6694492894919246
1731474170.7508857,-0.3560776114463806,0.5129831433296204,-10.032893180847168,-0.0396248945246727,-0.0039038179606890964,-10.552514092494679,1.2513520001721055,3.9091564674326107,0.5692522377975807
1731474170.800842,-0.3606487512588501,0.514492928981781,-9.950714111328125,-0.0384769138977286,-0.005408436213426726,-10.549697961347643,1.252231234370006,3.928304395075733,0.8074168986338266
1731474170.850841,-0.35033825039863586,0.5238370299339294,-9.981739044189453,-0.037330614050957514,-0.006912481194258453,-10.546759220643127,1.2519274044178372,3.910842961011302,0.7436838691168844
1731474170.9007235,-0.3239135444164276,0.5347714424133301,-9.992368698120117,-0.03619068324367024,-0.008411117531934888,-10.543714812058013,1.2515273957078166,3.893163158701098,0.6526254816649922
1731474170.9507124,-0.31538882851600647,0.5356155037879944,-9.987292289733887,-0.035061641837423795,-0.009899693134384229,-10.540581224892515,1.2510457108322657,3.8757485272961363,0.5369570759384952
1731474171.0006285,-0.31598329544067383,0.5300633907318115,-9.955608367919922,-0.0339476172527038,-0.01137384427424598,-10.537374509841722,1.251893444224697,3.887114419783513,0.8273131361921212
1731474171.050641,-0.33977842330932617,0.5462741255760193,-10.025431632995605,-0.03285223398327335,-0.012829538938302682,-10.53411022701139,1.2515866148552341,3.8734696241350974,0.7656894886820567
1731474171.1005151,-0.31442055106163025,0.5665611624717712,-9.986868858337402,-0.031778662219459436,-0.014263124764939527,-10.53080344872728,1.2515399661749476,3.8438612573586983,0.837707350883603
1731474171.150495,-0.2875569760799408,0.5533846616744995,-9.96694278717041,-0.030729658380507438,-0.015671437415450885,-10.527468824346942,1.2512181323380105,3.8269197541371507,0.7787699806798016
1731474171.2004042,-0.3200339078903198,0.5294452905654907,-9.991798400878906,-0.029707477068554086,-0.017051853327394242,-10.524120496062768,1.2508309633092936,3.789271882008325,0.839442227298771
1731474171.2504544,-0.30452707409858704,0.5296197533607483,-10.019668579101562,-0.028713806973304397,-0.01840216663827683,-10.52077199134704,1.250379788262013,3.7654876349758273,0.780790750254333
1731474171.3013082,-0.3109103739261627,0.517314076423645,-9.977126121520996,-0.027749839496784626,-0.01972038222520025,-10.517436289835352,1.250341310579709,3.7301681332324743,0.839183283590471
1731474171.351328,-0.32668018341064453,0.5018835663795471,-9.97868824005127,-0.02681637223954511,-0.021004552743186265,-10.514125859479808,1.2498913146886024,3.6985490136888126,0.7796350321591383
1731474171.4012053,-0.3284973204135895,0.48210498690605164,-10.024526596069336,-0.025913920760528245,-0.02225263596565087,-10.5108525555715,1.249382388833136,3.6673289378996583,0.6948768736794031
1731474171.4511728,-0.3639207184314728,0.47808367013931274,-9.991728782653809,-0.025042882297619626,-0.023462335089269357,-10.507627610926098,1.2500448828232997,3.6920454544101653,0.8361050935744787
1731474171.501115,-0.35544782876968384,0.48331549763679504,-9.979578018188477,-0.02420373496968302,-0.02463098726473203,-10.504461697731992,1.2497422647125869,3.674094622641249,0.7760337193041499
1731474171.5511136,-0.3231160044670105,0.5238932371139526,-10.002732276916504,-0.023397165351311776,-0.02575560711819051,-10.501364860518143,1.2493803338566514,3.6560769909771174,0.6898048770572554
1731474171.6010053,-0.3322836458683014,0.5168244242668152,-9.963459014892578,-0.022623996469715024,-0.026833116797603942,-10.49834639930491,1.2489609197341216,3.6379858438076504,0.5773811009433062
1731474171.6510303,-0.3373267948627472,0.529000997543335,-9.964813232421875,-0.02188501334363903,-0.027860628787021495,-10.495414778951922,1.2501734663357948,3.651174213114426,0.833875417988822
1731474171.7009454,-0.33359724283218384,0.5422881245613098,-10.018502235412598,-0.021180890282095903,-0.028835634635225843,-10.492577558110295,1.250015586823464,3.6371779564095394,0.7729454469239504
1731474171.7509274,-0.37106969952583313,0.5370707511901855,-9.986614227294922,-0.02051224060790721,-0.029756114355706707,-10.489841471741341,1.2502628449191087,3.60627428315149,0.8392174285559227
1731474171.8008492,-0.3345521092414856,0.5538851022720337,-9.982426643371582,-0.01987971549243534,-0.030620610929390675,-10.487212595134057,1.2501389925586452,3.5883370047987717,0.7806684928483443
1731474171.8508618,-0.3580484986305237,0.5556872487068176,-10.00033950805664,-0.01928406135183423,-0.03142827556800437,-10.484696368665578,1.2505465003016372,3.5504199981223254,0.8393747316925934
1731474171.9007573,-0.3580484986305237,0.5556872487068176,-10.00033950805664,-0.01872610232709115,-0.03217889774777686,-10.48229757384928,1.2508023958420096,3.499577626972736,0.844944551830599
1731474171.9007573,-0.342354416847229,0.5448465943336487,-9.99096965789795,-0.01820671953976585,-0.0328728893018454,-10.480020385536037,1.250802587113256,3.499454635349628,0.8447856050982632
1731474171.9506936,-0.3339128792285919,0.512994647026062,-9.977628707885742,-0.017726804382918494,-0.03351116223261698,-10.477868389893793,1.2508320395633237,3.4660994321909544,0.7885221935761098
1731474172.0006766,-0.3599240779876709,0.5272412896156311,-10.009675979614258,-0.01728715956595874,-0.0340949067286782,-10.475844534390802,1.2508179125581473,3.4330388329304147,0.7070185435486271
1731474172.0506036,-0.3535090684890747,0.5264111161231995,-9.988394737243652,-0.01688847144424491,-0.034625397793606266,-10.473951133572221,1.2507612577590592,3.399651904682762,0.5989130573852143
1731474172.1005116,-0.33102959394454956,0.5007005929946899,-9.949559211730957,-0.016531353686228684,-0.03510391687266427,-10.472189892977013,1.2512528254729884,3.454203066201891,0.8434992661642066
1731474172.1504858,-0.3360428214073181,0.4967174530029297,-9.988577842712402,-0.016216306751362028,-0.03553168089288726,-10.470561812853955,1.2514214881707917,3.415217271305775,0.8485651355822345
1731474172.2004585,-0.3113560974597931,0.5115785002708435,-10.033350944519043,-0.01594358391901829,-0.03590973097626958,-10.469067151979743,1.251446408178791,3.392772338975784,0.7936244337059657
1731474172.250459,-0.3113560974597931,0.5115785002708435,-10.033350944519043,-0.015713056631604702,-0.03623890878518936,-10.46770569303831,1.2514316525692784,3.3702665890076333,0.7125375401860544
1731474172.250459,-0.3177403509616852,0.5325407981872559,-9.935579299926758,-0.015524123054250502,-0.036519961826169796,-10.466477018092814,1.2514314823719175,3.3701553872673413,0.7120727825205894
1731474172.3013842,-0.33469057083129883,0.5253778100013733,-9.965188980102539,-0.015375719461797815,-0.03675369140340104,-10.465380355436611,1.251376782154037,3.347296206962422,0.6032659730305323
1731474172.351369,-0.2919037938117981,0.5581555962562561,-9.996562957763672,-0.01526641629847561,-0.03694108905876008,-10.464414229048366,1.251284062713672,3.3245901650858802,0.4692598418677799
1731474172.401268,-0.35043859481811523,0.5507156252861023,-9.980219841003418,-0.015194482830378128,-0.037083467902027926,-10.463576427220676,1.2513806854106975,3.3650391823491463,0.8383102109564204
1731474172.4513953,-0.31938889622688293,0.5434258580207825,-9.980039596557617,-0.015157951459348368,-0.03718255869723352,-10.462864206806618,1.2513085568042275,3.352142323338054,0.7795275733883233
1731474172.5011845,-0.31938889622688293,0.5434258580207825,-9.980039596557617,-0.01515472276362714,-0.03724049449647042,-10.462274394579625,1.251352923124473,3.314617174847655,0.8418408207922752
1731474172.5011845,-0.3111056983470917,0.5467879772186279,-10.006731033325195,-0.015182588653202107,-0.03725971344278858,-10.461803420407332,1.251352698129283,3.3145358519970665,0.8416770424447105
1731474172.5512621,-0.3343198299407959,0.5141294598579407,-9.985079765319824,-0.015239189169057053,-0.03724285514829171,-10.461447419270371,1.2499579861080932,3.2573805627668997,0.852191965758535
1731474172.6011057,-0.31788721680641174,0.5207598209381104,-9.9788818359375,-0.015322042655039662,-0.03719261960293359,-10.461202321215325,1.2492769200906813,3.2221955140736998,0.8012578874953964
1731474172.6510568,-0.3102407455444336,0.5062844753265381,-10.040383338928223,-0.015428607240937744,-0.03711159231072153,-10.461063882794408,1.2485536447039502,3.1867279283310044,0.7238257265927454
1731474172.7009473,-0.3471413254737854,0.5116963982582092,-10.012944221496582,-0.01555629851352335,-0.0370021236149633,-10.461027813735297,1.2487104979319013,3.2132314869328873,0.8412176800212077
1731474172.750927,-0.3339446187019348,0.48835524916648865,-9.949984550476074,-0.015702554496362035,-0.03686626888843836,-10.461089911529424,1.2482194391866812,3.1943949790353767,0.7826880511489557
1731474172.8008482,-0.3242812752723694,0.5035021901130676,-9.997200012207031,-0.015864950976241448,-0.03670573844308489,-10.461245924666006,1.2466884547346837,3.1651423945397634,0.8411674914465154
1731474172.8508923,-0.32210493087768555,0.5187715888023376,-10.013509750366211,-0.016041216223904517,-0.03652189450843518,-10.461491356188802,1.2457948229428533,3.1410804869150026,0.7828297673747834
1731474172.9008107,-0.3306938111782074,0.5117029547691345,-9.95168685913086,-0.016229158367466516,-0.0363158548186857,-10.461821506418168,1.2448927972457202,3.1439708073642882,0.8402216307461968
1731474172.9507923,-0.3473673462867737,0.5250505805015564,-9.999794960021973,-0.016426657908819663,-0.036088634357696735,-10.46223152859173,1.2439398119231542,3.127619215804437,0.7823213007240031
1731474173.000714,-0.3473673462867737,0.5250505805015564,-9.999794960021973,-0.01663176378603638,-0.03584124257754852,-10.462716398114333,1.2433689796791936,3.0972086814917588,0.8397364566184633
1731474173.000714,-0.3676806092262268,0.5250909328460693,-9.974912643432617,-0.016842821200527294,-0.03557474761856955,-10.46327097927927,1.24336444630026,3.097096275075485,0.8394901205486375
1731474173.050638,-0.34077829122543335,0.531715452671051,-9.974777221679688,-0.017058556795499946,-0.03529031715250722,-10.463890083573688,1.242516092212852,3.0765427585471317,0.7815420760151959
1731474173.1005018,-0.34993913769721985,0.5187354683876038,-9.980379104614258,-0.017278066541577722,-0.03498922804877449,-10.464568407722572,1.2416676110455271,3.0418536004336727,0.8475152235504595
1731474173.1506681,-0.32163166999816895,0.5147727131843567,-9.986950874328613,-0.017500700881951867,-0.03467283403802858,-10.465300506999402,1.240102290188942,3.022120947307677,0.84927229083603
1731474173.2004526,-0.32163166999816895,0.5147727131843567,-9.986950874328613,-0.01772589826747147,-0.03434249075178818,-10.466080871790759,1.2389591135631652,3.0012680219457395,0.7955535235620675
1731474173.2004526,-0.3347085118293762,0.5146628618240356,-10.003704071044922,-0.017953041807509913,-0.033999489713711,-10.466904035389696,1.2389523100240032,3.0011460163954173,0.7951638533416526
1731474173.250501,-0.3325687646865845,0.49045324325561523,-9.950163841247559,-0.018181422305465843,-0.033645016641739744,-10.467764637782498,1.2377618511453046,2.980163185226026,0.7152040996398261
1731474173.3003907,-0.3291608393192291,0.5291914939880371,-10.009807586669922,-0.018410291147997256,-0.03328010851827912,-10.468657397700637,1.2365256102313698,2.959091655727005,0.6092082899036808
1731474173.3504434,-0.32038629055023193,0.5339276790618896,-10.032880783081055,-0.018638887112729294,-0.03290568743815604,-10.46957713984639,1.2392744258082053,2.9756716984891307,0.8422096926368552
1731474173.4012403,-0.3011559844017029,0.5633037090301514,-9.956317901611328,-0.018866381260465352,-0.032522742895131705,-10.470518970973547,1.238776882733141,2.9608969862883048,0.7839739181593453
1731474173.4512477,-0.29631367325782776,0.5713852643966675,-9.99892807006836,-0.01909175968342312,-0.032132575886818046,-10.47147832387566,1.2368512306878643,2.9224605232417518,0.8422046001985626
1731474173.5012107,-0.30637404322624207,0.5323708057403564,-10.016594886779785,-0.019313715183164475,-0.03173694995823932,-10.472450832190905,1.2357424349028017,2.898512261906514,0.7845438943510109
1731474173.551203,-0.33612486720085144,0.5199670791625977,-9.949371337890625,-0.019530666139631447,-0.03133801066457884,-10.473432309677502,1.2345874862526762,2.874534836338155,0.700879588703665
1731474173.6010675,-0.31001725792884827,0.5187898278236389,-9.991975784301758,-0.019740920079377756,-0.03093800883311478,-10.474418730655133,1.2333392974936883,2.8496113048433793,0.5866732682912806
1731474173.6510518,-0.3414152264595032,0.49947530031204224,-10.026073455810547,-0.01994283845311113,-0.030539042274817945,-10.47540616060337,1.234697833334164,2.8763729960874107,0.8359167945735494
1731474173.7009594,-0.3331548273563385,0.4966123700141907,-9.923690795898438,-0.02013493094746764,-0.030142900670687874,-10.476390809817563,1.2324474338703095,2.8314645785351105,0.845153279419173
1731474173.7510405,-0.3020355701446533,0.4983261525630951,-9.987607955932617,-0.020315898604814482,-0.02975096632145307,-10.477369010931302,1.2311972140548921,2.8074412858969247,0.7893470146097864
1731474173.800867,-0.29968076944351196,0.5145800113677979,-10.004847526550293,-0.02048455538862118,-0.029364197108172937,-10.478337088675657,1.2295481578169016,2.773189605215741,0.839967222252261
1731474173.8508976,-0.29352277517318726,0.5195324420928955,-9.949438095092773,-0.020639646994568238,-0.028983226154522593,-10.479291417079553,1.2281577596289879,2.7468015271948762,0.782017145724226
1731474173.9007802,-0.2986915707588196,0.5589570999145508,-9.996010780334473,-0.020779732645883425,-0.02860854985381278,-10.480228523666764,1.2267035305231968,2.7201167127521915,0.6972580341983375
1731474173.9509592,-0.309118390083313,0.5325948596000671,-10.002687454223633,-0.02090319587753954,-0.028240748925265177,-10.481145098972394,1.2252076781964882,2.6935513189044107,0.5869556625268862
1731474174.0006123,-0.31772881746292114,0.5268689393997192,-9.995322227478027,-0.021008347503512666,-0.027880614923201607,-10.48203809560692,1.225393701904512,2.7254014628614547,0.833977251421898
1731474174.0505881,-0.31280437111854553,0.520305871963501,-9.999022483825684,-0.021093562068526764,-0.02752908695624824,-10.482904856898603,1.223022975033918,2.683290847573023,0.8442250947207873
1731474174.1005266,-0.3103979825973511,0.5200849771499634,-10.015802383422852,-0.02115736699736089,-0.027187104005020307,-10.483743147307477,1.2215316902669948,2.660202843883152,0.7882289723939188
1731474174.1505926,-0.3114646375179291,0.5333259105682373,-10.011154174804688,-0.021198454956020827,-0.02685552435489822,-10.48455117593303,1.2199770256672342,2.6368913004215973,0.7054514573817728
1731474174.200469,-0.3114646375179291,0.5333259105682373,-10.011154174804688,-0.021215668247800433,-0.02653514376626844,-10.485327637375226,1.2183869499496982,2.613772634869436,0.5975397979250316
1731474174.200469,-0.3188832998275757,0.5083135962486267,-9.963606834411621,-0.021208003219275372,-0.026226735578876267,-10.48607165714946,1.2183342543719804,2.613018196134573,0.5935875279208269
1731474174.2504795,-0.31904882192611694,0.5196725130081177,-9.988273620605469,-0.021174642212676262,-0.02593100987625768,-10.4867825949158,1.218720722754049,2.6310077540520935,0.8364579157467572
1731474174.3004224,-0.3305782973766327,0.5206477642059326,-10.022955894470215,-0.02111500269231102,-0.025648530060818128,-10.487459885177383,1.2174549218001263,2.6157877015226507,0.7773777731305737
1731474174.3504846,-0.3305782973766327,0.5206477642059326,-10.022955894470215,-0.021028793881126145,-0.025379699413758058,-10.488103129437347,1.2156629814389397,2.5760177445518164,0.8417209299074476
1731474174.3504846,-0.3131643533706665,0.4947442412376404,-9.967418670654297,-0.020916046609549516,-0.025124776688216888,-10.48871226935488,1.2156509231579586,2.575825697704602,0.8413902982438983
1731474174.4001963,-0.2911624312400818,0.5042598247528076,-9.952506065368652,-0.020777040568584433,-0.02488381957456757,-10.48928748088727,1.214052026544743,2.550733598213948,0.78546551294413
1731474174.4511578,-0.28843218088150024,0.4874705672264099,-10.005365371704102,-0.02061211549828626,-0.02465659011403863,-10.489828873856759,1.2066017141308496,2.52203681891957,0.8474806958329206
1731474174.5011187,-0.32307344675064087,0.5312836170196533,-9.986968994140625,-0.020421515578361627,-0.02444253484695367,-10.49033640603161,1.2029171043686622,2.4948073410996696,0.7928931040517699
1731474174.5512211,-0.30916738510131836,0.5539597868919373,-9.949182510375977,-0.020205421219866397,-0.024240932952028012,-10.490810000520586,1.199180078496671,2.4675057641766562,0.7119885104007018
1731474174.60102,-0.3088642954826355,0.5896655321121216,-9.986434936523438,-0.019964081428700705,-0.02405122395240494,-10.491249540012111,1.201454256085104,2.480438076212411,0.839940289514922
1731474174.6509938,-0.3002871870994568,0.5622224807739258,-9.99889087677002,-0.019697856874994837,-0.02387335431200358,-10.49165481061335,1.1993331024969267,2.4638957269374386,0.7811539052681218
1731474174.700985,-0.33200007677078247,0.540206253528595,-9.96786117553711,-0.019407194129971342,-0.023707891901923853,-10.49202559861461,1.197093843664932,2.4467692150469826,0.6930427692112889
1731474174.750962,-0.3359427750110626,0.5398454666137695,-9.985214233398438,-0.019092683366659067,-0.023555841449883163,-10.492361778991917,1.1930755710603713,2.430910490576955,0.8380081844879638
1731474174.80096,-0.3597176671028137,0.5054976344108582,-10.026241302490234,-0.018755223278644352,-0.023418343160312875,-10.492663329033283,1.1899636124184478,2.411397260356413,0.7772455030229959
1731474174.8508987,-0.34073111414909363,0.4791993796825409,-9.978652954101562,-0.018396177599732805,-0.023296379051580628,-10.492930426897653,1.1869398962912063,2.392665066110425,0.693439537237278
1731474174.9008243,-0.33845821022987366,0.46689125895500183,-9.9503812789917,-0.018017406436157707,-0.02319046587250296,-10.493163494517106,1.1863378607107933,2.3821568526227495,0.835873656703936
1731474174.9508212,-0.3105090856552124,0.513755202293396,-10.000347137451172,-0.017621138829375174,-0.023100443786860627,-10.493363021841597,1.1774931189594848,2.3373004245021383,0.8447432361710292
1731474175.0006595,-0.2943839728832245,0.5581911206245422,-10.002796173095703,-0.01720973167694203,-0.023025589426086953,-10.493529462486517,1.1730481214874944,2.3125825099171076,0.7876061880681308
1731474175.050742,-0.30043867230415344,0.6249035596847534,-9.956212997436523,-0.016785408107072835,-0.022965106654751103,-10.49366334258346,1.1716790787822804,2.2782423268460765,0.8404318916892679
1731474175.1005836,-0.2995325028896332,1.7792822122573853,-10.035893440246582,-0.016350095925821824,-0.022919813608589655,-10.493765332032531,1.1684841252286937,2.2515397392616117,0.782629579258659
1731474175.1506393,-0.3395894765853882,1.1382966041564941,-9.736099243164062,-0.01590544392949835,-0.022896014391715784,-10.493836051312943,1.165247981225512,2.224771672416356,0.6986617110398844
1731474175.2005467,-0.3395894765853882,1.1382966041564941,-9.736099243164062,-0.015453002344236997,-0.0229087787564801,-10.493875275552766,1.1673559054806804,2.22810675170619,0.8361719565702288
1731474175.2005467,-0.27004683017730713,0.7287166118621826,-10.011829376220703,-0.014994385637263498,-0.02298079546049615,-10.493880959174781,1.167343000930947,2.227984024064955,0.835893720974696
1731474175.2504516,-0.3361915349960327,1.030275583267212,-10.148770332336426,-0.014531206040988816,-0.02313844000411621,-10.493849664079017,1.1585989397614043,2.177060391314367,0.8382371025459334
1731474175.3004844,-0.3361915349960327,1.030275583267212,-10.148770332336426,-0.014064962463134432,-0.023409143931744487,-10.493778543500914,1.1559678794084545,2.1596112875781577,0.7993512166788057
1731474175.3004844,-0.3389971852302551,0.5860317945480347,-9.910191535949707,-0.013597157122036137,-0.023820586764488963,-10.493666826085475,1.1559476895306182,2.1594777195464454,0.7990041368330202
1731474175.350462,-0.30547669529914856,0.8550637364387512,-10.006457328796387,-0.0131294396581937,-0.024399595525832176,-10.493515505176372,1.1497781187307954,2.1577034826382295,0.8475123559263392
1731474175.4003296,-0.30547669529914856,0.8550637364387512,-10.006457328796387,-0.012663525550234284,-0.025170685246400627,-10.49332626764218,1.1449124489321982,2.139705260619579,0.7925790659973021
1731474175.4003296,-0.38556063175201416,0.4898340702056885,-10.093388557434082,-0.012201072308057406,-0.026155514126758306,-10.493101132845577,1.144884201747932,2.1396009407976284,0.7921802701665009
1731474175.451341,-0.38556063175201416,0.4898340702056885,-10.093388557434082,-0.011743842638321868,-0.027372169704157484,-10.492842846004354,1.1402202844630043,2.1223959875026823,0.7138367553366567
1731474175.451341,-0.2386288344860077,0.6780558824539185,-9.97010612487793,-0.01129394024456212,-0.028833779353459554,-10.492555202373644,1.1401985297527832,2.1223158250435046,0.7134134633199545
1731474175.5011187,-0.4404727518558502,0.41833406686782837,-9.97369384765625,-0.010853675961608583,-0.030548068794980968,-10.492242736015452,1.1421503638496318,2.111142355280383,0.8473804439046994
1731474175.551193,-0.2766844630241394,0.6592596173286438,-10.009418487548828,-0.010425367168684132,-0.03251788395151569,-10.49191003036448,1.1389873254907297,2.0941968093674,0.7946543622333335
1731474175.6011581,-0.38765424489974976,0.5689914226531982,-9.991920471191406,-0.010011378983449361,-0.03474177915691666,-10.491561360671259,1.1331602185576126,2.055877989845136,0.8446437473908948
1731474175.6510236,-0.2770300507545471,0.9635754823684692,-9.972393989562988,-0.009614095790541418,-0.03721506906309598,-10.491200717412317,1.128807046505333,2.0307964852782896,0.7884684342755925
1731474175.7010112,-0.2770300507545471,0.9635754823684692,-9.972393989562988,-0.00923567872122977,-0.0399317590897242,-10.490831780279152,1.1242875429884496,2.0338802177121593,0.8415012112258246
1731474175.7010112,-0.3519153296947479,0.7359294295310974,-9.921117782592773,-0.008877790253906354,-0.04288645008201554,-10.490457748616064,1.1242659856010446,2.0338018720254936,0.841291753577004
1731474175.7509859,-0.3949187397956848,1.459450125694275,-10.02377700805664,-0.008541652631188909,-0.0460753012753773,-10.490081205752833,1.119657366294404,2.0170341294936707,0.7835442956280797
1731474175.8008795,-0.44197165966033936,0.9048823118209839,-9.821752548217773,-0.008228592980941264,-0.04949688778594503,-10.48970408129667,1.1149566101322606,1.999887262214858,0.6982837438669979
1731474175.8508518,-0.4295503497123718,1.041643500328064,-9.993631362915039,-0.007940661275838519,-0.053152879168886696,-10.48932752999332,1.1189772647736127,1.986207133627909,0.8458871834366004
1731474175.900828,-0.4389559030532837,0.8733617067337036,-10.080601692199707,-0.00768092477588984,-0.057047107681441694,-10.488951969791904,1.1137218026002826,1.9414375423020025,0.849041015835176
1731474175.9507453,-0.3784397840499878,0.8643853068351746,-9.936895370483398,-0.0074533842509613875,-0.06118378070630005,-10.488577669384316,1.1103647180154486,1.9168792151169405,0.7948209570906839
1731474176.000648,-0.43786507844924927,0.8023789525032043,-10.073698997497559,-0.007262652797548588,-0.06556617008193068,-10.488205283695553,1.1046823799275005,1.9076925563487896,0.8412607273276553
1731474176.0506773,-0.417011022567749,0.7329180836677551,-9.982450485229492,-0.007113679646350283,-0.07019569219547446,-10.487835893648995,1.0999736063209786,1.8867039940617292,0.783994894850177
1731474176.10059,-0.3829857409000397,0.7080736756324768,-9.979751586914062,-0.007011622789078706,-0.07507117139686632,-10.487470900898858,1.0951166201791136,1.8649499338171218,0.6984442037069475
1731474176.15058,-0.4390067160129547,0.6949734091758728,-10.05864429473877,-0.006961703707679375,-0.08018832682435965,-10.48711189675124,1.0995130036790763,1.868140045554631,0.8368202895376567
1731474176.2004855,-0.3793528974056244,0.6941644549369812,-9.954267501831055,-0.006969047468627151,-0.08553959298206132,-10.486760585982754,1.0969216224692786,1.8523880032583897,0.776423410903471
1731474176.2504969,-0.3793528974056244,0.6941644549369812,-9.954267501831055,-0.007038548225773955,-0.09111427025325453,-10.486418708029614,1.0943862661338892,1.8368645181238727,0.6920419300474717
1731474176.2504969,-0.4250757098197937,0.6204016208648682,-9.982953071594238,-0.007174697812984951,-0.09689877886336169,-10.486087754245075,1.0943732160205575,1.836784315764363,0.6915437726259249
1731474176.3004034,-0.4461899399757385,0.5952256321907043,-10.015108108520508,-0.007381570578492293,-0.10287675187302991,-10.48576881350625,1.090276470363636,1.8239143764440582,0.8315547807710947
1731474176.3504372,-0.36761024594306946,0.542597770690918,-9.970968246459961,-0.00766299112067842,-0.10902892092463777,-10.485462754298153,1.0880269130185407,1.8125118514193448,0.7829181847236113
1731474176.4002957,-0.4046315848827362,0.5672928094863892,-9.9992036819458,-0.008022507180902904,-0.11533303159717508,-10.485170387612012,1.085303090303707,1.7985383380584208,0.7003051492247169
1731474176.4502802,-0.3943370282649994,0.5363613367080688,-9.969598770141602,-0.008463154957299433,-0.12176400687353812,-10.484892440288538,1.083906657126225,1.7804817272549398,0.8374327384127853
1731474176.5011716,-0.3880375921726227,0.5222116112709045,-9.993152618408203,-0.008987339558975542,-0.12829430989636958,-10.484629491762167,1.0812133265802315,1.7633487436108344,0.7773428469951343
1731474176.551226,-0.4290367364883423,0.49233752489089966,-10.006980895996094,-0.009596866287149845,-0.13489429580159934,-10.484381983681587,1.0735159085580988,1.7351969426176355,0.839409477668205
1731474176.6010063,-0.40291744470596313,0.44281744956970215,-9.997652053833008,-0.010293037212459645,-0.1415324379949504,-10.48415031723358,1.0668982388227224,1.6884529062619207,0.8452724695953024
1731474176.6511025,-0.4269281029701233,0.5036402940750122,-9.978708267211914,-0.011076767876124547,-0.14817551493120543,-10.483934930543755,1.0617841524716234,1.6567040590288502,0.7892005013818295
