Timestamp,IMU_Linear_Acc_X,IMU_Linear_Acc_Y,IMU_Linear_Acc_Z,Filtered_X,Filtered_Y,Filtered_Z,Pose_X,Pose_Y,Pose_Z
1730865950.4339852,-1.8243703842163086,0.9407444000244141,-9.798154830932617,-0.0944302966212546,-0.2178369892378128,-10.755436772188277,0.8660928057966165,0.9190601455436992,0.8916337598421809
1730865950.78379,-1.4993278980255127,1.1518988609313965,-9.931300163269043,-0.20175152209003783,-0.2998817117822408,-10.597794886226072,0.8664172286591181,0.9300453750501844,0.8916033339200204
1730865950.8337855,-1.6006672382354736,1.0863429307937622,-9.86929702758789,-0.12738115668350666,-0.3380170254280125,-10.590924444581502,0.8697023519896274,0.933973035475634,0.8917367549533677
1730865950.8837059,-1.81550133228302,1.01986563205719,-9.81452465057373,-0.05055860181508452,-0.3738843405958341,-10.598142142713037,0.8699909057640971,0.9358973942955789,0.891739747727419
1730865950.9336746,-1.9375649690628052,0.9927679896354675,-9.77560806274414,0.006922467077846658,-0.3978669561825523,-10.6145554543935,0.8704186828980414,0.9387497139724942,0.8917267229893848
1730865950.9836621,-2.0457820892333984,0.9714118242263794,-9.726194381713867,0.026665881702155968,-0.40311745804388055,-10.632486741652626,0.8744637827080546,0.9578343583146508,0.891753582257823
1730865950.9836621,-2.0869340896606445,1.0083929300308228,-9.737180709838867,0.018871396195615134,-0.39788981890487285,-10.639555004757305,0.8745712142535189,0.9583863727173757,0.8917376500888882
1730865951.0336392,-2.0562994480133057,1.051559329032898,-9.758321762084961,-0.00123494374039009,-0.3876767822887671,-10.644280217057403,0.8949106355382632,1.0624228464064878,0.8755284960749145
1730865951.083622,-1.9736506938934326,1.1039338111877441,-9.822582244873047,-0.03312847182161993,-0.373131341810147,-10.646167509659712,0.9152452052436211,1.0441066183469043,0.8787137043512331
1730865951.133597,-1.9302725791931152,1.1401413679122925,-9.887577056884766,-0.07550824440039824,-0.3552745145159969,-10.64508325145204,0.9354482313293797,1.1020341652374532,0.8389267444135536
1730865951.1835477,-1.8705997467041016,1.1601102352142334,-9.892549514770508,-0.12632474795711873,-0.33542885603471634,-10.641306674310709,0.9548747594018187,1.0557262813135926,0.8789246100843789
1730865951.233644,-1.852792739868164,1.1702474355697632,-9.919771194458008,-0.18291636952193138,-0.31509166161123325,-10.635495008015518,0.974435933912307,1.0912587347571312,0.8389923261571982
1730865951.2836158,-1.850260853767395,1.1229956150054932,-9.914119720458984,-0.24225035254721616,-0.2957651407938154,-10.628558352917734,0.9922528774367309,1.04971573105916,0.879070591639667
1730865951.3335752,-1.8229795694351196,1.0839333534240723,-9.910886764526367,-0.3012151896176312,-0.27876444253231525,-10.621499254756438,1.010400648936179,1.0718843895746153,0.8393776044413582
1730865951.3836124,-1.7985893487930298,1.0479875802993774,-9.888747215270996,-0.3568908749743188,-0.26504134078960495,-10.615260388734688,1.0259063928750785,1.041050493189055,0.8791707072181802
1730865951.4335694,-1.7535266876220703,0.9978740811347961,-9.872357368469238,-0.406739422916631,-0.25507610709749196,-10.610598658902362,1.0399049060486556,1.0299040242258808,0.8794466202234377
1730865951.4836032,-1.7225205898284912,0.9698752164840698,-9.863229751586914,-0.4487107294194779,-0.2488563775073951,-10.60800304367613,1.0549499491324092,1.0410256642604,0.8396877770477938
1730865951.533507,-1.668954610824585,0.9353963732719421,-9.8529052734375,-0.4812875755130539,-0.24592712199081607,-10.607668361332513,1.0687689853863294,1.051481057047382,0.7736689765208782
1730865951.583536,-1.6359572410583496,0.9215210676193237,-9.852986335754395,-0.5034892425262679,-0.24549314854441612,-10.609519852292092,1.0814131444567887,1.0613649319260319,0.6808325657565585
1730865951.6334298,-1.6144894361495972,0.9229671359062195,-9.850465774536133,-0.5148516135188496,-0.24655594744092602,-10.613270466808727,1.0886280852366912,1.0325438814969363,0.8785799514110292
1730865951.6834772,-1.6067534685134888,0.9610587358474731,-9.857247352600098,-0.5154045710789976,-0.2480718445237488,-10.618493212992325,1.0985261467778922,1.0382019658044257,0.8385590412105083
1730865951.7344527,-1.5976148843765259,1.0084751844406128,-9.867647171020508,-0.505650925294473,-0.24912132209796847,-10.62469651347343,1.1024681065592996,1.0292105080053957,0.8771401007981695
1730865951.7843916,-1.6114647388458252,1.0301212072372437,-9.874835968017578,-0.4865328424627296,-0.2490584004624228,-10.631393986703422,1.109611509861398,1.0336257685770576,0.8365250308443196
1730865951.8344188,-1.5975745916366577,1.018343448638916,-9.889068603515625,-0.45937506994388083,-0.24758474135107728,-10.638160080340343,1.115586299941144,1.0374286485895108,0.7692665016271197
1730865951.8845086,-1.6075562238693237,0.9683912396430969,-9.893061637878418,-0.4257997594335135,-0.24470981163421998,-10.644665472325581,0.8931228049768827,1.029212812735984,0.876970818059025
1730865951.934418,-1.626556634902954,0.905511736869812,-9.897462844848633,-0.38762099095113345,-0.24061390651165002,-10.650690342177514,0.8921203377251264,1.031475408494403,0.8368295436205031
1730865951.9844997,-1.6508206129074097,0.8503293991088867,-9.890620231628418,-0.3467447491236816,-0.23547869854034237,-10.65611548257324,0.896540207012637,1.033259005538056,0.8760677866842767
1730865952.034278,-1.668717384338379,0.7852784395217896,-9.882685661315918,-0.3050847614745519,-0.2293553712136983,-10.660895441554539,0.8966640231650433,1.0357113664027913,0.8359795814351801
1730865952.0843859,-1.668717384338379,0.7852784395217896,-9.882685661315918,-0.26447810128329063,-0.22211157978010046,-10.665024986283118,0.899137934827913,1.0396918092215013,0.8753400808940033
1730865952.0843859,-1.666137456893921,0.7490000128746033,-9.847501754760742,-0.2265874470923109,-0.21346589983755637,-10.668508663848868,0.8991421902680655,1.0397093223822833,0.8751745226699504
1730865952.134316,-1.6244356632232666,0.7482098340988159,-9.854060173034668,-0.19279392687676758,-0.2030792349209452,-10.67133383254179,0.8995985063570592,1.0423200554569405,0.8348857500854161
1730865952.1843207,-1.6244356632232666,0.7482098340988159,-9.854060173034668,-0.16409808307507212,-0.19065363542469435,-10.673457585259632,0.8996136010444246,1.0444609325041807,0.7676546270070306
1730865952.1843207,-1.5937052965164185,0.7874472141265869,-9.882034301757812,-0.14105950923313,-0.17602111782931165,-10.674827063568294,0.8996125034641482,1.0444718348005166,0.7671919533739568
1730865952.2342668,-1.5707736015319824,0.8576775789260864,-9.910017013549805,-0.12379224080339254,-0.15923274976635104,-10.675429172663582,0.9011370719062913,1.0479453746617966,0.8750370319167605
1730865952.2842512,-1.587791085243225,0.9232023358345032,-9.935588836669922,-0.11200769835254204,-0.14064576131828438,-10.67534399277059,0.9038133354132121,1.0550674733426841,0.8740429923303884
1730865952.3342435,-1.5839658975601196,0.9715844392776489,-9.951668739318848,-0.10510296335918101,-0.12097441524401792,-10.674774270706477,0.9046560563598135,1.0582961758054985,0.8337000650912267
1730865952.3842833,-1.6285433769226074,0.9795622229576111,-9.949352264404297,-0.10228732235872118,-0.10125644586644647,-10.674032919803306,0.9053168802389095,1.0669921483068783,0.8743893488212934
1730865952.4342704,-1.6731714010238647,0.9589577913284302,-9.931402206420898,-0.10272365498939409,-0.08271714419615242,-10.673487539518954,0.9060250106956181,1.071152061369759,0.8344096891036596
1730865952.4843504,-1.7608195543289185,0.9085907340049744,-9.892904281616211,-0.10567065346279794,-0.06656023465707003,-10.673474500748998,0.9064750282857925,1.0751431544300334,0.7674974162523948
1730865952.5342863,-1.8198007345199585,0.8613375425338745,-9.845653533935547,-0.11060981947664665,-0.05374533042831382,-10.674203069040754,0.906494655328521,1.0790172635565454,0.8744617194063937
1730865952.5842535,-1.8743910789489746,0.8098325729370117,-9.812735557556152,-0.11732101073761142,-0.04481636753268288,-10.675677410994538,0.9066051181132369,1.0825924635268258,0.834491797528576
1730865952.634168,-1.8814746141433716,0.8248398900032043,-9.78154468536377,-0.1258710688751255,-0.03983092173586709,-10.67766642874306,0.9091453652220007,1.0906455870034149,0.874464539454143
1730865952.6841817,-1.8178749084472656,0.9012826681137085,-9.799697875976562,-0.13650147749038627,-0.03842573926905095,-10.679739423866758,0.9097658621394856,1.0950117396441588,0.8343919117761517
1730865952.7341259,-1.7743693590164185,0.9895063042640686,-9.821540832519531,-0.1494338206469319,-0.040016711737402996,-10.681366820779651,0.909805083309322,1.1021058077763521,0.8744470932000625
1730865952.7841399,-1.7426655292510986,1.0704177618026733,-9.879551887512207,-0.1646700886939138,-0.04405383976753896,-10.682063335156013,0.9098681378894281,1.1068636557841085,0.8343748027463597
1730865952.834016,-1.7173658609390259,1.144403100013733,-9.899643898010254,-0.18188555144153878,-0.050216311513982995,-10.68152714232951,0.9108184432265954,1.1139580834198732,0.874472226426602
1730865952.884022,-1.7238008975982666,1.201750636100769,-9.902915954589844,-0.20044363367433338,-0.058489433211122294,-10.67971772651707,0.9106605548710679,1.1188661768921904,0.8344722986352342
1730865952.9340377,-1.7645459175109863,1.1820310354232788,-9.86949348449707,-0.21950426497624137,-0.06912361380297659,-10.67683454272587,0.9119043205987116,1.1258943860176416,0.8746456792464767
1730865952.9839852,-1.83077871799469,1.1543887853622437,-9.82955265045166,-0.23819466175896273,-0.08248783788587823,-10.673208466804741,0.9136307662900146,1.1351818087318843,0.8747757630637945
1730865953.0339887,-1.8594506978988647,1.0799541473388672,-9.79504680633545,-0.2557947718468529,-0.09885642102790479,-10.66916206726105,0.9136441311525992,1.1407159506092763,0.8348676001798544
1730865953.0839276,-1.8404059410095215,1.018115758895874,-9.759230613708496,-0.27185596565246095,-0.11820307195969713,-10.664899552435926,0.9129997159743782,1.1459806972234925,0.7683552955661896
1730865953.1339393,-1.7897979021072388,0.9865586757659912,-9.764646530151367,-0.2861894506511242,-0.14007492955612133,-10.660461531798592,0.9116497877231483,1.1509508363172407,0.6746434627557061
1730865953.1840162,-1.698754072189331,1.0258070230484009,-9.786855697631836,-0.29873696482603507,-0.16360214679021967,-10.655754920451356,0.9144060249974517,1.1515541436492704,0.8748126072904293
1730865953.2339149,-1.6195176839828491,1.096706748008728,-9.849236488342285,-0.3093958818975969,-0.18766222891829903,-10.650649735324766,0.9136587282521657,1.155042040147423,0.8351661797888276
1730865953.2839737,-1.6195176839828491,1.096706748008728,-9.849236488342285,-0.31789244059397936,-0.21113173411381575,-10.645100315397752,0.9121164651990218,1.1580687460742543,0.7683738736049217
1730865953.2839737,-1.5690386295318604,1.1863417625427246,-9.894932746887207,-0.32377570199857836,-0.23310112332963967,-10.639224214809973,0.9121017832070543,1.1580895547694952,0.7677679671273049
1730865953.3338645,-1.5596836805343628,1.2637195587158203,-9.941064834594727,-0.32651132904595315,-0.2530055130707132,-10.633316757195011,0.9128921840628692,1.1626760186686558,0.8753563485074202
1730865953.384044,-1.59630286693573,1.3051685094833374,-9.960204124450684,-0.3256042231322192,-0.27069971906511964,-10.627833318357172,0.9113539148148992,1.1653737247962563,0.8355436243433698
1730865953.4338489,-1.6284863948822021,1.3273265361785889,-9.94701862335205,-0.32073102429262973,-0.2864581318657775,-10.623342205901025,0.9090202075241149,1.1673537666532905,0.7694922661298473
1730865953.4840422,-1.6553434133529663,1.316172480583191,-9.920696258544922,-0.3118666048711628,-0.30086710203974637,-10.620423931753646,0.9121332697982483,1.1733349448871626,0.8749465016874752
1730865953.5338588,-1.6599690914154053,1.2806527614593506,-9.860176086425781,-0.29934681677042374,-0.3146419059321211,-10.619532287431355,0.9123481739495484,1.1821594873798156,0.8753526497970828
1730865953.583919,-1.6765570640563965,1.1801283359527588,-9.819402694702148,-0.2838393755117459,-0.3284163092023205,-10.620862575692662,0.9112147921083867,1.1846422325909607,0.8355589709180791
1730865953.6338382,-1.6720153093338013,1.0732054710388184,-9.787087440490723,-0.2662514581243657,-0.3425320594199487,-10.624272973859714,0.9121890372115473,1.193404946160646,0.8755029641632861
1730865953.6838663,-1.6663193702697754,0.9791675806045532,-9.763050079345703,-0.2476122347893697,-0.35686924677772736,-10.629289496521505,0.9111326151193162,1.1956869195257098,0.8357378500045923
1730865953.7339408,-1.6707918643951416,0.9239218235015869,-9.750232696533203,-0.2289546062133142,-0.37078422998493854,-10.635185715484631,0.9094852314916947,1.197051951129183,0.7695780675120278
1730865953.7837968,-1.6994575262069702,0.9047927856445312,-9.781537055969238,-0.21122353239287775,-0.3831967194108684,-10.641108028231208,0.9073147300235742,1.205957573316877,0.8754700428241993
1730865953.8338177,-1.7137017250061035,0.9450106620788574,-9.824131965637207,-0.19523287596209396,-0.3928083566927161,-10.64623069583677,0.9046116672464317,1.2070355322539081,0.8355937502254229
1730865953.8838098,-1.7199853658676147,1.0237822532653809,-9.900525093078613,-0.18165511708493504,-0.39839942844456744,-10.64992347873103,0.9015140338089255,1.21692040066145,0.8753813057737143
1730865953.933771,-1.7121604681015015,1.109671950340271,-9.941783905029297,-0.17100734288210478,-0.39913373271754826,-10.651892525622657,0.8981027149570424,1.2270403842996545,0.8757615422427867
1730865953.9838536,-1.7125602960586548,1.1412822008132935,-9.991416931152344,-0.1636223865260259,-0.39478092079915694,-10.65224711015018,0.8941003030565592,1.229241136291987,0.8358398658918683
1730865954.033785,-1.7383090257644653,1.1559922695159912,-9.991555213928223,-0.15962951688526894,-0.3857732265598704,-10.651467225073432,0.8897217279987495,1.2304551759641624,0.7696494291470252
1730865954.0837812,-1.7700742483139038,1.0934906005859375,-9.966474533081055,-0.15897538984829002,-0.3730776954019467,-10.65027924965584,0.8853908664403038,1.237773722875341,0.8756702781971935
1730865954.1337168,-1.7931220531463623,1.0574482679367065,-9.924484252929688,-0.16148386809376725,-0.3579407441424419,-10.649469199143983,0.8802518501822613,1.2382154769652334,0.8357969129098498
1730865954.1838078,-1.8051255941390991,0.9757516384124756,-9.861323356628418,-0.16691716501179912,-0.341601810624055,-10.649683008414076,0.9175836244432096,1.249338688929551,0.8757463884726775
1730865954.233678,-1.8243852853775024,0.909440279006958,-9.807530403137207,-0.1750080654308006,-0.3250590525309037,-10.651266593493098,0.917689311941643,1.250418138285601,0.8359854225791101
1730865954.2837088,-1.831785798072815,0.8526820540428162,-9.77783489227295,-0.1854675828495631,-0.3089250541374504,-10.65418397095188,0.9173498844241637,1.260732249780271,0.8758955953076321
1730865954.3335953,-1.7967559099197388,0.8678164482116699,-9.767488479614258,-0.19797641962580773,-0.29339498572308614,-10.6580359749285,0.9165319077733182,1.2621808719128633,0.8361254901078805
1730865954.3836603,-1.7605763673782349,0.9291214346885681,-9.799591064453125,-0.21214978717951016,-0.2783489884442695,-10.662174986552412,0.9199136178539138,1.2727408718511029,0.8758801689054702
1730865954.433618,-1.710945725440979,1.0032237768173218,-9.818702697753906,-0.22748089750958456,-0.26356565503805196,-10.665878888128372,0.9196266486587278,1.2745220451945563,0.8358800966589467
1730865954.4836576,-1.7012803554534912,1.053971767425537,-9.838756561279297,-0.24330406772855445,-0.24895420789426806,-10.66852371180266,0.9187510859909219,1.275669726091858,0.8759336406623326
1730865954.5335536,-1.6881037950515747,1.0379717350006104,-9.849413871765137,-0.2588178364339311,-0.2346894669285482,-10.669697483543477,0.9172604326146854,1.276203158039907,0.8361956296204069
1730865954.5836434,-1.7113316059112549,0.9963055849075317,-9.854170799255371,-0.2731720454139176,-0.22118449684598174,-10.669237471591563,0.9237110648189449,1.2761717512852429,0.8761832187584263
1730865954.6335702,-1.745736837387085,0.9328804016113281,-9.85682487487793,-0.28559265443624504,-0.2089291502624074,-10.667208691166959,0.9239196806294567,1.2756015757899675,0.8361394402633279
1730865954.683587,-1.7479357719421387,0.8603179454803467,-9.831171989440918,-0.295505071129731,-0.1982879824803559,-10.66384552706689,0.9233990276510091,1.2745184773773466,0.7691995479916224
1730865954.733575,-1.7491909265518188,0.843873918056488,-9.839099884033203,-0.3026063493197203,-0.18935053548342123,-10.659474254181804,0.9248382907423565,1.2729650232450476,0.8765485004766782
1730865954.7836032,-1.7491909265518188,0.843873918056488,-9.839099884033203,-0.30686141133208683,-0.1818959639268996,-10.654444273160252,0.9242124070835608,1.2709262146959366,0.8364693470505772
1730865954.7836032,-1.719849944114685,0.8954249024391174,-9.856204986572266,-0.3084462577748953,-0.17548529297443652,-10.64909355806202,0.9242069889192521,1.2709141079840827,0.8361833671122981
1730865954.8335345,-1.69038987159729,1.013269066810608,-9.893735885620117,-0.3076646717115816,-0.16964684962740334,-10.64374893934955,0.9228422776442546,1.268467295843207,0.8767545911656598
1730865954.8834958,-1.6407148838043213,1.1782209873199463,-9.94733715057373,-0.3048513620783153,-0.16411356802698565,-10.638753289903514,0.9207613308607915,1.2655967412065177,0.8767913686958764
1730865954.9335127,-1.5968351364135742,1.3148117065429688,-9.980710983276367,-0.3002810189402684,-0.15905652733237002,-10.634505938007322,0.9178606539351175,1.2622945334999525,0.8368598888481884
1730865954.9834745,-1.5788203477859497,1.3853707313537598,-9.986942291259766,-0.29410930191755424,-0.15521210596167997,-10.631478465358676,0.9142330625260404,1.258618085747948,0.7705571696113148
1730865955.0333755,-1.59587824344635,1.345052719116211,-9.986001014709473,-0.28637399935037894,-0.1538000023404367,-10.630172071858318,0.9101401273791919,1.2545758675557135,0.876852607842792
1730865955.0834413,-1.6471034288406372,1.241713523864746,-9.92891788482666,-0.27707089899695225,-0.15621306180728056,-10.6310211293681,0.9050889219522651,1.2501008044721553,0.8368782053966665
1730865955.1334794,-1.7504501342773438,1.1041513681411743,-9.85863208770752,-0.26628907320265566,-0.16357555826314826,-10.63426600644375,0.8993674454584315,1.2452351688845793,0.7702643654427961
1730865955.1834555,-1.8304283618927002,0.9711137413978577,-9.74976921081543,-0.254364134340164,-0.1763346621722862,-10.639819116586535,0.8937107376882306,1.2399501277667564,0.8766334593096231
1730865955.2333221,-1.9156988859176636,0.9128645658493042,-9.670672416687012,-0.24198573543292268,-0.1940332272578133,-10.647162684674653,0.8868593960909888,1.2342557473134286,0.8371022755168112
1730865955.2834413,-1.9563443660736084,0.903839647769928,-9.61693286895752,-0.23020201448043684,-0.2153429063058787,-10.655329914376345,0.8793379110680773,1.227982985998829,0.7704575830112949
1730865955.3332965,-1.9563443660736084,0.903839647769928,-9.61693286895752,-0.22030558994448635,-0.23833319196920405,-10.663007515027136,0.8713107329170837,1.221191591113666,0.6777663079398815
1730865955.3332965,-1.9662718772888184,0.9583784937858582,-9.625625610351562,-0.21363071582788606,-0.2608566648008573,-10.668748995998229,0.8712602282803872,1.2211484661119711,0.6771214934391482
1730865955.3834836,-1.923431158065796,1.0500279664993286,-9.705564498901367,-0.21132576578138146,-0.28093539088178043,-10.671241454052858,0.8646599527083818,1.2136986316489622,0.8766924234184791
1730865955.4342368,-1.8367159366607666,1.1513241529464722,-9.823517799377441,-0.2141504143569917,-0.29709389281053883,-10.669573177895124,0.8555328565485891,1.2053758296729467,0.835902398829936
1730865955.4842105,-1.7143102884292603,1.2665013074874878,-9.948857307434082,-0.2223005418348884,-0.3085977352900868,-10.663466998360605,0.8490065554563498,1.1964459277816755,0.8767148596500827
1730865955.5342638,-1.5934988260269165,1.3747628927230835,-10.055098533630371,-0.23527293084289908,-0.3155601772311637,-10.653423869767526,0.8390642453823609,1.1866758807146998,0.8366246391082496
1730865955.5842412,-1.4835880994796753,1.4298890829086304,-10.111140251159668,-0.25181913682895884,-0.3189038568768671,-10.64071248366512,0.8326615047386573,1.1761413300066481,0.8766551466226509
1730865955.6342456,-1.443881630897522,1.4316983222961426,-10.103753089904785,-0.2700358318915097,-0.32017449611829657,-10.627180336033252,0.8217033065165146,1.164775081272197,0.8365826808677013
1730865955.6842623,-1.4952565431594849,1.3775787353515625,-10.049909591674805,-0.2876154668539885,-0.32122196387662316,-10.614916864556232,0.8154966587103701,1.1526722614278706,0.7705095746184986
1730865955.7341847,-1.6399167776107788,1.2702287435531616,-9.953142166137695,-0.3022498467349382,-0.3238067695075818,-10.605846748118708,0.8034533174100508,1.139759002848421,0.6778261454968487
1730865955.7842758,-1.8158236742019653,1.1555479764938354,-9.814238548278809,-0.3121181433514518,-0.32921814625615,-10.601347087323704,0.797646203376441,1.1259473665914121,0.5598334567337605
1730865955.8341494,-1.987913966178894,1.0372942686080933,-9.684324264526367,-0.3163230684457222,-0.3379918715163129,-10.601962101562703,0.7922147385578339,1.1114252704354346,0.41862737272262457
1730865955.8841746,-2.1046435832977295,0.9711049795150757,-9.589987754821777,-0.3151287048805639,-0.3497967695355594,-10.607273143378276,0.7784902467815187,1.0959013130865312,0.24647472212424948
1730865955.9341092,-2.1483964920043945,0.9394667744636536,-9.553539276123047,-0.30991661630409173,-0.36351815309595537,-10.615968337640664,0.7640785556336037,1.079592247466974,0.048985515616656324
1730865955.9841945,-2.121264934539795,0.9565346837043762,-9.586009979248047,-0.3028701566158778,-0.3775132970982825,-10.626112098399961,0.7488263591189859,1.0622722914809681,-0.17613165111999526
1730865956.0340698,-2.039263963699341,0.9619608521461487,-9.645097732543945,-0.29647878776005304,-0.3899598599304668,-10.635553015020502,0.7453200443272673,1.0440875399393543,0.8720882471708304
1730865956.0840585,-1.9312196969985962,0.9948458671569824,-9.719782829284668,-0.29299872730162835,-0.3991925744000797,-10.64235991355049,0.729164385388804,1.0248718806996342,0.8319374572852768
1730865956.1340225,-1.8107657432556152,1.0069457292556763,-9.799466133117676,-0.2940010845911307,-0.40395178304166923,-10.645171567211765,0.7122968761388677,1.0046785739151423,0.7652756372847906
1730865956.184022,-1.7375962734222412,1.0039891004562378,-9.883305549621582,-0.30010092202965016,-0.4035141659684146,-10.643396947440516,0.6946758365785296,0.9834630484144327,0.6719920823449846
1730865956.2339506,-1.6901278495788574,0.9899908900260925,-9.963652610778809,-0.3109138869725713,-0.39770374552129106,-10.637264083371177,0.6953424471851015,0.9612841569232534,0.8710994584291026
1730865956.2840056,-1.6511867046356201,1.0167818069458008,-10.022025108337402,-0.325221900105084,-0.38681616971181976,-10.627742876746105,0.6768338826302602,0.9379903875174231,0.8307822147035917
1730865956.3338845,-1.626352071762085,1.0566904544830322,-10.058816909790039,-0.34126066862276627,-0.37152483910461837,-10.616368214927082,0.6795214044893738,0.9140454385389266,0.8701923316523704
1730865956.3839247,-1.6089198589324951,1.1275053024291992,-10.08283519744873,-0.3570312907750799,-0.35281912917995817,-10.604994241131884,0.6601502940652783,0.8889106587918761,0.8300515862039155
1730865956.433835,-1.548673152923584,1.161179542541504,-10.08017635345459,-0.3705705560757299,-0.33196532075082286,-10.59552337848924,0.664877327113996,0.8631332108111834,0.868954876328201
1730865956.4838657,-1.5168516635894775,1.1840696334838867,-10.051786422729492,-0.3801390238718177,-0.3104411063411662,-10.589649916408622,0.669516393798625,0.8361672239898499,0.8691232331390536
1730865956.533793,-1.4813148975372314,1.1318827867507935,-9.987784385681152,-0.38432719228082435,-0.28980151815213245,-10.588638338281028,0.6494689487920201,0.8089670405549062,0.8296532462459204
1730865956.5838237,-1.4938756227493286,1.0512200593948364,-9.905617713928223,-0.3821232913287651,-0.27146963737935836,-10.593147510840911,0.6282427957530983,0.7807643071348205,0.7633413454574491
1730865956.6337664,-1.5253958702087402,0.9455553293228149,-9.82075309753418,-0.3729809536851138,-0.2564895842620069,-10.603119679437816,0.6061211701938218,0.7519655259385938,0.6707017669710091
1730865956.683823,-1.6069215536117554,0.8572342395782471,-9.72569751739502,-0.3568951752875704,-0.24531828359294816,-10.61775763531874,0.6167140383881748,0.7224357335857284,0.8692685503481191
1730865956.7337284,-1.7038275003433228,0.803158164024353,-9.66273307800293,-0.33447331540410974,-0.2377354219984507,-10.635600236024757,0.5940320159909315,0.6924854060281499,0.8295214811688428
1730865956.7837372,-1.8090814352035522,0.8006678223609924,-9.635173797607422,-0.306972284743927,-0.2329129840428519,-10.65469492961044,0.6072638440338659,6.554302532092635,0.8693165906918926
1730865956.8336544,-1.8927173614501953,0.8072279691696167,-9.634767532348633,-0.27626408487078824,-0.22962746733751915,-10.672856362045842,0.6194654693867896,6.577137464357775,0.8693351197876212
1730865956.883653,-1.9440635442733765,0.8602471947669983,-9.668485641479492,-0.24470056669097465,-0.2265449585076203,-10.687972554084432,0.596961197995884,6.642424127114895,0.8293130674053968
1730865956.9336395,-1.9826576709747314,0.9154075980186462,-9.733817100524902,-0.2148806027739781,-0.22250098604203047,-10.698302954923903,0.5738385382561684,6.707269122635305,0.7623893251695829
1730865956.9837236,-1.9989776611328125,0.9727869033813477,-9.810914993286133,-0.18936418472037278,-0.21672013726544662,-10.702723301331638,0.5910252974460578,6.668001542532022,0.8691703498558956
1730865957.033659,-1.9968469142913818,1.0430967807769775,-9.891023635864258,-0.1703938640523283,-0.20894103583696733,-10.700881918568646,0.5682955485457764,6.7036094302425715,0.82891220986962
1730865957.083661,-1.9078164100646973,1.1033395528793335,-9.982389450073242,-0.1596533938132292,-0.19944177273773694,-10.693244011369732,0.545206130071758,6.738626308395733,0.7620582187616818
1730865957.1336153,-1.811535358428955,1.1505705118179321,-10.037453651428223,-0.15805720124617464,-0.18898234875307474,-10.681023701358226,0.567713519042491,6.6915111523635105,0.8691763730331034
1730865957.1835968,-1.684177279472351,1.158101201057434,-10.068291664123535,-0.1655839388122828,-0.1786745760131083,-10.666013088731242,0.5452312193357525,6.7105866366996585,0.8291087962229274
1730865957.2335598,-1.607757568359375,1.1402833461761475,-10.083259582519531,-0.18121293607475045,-0.16978762668000955,-10.65032673985251,0.5222817714033373,6.729255568541892,0.7623512120501874
1730865957.2836456,-1.5794684886932373,1.0847864151000977,-10.054425239562988,-0.2030245109704391,-0.16351394658556906,-10.636105482994557,0.49885387681895327,6.747506338713949,0.6689900218795002
1730865957.3335211,-1.5794684886932373,1.0847864151000977,-10.054425239562988,-0.2284756069720209,-0.16074875504153263,-10.625235170626482,0.5305618435387444,6.688670539467836,0.869529027445718
1730865957.3335211,-1.6266781091690063,1.0333889722824097,-10.00820255279541,-0.2547905649321841,-0.1619496434949661,-10.619129217699731,0.5304402096981906,6.688716061887748,0.8693869237138712
1730865957.3835816,-1.7076492309570312,0.985153317451477,-9.948284149169922,-0.2793743671510843,-0.16709299659086388,-10.618593846234658,0.5589877486978361,6.663855219088822,0.8694724841053364
1730865957.4335127,-1.7534598112106323,0.9991579055786133,-9.872818946838379,-0.30016775869569484,-0.17569914169586004,-10.623758854086134,0.5367989448718969,6.666779423073444,0.8297697992056501
1730865957.4836228,-1.761965274810791,1.019677996635437,-9.80775260925293,-0.31586385762524377,-0.18693230327114915,-10.63406709799959,0.5137744501032618,6.6692570439277405,0.7632900967966029
1730865957.5335631,-1.7332777976989746,1.0601274967193604,-9.740081787109375,-0.32592961628344963,-0.19978052289498627,-10.648338071781787,0.4899409360184675,6.671249116915053,0.6700648300081214
1730865957.5835302,-1.7360866069793701,1.0578792095184326,-9.706241607666016,-0.3304641964775473,-0.213251280073192,-10.66490860980112,0.46542691485256676,6.672715314747402,0.5508282960556377
1730865957.633568,-1.7078824043273926,1.0534155368804932,-9.675688743591309,-0.32999731001625465,-0.22650136715731717,-10.681834977245515,0.5061132488318318,6.646840673387398,0.8692732580006779
1730865957.683474,-1.7233083248138428,1.0290294885635376,-9.678693771362305,-0.32531070657079025,-0.23887354697325933,-10.69712871523819,0.4817046702389924,6.64571143093558,0.8291750499547584
1730865957.733404,-1.7296462059020996,1.0342074632644653,-9.693284034729004,-0.3173122649016433,-0.24987353601708331,-10.7089923825418,0.5214101192966417,6.629815077139975,0.8692157826890048
1730865957.7834828,-1.7782323360443115,1.0552161931991577,-9.738544464111328,-0.30696733568962853,-0.2591456656052029,-10.71602722125699,0.49730540908966125,6.62634542958836,0.8291575306414598
1730865957.833414,-1.8271551132202148,1.1032934188842773,-9.756502151489258,-0.29527951634357286,-0.26648597756172576,-10.717387103953854,0.4724305291692223,6.622218487899852,0.7623833450445908
1730865957.8834038,-1.8970963954925537,1.1459044218063354,-9.80887222290039,-0.2833005400316375,-0.27188832900749504,-10.712852077372794,0.44676500325108,6.617407179540741,0.6686313132041655
1730865957.933347,-1.9201931953430176,1.1988476514816284,-9.833016395568848,-0.27213595284337044,-0.2755876336725809,-10.702815655223354,0.49384603448650805,6.613351931645491,0.8693271964234065
1730865957.983341,-1.93211030960083,1.2210768461227417,-9.855461120605469,-0.2629051897557364,-0.2780650073675474,-10.6882005119601,0.46879114112579306,6.608679092112748,0.8292029115261459
1730865958.0332818,-1.8952357769012451,1.1917591094970703,-9.863088607788086,-0.2566359797358435,-0.2799894657568607,-10.670316291979761,0.5138713094521004,6.60170459342859,0.8695254293020779
1730865958.0833924,-1.8952357769012451,1.1917591094970703,-9.863088607788086,-0.25412134385315766,-0.2820910834827794,-10.65068052453083,0.4892910900202916,6.595861336405612,0.8293095430240086
1730865958.0833924,-1.8420480489730835,1.143674373626709,-9.883455276489258,-0.2557976117798133,-0.2850074848407603,-10.630838997187116,0.4891565380326928,6.595827825068971,0.8290189804995737
1730865958.1332362,-1.7618697881698608,1.129366159439087,-9.8805570602417,-0.26166923309388335,-0.2891604548416935,-10.612220059874735,0.5321451792732995,6.590933584345393,0.8696128323271485
1730865958.1833367,-1.694387674331665,1.115341305732727,-9.905627250671387,-0.2712644078743306,-0.29469197497557786,-10.596036138706939,0.5081736154387412,6.584493704081894,0.8298842563163311
1730865958.2332082,-1.6100733280181885,1.094612956047058,-9.931663513183594,-0.2836285399267197,-0.3014675034719369,-10.583231856974002,0.4836442681141081,6.577345764133687,0.763935438423644
1730865958.2832747,-1.5418109893798828,1.0807050466537476,-9.972339630126953,-0.2973815864576881,-0.3091274428897378,-10.574479320211314,0.52846656579199,6.578047174652398,0.8707566372031073
1730865958.3331993,-1.499990701675415,1.0729589462280273,-10.015694618225098,-0.3108408664055131,-0.3171567950186536,-10.570211102622089,0.56619892769945,6.572763873095486,0.8719965069307881
1730865958.383289,-1.4388550519943237,1.0682786703109741,-10.016959190368652,-0.3221929070971924,-0.3249625088296447,-10.570662213517203,0.5428267682374506,6.56565400108906,0.832732304626536
1730865958.4332135,-1.4234479665756226,1.0768064260482788,-10.036955833435059,-0.329683408767163,-0.3319546841454444,-10.57588822634642,0.5792478581319512,6.560232881211597,0.8732464508039447
1730865958.4831707,-1.4432932138442993,1.1116139888763428,-10.005428314208984,-0.3318020725426707,-0.33762782891263354,-10.585751085461744,0.5559594271774685,6.551866392863468,0.8343160595361037
1730865958.5341525,-1.5085569620132446,1.1484904289245605,-9.962830543518066,-0.32746822727293534,-0.3416428670857577,-10.599884050890836,0.531385364445998,6.542467351343096,0.7673335084531627
1730865958.5831633,-1.5824558734893799,1.1850098371505737,-9.87814998626709,-0.31620922393613765,-0.34389766077792505,-10.617641909768315,0.5701222828244328,6.54717006512032,0.8741614992375933
1730865958.6341417,-1.7026240825653076,1.1562330722808838,-9.797066688537598,-0.29829181331834065,-0.344549534858936,-10.63804983530201,0.5456954443047689,6.538792055588233,0.8341299435127718
1730865958.6841717,-1.8434793949127197,1.0966352224349976,-9.701960563659668,-0.27477996197372834,-0.3439480774248691,-10.659781525509521,0.5210314107452586,6.529712035053619,0.7680211424784926
1730865958.7341104,-1.9647480249404907,1.0394996404647827,-9.635427474975586,-0.24751363681775818,-0.34248181070462314,-10.68119563210298,0.49566637791661505,6.51975491060726,0.6750530589422412
1730865958.7841659,-2.0362460613250732,0.9632866978645325,-9.589738845825195,-0.21898529496043684,-0.3404081068029943,-10.700445330029972,0.541607753821423,6.53338575138057,0.874389907844927
1730865958.8331368,-2.0580220222473145,0.9396564364433289,-9.595098495483398,-0.1920844875026816,-0.3377437223631165,-10.715660082515798,0.5175974053447819,6.5254128992334595,0.8355978130245225
1730865958.8841126,-2.0260348320007324,0.9472898840904236,-9.640368461608887,-0.16972799517447604,-0.3342593718876346,-10.7251821957848,0.5601285601214373,6.525182111351734,0.874930298786502
1730865958.9341154,-1.9630955457687378,1.0134309530258179,-9.721592903137207,-0.15444636737342257,-0.3295902074302839,-10.727822781399643,0.5365478840009718,6.516754963013458,0.8345916972706819
1730865958.984118,-1.895137906074524,1.0919886827468872,-9.815616607666016,-0.1480182099891017,-0.3234300348660257,-10.723085003410793,0.5770231111163074,6.512959371780052,0.8764160040627939
1730865959.0339692,-1.8222602605819702,1.1473636627197266,-9.905097961425781,-0.1512322088346792,-0.3157303376561071,-10.711298056457832,0.5545249958014673,6.503793233198374,0.8369370654225774
1730865959.0840662,-1.7455374002456665,1.1361726522445679,-9.956357955932617,-0.1638134227851738,-0.3068050510940552,-10.693618497713587,0.593193096273215,6.497725588909543,0.8758920608645213
1730865959.1339521,-1.700907826423645,1.1482601165771484,-10.000899314880371,-0.18450227370365785,-0.2972849585201907,-10.671886294458268,0.571424282963289,6.487248273712619,0.8358244709586022
1730865959.1839936,-1.7207727432250977,1.1174755096435547,-10.020934104919434,-0.21126669944126292,-0.2879633827699543,-10.648370535840145,0.549033836253614,6.475976619164691,0.7687808226946975
1730865959.233999,-1.7523990869522095,1.134559988975525,-9.988039016723633,-0.2416302305461519,-0.27962586792669625,-10.625464533283246,0.58927295018723,6.481160790659905,0.8769111402591212
1730865959.2839696,-1.8286563158035278,1.1376848220825195,-9.950651168823242,-0.2730609367194239,-0.2729299448885624,-10.605373330684754,0.5674212164209989,6.471442337705424,0.837390576890321
1730865959.3339097,-1.8731988668441772,1.1633003950119019,-9.883402824401855,-0.3033309577010664,-0.26835595806713897,-10.589832182234902,0.6052988180369082,6.468358979940334,0.8776946321386984
1730865959.3839538,-1.87714421749115,1.2097761631011963,-9.829784393310547,-0.33075961401614107,-0.26621703267794944,-10.57990449392693,0.6366457690065808,6.459924421778893,0.8779904867101248
1730865959.43391,-1.8527741432189941,1.2444229125976562,-9.779115676879883,-0.35428472525471355,-0.2667060625711793,-10.575893401538524,0.6155923585385635,6.449747433551873,0.838818844094154
1730865959.483997,-1.7791498899459839,1.2536530494689941,-9.761033058166504,-0.3733708074945419,-0.26994649182028696,-10.577376702229687,0.5933453799133841,6.438761925868125,0.7726269808251398
1730865959.5338774,-1.7433054447174072,1.2289862632751465,-9.7857084274292,-0.38782620070218043,-0.2760011274482911,-10.583357391786594,1.0549866272954507,6.427208431090572,0.8789066882587953
1730865959.583923,-1.7001326084136963,1.2023404836654663,-9.813427925109863,-0.3976256938155097,-0.2848228493367707,-10.592501829913068,1.0544448861560005,6.414861766374974,0.8394434176888927
1730865959.6338441,-1.658395528793335,1.1724835634231567,-9.855494499206543,-0.40280306976350094,-0.29618260260425416,-10.603406986087567,1.0529172540654645,6.412407207346368,0.8794554803749524
1730865959.6838272,-1.589672565460205,1.1396898031234741,-9.88569164276123,-0.4034041898377894,-0.309624045825385,-10.614826721181817,1.060568819982499,6.403370974304124,0.8802148099473606
1730865959.733828,-1.5081108808517456,1.1046420335769653,-9.922158241271973,-0.39945437737440553,-0.3244645884384517,-10.625816559548403,1.0606878485442828,6.390440104900989,0.8405130486432005
1730865959.7838185,-1.4295170307159424,1.1049782037734985,-9.95274543762207,-0.39092012004870896,-0.33983990168373523,-10.635795114686859,1.059820568156992,6.376832137740837,0.7747801976044091
1730865959.833836,-1.4276865720748901,1.1359474658966064,-9.951932907104492,-0.37769429219371264,-0.3547972730475627,-10.644535587294126,1.057987981583575,6.3622779324156,0.682080032762962
1730865959.8838398,-1.4848183393478394,1.1582427024841309,-9.916403770446777,-0.35966512971334186,-0.3684352150263697,-10.652091022172513,1.0615496021782673,6.346782817221853,0.8802745666549497
1730865959.9337692,-1.5948827266693115,1.1681678295135498,-9.850994110107422,-0.33689444923884626,-0.38004284755218853,-10.658655483248973,1.0642834634345693,6.360487725410615,0.8811980935001152
1730865959.9839382,-1.7093874216079712,1.1369863748550415,-9.79179573059082,-0.30984617375172085,-0.38917322092953155,-10.664393315084428,1.0642160561020155,6.346815632581575,0.8414568299676471
1730865960.0338023,-1.8193243741989136,1.1080282926559448,-9.737626075744629,-0.2795585334848038,-0.395623312716079,-10.669297855226219,1.0659481652475813,6.349382602904539,0.881656266417954
1730865960.083812,-1.884267807006836,1.1029753684997559,-9.714607238769531,-0.24767669615833476,-0.39935670695125935,-10.673132115699948,1.0658903634640366,6.336309766604592,0.8419317859288854
1730865960.1337838,-1.9105286598205566,1.1115912199020386,-9.716594696044922,-0.21631881088588506,-0.4004391505961772,-10.675467623708766,1.065253912070316,6.32227971192902,0.7757007927115588
1730865960.1837988,-1.9257912635803223,1.116139531135559,-9.744019508361816,-0.18780908920002864,-0.39902318364272293,-10.675803089157732,1.0679009380031614,6.307210620079657,0.8819366423475441
1730865960.2337227,-1.9447674751281738,1.1083884239196777,-9.78177261352539,-0.16436498242642825,-0.39535626583753936,-10.67372080392596,1.0680110546038522,6.291165888721544,0.842060356109962
1730865960.28374,-1.942165493965149,1.0875669717788696,-9.824285507202148,-0.14783106746530425,-0.38977028588362583,-10.669029918331361,1.0697286317850139,6.308992675056982,0.8825686037804086
1730865960.3336928,-1.9253342151641846,1.0885087251663208,-9.844911575317383,-0.1394974926127055,-0.38264308622605003,-10.661853598420736,1.0700989633140054,6.2946916093591625,0.842835204549703
1730865960.383695,-1.8715403079986572,1.0781447887420654,-9.8873929977417,-0.13998886347376224,-0.37435693386073393,-10.652640050818695,1.070120059014345,6.2794593169977455,0.7765332587075098
1730865960.4336674,-1.8378441333770752,1.0401469469070435,-9.917705535888672,-0.1492081275375424,-0.365268200532116,-10.64211299365994,1.069780610635739,6.263313192374,0.6837194829179323
1730865960.48365,-1.7672381401062012,1.032460331916809,-9.951805114746094,-0.16634247080560982,-0.355675543756776,-10.631193145652794,1.0690654080204627,6.246298756891212,0.8821637186968132
1730865960.5337403,-1.7021394968032837,1.0370874404907227,-9.975760459899902,-0.1899338828084846,-0.3457954493254723,-10.6209067573227,1.0678859238629717,6.228284395088372,0.8421226912176023
1730865960.5838394,-1.65043306350708,1.073177456855774,-10.0149564743042,-0.218001400090134,-0.3357795042779025,-10.612289935369803,1.0662786680232543,6.209405345190348,0.8817283407385625
1730865960.6337297,-1.6014059782028198,1.14634108543396,-10.020565032958984,-0.248209965673448,-0.32578430911959183,-10.606300718513811,1.064029170723576,6.189821832841578,0.8418209962718554
1730865960.6836996,-1.5850491523742676,1.22859787940979,-9.987622261047363,-0.27808059719823636,-0.3160748674976328,-10.603732057233136,1.0613493085486485,6.1694270802543425,0.8816925385459918
1730865960.733647,-1.6096011400222778,1.2526041269302368,-9.945744514465332,-0.30522681058476675,-0.307113231155007,-10.60510656191394,1.0577348628175176,6.148192857170578,0.8417728133432265
1730865960.7837098,-1.665219783782959,1.2559261322021484,-9.857342720031738,-0.32760450286568255,-0.29956079333838925,-10.610561788177847,1.053331936577883,6.126219236545834,0.7753433558038795
1730865960.8336103,-1.7471556663513184,1.2027697563171387,-9.769553184509277,-0.34375038087141185,-0.294161553226558,-10.619756867914097,1.0480996299692118,6.103544903968191,0.682553738030051
1730865960.8836133,-1.8258168697357178,1.1118991374969482,-9.667461395263672,-0.35296300158742194,-0.2915418312193749,-10.631826788837095,1.0428467433408721,6.080105310877216,0.881401505616958
1730865960.9335773,-1.8815194368362427,1.0185134410858154,-9.608986854553223,-0.3553778143259299,-0.29199138686364196,-10.645410733770893,1.035942822533256,6.055981028621981,0.8415191343266896
1730865960.9835758,-1.8734042644500732,0.954424262046814,-9.58102798461914,-0.3518995514755108,-0.2953029282255522,-10.658778843984514,1.0296223310607495,6.031055084712185,0.881068074251144
1730865961.033538,-1.824157476425171,0.9195178747177124,-9.613903045654297,-0.3439826357795348,-0.3007411200855224,-10.670059894642824,1.0210497967884111,6.005345282114231,0.8408125729778155
1730865961.0836797,-1.7324042320251465,0.9404146075248718,-9.695297241210938,-0.3332995855312189,-0.30716267525018226,-10.677540768807233,1.011653898043129,5.978946329428369,0.7739694233463799
1730865961.133535,-1.6441199779510498,0.9858413338661194,-9.814929962158203,-0.32138502623120047,-0.3132526413083578,-10.6799843999433,1.0043562386548366,5.951883524714801,0.8819520818185379
1730865961.1836119,-1.5686087608337402,1.074684739112854,-9.920032501220703,-0.30935474534241153,-0.31781140083634785,-10.676894689552721,0.9935265708599874,5.923863617232024,0.8420804256592054
1730865961.2334654,-1.542607307434082,1.151999592781067,-10.003628730773926,-0.29777224524433354,-0.32001886626619847,-10.668649209234959,0.9860806301738133,5.895072530036728,0.8824322396257599
1730865961.283573,-1.5542049407958984,1.2301385402679443,-10.041191101074219,-0.28668655094572354,-0.3196104180905712,-10.656449744196404,0.9740580499077021,5.865565502211595,0.8427819408799472
1730865961.3333614,-1.6225168704986572,1.2406723499298096,-10.066964149475098,-0.2758140854590425,-0.31691755865529925,-10.642104586279817,0.9613752524634527,5.83536004676191,0.776862303011842
1730865961.3834236,-1.7253564596176147,1.2138913869857788,-10.027120590209961,-0.2648038690960346,-0.3127535143034393,-10.6277076383299,0.9479267502200225,5.804153453018393,0.6838812865985856
1730865961.4334004,-1.8377536535263062,1.1672279834747314,-9.96264362335205,-0.2535109956519264,-0.3081719562017091,-10.615282103232992,1.08582033076936,5.7722557064720625,0.8828750005638196
1730865961.4834306,-1.8377536535263062,1.1672279834747314,-9.96264362335205,-0.2421831522204329,-0.30419275284841646,-10.606458162003713,1.0853197814631361,5.739518359036954,0.8431087248355024
1730865961.4834306,-1.8791604042053223,1.118408203125,-9.90227222442627,-0.23147211678981167,-0.3016013347727614,-10.602268387984822,1.0853141276457767,5.739286081118215,0.8427359429530018
1730865961.5334456,-1.8703622817993164,1.049418330192566,-9.87574577331543,-0.22228413308034847,-0.30084280830979004,-10.603086033135861,1.0882873531140078,5.705950727539187,0.8836317558224567
1730865961.5833516,-1.7904411554336548,0.9940613508224487,-9.860814094543457,-0.2155610295800396,-0.30196438560522976,-10.608663376570526,1.0906977621238685,5.6719601506456545,0.8831358344120912
1730865961.6333067,-1.6464136838912964,0.9628157019615173,-9.86606502532959,-0.21202931894659868,-0.30460162713480665,-10.618246553341734,1.0914731806745999,5.63690812946111,0.8432063904184369
1730865961.683353,-1.5627888441085815,0.9482263922691345,-9.848698616027832,-0.21193948794508077,-0.3080441994167255,-10.630748286603708,1.0917157995726257,5.6011451510770955,0.7767018538691066
1730865961.7333167,-1.562458872795105,0.9341247081756592,-9.841981887817383,-0.21491267854643503,-0.31137550389462676,-10.644925143980291,1.091426261965788,5.564774876348835,0.6840315114399333
1730865961.783527,-1.5797141790390015,0.9555282592773438,-9.840194702148438,-0.22001302249516935,-0.31363989378494816,-10.659520428015469,1.091177965446191,5.527246646810343,0.8826009285238621
1730865961.8334281,-1.656130313873291,1.0449622869491577,-9.828990936279297,-0.22601612172376412,-0.31401436480184475,-10.673372998395333,1.0907974504459288,5.489326628188013,0.8425554597499394
1730865961.883437,-1.7408385276794434,1.130565881729126,-9.812065124511719,-0.23174382872018523,-0.31199066114453283,-10.685494234471221,1.0898415501292076,5.45039110913423,0.7755274575952086
1730865961.933372,-1.8037424087524414,1.1793253421783447,-9.80042552947998,-0.23635214129390048,-0.3075307961103173,-10.695107491162208,1.0883083665000706,5.410906194346861,0.6822640920687634
1730865961.9834905,-1.8700915575027466,1.1633671522140503,-9.820185661315918,-0.23949817245352678,-0.3011037056371033,-10.70166393403948,1.092745964429165,5.370353464446633,0.882413973607335
1730865962.0333447,-1.9134926795959473,1.100498914718628,-9.80792236328125,-0.241363642031372,-0.29354834977011846,-10.70485742270237,1.092293780267086,5.329477187706462,0.8424088677746223
1730865962.083408,-1.9134926795959473,1.100498914718628,-9.80792236328125,-0.24256126857695975,-0.2858207735249511,-10.70463057764556,1.0946482231300583,5.287482290198932,0.8821816414081226
1730865962.083408,-1.9817607402801514,0.9967160820960999,-9.799867630004883,-0.24397010239494918,-0.2787488292350569,-10.701150965275758,1.0946492494130353,5.287255638496893,0.8820363529783037
1730865962.1332574,-2.009242534637451,0.8998187184333801,-9.762540817260742,-0.2465695527642213,-0.27285029804150773,-10.694757819848443,1.0945349946551297,5.245156046680789,0.8421059859460407
1730865962.1833553,-2.0146119594573975,0.8520634174346924,-9.732019424438477,-0.2513145795159082,-0.26820623919793213,-10.68588572856023,1.0958551433493149,5.201739410129806,0.881999014887521
1730865962.2332752,-1.9653370380401611,0.8578269481658936,-9.763777732849121,-0.2590165822192221,-0.2644389127748041,-10.674989053323504,1.09758393672453,5.157989296423963,0.8819684981361153
1730865962.2832632,-1.8760980367660522,0.9307280778884888,-9.811843872070312,-0.2701901888432402,-0.2608545990764656,-10.662523604406525,1.0975592362783064,5.113289946656577,0.8416937114219879
1730865962.3331802,-1.7786275148391724,1.0387083292007446,-9.875558853149414,-0.28488614974728244,-0.2567185020392324,-10.649005198819367,1.0968462518043158,5.068377670597005,0.7753671738592538
1730865962.3832405,-1.7020138502120972,1.1243410110473633,-9.926508903503418,-0.3025740088739088,-0.2515568259241403,-10.63508942718744,1.0953874517745328,5.022319067133945,0.6815656574151594
1730865962.4332123,-1.6601722240447998,1.1989141702651978,-9.964488983154297,-0.32214167915036523,-0.24536703626443732,-10.621604912127337,1.0983972684620553,4.97604899740788,0.8819938032015774
1730865962.4832904,-1.6342209577560425,1.2611186504364014,-9.975395202636719,-0.34203369045695636,-0.23866909502733796,-10.609511601498625,1.0975611686646802,4.9288245337090055,0.8420188601943259
1730865962.5331616,-1.622498869895935,1.2675787210464478,-9.962905883789062,-0.3604847736036442,-0.2324104985597176,-10.599791215287999,1.0998166115641461,4.881473867475898,0.8819839571400133
1730865962.5832772,-1.639206886291504,1.2061913013458252,-9.937066078186035,-0.37577799797839484,-0.22775948844314511,-10.593298979664063,1.0989568185848555,4.83289699870589,0.8419444481906132
1730865962.6331246,-1.6860491037368774,1.1449236869812012,-9.880510330200195,-0.3864814297501463,-0.22581978428198407,-10.590614429066994,1.0971636961100113,4.784467309999306,0.7762000958407695
1730865962.6834114,-1.7109571695327759,1.0855287313461304,-9.83228588104248,-0.391639829148825,-0.22734645519872196,-10.59192292360509,1.101084232409845,4.734734791310045,0.8815288859006969
1730865962.7330935,-1.709753394126892,1.0741137266159058,-9.788422584533691,-0.39088192579055325,-0.23257040561537726,-10.596954697631134,1.1000804654419887,4.684585613792338,0.8413011855333496
1730865962.7832174,-1.6724727153778076,1.0828081369400024,-9.795247077941895,-0.38440114446697926,-0.24118861009290177,-10.60500943002524,1.1025240742342182,4.634346761554865,0.7754039932148872
1730865962.8330767,-1.6206578016281128,1.0981696844100952,-9.837224006652832,-0.37281547890785116,-0.2524954029772475,-10.615083121878431,1.1017410547552913,4.582595306762874,0.6812513056626517
1730865962.8830912,-1.5427521467208862,1.13316011428833,-9.84755802154541,-0.3569615049280078,-0.2655784171101464,-10.626070671988114,1.103851660934677,4.531835800454839,0.8839030473594865
1730865962.933006,-1.5629488229751587,1.1618047952651978,-9.863628387451172,-0.33770165379174255,-0.27950912597019106,-10.636962136012972,1.1032517093848762,4.47949789069348,0.8450231480658539
1730865962.9830446,-1.629149079322815,1.215698003768921,-9.845447540283203,-0.3158377739899892,-0.29349443362194716,-10.646957379572703,1.1018169291582813,4.425807842922712,0.7787183955691378
1730865963.0340078,-1.6967530250549316,1.2590280771255493,-9.838217735290527,-0.292170297870497,-0.30698104464504655,-10.655489738062442,1.0996010976552555,4.37121825926748,0.6850077677548223
1730865963.084012,-1.7413307428359985,1.2730633020401,-9.82457160949707,-0.26761860583747676,-0.3197053224733387,-10.662195148923928,1.1040881552504815,4.316509033257204,0.8838137394325669
1730865963.1339903,-1.7413307428359985,1.2730633020401,-9.82457160949707,-0.24327241397252358,-0.33167166448041385,-10.66686928561268,1.1032886239060995,4.261008897760946,0.8440154833932944
1730865963.1339903,-1.7646113634109497,1.2583575248718262,-9.81188678741455,-0.22032617963450152,-0.34306191208934206,-10.669435913952762,1.103282892078757,4.260718752903387,0.8437395237118713
1730865963.1839724,-1.7786732912063599,1.2127102613449097,-9.802888870239258,-0.19994967003488384,-0.35410954274936346,-10.669923611823691,1.1048096137134777,4.20452196474104,0.8846835200858929
1730865963.233917,-1.8130278587341309,1.14822256565094,-9.807696342468262,-0.183173190205199,-0.3649682817400559,-10.668444044144517,1.104343856145326,4.147413732350789,0.8452287159627422
1730865963.2838762,-1.809478998184204,1.100132703781128,-9.810400009155273,-0.17081639876501975,-0.3755973190405404,-10.665177905288765,1.1034353501679857,4.089222306440711,0.7790580207687712
1730865963.333905,-1.797210454940796,1.1131501197814941,-9.829365730285645,-0.16343818527428638,-0.3857085040638905,-10.66037372444097,1.105434279061611,4.0300772951162385,0.885134792773996
1730865963.383851,-1.7991148233413696,1.125964879989624,-9.836786270141602,-0.16128893209907985,-0.39482111627266087,-10.654352364245062,1.105012559887734,3.9698941142028668,0.8453056320065498
1730865963.4338167,-1.7826963663101196,1.1695894002914429,-9.845488548278809,-0.164283062002302,-0.40240662277150707,-10.647504167961237,1.1062565132080069,3.908871313592913,0.8860915459452832
1730865963.4838102,-1.7767739295959473,1.2048052549362183,-9.856528282165527,-0.1720108026024939,-0.4080518744571928,-10.640270248425807,1.1059931792463336,3.846656691369317,0.8465355304711549
1730865963.5337822,-1.8129676580429077,1.1983704566955566,-9.851751327514648,-0.1837905829777101,-0.4115733318497675,-10.633110523038052,1.1066432101045713,3.782450776033258,0.8863294345172703
1730865963.5838563,-1.865580439567566,1.1427628993988037,-9.82577133178711,-0.19877234859626292,-0.41303187811731124,-10.62645938565359,1.1062101908595414,3.718815981737589,0.8468800050810958
1730865963.633715,-1.881205439567566,1.0834192037582397,-9.824111938476562,-0.21607954023125364,-0.4126348825621513,-10.62066908665858,1.1052253882431777,3.6518835708008006,0.7785848233802877
1730865963.68373,-1.863053321838379,1.0553536415100098,-9.826824188232422,-0.23491975950212005,-0.4105880724175596,-10.615965396507043,1.10708398882404,3.587445674014912,0.8870583708881343
1730865963.7337158,-1.8265241384506226,1.0528087615966797,-9.850543975830078,-0.2546027322641332,-0.40699856125787337,-10.612447050989392,1.1063392819298927,3.5187344070814897,0.8468558983896376
1730865963.7837036,-1.7715882062911987,1.0776413679122925,-9.877630233764648,-0.2744797089256335,-0.40188129573438713,-10.610129059451422,1.1049866062041664,3.452185633176377,0.7827166742941959
1730865963.8336518,-1.7354477643966675,1.0973707437515259,-9.941924095153809,-0.2938655105807013,-0.39524242341932986,-10.609010052124203,1.1078039348756783,3.3831149953075657,0.886367394502904
1730865963.8837056,-1.689695954322815,1.1317925453186035,-9.966397285461426,-0.31199601168780433,-0.38717721974616237,-10.609143257464918,1.1069448868209042,3.3124505245415445,0.8463326773229156
1730865963.9335935,-1.689695954322815,1.1317925453186035,-9.966397285461426,-0.3280444247953679,-0.37793225696026544,-10.610673962756398,1.105301723304546,3.2416788636652503,0.7804353179803548
1730865963.9335935,-1.6389662027359009,1.1293141841888428,-9.971222877502441,-0.34118741234479005,-0.36790649934504877,-10.613808866163325,1.105287463251974,3.2411835064785675,0.7798854524996681
1730865963.9836588,-1.6623183488845825,1.1505361795425415,-9.938908576965332,-0.3506895022931351,-0.357599377878358,-10.61873377344789,1.108399915824169,3.1694013797947886,0.8874295898586442
1730865964.0335605,-1.685981035232544,1.114296793937683,-9.907242774963379,-0.3559918570941143,-0.34754069062190945,-10.625520567889911,1.1072722813400837,3.0941828992826563,0.8463899542894864
1730865964.0836053,-1.685981035232544,1.114296793937683,-9.907242774963379,-0.35680470603758296,-0.3382192052530011,-10.634054653005908,1.108942345094652,3.022334570829993,0.888894869864883
1730865964.0836053,-1.7127622365951538,1.098321795463562,-9.828071594238281,-0.35316850783686304,-0.3300155071106242,-10.644005270573345,1.1089384889945535,3.0218554764068526,0.888730165957189
1730865964.1335196,-1.7381293773651123,1.0863145589828491,-9.812661170959473,-0.34545806466030266,-0.3231606449147118,-10.654828035998314,1.1079122010539737,2.9474671586223202,0.8500103531838267
1730865964.1835907,-1.7394286394119263,1.1070185899734497,-9.751754760742188,-0.33434606146903423,-0.31773217132623144,-10.665784192628772,1.109447725444338,2.8724989793416085,0.7855207231297772
1730865964.2335656,-1.7783422470092773,1.099996566772461,-9.74980354309082,-0.3207374195385973,-0.3136840318193058,-10.675991894518994,1.108473920066987,2.795926226325551,0.6933452231290682
1730865964.2834716,-1.775434136390686,1.1180026531219482,-9.734968185424805,-0.30568374777672214,-0.31089528258188687,-10.684518696922071,1.1067165824903187,2.7187470580015023,0.5745889375378448
1730865964.3334875,-1.775434136390686,1.1180026531219482,-9.734968185424805,-0.2902888710865764,-0.3092142274752702,-10.690499013916835,1.109943280794789,2.6413738720496727,0.4348578205450162
1730865964.3334875,-1.7961090803146362,1.0978853702545166,-9.74190616607666,-0.27560900302773467,-0.30848340106143735,-10.69324584888449,1.109940138357852,2.6409425855038475,0.4339879526241768
1730865964.3834748,-1.8024729490280151,1.096219539642334,-9.761283874511719,-0.2625703642387271,-0.30853861249677583,-10.692334210708843,1.1090452718579287,2.5626525816949326,0.2635372604482857
1730865964.4334664,-1.8024729490280151,1.096219539642334,-9.761283874511719,-0.2519206078361081,-0.3091960145583381,-10.687649506789926,1.1108472319909748,2.4833764343901232,0.07863118352313528
1730865964.4334664,-1.8615046739578247,1.0873790979385376,-9.789366722106934,-0.24420780934752084,-0.3102528198243775,-10.679394676863144,1.1108458764865863,2.483036543583351,0.07773854902046376
1730865964.4834557,-1.8615046739578247,1.0873790979385376,-9.789366722106934,-0.23979208625827053,-0.3115006704380761,-10.668058703714987,1.110227715504287,2.402949395863086,-0.14492504142134482
1730865964.4834557,-1.8906596899032593,1.113863468170166,-9.796687126159668,-0.238877497226638,-0.31274397531251985,-10.654356076830886,1.1102226511855462,2.4025058256837166,-0.14622602661340875
1730865964.533443,-1.8906596899032593,1.113863468170166,-9.796687126159668,-0.2415294489677233,-0.3138294137159744,-10.63914287921465,1.1090073535255007,2.32197450391533,-0.3945081445744303
1730865964.533443,-1.8843986988067627,1.1354656219482422,-9.818350791931152,-0.24767070589726362,-0.31467695153089464,-10.623327147596019,1.1089984545870077,2.3214994215994516,-0.3960434744531787
1730865964.5834439,-1.8520234823226929,1.1645499467849731,-9.829914093017578,-0.2570632938379152,-0.31529709652303217,-10.607798513572344,1.1071644875073223,2.2402421407238533,-0.670554653254026
1730865964.6334517,-1.8085271120071411,1.176212191581726,-9.861815452575684,-0.269278162893972,-0.31579834950455593,-10.593384836186878,1.1114987254865694,2.1578033614161027,-0.9204292085292866
1730865964.6834452,-1.7181299924850464,1.1627516746520996,-9.876137733459473,-0.2836583228296601,-0.3163768269403012,-10.580827447801479,1.1107069101013383,2.0744976257068575,-1.2445683003758394
1730865964.7333987,-1.6924563646316528,1.1392431259155273,-9.905946731567383,-0.2992915850916657,-0.3172660442806363,-10.57076411898997,1.112355398332379,1.9888786814995416,0.8957905136796062
1730865964.7834475,-1.6710063219070435,1.1597439050674438,-9.915834426879883,-0.31503660130634836,-0.3186634397854425,-10.563712560538447,1.1116065106875528,1.9054208844481522,0.8571705106731836
1730865964.8333828,-1.6623401641845703,1.1732234954833984,-9.910504341125488,-0.3296339946373792,-0.3206887368222465,-10.560048155664038,1.1099884209951667,1.8172324100391424,0.7894251661974705
1730865964.8834436,-1.6623401641845703,1.1732234954833984,-9.910504341125488,-0.34186638636529965,-0.32339436504827807,-10.559971174270494,1.107640089271186,1.7330096057667241,0.6996070358379326
1730865964.8834436,-1.664509892463684,1.188157320022583,-9.918722152709961,-0.35070715611166947,-0.3267912699155543,-10.563477741071704,1.107623421379457,1.7324978474634425,0.6989876701310419
1730865964.933397,-1.6572636365890503,1.1673773527145386,-9.908549308776855,-0.3554257805815584,-0.3308591871157093,-10.570357416445573,1.1127095860674194,1.6459807757576868,0.8973062546196596
1730865964.9834638,-1.6591688394546509,1.130024790763855,-9.90406608581543,-0.3556376514098385,-0.33553312391369344,-10.580214650488813,1.1115267941790121,1.5575211932215367,0.8579726700474353
1730865965.0333724,-1.6591688394546509,1.130024790763855,-9.90406608581543,-0.3513038676658209,-0.3406694172907882,-10.59250021592978,1.1136433362893647,1.468698761400827,0.8985277318495534
1730865965.0333724,-1.6374982595443726,1.1253414154052734,-9.897210121154785,-0.3426950562517847,-0.34602732643642287,-10.606553143629917,1.113641289502996,1.4683297829292798,0.8984208740862296
1730865965.0834715,-1.6542800664901733,1.1127800941467285,-9.890379905700684,-0.3303287816111928,-0.3512943558179873,-10.621651079943828,1.1144723634630007,5.959635980298101,0.8996332423053837
1730865965.1333466,-1.6542800664901733,1.1127800941467285,-9.890379905700684,-0.31490082689271437,-0.3561321312726396,-10.637059229931884,1.1137422137643835,6.06841348185591,0.860668972245799
1730865965.1333466,-1.6624219417572021,1.1077226400375366,-9.87459659576416,-0.2972287788542347,-0.36021671657314047,-10.65207399660051,1.1137359528170363,6.069017298033451,0.8603777527032691
1730865965.183495,-1.6624219417572021,1.1077226400375366,-9.87459659576416,-0.27819994397123904,-0.3632722043849699,-10.666058592732316,1.112267548470277,6.176750758374714,0.7949154232572507
1730865965.183495,-1.6803877353668213,1.1172305345535278,-9.872438430786133,-0.258716099129245,-0.3650986289852091,-10.67847064878435,1.1122576445644385,6.177336246563137,0.7944856692677915
1730865965.2333581,-1.6642932891845703,1.1443051099777222,-9.851571083068848,-0.2396412548418843,-0.36559775705873443,-10.688883760656243,1.1150155665686676,6.070475272905717,0.900334374454144
1730865965.2835011,-1.676072597503662,1.1518168449401855,-9.866317749023438,-0.22175186140402392,-0.3647993455285021,-10.696998379141322,1.1143524704707934,6.151530524093383,0.8605079373395247
1730865965.3333554,-1.676072597503662,1.1518168449401855,-9.866317749023438,-0.205692656150459,-0.3628705531001226,-10.702647736428055,1.1157696738358236,6.029282736653636,0.9004307561978476
1730865965.3333554,-1.688549518585205,1.173169493675232,-9.839729309082031,-0.19195248764805317,-0.3600929238840622,-10.705802159161731,1.1157686626788375,6.029506903721377,0.9002869578546209
1730865965.3832452,-1.7406500577926636,1.1670211553573608,-9.839791297912598,-0.18087042222978708,-0.3568215366642388,-10.706552458380472,1.1153605384430378,6.070075572000395,0.8607761557115784
1730865965.4331973,-1.7592371702194214,1.1434805393218994,-9.807424545288086,-0.17267401647851932,-0.35343738550834286,-10.705070477670802,1.1164924743616425,5.9857514198329325,0.9006854467917855
1730865965.4832108,-1.7919294834136963,1.1425443887710571,-9.786770820617676,-0.16752734446134568,-0.3502867811020678,-10.701565476505305,1.116210302316158,6.0046944910128754,0.8607150078567767
1730865965.5332005,-1.8289555311203003,1.1339582204818726,-9.734051704406738,-0.16555771362628574,-0.3476262394353228,-10.696239355660337,1.1155125885401194,6.0227311254299,0.7940897622468787
1730865965.5832748,-1.8289555311203003,1.1339582204818726,-9.734051704406738,-0.16685801635688646,-0.3456007388805469,-10.689245653277034,1.1170307982556982,5.951187550323895,0.9018446656278429
1730865965.5832748,-1.906752586364746,1.1017496585845947,-9.722082138061523,-0.17147794681341955,-0.3442471267154422,-10.68067869062611,1.1170300609828443,5.951216480134692,0.901735819709539
1730865965.6332035,-1.9440362453460693,1.0649313926696777,-9.711519241333008,-0.17942855872636265,-0.34349296474493024,-10.670603535942572,1.1166300643123126,5.957784563815739,0.8622340727845187
1730865965.6832056,-1.954621434211731,1.0486096143722534,-9.747272491455078,-0.19070328251232405,-0.34314363392907515,-10.659104819393239,1.1168386070983354,5.908713383350127,0.9032827584130365
1730865965.733109,-1.9300211668014526,1.0519165992736816,-9.785317420959473,-0.20526404002628929,-0.342888544573573,-10.646345030795146,1.1161145166302004,5.907745372421577,0.862921658900617
1730865965.7832572,-1.8917458057403564,1.0662336349487305,-9.863221168518066,-0.22296352980559936,-0.3423552734091136,-10.632637419261435,1.114889223656248,5.905968134037362,0.797787405931281
1730865965.8331983,-1.8261340856552124,1.0515388250350952,-9.917787551879883,-0.24344089930681456,-0.3411921319310117,-10.618514477318648,1.1130688119013867,5.903319279246377,0.7054049806580969
1730865965.8832433,-1.7325536012649536,1.0188775062561035,-9.973783493041992,-0.26603326873878574,-0.3391246643497903,-10.604755148295542,1.1166564482726051,5.873754172224273,0.9041009796926057
1730865965.9331484,-1.6438817977905273,1.0134690999984741,-9.997303009033203,-0.2897216806972807,-0.3359581922570487,-10.592343297249878,1.1156191130579363,5.869301275166211,0.8645969851552685
1730865965.9832146,-1.6068297624588013,1.0392526388168335,-10.010113716125488,-0.3131381970024289,-0.33156394144515855,-10.582357580068711,1.1166058393654306,5.845863394197825,0.9055329820483692
1730865966.0331244,-1.5930547714233398,1.1113393306732178,-9.983500480651855,-0.3346737843650136,-0.3259084939665069,-10.575816767894636,1.115407367363201,5.838519797222778,0.8665461353599719
1730865966.0831685,-1.6152253150939941,1.2080261707305908,-9.939994812011719,-0.352686922432782,-0.3191422518259853,-10.573509595303925,1.1165573111072267,5.822749274863424,0.9065749589135442
1730865966.1329873,-1.6628810167312622,1.2549554109573364,-9.904179573059082,-0.36575673785070023,-0.3116999954598927,-10.575842976357327,1.1152252931445037,5.813892457846526,0.8676693542079513
1730865966.183079,-1.7237470149993896,1.2498868703842163,-9.840123176574707,-0.3729152959140878,-0.30432413782291834,-10.582747052097126,1.112945557795954,5.8041513529696145,0.8016096341033844
1730865966.232996,-1.7540323734283447,1.1959750652313232,-9.810408592224121,-0.37380550979009386,-0.2979463786784454,-10.593657085971603,1.1164678969964845,5.797698077897679,0.9075872975043209
1730865966.282932,-1.7761001586914062,1.1373709440231323,-9.77637004852295,-0.3687205487305481,-0.2934575908902689,-10.607572121023015,1.116332011316222,5.7853785782608025,0.908534207927463
1730865966.3329697,-1.7739691734313965,1.080772876739502,-9.734260559082031,-0.35851625820597754,-0.29146926871148016,-10.623176254157826,1.1149075867870035,5.775372211053932,0.869305074715396
1730865966.3838212,-1.7863746881484985,1.0190056562423706,-9.72805404663086,-0.3444389525047321,-0.29215842705500483,-10.63898967023345,1.1162255284496017,5.7637979264119235,0.9078053421942589
1730865966.4338863,-1.7863746881484985,1.0190056562423706,-9.72805404663086,-0.3279320957501626,-0.29523175250954414,-10.6535280150315,1.1148508578095768,5.752167364924703,0.8672108867629758
1730865966.4338863,-1.763444423675537,0.9958710074424744,-9.702902793884277,-0.3104617357680616,-0.3000056222113881,-10.66545837439451,1.114806867546829,5.7518736874997805,0.8658806934364837
1730865966.4838243,-1.7485802173614502,0.980993390083313,-9.72205638885498,-0.2933656519229112,-0.30555986344445757,-10.673721261008193,1.1127179380596028,5.739925585964309,0.8005558109955017
1730865966.5338418,-1.7739217281341553,0.9647471904754639,-9.749009132385254,-0.2777394737105259,-0.3108953563411522,-10.677610105666133,1.1165271847755875,5.743313987574533,0.9081208120571783
1730865966.5839176,-1.776928424835205,1.0090956687927246,-9.792386054992676,-0.26439190497190096,-0.31506645302139286,-10.676831112049491,1.1155251973178304,5.732908177378959,0.8678883743087094
1730865966.6337254,-1.7719019651412964,1.0469619035720825,-9.85647201538086,-0.2538594710908695,-0.31731054455912655,-10.671545815065143,1.1166862355597873,5.72792916400683,0.9072021161769699
1730865966.6840096,-1.742720127105713,1.0767850875854492,-9.918389320373535,-0.2464267947422102,-0.317171520634082,-10.662381401519418,1.1157885155085892,5.716858512924478,0.8664862941501674
1730865966.733826,-1.7308605909347534,1.0838773250579834,-9.983128547668457,-0.24212666577708536,-0.31456528092476704,-10.65039845246229,1.11696095549016,5.712232825504632,0.9065879835031972
1730865966.7839155,-1.7244657278060913,1.1198302507400513,-10.016728401184082,-0.24074460029415493,-0.3097590223023426,-10.637005687952804,1.1161661064464583,5.700849335324755,0.8663001985803591
1730865966.8337839,-1.6922295093536377,1.1217204332351685,-10.01152515411377,-0.24185219705292563,-0.30329527717469607,-10.623812167439691,1.116916695132917,5.696625510483895,0.9058144506555796
1730865966.8839517,-1.6949405670166016,1.091368556022644,-10.003122329711914,-0.24486007684240774,-0.2958887238180944,-10.612423652940224,1.1160175282511184,5.6854577983553405,0.8653527394099789
1730865966.9338105,-1.6541407108306885,1.079060673713684,-9.937772750854492,-0.24907466909541703,-0.2882950244905721,-10.604218656380183,1.1169698743134142,5.6802153853680135,0.9054741196191906
1730865966.9837117,-1.6971153020858765,1.0559735298156738,-9.882655143737793,-0.2537606393768876,-0.281177116061162,-10.600147008341308,1.116061040706853,5.668917549620806,0.8656204359637573
1730865967.0336804,-1.7184339761734009,1.0200108289718628,-9.829143524169922,-0.2582250268719812,-0.27501077639955473,-10.60058863694399,1.1175493587088925,5.660251298704509,0.9054119375057769
1730865967.0837424,-1.7796587944030762,0.9819168448448181,-9.78043270111084,-0.2619272227548365,-0.2700328159495796,-10.60530937430011,1.1168441718408402,5.647382329572723,0.8653416500895046
1730865967.1336548,-1.7767276763916016,0.9837790727615356,-9.749464988708496,-0.26457489172978854,-0.26622558114378503,-10.613521985145155,1.1154825990632042,5.633908260564707,0.7988785505421861
1730865967.1838517,-1.7815088033676147,1.03798508644104,-9.75819206237793,-0.2661484807357586,-0.26336417212899654,-10.624031513195082,1.1177197555190268,5.641115321892064,0.9051550251206647
1730865967.2337184,-1.7815088033676147,1.03798508644104,-9.75819206237793,-0.2668428544480873,-0.2611357201671123,-10.635438962508687,1.1168266271829543,5.629929807415994,0.8653395132541069
1730865967.2337184,-1.7619465589523315,1.1153185367584229,-9.77953052520752,-0.26696934311456144,-0.2592762953985218,-10.646360460819952,1.1168199093089002,5.629866765572736,0.8650486604112165
1730865967.283684,-1.7306779623031616,1.2181533575057983,-9.794438362121582,-0.2668562341642149,-0.25768536821290605,-10.655611375930063,1.1152673666233694,5.6180829270493025,0.798944326087619
1730865967.3336196,-1.73723566532135,1.2622041702270508,-9.825244903564453,-0.2667632104251447,-0.2565228305438118,-10.66233126500688,1.1130442293035177,5.6056020037454015,0.7060297131214076
1730865967.3837023,-1.7728885412216187,1.2536513805389404,-9.841352462768555,-0.2668436409561927,-0.2562390495546226,-10.666048429162071,1.1181256701782885,5.622831545032911,0.9049952786648496
1730865967.4336104,-1.7957485914230347,1.2329119443893433,-9.852080345153809,-0.2671793076595492,-0.25747026670989726,-10.666685005778751,1.117237224860248,5.613029167357111,0.8650343805715387
1730865967.4835632,-1.8130037784576416,1.187165379524231,-9.869086265563965,-0.26784890853628884,-0.2608370740800254,-10.664507910169007,1.1184311505846651,5.602540008108457,0.9048408966265162
1730865967.5335834,-1.8130037784576416,1.187165379524231,-9.869086265563965,-0.2689679008885968,-0.2667524026829428,-10.660044989665291,1.1175425837252242,5.591412484662262,0.8647853452549982
1730865967.5335834,-1.8403993844985962,1.1168467998504639,-9.861696243286133,-0.2706838704664827,-0.27530845986816277,-10.653985150035833,1.1175351962618527,5.591343428961156,0.8644634084863076
1730865967.5836523,-1.8365612030029297,1.1099493503570557,-9.855596542358398,-0.2731541369561341,-0.2862426928900318,-10.647071675874859,1.119292376804528,5.5925998287418635,0.9047762288682322
1730865967.6335382,-1.8015090227127075,1.1125519275665283,-9.858222961425781,-0.27651542721353195,-0.29896901601856396,-10.640006354882892,1.1201005766196335,5.5798220045652345,0.9047560245462127
1730865967.683565,-1.7416749000549316,1.0947171449661255,-9.853496551513672,-0.28082380475313984,-0.3126763404208504,-10.63338524780366,1.119560140373607,5.567135988674256,0.8649958810705242
1730865967.7336876,-1.7416749000549316,1.0947171449661255,-9.853496551513672,-0.28597584582008834,-0.326459207200619,-10.62766721989519,1.1182921187156036,5.5534736167541725,0.7976936253315269
1730865967.7336876,-1.707353949546814,1.0896289348602295,-9.870576858520508,-0.2916728397933336,-0.3394301153511461,-10.623166766500255,1.1182833538231873,5.553398166092856,0.7972597900618599
1730865967.7836096,-1.6856294870376587,1.0882185697555542,-9.87708854675293,-0.2974525453415028,-0.3508041532993856,-10.620069736971532,1.1163229936771253,5.539228754742714,0.7052506955945683
1730865967.833548,-1.6856732368469238,1.1131680011749268,-9.89499282836914,-0.30275363935538663,-0.35996415625040057,-10.618464715645228,1.1203492089040221,5.523994670243919,0.904439102858233
1730865967.8835711,-1.6620116233825684,1.1451038122177124,-9.884458541870117,-0.3069892940482423,-0.3665158234412945,-10.61837111676245,1.119387067636357,5.507857183880872,0.8645698203199608
1730865967.9334772,-1.6620116233825684,1.1451038122177124,-9.884458541870117,-0.30962000096950937,-0.3703306240539719,-10.619748844967042,1.1213199492163461,5.528652527149778,0.9041850957868892
1730865967.9334772,-1.6606212854385376,1.1801331043243408,-9.870457649230957,-0.3102120340179802,-0.3715521818334133,-10.62249061845873,1.1213179453998343,5.528578930291484,0.9040398417637873
1730865967.9834714,-1.653437852859497,1.1797866821289062,-9.851520538330078,-0.3084799045878321,-0.37055994323981617,-10.626409496604493,1.1205676698090004,5.514625730589864,0.8642195244215747
1730865968.0334425,-1.6758476495742798,1.1824043989181519,-9.821070671081543,-0.3043134269185691,-0.36790553086353633,-10.631227911767896,1.119048518845753,5.49966008550493,0.7976357367468363
1730865968.0835173,-1.7237505912780762,1.1566532850265503,-9.81063461303711,-0.29779851052512796,-0.36422560325610176,-10.636572155216129,1.1167767429988023,5.48378165398861,0.7044700804572115
1730865968.1334534,-1.7996176481246948,1.1426687240600586,-9.782665252685547,-0.28925263730202216,-0.36013875850670823,-10.641984172225946,1.1224720587215091,5.467030643850961,0.9041244429531041
1730865968.1835039,-1.8628112077713013,1.1092867851257324,-9.77823543548584,-0.27927007600567155,-0.35615113895779926,-10.646954767714112,1.1216842705789782,5.449357683590382,0.8641999491678555
1730865968.2334023,-1.8774480819702148,1.0935637950897217,-9.79169750213623,-0.26872964559157253,-0.3525922579128242,-10.650975048259623,1.1243000448487466,5.487066106939025,0.9037433816561506
1730865968.2834685,-1.8534674644470215,1.108945369720459,-9.822172164916992,-0.2587096905125264,-0.34959664386467604,-10.653609220623636,1.1260359890638159,5.480898783425667,0.9035964716659145
1730865968.3333826,-1.7973651885986328,1.1064001321792603,-9.855999946594238,-0.2503027501826478,-0.34714067225327233,-10.654580572012692,1.1261386927430235,5.466067280793206,0.8634641383847312
1730865968.3833833,-1.749116063117981,1.0848197937011719,-9.900351524353027,-0.2443899113017919,-0.3451075496479693,-10.653843433996439,1.1256260248905217,5.4504531278551305,0.7970594935501913
1730865968.4334073,-1.749116063117981,1.0848197937011719,-9.900351524353027,-0.2414689225715676,-0.3433328108172599,-10.651612358807471,1.12449955349135,5.433847810413669,0.7033800036682768
1730865968.4334073,-1.6887575387954712,1.0780417919158936,-9.944061279296875,-0.24159792976115618,-0.3416257109716194,-10.64833336428585,1.1244935806751772,5.433776736536087,0.7029330512351235
1730865968.4834383,-1.660573959350586,1.0784896612167358,-9.943114280700684,-0.24443011180760357,-0.33979142436361576,-10.644613087040845,1.1268101810235374,5.416483111642753,0.9036693348348539
1730865968.5333052,-1.6808581352233887,1.0688133239746094,-9.9386625289917,-0.24929200105518715,-0.33765624819996215,-10.641130431468193,1.1284305890972162,5.437162612285,0.9034311358524523
1730865968.5834394,-1.6925055980682373,1.0484857559204102,-9.91047477722168,-0.2553125865567037,-0.33508098517099083,-10.638532665400636,1.1281826221055606,5.422590806030412,0.8633713938993183
1730865968.6333168,-1.7340891361236572,1.0040960311889648,-9.874168395996094,-0.26159717679394223,-0.3319503263430249,-10.637322671030677,1.1301154307842936,5.42522324511268,0.9032539882208552
1730865968.6832635,-1.7513102293014526,0.9668171405792236,-9.831408500671387,-0.2673896024055594,-0.328137182946442,-10.637762631016447,1.1299712408452054,5.411338192538875,0.8632111476190015
1730865968.7332773,-1.7555934190750122,0.9132131338119507,-9.825553894042969,-0.27217313007700517,-0.32345963271228595,-10.639822552836508,1.129150177825642,5.39664187359124,0.7964912761511492
1730865968.783267,-1.7511773109436035,0.8991687297821045,-9.808719635009766,-0.27569051110130427,-0.31765775442874694,-10.643196879469647,1.131411394803716,5.381236657947061,0.9032308203371248
1730865968.833155,-1.7669599056243896,0.9138646125793457,-9.811017036437988,-0.27790200147791966,-0.31041757854860186,-10.647382813575238,1.1309790548122658,5.364886976120599,0.8630579371574116
1730865968.8833268,-1.7647291421890259,0.9623916149139404,-9.817171096801758,-0.27892687470415395,-0.3014580869246163,-10.651785536675096,1.129853815171754,5.347894381154087,0.7965573834406697
1730865968.9331322,-1.774051547050476,0.9942019581794739,-9.836055755615234,-0.2789930668622764,-0.2906568885464791,-10.655823725803312,1.1329209453793576,5.382832329295439,0.9029470414946658
1730865968.9830694,-1.7563841342926025,1.0308074951171875,-9.850176811218262,-0.27838963577170983,-0.27815208324929375,-10.659021723176753,1.1324053412363366,5.370482854082906,0.8635399041301216
1730865969.0331802,-1.7418923377990723,1.052126407623291,-9.863423347473145,-0.27741306013977995,-0.2643722873363731,-10.66107319771972,1.1311782107088075,5.357174884661914,0.7964010164825178
1730865969.0830772,-1.7634446620941162,1.1164103746414185,-9.859697341918945,-0.27631710116481967,-0.25000101850231904,-10.661863208264531,1.1292731320302705,5.343382083966435,0.7033931588568079
1730865969.1331055,-1.7613576650619507,1.1499154567718506,-9.857751846313477,-0.2752933654934945,-0.23591554853946212,-10.66144675147628,1.1344525895406865,5.328866332557594,0.9026978288163785
1730865969.1830616,-1.7668864727020264,1.152148723602295,-9.854114532470703,-0.2744838219649036,-0.22311261396157656,-10.65999834266962,1.1366361782394712,5.314007928458659,0.9029230438377233
1730865969.2330203,-1.7597706317901611,1.146106243133545,-9.849930763244629,-0.2739939011650204,-0.21259671790293147,-10.657756359049507,1.136545413324023,5.29836490029069,0.8628089066183794
1730865969.2830868,-1.7832831144332886,1.1196283102035522,-9.831854820251465,-0.2738953425219114,-0.20523444054613627,-10.65497493014272,1.1383342090959074,5.325096063201796,0.9025559725077688
1730865969.3329446,-1.7911642789840698,1.0579688549041748,-9.824539184570312,-0.2742357813396664,-0.2016119883230715,-10.65188248246719,1.138236771203611,5.311964721630506,0.8627402849018754
1730865969.3830001,-1.793712854385376,1.0126854181289673,-9.833224296569824,-0.275056941111338,-0.20192157601292082,-10.648653715180798,1.1374633377549246,5.298304406317302,0.9012555622929441
1730865969.432937,-1.7517714500427246,1.0202561616897583,-9.849518775939941,-0.2763942997399299,-0.20590981536373024,-10.64541156994509,1.1359911791190302,5.284081242389848,0.8607935042570568
1730865969.4829564,-1.7155946493148804,1.0792349576950073,-9.881749153137207,-0.27823586708683146,-0.21294215645704623,-10.642261042011521,1.133890410289561,5.290564574066705,0.9002966635415998
1730865969.532836,-1.6973638534545898,1.1483683586120605,-9.885079383850098,-0.2804619069955518,-0.22219191940301986,-10.63933252103273,1.131051026181549,5.27718419551001,0.8600822788797922
1730865969.5827827,-1.6990910768508911,1.1914793252944946,-9.90003490447998,-0.2828205919705641,-0.23287385795374843,-10.636803506997436,1.1275016290463205,5.263203673445193,0.7932100080657869
1730865969.6338701,-1.7048535346984863,1.1952179670333862,-9.894710540771484,-0.28496807001513247,-0.24440710453531683,-10.634885170214028,1.1231169878293414,5.2482223414877724,0.6968420235431273
1730865969.6838133,-1.7279154062271118,1.140415906906128,-9.889106750488281,-0.28655033016635345,-0.2564383346102248,-10.633784898068754,1.1181561256525565,5.233095365656628,0.5768754732166637
1730865969.7338028,-1.727390170097351,1.0967813730239868,-9.850716590881348,-0.287286380009088,-0.26873755838690083,-10.633656445951724,1.1129273646913511,5.217172194397874,0.4328826378956559
1730865969.7837937,-1.7448590993881226,1.0502889156341553,-9.854978561401367,-0.28702207217553116,-0.28104886604606105,-10.634547770172675,1.1065806715943225,5.200675825336746,0.26041779642408946
1730865969.8337355,-1.7205950021743774,1.0371060371398926,-9.837763786315918,-0.2857411948217971,-0.29299113155913137,-10.636372636969876,1.1004540269663645,5.239293496442902,0.07064224656058257
1730865969.8838043,-1.7044275999069214,1.004769206047058,-9.838481903076172,-0.2835339869692516,-0.30404781275952203,-10.638923379863003,1.092726989716455,5.225211722154845,-0.15483791538921488
1730865969.9337204,-1.6762114763259888,1.0011883974075317,-9.852025985717773,-0.28053561268184546,-0.31362137734077344,-10.641913419361817,1.084289813581809,5.210351154142423,-0.40709594273737304
1730865969.9836867,-1.6579885482788086,0.9812003374099731,-9.872231483459473,-0.2768630336743282,-0.32111156973994803,-10.645037199738296,1.0752337666521612,5.194830978922518,-0.6835879244566329
1730865970.0337353,-1.6788157224655151,1.0039273500442505,-9.869159698486328,-0.27258269705754845,-0.3259958078633086,-10.648033720766318,1.0677591602807437,5.1783219745054705,-0.9524551090924369
1730865970.0836577,-1.7302862405776978,0.9892690777778625,-9.866273880004883,-0.26773510929254146,-0.3279031527713852,-10.650723585988098,1.0575177468358798,5.161196579702693,-1.2783014178170549
1730865970.1336935,-1.7561147212982178,1.0005706548690796,-9.84821891784668,-0.26241205933277345,-0.32666591981391485,-10.6530034482331,1.0499780464657564,5.2012574944253185,-1.573403006278148
1730865970.1836424,-1.7367112636566162,1.0267400741577148,-9.844929695129395,-0.25682298625606814,-0.3223397627735267,-10.654814358922284,1.151242775103995,5.193147670640678,-1.8747790868244092
1730865970.2335315,-1.7292639017105103,1.0034098625183105,-9.847564697265625,-0.2512819322064982,-0.3152002081925519,-10.656113647536845,1.151204249095057,5.176984417022271,-2.2726289848800745
1730865970.283596,-1.7082710266113281,1.0320013761520386,-9.856908798217773,-0.24612621468669202,-0.3057126137607702,-10.65687018820623,1.150544248294432,5.160054690297532,-2.6968788451913
1730865970.3336132,-1.7297741174697876,1.0265306234359741,-9.872505187988281,-0.24163617449700947,-0.2944781858633488,-10.657081458819057,1.1492661663302288,5.142274110080402,-3.150353883333707
1730865970.3835676,-1.73284912109375,1.026072382926941,-9.879054069519043,-0.23800406493387616,-0.28217562719424516,-10.656795979828,1.1516350458898303,5.169406878909986,0.8914379106219992
1730865970.4335475,-1.7507237195968628,1.0402652025222778,-9.899032592773438,-0.2353483889012118,-0.2695032565951941,-10.656126132392355,1.1510273288277617,5.156076124553347,0.8510597251247047
1730865970.4835615,-1.7441734075546265,1.067531943321228,-9.886956214904785,-0.23373944919585501,-0.2571318201341849,-10.655244085539668,1.149838536988954,5.142172228307484,0.7843627295216449
1730865970.5335526,-1.7646288871765137,1.0706843137741089,-9.89332103729248,-0.23321259617384527,-0.245682532064688,-10.654357634984901,1.1480648123222104,5.1586893345350715,0.8894916607216181
1730865970.583584,-1.8092890977859497,1.0768513679504395,-9.85693645477295,-0.2337806270361857,-0.23571204011442937,-10.65366768918154,1.1457340915760248,5.147661843449712,0.8493937336524191
1730865970.6335008,-1.8451093435287476,1.0780317783355713,-9.835271835327148,-0.23546817690700672,-0.2276832571586355,-10.65331425892899,1.1427791996011694,5.135881361501493,0.7819848435979178
1730865970.6835158,-1.8778879642486572,1.068177342414856,-9.794242858886719,-0.2383564713280887,-0.22192965689755875,-10.653322544890614,1.1394075921344795,5.1449670752663135,0.8882502139856017
1730865970.7335863,-1.8792659044265747,1.0619271993637085,-9.761591911315918,-0.2425983040235997,-0.21862579983826166,-10.653566429967498,1.135300316073294,5.1344885731849,0.8477800781318007
1730865970.7835293,-1.8781741857528687,1.0342954397201538,-9.767451286315918,-0.248382063595946,-0.21776754297483958,-10.653768046076008,1.131000533011519,5.129198354734682,0.8866134494601137
1730865970.8334446,-1.8452465534210205,1.0448501110076904,-9.792409896850586,-0.25585680286769286,-0.21916723887377362,-10.65355267284372,1.1262463971685162,5.119545649049528,0.8851770223481522
1730865970.8834481,-1.7909832000732422,1.0523160696029663,-9.833215713500977,-0.26504088544105187,-0.2224794113619181,-10.652558314398263,1.1203707755182244,5.107053400086734,0.8444576816015673
1730865970.9334626,-1.7380390167236328,1.0403714179992676,-9.891928672790527,-0.27573384367184905,-0.22725911765830614,-10.650563064045212,1.1137972172773283,5.093951718137986,0.7769723131583617
1730865970.9834626,-1.6841381788253784,1.027842402458191,-9.939653396606445,-0.28745877600909686,-0.23301964683905546,-10.647586553176772,1.106520020802789,5.080276201926007,0.6828488084065082
1730865971.0333781,-1.598343849182129,1.0370818376541138,-9.97574520111084,-0.29945533479492126,-0.2392665533536683,-10.643934668946306,1.1000167581224016,5.094197544103328,0.8843589439328232
1730865971.083417,-1.5712602138519287,1.0332560539245605,-9.993497848510742,-0.31071872275113166,-0.24552632066271718,-10.640170295996423,1.0913805578425406,5.083388464562812,0.8441498607785075
1730865971.133399,-1.550557255744934,1.039259433746338,-9.944525718688965,-0.3200896463526075,-0.25138184767237265,-10.637008766781033,1.0843099165414793,5.081756742701578,0.8825938972169017
1730865971.1834455,-1.5575945377349854,1.0153611898422241,-9.915091514587402,-0.326404277966479,-0.25649809324580375,-10.635152265835751,1.0742251033900432,5.0705057556381785,0.8418738642349125
1730865971.233443,-1.6128383874893188,0.9890211224555969,-9.859123229980469,-0.32867904596941677,-0.2606191664513353,-10.635110257295482,1.0633188004332867,5.058605428015225,0.7745556498435706
1730865971.283348,-1.6128383874893188,0.9890211224555969,-9.859123229980469,-0.3262842380995683,-0.2635422413846762,-10.637077056868392,1.0516234743967543,5.046081445516823,0.6809071106022325
1730865971.283348,-1.700724482536316,0.9786924719810486,-9.800239562988281,-0.31906113742623504,-0.26510004524826936,-10.64090338573684,1.0515562562480254,5.046010060850861,0.6803131219620799
1730865971.3333108,-1.7688379287719727,1.0146944522857666,-9.755945205688477,-0.3073728160421618,-0.2651754302266564,-10.64613234073553,1.0440800062211053,5.061978043903067,0.8818290929982476
1730865971.3833656,-1.8208271265029907,1.02140212059021,-9.763900756835938,-0.29210510506132303,-0.2637421701066959,-10.652061062697705,1.0368696132897528,5.0549852241497,0.8797566928887067
1730865971.433279,-1.8217395544052124,1.0340009927749634,-9.765320777893066,-0.27459231420327884,-0.26090405808914524,-10.657841774016429,1.023525699933934,5.044505825996917,0.8389991211224185
1730865971.48329,-1.8217395544052124,1.0340009927749634,-9.765320777893066,-0.2564389005765068,-0.25690035557102747,-10.66262495426798,1.0169364055724777,5.038182506247774,0.8783284073154505
1730865971.48329,-1.782911777496338,1.0537012815475464,-9.80487060546875,-0.2392762561179549,-0.25207585889272,-10.665695998973042,1.0168751577194983,5.038134430259517,0.8782073057888828
1730865971.5332751,-1.7525897026062012,1.0612386465072632,-9.85537052154541,-0.22452397108454877,-0.246841491549081,-10.666582787917685,1.0026857961822817,5.0269085999059975,0.8374037407876457
1730865971.5832372,-1.7406247854232788,1.1116029024124146,-9.87990665435791,-0.21321102784198262,-0.24164638931566648,-10.665137596600301,0.9879354692918972,5.015062131856995,0.7700214790275575
1730865971.633259,-1.770524501800537,1.115897536277771,-9.90289306640625,-0.20590159100530908,-0.23696616853228145,-10.661565170749537,0.972468781607517,5.002460257216553,0.6747524416002999
1730865971.683197,-1.7900440692901611,1.1545110940933228,-9.899785995483398,-0.20273877807212382,-0.23329257731301728,-10.656371801195021,0.9690290520262762,5.018899964818336,0.8778927337163852
1730865971.7331789,-1.8505797386169434,1.163799524307251,-9.896068572998047,-0.2035666451276063,-0.23110890520436464,-10.650253578303142,0.965969057583325,5.013420747384155,0.8756931539581567
1730865971.783353,-1.8653908967971802,1.1624170541763306,-9.862640380859375,-0.20806937468084488,-0.23085112449164702,-10.643959019586095,0.9501667928062713,5.0038968204064735,0.8345978687660911
1730865971.8332534,-1.84821355342865,1.119704008102417,-9.858514785766602,-0.21587001266089614,-0.23284927537914196,-10.638157439392561,0.9340294457647222,4.993913096362992,0.767640876411662
1730865971.8832345,-1.8270213603973389,1.114829421043396,-9.805334091186523,-0.22654925427742958,-0.23725064476274843,-10.633338856962885,0.917203038137767,4.983258251103165,0.673595054871674
1730865971.9334147,-1.793975830078125,1.0453251600265503,-9.822367668151855,-0.2396035353179986,-0.24395518397809104,-10.62975914465989,0.9185203985208538,4.992520328322474,0.8748552393016514
1730865971.9832606,-1.7209333181381226,1.0137131214141846,-9.828447341918945,-0.25439335988046197,-0.25258357565427003,-10.627444116994079,0.9013223183480603,4.983683407491784,0.8347703812465822
1730865972.0332992,-1.6012029647827148,0.9719731211662292,-9.870986938476562,-0.27009200842031483,-0.2624806509040951,-10.626260748764846,0.9047330779551329,4.980150520305639,0.8743055209662229
1730865972.0832047,-1.5673483610153198,0.9927900433540344,-9.874567985534668,-0.28563740409662075,-0.27277346457789187,-10.626022665980237,0.8869649375676552,4.970391501067441,0.8341774463962948
1730865972.133241,-1.5673483610153198,0.9927900433540344,-9.874567985534668,-0.29975447637923425,-0.2824961103220833,-10.626569584738018,0.8921582427079837,4.966394459341469,0.87374574875913
1730865972.133241,-1.5617990493774414,1.0194441080093384,-9.915316581726074,-0.3111031111588246,-0.2907475618714794,-10.627795336054064,0.8920981707673332,4.9663611313238905,0.8736558858821402
1730865972.1831715,-1.576568603515625,1.0584110021591187,-9.886327743530273,-0.3184903696197121,-0.29683212550668214,-10.62964806685702,0.8737831918147128,4.956051600820507,0.8337195465138361
1730865972.2332606,-1.631142258644104,1.0728533267974854,-9.91388988494873,-0.32105496105231135,-0.30035621235097676,-10.632117283855713,0.8544515495515123,4.944872668198133,0.7666802926286165
1730865972.283102,-1.7173388004302979,1.079965353012085,-9.86382007598877,-0.31840806775704944,-0.30126369800895403,-10.63520143441628,0.8637834193486384,4.951630836973877,0.8743699319555569
1730865972.3331964,-1.82231605052948,1.1077828407287598,-9.826631546020508,-0.31074342748458117,-0.29980309647542336,-10.638855052120768,0.843798852723431,4.942192121901539,0.8342100840198603
1730865972.383157,-1.8533849716186523,1.1184059381484985,-9.800682067871094,-0.29888558636617424,-0.2964575435233947,-10.642925303266757,0.8552272765083784,4.938526499585633,0.8743771615120031
1730865972.4330823,-1.8954871892929077,1.0949914455413818,-9.761144638061523,-0.2842174529410189,-0.2918628590135817,-10.647111862688254,0.8349803313006888,4.928432303049915,0.8345089394629124
1730865972.4830406,-1.8989217281341553,1.0262970924377441,-9.779446601867676,-0.26848167477883234,-0.28669535036980653,-10.650981080658678,0.8141788786318355,4.917685243105313,0.7684426609977069
1730865972.5331557,-1.8536771535873413,1.0082930326461792,-9.78778076171875,-0.25351523026097733,-0.2815271801565661,-10.654036979216375,0.7924258675660161,4.906069077993245,0.6745122284421234
1730865972.5831227,-1.8536771535873413,1.0082930326461792,-9.78778076171875,-0.2409785776799936,-0.2767156947566184,-10.65582500800933,0.8113114793339666,4.919109125439741,0.874431228787144
1730865972.5831227,-1.783974289894104,1.004658818244934,-9.84261703491211,-0.23213390382664503,-0.27239108782682125,-10.656026086729153,0.8111962523990199,4.919060103838537,0.8742866954673373
1730865972.6330674,-1.7528783082962036,1.0574264526367188,-9.855023384094238,-0.2277071104743013,-0.26852811156494344,-10.654524155005552,0.8294083581406009,4.904339635901296,0.8742348353889728
1730865972.6830595,-1.7219197750091553,1.080628514289856,-9.910914421081543,-0.22783655566204117,-0.26505440552781206,-10.651448027067184,0.8460972999201073,4.893205864316548,0.8761500168318265
1730865972.7331333,-1.704637885093689,1.1132997274398804,-9.919187545776367,-0.23211331095857543,-0.26195384395628474,-10.647174452737588,0.8258934352133104,4.879046639318671,0.836819699786685
1730865972.7830756,-1.6880874633789062,1.1303209066390991,-9.951221466064453,-0.23970075318911405,-0.25932372890129085,-10.642285618024806,0.8054112570620487,4.864455563434899,0.7716492286824208
1730865972.8330402,-1.6892642974853516,1.1353075504302979,-9.929433822631836,-0.24949278779081085,-0.25737209009385054,-10.637486217420896,0.7840457435216669,4.849023910656097,0.6788825176320775
1730865972.8830557,-1.6928538084030151,1.1137971878051758,-9.93874454498291,-0.260278928269398,-0.2563669555448344,-10.633492965070651,0.7622168174040727,4.833075643365896,0.5602909089364662
1730865972.9329422,-1.7044410705566406,1.0738990306854248,-9.894899368286133,-0.2708975310589553,-0.25655008831461085,-10.63091997887735,0.7889943408172688,4.864351458268573,0.8761451645672922
1730865972.9829872,-1.7288248538970947,1.0470776557922363,-9.854463577270508,-0.2803619301261088,-0.25803833121991837,-10.630177117979386,0.7672291126773821,4.853391489559582,0.8364526431151694
1730865973.0330038,-1.782965898513794,1.0143132209777832,-9.822835922241211,-0.28795735922921484,-0.260751918471719,-10.631391316461077,0.7447773328217797,4.841795239401011,0.7702439150814037
1730865973.082945,-1.8363450765609741,1.0109021663665771,-9.767317771911621,-0.2933163586821408,-0.26439995784033066,-10.634370566148778,0.7757276360169707,4.855478275069013,0.8771394621334552
1730865973.132889,-1.8869452476501465,0.9894759058952332,-9.760782241821289,-0.29646494158883097,-0.2685232472239842,-10.638623545716085,0.7533770675963029,4.84536243640473,0.8376440205107201
1730865973.1829495,-1.8473352193832397,1.0347927808761597,-9.739604949951172,-0.2978022750394531,-0.2725773710969423,-10.643433246293995,0.7302833698202782,4.834569979736641,0.7715374153319966
1730865973.232936,-1.816389560699463,1.0465000867843628,-9.774761199951172,-0.2979757858775167,-0.2760420343175731,-10.647978100002671,0.7646656893636401,4.845495015547083,0.877740885326042
1730865973.2828844,-1.783855676651001,1.0769073963165283,-9.79489803314209,-0.2976805247632917,-0.2785307860746382,-10.651481320181329,0.7939287094217015,4.840407189588344,0.8786024218802176
1730865973.3328242,-1.7646828889846802,1.053520679473877,-9.82564926147461,-0.29747940989002264,-0.27985428381554506,-10.653352822276803,0.7717408181099951,4.830697523970001,0.8390033331657449
1730865973.3828576,-1.7351040840148926,1.0145779848098755,-9.854711532592773,-0.2977085037231206,-0.28000315476791904,-10.653284742413831,0.7487884938992743,4.820277445098546,0.7726233479030807
1730865973.432912,-1.7351040840148926,1.0145779848098755,-9.854711532592773,-0.2984604826925079,-0.2790664489993916,-10.651279948932874,0.7251407551387623,4.809180614886189,0.6797213878888432
1730865973.432912,-1.683071255683899,0.9749651551246643,-9.900102615356445,-0.29961502776943494,-0.2771467106783192,-10.64762036798787,0.7250021224770639,4.8091145519711525,0.6791079667798512
1730865973.4828544,-1.6453770399093628,0.9578630328178406,-9.910890579223633,-0.3008786729195469,-0.27431041020078367,-10.642805129583024,0.7008020634531996,4.797420417214578,0.5605063090677175
1730865973.532847,-1.649688720703125,0.9565423130989075,-9.945751190185547,-0.3018192583644851,-0.27056901260651295,-10.637485112263517,0.6756506205870556,4.784950659078494,0.414416198541914
1730865973.5828483,-1.6442580223083496,0.9954084157943726,-9.940225601196289,-0.3019261703031374,-0.26589868047621534,-10.632392365753619,0.7227501324350064,4.815713232499607,0.8789968377680798
1730865973.632834,-1.6689367294311523,1.0497392416000366,-9.937795639038086,-0.3007098844656275,-0.26031250829767133,-10.628254418270588,0.698084858737133,4.8071570872471385,0.8392529637393095
1730865973.682793,-1.6859419345855713,1.0834542512893677,-9.915569305419922,-0.29780724308784634,-0.25395726036640515,-10.625697015512287,0.7419636474412123,4.81030037627837,0.8799466452514098
1730865973.7328548,-1.71327543258667,1.1262437105178833,-9.893120765686035,-0.29306066034438694,-0.24717695834024034,-10.625153395767443,0.7176161551852369,4.801980452115671,0.8402885368262378
1730865973.782775,-1.7269731760025024,1.1472166776657104,-9.872698783874512,-0.2865559339810792,-0.24051021105144538,-10.626802125940822,0.6926310850551327,4.793080438343317,0.7741944765179775
1730865973.8327966,-1.735066294670105,1.1401067972183228,-9.833118438720703,-0.2786113126658394,-0.23462637663588143,-10.630544180889384,0.7382899885716064,4.7959192723905595,0.8806773732743897
1730865973.8827624,-1.717958927154541,1.1496965885162354,-9.815305709838867,-0.26971933123888525,-0.2302192893618898,-10.636015427665912,0.7137603429202035,4.787455922331912,0.8409777548351903
1730865973.9327734,-1.6673269271850586,1.18075430393219,-9.812365531921387,-0.2604464989987468,-0.22789962403076314,-10.642633578208677,0.7561931836372585,4.783775945282745,0.8816149802345862
1730865973.9827108,-1.718985915184021,1.200554609298706,-9.816550254821777,-0.2513200707017964,-0.22813527248212717,-10.649685401779585,0.7324033801069176,4.77474386482017,0.8424446131766247
1730865974.032757,-1.777178168296814,1.1863377094268799,-9.796299934387207,-0.24277811508180158,-0.2312356089347623,-10.656434846586961,0.771737038291888,4.770895943059748,0.8823459445230197
1730865974.0837018,-1.8267006874084473,1.1075407266616821,-9.833602905273438,-0.23522187808035566,-0.23732161154720793,-10.662216837940484,0.7478512889573619,4.761309660218199,0.8417158230554214
1730865974.1328225,-1.8129234313964844,1.0744457244873047,-9.833734512329102,-0.22908855629760633,-0.24625111295386898,-10.666511590015874,0.7241616578877753,4.751435262057744,0.7760553774888644
1730865974.1827915,-1.7848941087722778,1.034195899963379,-9.854951858520508,-0.2248374641150112,-0.257551532344702,-10.669002352223242,0.6995874319694566,4.740802065837352,0.6830553329300785
1730865974.2327878,-1.7069191932678223,1.0519814491271973,-9.866008758544922,-0.22283645296224483,-0.2704377309507685,-10.669600344404584,0.7462483142915968,4.750803150748006,0.8831225822746385
1730865974.2827125,-1.7330290079116821,1.0380792617797852,-9.891645431518555,-0.2232249664948358,-0.2839266719192817,-10.668435392596221,0.7223335621001182,4.7417637116931655,0.8432660549210597
1730865974.333654,-1.723747968673706,1.0607243776321411,-9.90710735321045,-0.22585697213469624,-0.29699478942515845,-10.665828049398687,1.221547801630346,4.7407764415723,0.8834233659898088
1730865974.383695,-1.6333900690078735,1.1029419898986816,-9.92292594909668,-0.2303395389657263,-0.308727426742675,-10.662248914926854,1.2216099051617513,4.731526298018373,0.8432479173438876
1730865974.4336932,-1.7185343503952026,1.0912126302719116,-9.885492324829102,-0.2360931514526956,-0.3184388598016646,-10.658256222282663,1.2210853007768439,4.721458040664408,0.7761200756570882
1730865974.4835937,-1.7632367610931396,1.0811116695404053,-9.884361267089844,-0.24244370978283675,-0.32572991246976823,-10.654404029585296,1.2234690424109995,4.725058390948603,0.8847259307692947
1730865974.533778,-1.7660847902297974,1.066494345664978,-9.817702293395996,-0.24878182271564264,-0.33046084321486857,-10.651138194138275,1.2232247015191735,4.715670621603491,0.8447306275094115
1730865974.583637,-1.76335608959198,1.0730304718017578,-9.786660194396973,-0.25468778228976824,-0.3326810699851813,-10.648706414239026,1.2257464617046185,4.71254066001352,0.8855535115168421
1730865974.6336203,-1.755035638809204,1.0663394927978516,-9.755593299865723,-0.25993858201625125,-0.3325711198647464,-10.647102989689484,1.2258041782708844,4.702580877039536,0.8460338358410678
1730865974.683558,-1.7797462940216064,1.05051851272583,-9.727736473083496,-0.26445331681419126,-0.3304037939285436,-10.646071105585232,1.2274133275122279,4.698773610875911,0.8863826180051229
1730865974.7336075,-1.7905184030532837,1.0506978034973145,-9.733460426330566,-0.26825240769044156,-0.3265062249766394,-10.645164370915479,1.2273659465749749,4.688273246243047,0.8468354261205444
1730865974.7834837,-1.7196898460388184,1.0897799730300903,-9.776664733886719,-0.2714291273122241,-0.3212314188956904,-10.643854446265216,1.2289007498547464,4.684183649843796,0.8869386926314512
1730865974.8335426,-1.7713710069656372,1.1019127368927002,-9.835098266601562,-0.2740968594392073,-0.3149636856905107,-10.64167724563462,1.2285666178734598,4.67359655207434,0.8469470720359568
1730865974.8835092,-1.8028919696807861,1.1387075185775757,-9.852670669555664,-0.27634993451726597,-0.3081443690934161,-10.638379372259582,1.2299522779358782,4.668463933764131,0.8877840782496245
1730865974.9336016,-1.8285831212997437,1.182466745376587,-9.922863006591797,-0.2782960679796759,-0.3012870111238431,-10.634003118631009,1.2295135369086498,4.657576462287001,0.8482890049592132
1730865974.9834633,-1.8077365159988403,1.2220063209533691,-9.935257911682129,-0.28010612535920265,-0.29497948793127327,-10.628893210570924,1.2283829524484862,4.646012693440538,0.7825862479199512
1730865975.0335941,-1.8268399238586426,1.19771409034729,-9.958266258239746,-0.2820041728927375,-0.2898637777877208,-10.623642883539485,1.2265388636154841,4.6336279080570195,0.6897334283863442
1730865975.0834959,-1.7553056478500366,1.1827597618103027,-9.942646980285645,-0.28420637778188584,-0.2865614390816398,-10.618987331590414,1.2239994801136411,4.6205982460067245,0.5709366438272225
1730865975.1334362,-1.7702215909957886,1.131227731704712,-9.93575382232666,-0.2868452852777748,-0.28555059498453583,-10.615663891733323,1.2300702096144225,4.642192635213087,0.8881208221793143
1730865975.1834197,-1.7350672483444214,1.0756663084030151,-9.8892240524292,-0.2899143320592614,-0.2870432059182093,-10.614273450402383,1.229124720362817,4.632377088101796,0.8486321484808583
1730865975.2334309,-1.6980245113372803,1.014807939529419,-9.849322319030762,-0.2932558404224186,-0.29090019438471637,-10.615164889065188,1.2321858206844962,4.63189787221163,0.8890317738764777
1730865975.2833824,-1.74787175655365,0.9247363805770874,-9.83838939666748,-0.2965845687420255,-0.2965969310383691,-10.618362737318535,1.2318856653227452,4.621519276860214,0.8496927580563779
1730865975.3333728,-1.7218077182769775,0.9190731048583984,-9.835184097290039,-0.29954961511949607,-0.3032471558969719,-10.623569275180515,1.233471781576001,4.618926730699418,0.8896749828804974
1730865975.3833628,-1.710154414176941,0.9689270853996277,-9.809120178222656,-0.3018152814719218,-0.3097179453691283,-10.630240608148174,1.2330921928170158,4.608096837513473,0.8502864632738732
1730865975.4333987,-1.6837084293365479,0.9878154993057251,-9.841340065002441,-0.3031007704556853,-0.31485030191399277,-10.637693401595813,1.2345818705123317,4.6059431040344885,0.8892596854184129
1730865975.483403,-1.650559425354004,1.0081390142440796,-9.836055755615234,-0.3031704392024957,-0.3176992090730724,-10.645215540290824,1.2339561888724677,4.59537896490532,0.8493112730516756
1730865975.5333564,-1.6746716499328613,1.0141290426254272,-9.857386589050293,-0.30181894221529343,-0.31767959611489716,-10.652170327469758,1.2325854189096965,4.590670383375272,0.8892064415395542
1730865975.5833364,-1.6851810216903687,1.004333734512329,-9.852632522583008,-0.29889024013768273,-0.3145939533337059,-10.65806979053573,1.2304957071788964,4.579473015608393,0.8891790175046961
1730865975.6333683,-1.5812643766403198,1.044628381729126,-9.859695434570312,-0.2943113851066432,-0.30858593052190836,-10.662604001532301,1.2276311757334402,4.567437435206686,0.8490970956456741
1730865975.683324,-1.7228114604949951,1.0327458381652832,-9.875347137451172,-0.2880931426982772,-0.3000726965573798,-10.665638291958889,1.2240490800377133,4.554680392309586,0.7825337268772453
1730865975.7333395,-1.8088876008987427,1.0366780757904053,-9.752493858337402,-0.2803636252576966,-0.2896727587773248,-10.667176525467656,1.2197247683419838,4.541086801918637,0.6886149572101045
1730865975.7832942,-1.8492463827133179,1.0879586935043335,-9.823813438415527,-0.27149368422293885,-0.2781264315462325,-10.667278458414813,1.215057366859962,4.553172770679488,0.8892678172442665
1730865975.8332365,-1.8476037979125977,1.0733569860458374,-9.768607139587402,-0.26217485383672856,-0.266231301265234,-10.665988327305818,1.2094184440264035,4.542198307465932,0.8491937126041365
1730865975.8832293,-1.7965223789215088,1.0459142923355103,-9.815152168273926,-0.2533209996294157,-0.25478397134579334,-10.663338163864754,1.2037996409870086,4.541301570637246,0.8891814166822716
1730865975.933179,-1.7969716787338257,1.0425485372543335,-9.871280670166016,-0.2458544252276123,-0.24449139613414247,-10.659403639956523,1.1978135772076448,4.535139988231536,0.889076428734638
1730865975.9832678,-1.7969716787338257,1.0425485372543335,-9.871280670166016,-0.2405137019204027,-0.23588285117603142,-10.65437601297331,1.1904458794181363,4.524632210449354,0.8490016016198494
1730865975.9832678,-1.7303887605667114,1.079399585723877,-9.879664421081543,-0.23775342504103328,-0.22928299681831743,-10.648602469916558,1.1904122383489808,4.524584824359015,0.8487669239278219
1730865976.0331671,-1.6776671409606934,1.154143214225769,-9.950304985046387,-0.23769548710309524,-0.22486063000817755,-10.642561988848877,1.182466003133341,4.513529758253496,0.7820701377486439
1730865976.0831647,-1.6643404960632324,1.210000991821289,-9.945380210876465,-0.24009613299641988,-0.2227312367014858,-10.636824363779546,1.175714636150694,4.5148579938000735,0.889107594076326
1730865976.1330926,-1.6949403285980225,1.204162359237671,-9.977410316467285,-0.24438168792681647,-0.22304951825942954,-10.632015042105731,1.166683757903299,4.5048046846651335,0.8492129323507538
1730865976.1830785,-1.715383529663086,1.1504161357879639,-9.959513664245605,-0.24978805180024616,-0.22600522614251545,-10.628753924277351,1.1597437210862007,4.501207183322515,0.8889017728769244
1730865976.2331274,-1.7309974431991577,1.0735752582550049,-9.935346603393555,-0.2555422645688065,-0.23169973412010583,-10.627566220635533,1.1527808329211868,4.4909905411832245,0.8873167335960304
1730865976.2831085,-1.751832365989685,1.0295008420944214,-9.867960929870605,-0.261001622982457,-0.2399805814224347,-10.628779958165092,1.1422745486623165,4.479829133325542,0.8468224427075529
1730865976.333172,-1.7894331216812134,1.0231446027755737,-9.804779052734375,-0.2657282068859276,-0.25034902750282995,-10.632422464498026,1.130997287614248,4.467936186933494,0.77904276947867
1730865976.3830342,-1.7807178497314453,0.9962002635002136,-9.770801544189453,-0.26951687769884525,-0.2619977053289566,-10.63815178895226,1.1241978248231042,4.470886686477551,0.8872183573061468
1730865976.4331918,-1.7807178497314453,0.9962002635002136,-9.770801544189453,-0.2723756819502005,-0.273937060997827,-10.645274202046764,1.1118738810577327,4.460598651542543,0.8470098769648488
1730865976.4331918,-1.7861945629119873,0.9779112339019775,-9.746031761169434,-0.27446074912363505,-0.2851367018448626,-10.652859584826022,1.1117897664390068,4.460528039002037,0.8466530673190384
1730865976.4830334,-1.7849152088165283,0.9251965284347534,-9.751386642456055,-0.2760027810715574,-0.2946354160884615,-10.659900281231572,1.0990305113185879,4.449740024364817,0.7809281793313588
1730865976.5330846,-1.784656286239624,0.8895010352134705,-9.759675979614258,-0.2772528902354303,-0.30159475705131,-10.665456153580628,1.085328692030905,4.437994387578595,0.6872471607986208
1730865976.583109,-1.7826882600784302,0.8732828497886658,-9.80506706237793,-0.2784443739139068,-0.30531098669050516,-10.668777311821065,1.0798699708286565,4.4531488557571155,0.8861529767249844
1730865976.6331296,-1.7952266931533813,0.8966658711433411,-9.827330589294434,-0.2797679260745648,-0.30524030173686156,-10.669407754389995,1.0652637680001633,4.443838026702303,0.845826081753631
1730865976.6830444,-1.813761830329895,0.8992002606391907,-9.887080192565918,-0.2813677840644647,-0.3010625609407201,-10.667253464159753,1.050059061705059,4.433837784855043,0.7793419054569853
1730865976.7331476,-1.7603381872177124,1.0126773118972778,-9.927574157714844,-0.28334722470133294,-0.29276365120368486,-10.662602270517398,1.0465972000156452,4.43874796178081,0.8852798235476762
1730865976.7829556,-1.7603381872177124,1.0126773118972778,-9.927574157714844,-0.2857495739990846,-0.2807123208966245,-10.656089706533784,1.0438443197530716,4.4322306874657835,0.8846814979647964
1730865976.7829556,-1.7341268062591553,1.0816811323165894,-9.964619636535645,-0.28851971015966166,-0.26568815808798124,-10.648602736316505,1.0437724268655046,4.432188040407704,0.8845597366625839
1730865976.8330567,-1.7341268062591553,1.0816811323165894,-9.964619636535645,-0.29149112349096207,-0.24881906725683328,-10.641145550136798,1.0274972010045527,4.42243840699461,0.8442924120987848
1730865976.8330567,-1.752147912979126,1.1004984378814697,-9.94594955444336,-0.2944162125697724,-0.23144511068163315,-10.634705836438247,1.027420957122426,4.422392308159349,0.8440468721810401
1730865976.882986,-1.7777737379074097,1.0999888181686401,-9.936602592468262,-0.29703100409687205,-0.21495176511619174,-10.630128416093635,1.02680697703757,4.415265459868718,0.8839088582556851
1730865976.9328961,-1.7552416324615479,1.0999363660812378,-9.89273738861084,-0.29912741040300117,-0.2006093066674187,-10.62800477814001,1.0096879850680573,4.404406660832183,0.8435708864835568
1730865976.9829338,-1.7443795204162598,1.0299259424209595,-9.859451293945312,-0.30058404517654036,-0.1894359440369582,-10.628597348547533,0.9918345432119235,4.393069893492954,0.7766181062273805
1730865977.0329692,-1.738450288772583,0.9913241267204285,-9.821126937866211,-0.30134363010708454,-0.18207484636741447,-10.631805595083673,0.9940151721372456,4.397450391802803,0.883214664367612
1730865977.0829315,-1.72636079788208,1.0042277574539185,-9.780694961547852,-0.30137861853629117,-0.17871073569913526,-10.637179087829907,0.975539128698787,4.38807602373303,0.8431790733608385
1730865977.1329029,-1.7019740343093872,1.0301756858825684,-9.777835845947266,-0.3006702076312285,-0.17909520784493166,-10.643979470716816,0.9798643608780641,4.385809940181072,0.8822608450467996
1730865977.1829247,-1.7100615501403809,1.0236696004867554,-9.772236824035645,-0.2991948459497025,-0.1826805285626671,-10.651288901073595,0.9607645034482172,4.376538740023541,0.8419103230670769
1730865977.2328663,-1.6848812103271484,1.0475960969924927,-9.79813289642334,-0.29692098773446673,-0.18877298649063964,-10.658153041354499,0.9409032449595922,4.36679536328497,0.7748972217384438
1730865977.282879,-1.6928070783615112,1.0816024541854858,-9.839337348937988,-0.2938180759723973,-0.19665157265301425,-10.663732816366737,0.9203937724198213,4.356615245684838,0.6816898507435922
1730865977.3328586,-1.6839771270751953,1.121504783630371,-9.875795364379883,-0.2898697871895708,-0.20566668489405213,-10.667438997414386,0.9312180331291523,4.368312813219015,0.8818288433067747
1730865977.382834,-1.7058701515197754,1.1514695882797241,-9.901827812194824,-0.285092079706381,-0.21532326039216837,-10.66901987728367,0.9102133442570399,4.360172559202149,0.8414351846702723
1730865977.4328403,-1.718064785003662,1.188222885131836,-9.899704933166504,-0.27955880754634055,-0.22532648400243677,-10.668572106692132,0.9235282899843769,4.358049412858525,0.8809932658416447
1730865977.4828014,-1.7559535503387451,1.210862636566162,-9.879318237304688,-0.2734303726033674,-0.2355827234748642,-10.666468294290148,0.9022926360701404,4.349263423684604,0.8403740265982033
1730865977.5329611,-1.7530285120010376,1.21330988407135,-9.857230186462402,-0.26697276885265275,-0.24616233721625444,-10.663227119074485,1.2763642197365495,4.34394862603683,0.8801841236560851
1730865977.5827668,-1.771667242050171,1.2144695520401,-9.824956893920898,-0.26054782005134003,-0.25722977406706166,-10.659372762679197,1.2770236947148705,4.333982483895795,0.8399678132795602
1730865977.6327608,-1.7904527187347412,1.173574447631836,-9.815088272094727,-0.2545744718307368,-0.2689517533075516,-10.655326650831778,1.2770430433968825,4.323333737265378,0.7730818663874385
1730865977.6826727,-1.791128396987915,1.1400463581085205,-9.794534683227539,-0.24948426727620315,-0.28139844262512975,-10.651353155008433,1.276449294754229,4.328303159477391,0.8797838873359748
1730865977.732706,-1.7754602432250977,1.096877932548523,-9.804055213928223,-0.245675603602491,-0.2944578079308323,-10.647558991284434,1.2752247632129738,4.318872290113603,0.8396501554350504
1730865977.7826765,-1.7451756000518799,1.0755596160888672,-9.820162773132324,-0.2434526231979794,-0.3077931082513847,-10.643935247956577,1.273478054626668,4.316237484280356,0.8788012554593584
1730865977.8326948,-1.7535194158554077,1.0384587049484253,-9.841119766235352,-0.24296208168766673,-0.32085963700243136,-10.64042726803964,1.271047731457643,4.306187406392132,0.8383614167350986
1730865977.8826828,-1.7427948713302612,1.0323339700698853,-9.852581024169922,-0.24416741996858204,-0.3329682807031966,-10.637005456806023,1.267998344800769,4.295290379471566,0.7710365731681785
1730865977.932601,-1.7566986083984375,1.0032477378845215,-9.877225875854492,-0.24687444433030206,-0.34337322511394147,-10.633709762314915,1.2643464921401593,4.283591356068471,0.6773452363563175
1730865977.9826145,-1.751990556716919,1.0094205141067505,-9.899985313415527,-0.2507851863354776,-0.3513644024273878,-10.63066543925444,1.2841117430816487,4.297498696216686,0.8784475861842331
1730865978.0336628,-1.7626899480819702,1.0143227577209473,-9.914119720458984,-0.255553516582756,-0.35635439476957187,-10.628080683596188,1.2835222589791124,4.287736156795795,0.8373084911865297
1730865978.0835943,-1.7406483888626099,1.0380933284759521,-9.910380363464355,-0.26082705914082366,-0.35795799103099035,-10.626223939816278,1.2866236348060032,4.2826824185642876,0.8776485832952167
1730865978.1336367,-1.7494313716888428,1.0510751008987427,-9.90699577331543,-0.2662681503472397,-0.3560545406709976,-10.625375137940296,1.28685380791821,4.2756008790256805,0.8756612486610118
1730865978.1836076,-1.718260645866394,1.0800387859344482,-9.886003494262695,-0.2715593156537709,-0.3508163032543975,-10.625761756398747,1.2864085118506459,4.2641489874438845,0.8351373628164706
1730865978.2335746,-1.7213134765625,1.065432071685791,-9.858278274536133,-0.2764025165162027,-0.3426925231416521,-10.627497238379707,1.2852762876883372,4.251745553903454,0.767795552729002
1730865978.283583,-1.7201809883117676,1.035151481628418,-9.832938194274902,-0.2805221940294207,-0.33233922956076395,-10.63053318692481,1.2834529074443772,4.238535640091458,0.6741401760213199
1730865978.3336213,-1.7472566366195679,1.0085045099258423,-9.819117546081543,-0.28368754350538294,-0.3204980977751811,-10.634639285934927,1.2810366408301306,4.251885320086375,0.8750201738676028
1730865978.3834875,-1.7398953437805176,1.0001616477966309,-9.799436569213867,-0.2857517652353867,-0.30786905313137825,-10.639422538446443,1.277818466324327,4.241161752156253,0.8348304344044734
1730865978.4336264,-1.7612855434417725,1.0042710304260254,-9.807564735412598,-0.28668090064026686,-0.2950333580526083,-10.644380887140736,1.2997077529437302,4.23651325241331,0.8725020460469414
1730865978.483481,-1.776827335357666,1.0146998167037964,-9.798775672912598,-0.2865592429621669,-0.28244276954855885,-10.648976931832141,1.2998971410494626,4.224024036473675,0.8314537342605596
1730865978.5336518,-1.7869014739990234,0.9881681203842163,-9.822782516479492,-0.28558226543261256,-0.27044285474746943,-10.652716495443006,1.299367931522028,4.210788433292177,0.7634534567182379
1730865978.5834239,-1.7869014739990234,0.9881681203842163,-9.822782516479492,-0.28403712351154037,-0.25928682348971066,-10.655217618519423,1.2981439782547648,4.197089317210144,0.6701561734959093
1730865978.5834239,-1.7913928031921387,0.9635969996452332,-9.843122482299805,-0.2822632977159599,-0.24912954140925175,-10.656258152458914,1.2981350170098969,4.197009486896578,0.6695501717415022
1730865978.6335306,-1.7745351791381836,0.944753110408783,-9.866405487060547,-0.2806012141736117,-0.24001869606552115,-10.655797550817876,1.3008116244398291,4.209453478102433,0.8714477892547106
1730865978.6834292,-1.7401525974273682,0.9377371668815613,-9.902955055236816,-0.2793356204397848,-0.23189357773804156,-10.65398244928651,1.3023797061094344,4.204141797110544,0.8710167263858365
1730865978.7334626,-1.6854290962219238,0.9745905995368958,-9.937728881835938,-0.2786297579009813,-0.2246073110187565,-10.651144865509353,1.3020598986733674,4.193492196851076,0.8304675012084621
1730865978.783451,-1.6466100215911865,0.9855256676673889,-9.951215744018555,-0.27845959807057735,-0.21798865663930206,-10.647783892229597,1.3036703148513025,4.190236295757522,0.8706428244580382
1730865978.8334842,-1.6563363075256348,1.0078275203704834,-9.9380521774292,-0.2785872534090674,-0.21191803809342238,-10.64451046848912,1.3033972532079912,4.17967737527256,0.8303920888885943
1730865978.8833902,-1.7004355192184448,1.0166414976119995,-9.931790351867676,-0.27861954903096253,-0.20637269119952675,-10.64194985941855,1.302429384673606,4.168638822177891,0.7637191394337215
1730865978.9333422,-1.7124758958816528,1.0166045427322388,-9.904008865356445,-0.2781443915189047,-0.20142710765421656,-10.64063002526088,1.3007675635379976,4.15709196512626,0.6705194451716732
1730865978.9833767,-1.7484877109527588,0.9874158501625061,-9.873875617980957,-0.2768693751074216,-0.19721521637476558,-10.64089008268496,1.3041768633429756,4.169747258462743,0.8701752593237656
1730865979.0333667,-1.7781975269317627,0.9723923206329346,-9.826956748962402,-0.2747017911964031,-0.1938636614517038,-10.642819335646632,1.305514250969544,4.164929362936983,0.8694065896165248
1730865979.083341,-1.8249285221099854,0.9684796333312988,-9.808510780334473,-0.27177496626761233,-0.19142599021816822,-10.646230721546122,1.3050469870201495,4.155795132321288,0.8292050806581122
1730865979.1334617,-1.8077327013015747,0.99198979139328,-9.797586441040039,-0.26843463759635067,-0.18985956786673897,-10.650684044165207,1.3038923648034118,4.146097722707108,0.761711762275484
1730865979.1833425,-1.7758582830429077,1.0017274618148804,-9.795262336730957,-0.2651663063471303,-0.18905734299078386,-10.655565081944047,1.3020936596151775,4.1360814955627525,0.6688358671223517
1730865979.2334268,-1.7445600032806396,0.9905624389648438,-9.823312759399414,-0.2624613715623171,-0.18889880850288765,-10.660200534398363,1.3056639494430382,4.14588696543971,0.8688957629311554
1730865979.283344,-1.7271696329116821,1.0075136423110962,-9.839427947998047,-0.26067969450298834,-0.18927710738343428,-10.663981433236096,1.3048300905350858,4.13775299265317,0.8289166244375814
1730865979.3333242,-1.6950007677078247,1.0687576532363892,-9.858665466308594,-0.25997059644956166,-0.19011332590203367,-10.666467242234571,1.3033366474169457,4.129069772872613,0.7618618674764805
1730865979.3832564,-1.675797462463379,1.0785269737243652,-9.882787704467773,-0.2602577935072082,-0.19139401205608148,-10.667444918260626,1.3012115106965472,4.119993045924086,0.6689554892226014
1730865979.4332826,-1.6692519187927246,1.0586843490600586,-9.9091157913208,-0.2612672213010423,-0.193201466794051,-10.666942029919436,1.3063566200072907,4.131555324712693,0.86834754456086
1730865979.4832273,-1.7125009298324585,1.0549372434616089,-9.896411895751953,-0.2625963351773522,-0.1956783965754724,-10.665203717258784,1.30556218300624,4.123938005400167,0.8282189753627152
1730865979.5331433,-1.7504215240478516,1.0589847564697266,-9.870314598083496,-0.26382922226248806,-0.198950732333393,-10.662625199878395,1.3041147806228774,4.115829548860021,0.761634031897387
1730865979.5832226,-1.785847783088684,1.0675930976867676,-9.84801959991455,-0.26466671081456716,-0.2030776876111658,-10.65964237060761,1.307121808715026,4.120719376072832,0.8680360761063772
1730865979.6332638,-1.7883844375610352,1.0558311939239502,-9.808194160461426,-0.26501042268475083,-0.20804420346488328,-10.6566188574533,1.3063240831833882,4.113334421983663,0.8275219125327555
1730865979.6832213,-1.7674888372421265,1.0369421243667603,-9.804984092712402,-0.26495941621576646,-0.213762998401563,-10.65377003451231,1.3048746208414608,4.105505239419059,0.7608940988825185
1730865979.7332594,-1.7422083616256714,1.044816493988037,-9.791166305541992,-0.26472760069548196,-0.22006939252567864,-10.651142939130214,1.3081005083058639,4.105603202995524,0.8675063956572762
1730865979.7831383,-1.7183767557144165,1.056226372718811,-9.81582260131836,-0.2645307122204235,-0.22673038571167847,-10.648652164003028,1.3074431342266681,4.0975749593023645,0.8275262186072087
