Timestamp,IMU_Linear_Acc_X,IMU_Linear_Acc_Y,IMU_Linear_Acc_Z,Filtered_X,Filtered_Y,Filtered_Z,Pose_X,Pose_Y,Pose_Z
1730865946.7840548,-1.6862400770187378,1.1638270616531372,-9.89360523223877,-0.021806340996407842,-0.015084893957697855,-2.610450181141929,0.8851574460014436,3.831000079206674,0.8989965769353331
1730865946.8840554,-1.6525182723999023,1.072100281715393,-9.886634826660156,-0.041447164087274384,-0.04040189871916252,-4.424243950443426,0.8717033448756877,3.83099991178203,0.8989712836170742
1730865946.9339588,-1.6460669040679932,1.1705397367477417,-9.888028144836426,-0.0534059958998786,-0.05955037450366765,-5.416503932891524,0.9033540797320598,3.8321513612359475,0.8958219647210376
1730865946.9839773,-1.5448205471038818,1.3515266180038452,-9.916738510131836,-0.06651450604307088,-0.08278661243524857,-6.418834997635827,0.9037254097202037,3.8321926342525106,0.8957054500809916
1730865947.0338826,-1.4505513906478882,1.3764179944992065,-9.885746955871582,-0.08034146844741406,-0.1096793004730679,-7.396828611297366,0.8910959763874778,2.690446896502224,0.8926199606765987
1730865947.083904,-1.4505513906478882,1.3764179944992065,-9.885746955871582,-0.09418993147806262,-0.13986944397224585,-8.319403989898852,0.8555390065146038,-1.7662801068272558,0.8758167520973884
1730865947.083904,-1.483825922012329,1.3574954271316528,-9.83907413482666,-0.10712321773949689,-0.1730794028575025,-9.160441461651418,0.8546177417444181,-1.8817363820428499,0.8753704209682007
1730865947.1338828,-1.5220105648040771,1.4168083667755127,-9.791072845458984,-0.1181450099977818,-0.2089899476979326,-9.899813251825831,0.8850853083755521,1.9473403341976125,0.8773704730445853
1730865947.1838188,-1.466209888458252,1.5062932968139648,-9.781386375427246,-0.12641845654649286,-0.2471779670250095,-10.52386048191867,0.8792036954382884,1.2618176531100873,0.8368226553612016
1730865947.2339377,-1.466209888458252,1.5062932968139648,-9.781386375427246,-0.13137766941525636,-0.2871699315056109,-11.025414033205427,0.8730152545231504,0.5775028138532986,0.76939188846822
1730865947.2339377,-1.6475468873977661,1.4503509998321533,-9.745635986328125,-0.13275461199204464,-0.3284945520262076,-11.403455395966017,0.8729809549461363,0.5738066764537649,0.7689529986010523
1730865947.2838902,-1.7597566843032837,1.3032793998718262,-9.741059303283691,-0.13067273850915198,-0.3706091728436075,-11.662465494100193,0.8836658625450192,1.7751410881283085,0.8742555498010233
1730865947.3337905,-1.6816997528076172,1.2365984916687012,-9.753911018371582,-0.12577429513055036,-0.4127238002690477,-11.811529869101625,0.8794798026073752,1.094596419292013,0.8715040711715707
1730865947.3838024,-1.757475733757019,1.2633165121078491,-9.788309097290039,-0.11916638429018661,-0.45368835875861147,-11.863319637651099,0.8768273831855836,0.7635919718073588,0.8258330396850246
1730865947.4338114,-1.9410609006881714,1.2342725992202759,-9.715015411376953,-0.11221849705497773,-0.49207943992949194,-11.83302570664401,0.8746157373742774,0.3519859462307168,0.871189863444519
1730865947.4836771,-1.7980672121047974,1.2204742431640625,-9.816902160644531,-0.10641873357625142,-0.5264249201053293,-11.737276433490761,0.8711590018978337,-0.11148829932423521,0.8263958521801645
1730865947.5337312,-1.6201061010360718,1.2407430410385132,-9.861479759216309,-0.10319530559608081,-0.5554134735257039,-11.593135202205962,0.8674376700390375,-0.5766925669222794,0.7524296598927694
1730865947.5837328,-1.6417081356048584,1.2559638023376465,-9.932706832885742,-0.10356671020487992,-0.5780462980010557,-11.417277840675528,0.8756077249869723,0.8184193234948943,0.8712301837612632
1730865947.6336718,-1.4783844947814941,1.2720919847488403,-9.962823867797852,-0.10784505159298405,-0.5937485261449884,-11.22532217113942,0.8747538663476304,0.8172826124136132,0.8284020376305785
1730865947.6836586,-1.4127205610275269,1.249739170074463,-9.95790958404541,-0.11557379855586089,-0.6024172869987118,-11.031246688729627,0.8736195702567641,0.8146483996385133,0.7576860419832108
1730865947.7336457,-1.4345476627349854,1.2176520824432373,-9.960887908935547,-0.1256255581249801,-0.6043792677258796,-10.846901257653181,0.8713547568750423,0.8234388364801144,0.8717228335687122
1730865947.7836764,-1.6071974039077759,1.2252144813537598,-9.856568336486816,-0.1364603659451445,-0.6002799788920353,-10.681640784995052,0.8695759211540464,0.8227757879803226,0.8310909497638678
1730865947.8337014,-1.532752275466919,1.1856809854507446,-9.923158645629883,-0.14653815913746468,-0.5909645244836645,-10.542118415420731,0.8674428629270388,0.8206208363924447,0.7638822128479343
1730865947.8835726,-1.49844229221344,1.2116985321044922,-9.878271102905273,-0.15464509892718364,-0.5773860005177982,-10.432295961754571,0.8680643018478367,0.8277606676292986,0.8718781465873153
1730865947.9345996,-1.521494746208191,1.106750726699829,-9.946966171264648,-0.15996041405802855,-0.5605289616237404,-10.353683946005596,0.8662933165875809,0.827077935951662,0.8317566152974862
1730865947.9846032,-1.521494746208191,1.106750726699829,-9.946966171264648,-0.16200053318906976,-0.5413190615836817,-10.305731895096997,0.8701412868418182,0.8332632251322544,0.8713785256483493
1730865947.9846032,-1.521235466003418,1.066617727279663,-9.89339542388916,-0.16059222805146575,-0.5205341061247868,-10.286262335003942,0.8701409646365281,0.8332693526418014,0.871242424430116
1730865948.034629,-1.6524330377578735,0.9745575785636902,-9.893824577331543,-0.15587337264676618,-0.49875497449027956,-10.291864086953584,0.8707323520520869,0.8375668315833977,0.8721887543132433
1730865948.0845356,-1.714928388595581,0.9513433575630188,-9.833707809448242,-0.14832641146551045,-0.47633942021785264,-10.318234559085948,0.870487005164764,0.8381315424875438,0.833848806364662
1730865948.1347377,-1.6118273735046387,0.9223973155021667,-9.884674072265625,-0.1387980552715558,-0.4534151734443478,-10.360522365062465,0.8698798404206775,0.8375303338044746,0.7693616818207074
1730865948.1846237,-1.3661701679229736,0.9260615110397339,-9.857068061828613,-0.12832694776388182,-0.4299354204226772,-10.413692857195759,0.8689409856409404,0.8358263183586614,0.6791548297139246
1730865948.2345996,-1.2212275266647339,0.8862243294715881,-9.932165145874023,-0.11773292868315074,-0.40578100534391326,-10.472890670127333,0.8684093071995274,0.84296300726428,0.8720218343211529
1730865948.2835228,-1.0323896408081055,0.8774198889732361,-9.941996574401855,-0.10720458560770643,-0.380845532325243,-10.533757692395593,0.8675549739929784,0.8431543101389358,0.8338045212630779
1730865948.3344536,-1.2495695352554321,0.9381879568099976,-9.924843788146973,-0.09618098755466659,-0.3550928027461207,-10.592660406446477,0.8691653724598467,0.8500694687179535,0.8712373844861784
1730865948.3844686,-1.4342632293701172,1.0002256631851196,-9.9284086227417,-0.08367504070765408,-0.32863487764244537,-10.646783819771159,0.8689050226636031,0.851437265863456,0.8309598509797798
1730865948.4344435,-1.6491162776947021,1.1198151111602783,-9.88106918334961,-0.0689109347785353,-0.30184575870171126,-10.694105042348248,0.8684558200976111,0.852016784384286,0.7642860924327134
1730865948.4846096,-1.8150001764297485,1.2128596305847168,-9.911548614501953,-0.051900535442032755,-0.27546365596128447,-10.733311339542375,0.8678490504261359,0.8518742913758736,0.669793201721104
1730865948.5345068,-1.8747748136520386,1.2866096496582031,-9.855307579040527,-0.03366956645384564,-0.25062387533875735,-10.76371064275407,0.8665671785767783,0.853708694004709,0.8716276231441774
1730865948.5845046,-1.8972151279449463,1.2438414096832275,-9.890105247497559,-0.016101727347792152,-0.2287676506231868,-10.785145214593797,0.8603141423845019,0.8598035833116395,0.8714429541143884
1730865948.6345894,-1.8699368238449097,1.2726092338562012,-9.829380989074707,-0.0015202931073559026,-0.21141319604536837,-10.797902257614364,0.8578015334280258,0.8616597547558534,0.8308296397042689
1730865948.6844258,-1.9649289846420288,1.1705948114395142,-9.842905044555664,0.007790033754738973,-0.19986496806558163,-10.802616398587762,0.85848256266201,1.982322676796426,0.8715125618377682
1730865948.7343395,-1.755480170249939,1.117276906967163,-9.814167976379395,0.009964024269914376,-0.19495210991204287,-10.800168957070872,0.8569933653506384,2.3770064531579447,0.8313391889474527
1730865948.7843802,-1.648979902267456,1.0715574026107788,-9.870731353759766,0.003869107543851822,-0.1968480544177978,-10.791609413380275,0.8591286674934854,1.3733547746492623,0.871405984767872
1730865948.8343627,-1.619248390197754,1.0923936367034912,-9.766934394836426,-0.010628803060158665,-0.20503280497469492,-10.778101952317744,0.8588509116237266,1.3062189284772605,0.8309485899691419
1730865948.8843756,-1.5719029903411865,1.1600306034088135,-9.814069747924805,-0.03260552010137861,-0.21843603445380513,-10.760852539453346,0.86089177094086,0.5753546403166232,0.8714513941981017
1730865948.9342463,-1.4718180894851685,1.2043366432189941,-9.855443000793457,-0.06027126478513127,-0.2357094079685667,-10.741032880850224,0.8612652261794218,0.2761017013618928,0.831339175434179
1730865948.9843962,-1.5622344017028809,1.2559999227523804,-9.844598770141602,-0.0912696067884307,-0.25551096126796635,-10.719767902963564,0.8656741387738018,0.8832480329493801,0.8714139845013056
1730865949.0343103,-1.6065484285354614,1.3037285804748535,-9.91126537322998,-0.12303244267178473,-0.2767048221917287,-10.69815707217635,0.8674630473007683,0.8852346171749365,0.8312733731340476
1730865949.084335,-1.6464300155639648,1.3352413177490234,-9.848318099975586,-0.153181532112083,-0.29845754599273944,-10.677260884970638,0.868918994582022,0.8865146481206458,0.7639982904884471
1730865949.1342292,-1.7890230417251587,1.2793657779693604,-9.847938537597656,-0.1798658025336108,-0.3202385728502441,-10.658035438793586,0.8674282581930064,0.8892643573098511,0.8756175385997591
1730865949.1843033,-1.9112098217010498,1.1769911050796509,-9.826825141906738,-0.2019850499927492,-0.3417081618985291,-10.641234611537877,0.8675767591651333,0.8898955135375796,0.8366389730813817
1730865949.2342906,-1.7468112707138062,1.169215440750122,-9.872337341308594,-0.21927558120184049,-0.36252695172060045,-10.627346849245926,0.8672014573868713,0.8896519441378214,0.7711042926925322
1730865949.2843397,-1.7610691785812378,1.1731765270233154,-9.90518856048584,-0.2321450530830019,-0.38222358400334744,-10.61662006360757,0.868735881188314,0.8970648127322175,0.8792851882043338
1730865949.3341703,-1.772855281829834,1.1963719129562378,-9.869773864746094,-0.24132910191637094,-0.40021892274329096,-10.609136678942575,0.8684807182606638,0.8983429038905075,0.8408555469226168
1730865949.3842542,-1.7723252773284912,1.1582468748092651,-9.856871604919434,-0.2476370177568602,-0.41594322485571833,-10.604851493438908,0.8676110311618646,0.8986071384454095,0.7755746056221453
1730865949.4341888,-1.5951693058013916,1.1924304962158203,-9.84045124053955,-0.25182623764999096,-0.42893128555572724,-10.60357021767275,0.8702440469616035,0.9050515866103389,0.8828036215257132
1730865949.4842129,-1.4303251504898071,1.1096744537353516,-9.871488571166992,-0.25442915944077105,-0.4388594269262587,-10.604935996501785,0.8698554195600405,0.906233104012899,0.8441326068880003
1730865949.5342839,-1.4494115114212036,1.127644419670105,-9.831385612487793,-0.25553631011379924,-0.44553528009182214,-10.608466826574723,0.8659461328812625,0.9146908211173931,0.8867790674629246
1730865949.5842733,-1.374488115310669,1.0864741802215576,-9.847817420959473,-0.25474438702929303,-0.44886620935070876,-10.613609992221825,0.8636503839828296,0.9174660643300213,0.8487714019049041
1730865949.634126,-1.4525998830795288,1.0719263553619385,-9.802490234375,-0.25133881514385237,-0.4488401705387698,-10.619777545394282,0.863649020286982,0.9223733126398869,0.8901774743714858
1730865949.684152,-1.5784028768539429,1.0320987701416016,-9.840079307556152,-0.24459955051972201,-0.4455159403801551,-10.626371792619222,0.861470425374443,0.9248515822711432,0.8521842528501045
1730865949.734146,-1.5448294878005981,0.9901504516601562,-9.828018188476562,-0.23411713115976718,-0.43900225547269034,-10.632825428569596,0.8643485649950152,0.9279943092446253,0.8885601335790385
1730865949.7841535,-1.495914340019226,0.9905200004577637,-9.897010803222656,-0.21996200488738826,-0.4294339014229837,-10.638665213703206,0.8633261611716148,0.9291063485357283,0.8485620352754657
1730865949.8341901,-1.5989469289779663,0.96947181224823,-9.889765739440918,-0.20262791256296747,-0.41697045881948647,-10.643583225760047,0.8639264515773519,0.9361391515556063,0.8888273095913433
1730865949.8841543,-1.5671354532241821,0.9694827198982239,-9.91878890991211,-0.18290459682937232,-0.4018219842303263,-10.64747904613404,0.8634605964880742,0.9347891405842187,0.8833462603097503
1730865949.9341342,-1.4966825246810913,0.9941743016242981,-9.964380264282227,-0.1617751514815215,-0.3842821094223041,-10.650455120644294,0.8624927853035165,0.9343964281394336,0.8412002249162011
1730865949.984129,-1.4800490140914917,0.969645619392395,-9.981051445007324,-0.14026065389114165,-0.36475501388513654,-10.65279142153285,0.8611390064159974,0.9330597014447316,0.7719979041411424
1730865950.0342054,-1.459653377532959,1.016774296760559,-9.992463111877441,-0.11923960530503724,-0.3437636747203313,-10.654910121985903,0.8594666347349298,0.9308420608411065,0.6764424141003994
1730865950.0840492,-1.5144121646881104,1.049118995666504,-9.973414421081543,-0.09936442874604655,-0.32194445978186004,-10.657306607874633,0.8659506325818992,0.943137794031513,0.8817601560940227
1730865950.1340241,-1.6105612516403198,1.0086636543273926,-9.94045639038086,-0.08111207014850035,-0.3000356092161746,-10.660444935401106,0.8660765125064097,0.9440973294364746,0.8411503916933882
1730865950.1840804,-1.6105612516403198,1.0086636543273926,-9.94045639038086,-0.06491192592148627,-0.2788212608466262,-10.664650411776927,0.8679511094526364,0.9519973102804737,0.8781730006567225
1730865950.1840804,-1.5536221265792847,1.06661057472229,-9.94149398803711,-0.05122045328946637,-0.259039342017814,-10.670047973843133,0.8679548714520514,0.952014428990076,0.8780120209187571
1730865950.2339597,-1.603241205215454,1.065562129020691,-9.964529037475586,-0.040461434829935757,-0.2413350541549887,-10.676574100829438,0.8685602339961259,0.9546993009013722,0.8369238469268502
1730865950.2839465,-1.879683494567871,1.0326447486877441,-9.866992950439453,-0.03297496631802684,-0.22625533346799012,-10.68402300166608,0.8690839560195117,0.9568450817935289,0.7685508513348056
1730865950.3339956,-2.0737950801849365,0.9914940595626831,-9.809025764465332,-0.029175954231675225,-0.2142018658194352,-10.69204740333861,0.8714644397588864,0.9609827178123016,0.8762716356181364
1730865950.3840535,-1.8243703842163086,0.9407444000244141,-9.798154830932617,-0.02976714879923561,-0.20533884787796244,-10.700113873406641,0.8722594997560064,0.9628498969567701,0.8351278630220513
1730865950.4339852,-1.6435387134552002,1.0102969408035278,-9.805895805358887,-0.035582660841254374,-0.1995385969018822,-10.707515939779347,0.8758010192578226,0.9737795130605518,0.8728188966899283
1730865950.4839067,-1.5730770826339722,1.1460793018341064,-9.76155948638916,-0.047053004458820775,-0.1964595426646752,-10.713482282612574,0.8775081919363436,0.9784925204993689,0.8313479505197426
1730865950.5338778,-1.402429223060608,1.2469379901885986,-9.80485725402832,-0.0637681068187221,-0.19577003070501903,-10.717302979030098,0.8790752807349587,0.9827114398780641,0.7632769079027822
1730865950.5837739,-1.2801685333251953,1.27745521068573,-9.844583511352539,-0.08438350243460249,-0.19737726049492274,-10.718437618371553,0.8804587906441674,0.9864432405744127,0.668514492448947
1730865950.6338754,-1.3144124746322632,1.2810062170028687,-9.876189231872559,-0.10676733822239823,-0.20148868090041472,-10.71662253245373,0.8816085762139336,0.9896908487011449,0.5465428830699463
1730865950.6837897,-1.3720238208770752,1.2254197597503662,-9.91110610961914,-0.12834517835240433,-0.20847968926692945,-10.711945326125289,0.8824634162848032,0.992423987388055,0.3977197365827963
1730865950.7338083,-1.4993278980255127,1.1518988609313965,-9.931300163269043,-0.14661122147383576,-0.21866066506063578,-10.70484497532107,0.8795127924985314,0.9842280761910035,0.8741769967929399
1730865950.78379,-1.6006672382354736,1.0863429307937622,-9.86929702758789,-0.15964002828019436,-0.23204680283406978,-10.696032295781928,0.8798421881040323,0.9858924247955988,0.8339590548982283
1730865950.8337855,-1.81550133228302,1.01986563205719,-9.81452465057373,-0.16645288529174074,-0.24821173252919154,-10.686329084575739,0.884152190520054,0.9922552706950704,0.8742290398768175
1730865950.8837059,-1.9375649690628052,0.9927679896354675,-9.77560806274414,-0.1672069983935651,-0.2662669754809963,-10.676464965364215,0.8850885921807532,0.9942686439967814,0.8342717775300107
1730865950.9336746,-2.0457820892333984,0.9714118242263794,-9.726194381713867,-0.16319461875264923,-0.28496140096019396,-10.666923481020973,0.8856135718941547,0.9955955839341726,0.7677452128199304
1730865950.9836621,-2.0869340896606445,1.0083929300308228,-9.737180709838867,-0.15662364189395223,-0.3028679500237489,-10.657891891745177,0.8879580689487268,1.0082280138757196,0.8741632320685779
1730865951.0336392,-2.0562994480133057,1.051559329032898,-9.758321762084961,-0.15021198561940274,-0.31861710698579004,-10.649312932043014,0.8887273909223505,1.0118589757064476,0.8342426921849411
1730865951.083622,-1.9736506938934326,1.1039338111877441,-9.822582244873047,-0.1466844715788616,-0.33112761719531525,-10.64101641698555,0.8989888544782974,1.0188539515927342,0.8742009922903706
1730865951.133597,-1.9302725791931152,1.1401413679122925,-9.887577056884766,-0.14828162959679647,-0.3397743850739806,-10.632885642425226,0.9027953578602331,1.0230513712643416,0.8343151318310221
1730865951.1835477,-1.8705997467041016,1.1601102352142334,-9.892549514770508,-0.1564086246884982,-0.34444998903216933,-10.624990810642906,0.9072661486186142,1.0291962959476726,0.8743079761449195
1730865951.233644,-1.852792739868164,1.1702474355697632,-9.919771194458008,-0.1715007595609932,-0.34551753132860924,-10.617625803193555,0.9113337851176435,1.0337434010469975,0.8343858822721085
1730865951.2836158,-1.850260853767395,1.1229956150054932,-9.914119720458984,-0.1930883490633023,-0.34367950632531985,-10.611244432260206,0.9120696076371415,1.0406595069886637,0.8746320754814771
1730865951.3335752,-1.8229795694351196,1.0839333534240723,-9.910886764526367,-0.21999402213026542,-0.33979119777417083,-10.606351166055948,0.914224519848617,1.0446695311293015,0.8350363770044683
1730865951.3836124,-1.7985893487930298,1.0479875802993774,-9.888747215270996,-0.2505745522793747,-0.3346639664730866,-10.603389955535091,0.9217657779635953,1.0539375456257036,0.8747621620499831
1730865951.4335694,-1.7535266876220703,0.9978740811347961,-9.872357368469238,-0.2829354090324314,-0.32891814080043935,-10.602649904903302,0.931255560446821,1.0566216573675944,0.8747574813993709
1730865951.4836032,-1.7225205898284912,0.9698752164840698,-9.863229751586914,-0.3150994932608285,-0.3229109051407269,-10.604205768497032,0.93598705180968,1.0592393861580112,0.834916909472051
1730865951.533507,-1.668954610824585,0.9353963732719421,-9.8529052734375,-0.34514126191356265,-0.31672910566033163,-10.60790629188703,0.9398778528097781,1.061049482611802,0.7687383813692523
1730865951.583536,-1.6359572410583496,0.9215210676193237,-9.852986335754395,-0.37129447530157644,-0.31023332142472787,-10.613406291682862,0.9428827133502664,1.0620800678787519,0.6758341296867312
1730865951.6334298,-1.6144894361495972,0.9229671359062195,-9.850465774536133,-0.3920417987938074,-0.30313896374506577,-10.620225465789847,0.9258233931362966,1.0697483588144878,0.8748043201187697
1730865951.6834772,-1.6067534685134888,0.9610587358474731,-9.857247352600098,-0.40619916061334754,-0.2951243617638092,-10.62781744545358,0.9244420454225133,1.0721694078606474,0.8349442062583854
1730865951.7344527,-1.5976148843765259,1.0084751844406128,-9.867647171020508,-0.41299297000187785,-0.28595774949357544,-10.635638195453787,0.920985685748954,1.0871294673806542,0.8741909506884176
1730865951.7843916,-1.6114647388458252,1.0301212072372437,-9.874835968017578,-0.41211177544767574,-0.27561324513745744,-10.643206290787832,0.9177717484384023,1.0934243895091398,0.8338454122552691
1730865951.8344188,-1.5975745916366577,1.018343448638916,-9.889068603515625,-0.4037188936582209,-0.2643209250137622,-10.650147523536287,0.9135337153608541,1.0990521955112778,0.7668256239228151
1730865951.8845086,-1.6075562238693237,0.9683912396430969,-9.893061637878418,-0.38841950353254684,-0.2525121361625056,-10.656218663940425,0.9188844510153961,1.098298905330443,0.8745618789301438
1730865951.934418,-1.626556634902954,0.905511736869812,-9.897462844848633,-0.3671902460814927,-0.24067614894479344,-10.661309246637845,0.9166337345770994,1.1013625044533975,0.8346092812767845
1730865951.9844997,-1.6508206129074097,0.8503293991088867,-9.890620231628418,-0.3412980328371581,-0.22919174819672627,-10.665421967962663,0.9138715991344639,1.1169674301276848,0.874517868160446
1730865952.034278,-1.668717384338379,0.7852784395217896,-9.882685661315918,-0.3122201922370022,-0.21820251287318862,-10.668636344373937,0.9105618648830901,1.124094665858466,0.8347717551876093
1730865952.0843859,-1.668717384338379,0.7852784395217896,-9.882685661315918,-0.2815521059646747,-0.20757559532524433,-10.671067231066072,0.9101635497047099,1.131533161768476,0.8745331624807611
1730865952.0843859,-1.666137456893921,0.7490000128746033,-9.847501754760742,-0.25089178275059093,-0.19695120981656145,-10.672828143980539,0.9101481121110416,1.1315744685348632,0.8743841168533452
1730865952.134316,-1.6244356632232666,0.7482098340988159,-9.854060173034668,-0.22170795968279983,-0.1858509168947367,-10.673999802252318,0.9071100325098438,1.1387373680606103,0.8344782967157331
1730865952.1843207,-1.5937052965164185,0.7874472141265869,-9.882034301757812,-0.1952067111933514,-0.17380048711906113,-10.674618945314013,0.9035254458848451,1.1455130111789895,0.7675766099914059
1730865952.2342668,-1.5707736015319824,0.8576775789260864,-9.910017013549805,-0.17222381814206,-0.16046301014044034,-10.674713161488729,0.9087707903258423,1.1366653041509986,0.8746651541770869
1730865952.2842512,-1.587791085243225,0.9232023358345032,-9.935588836669922,-0.15318452927767154,-0.14578010072381004,-10.674364420211464,0.911040145384153,1.14752884267896,0.8746091121459371
1730865952.3342435,-1.5839658975601196,0.9715844392776489,-9.951668739318848,-0.1381493837115564,-0.13007084439682348,-10.673752223937926,0.9109186130704422,1.1521084110923137,0.8346531313722372
1730865952.3842833,-1.6285433769226074,0.9795622229576111,-9.949352264404297,-0.12691764231240693,-0.11403084184474824,-10.673150654327994,0.9076466205004493,1.1471208837610072,0.8742559807197101
1730865952.4342704,-1.6731714010238647,0.9589577913284302,-9.931402206420898,-0.11915222389961065,-0.0986156977306451,-10.67288056687909,0.9059899549052647,1.1485684631847672,0.8341520127813988
1730865952.4843504,-1.7608195543289185,0.9085907340049744,-9.892904281616211,-0.11451221343528929,-0.08484054819598663,-10.673229639859137,0.9040326199395469,1.1497928625703568,0.7670998195778723
1730865952.5342863,-1.8198007345199585,0.8613375425338745,-9.845653533935547,-0.1127765192323963,-0.07355774176964575,-10.674360921132234,0.9070324858290425,1.161739470366704,0.8742139502891538
1730865952.5842535,-1.8743910789489746,0.8098325729370117,-9.812735557556152,-0.11392174224517683,-0.06527923358157678,-10.676237899803152,0.9061816774059082,1.165314214788643,0.8341727880947615
1730865952.634168,-1.8814746141433716,0.8248398900032043,-9.78154468536377,-0.11811784699050294,-0.060095548514893064,-10.678596236331924,0.9074520448334343,1.1771467868211525,0.8742705219756273
1730865952.6841817,-1.8178749084472656,0.9012826681137085,-9.799697875976562,-0.12562650740690579,-0.057728356529751,-10.680980344009754,0.9069989751064129,1.1835720491221282,0.8341763983060978
1730865952.7341259,-1.7743693590164185,0.9895063042640686,-9.821540832519531,-0.13661977809170878,-0.05771634287918094,-10.682844241163522,0.9055615456656196,1.1857877971984776,0.8742320164919817
1730865952.7841399,-1.7426655292510986,1.0704177618026733,-9.879551887512207,-0.15099504835177655,-0.059656100960774235,-10.683694241722677,0.9043627563630362,1.1910322956130504,0.8341732739016672
1730865952.834016,-1.7173658609390259,1.144403100013733,-9.899643898010254,-0.1682829993888672,-0.06338408957323977,-10.683227209151084,0.9044210871281587,1.204198162093469,0.8742678903071089
1730865952.884022,-1.7238008975982666,1.201750636100769,-9.902915954589844,-0.18767713306607758,-0.06904205144827234,-10.681407208636877,0.9031953544876153,1.2116545700529135,0.8342156152771979
1730865952.9340377,-1.7645459175109863,1.1820310354232788,-9.86949348449707,-0.20815563879049842,-0.07702651884228419,-10.678442824286627,0.9089041783939639,1.221219141626208,0.8751584844199459
1730865952.9839852,-1.7645459175109863,1.1820310354232788,-9.86949348449707,-0.22865291401165155,-0.08783969239363174,-10.674683931245987,0.9118406591763908,1.223352099892351,0.8758122830718291
1730865952.9839852,-1.83077871799469,1.1543887853622437,-9.82955265045166,-0.24822381026584506,-0.10189467830239915,-10.670502245076333,0.911846362425679,1.2233720513288444,0.8756819622184325
1730865953.0339887,-1.8594506978988647,1.0799541473388672,-9.79504680633545,-0.2661656715886081,-0.11934499750270491,-10.6661974009067,0.9126644356122452,1.2272437553793007,0.8361501834252141
1730865953.0839276,-1.8404059410095215,1.018115758895874,-9.759230613708496,-0.2820834143705211,-0.13996085770384806,-10.661929628789608,0.9128030540994946,1.2308038779189554,0.7699864262500062
1730865953.1339393,-1.7897979021072388,0.9865586757659912,-9.764646530151367,-0.29585946022974374,-0.16306553161188292,-10.657689658073114,0.9122201299595604,1.2339925685169506,0.6770653108710675
1730865953.1840162,-1.698754072189331,1.0258070230484009,-9.786855697631836,-0.3075183954636751,-0.1875830654020939,-10.653332525208716,0.9115415721282873,1.2393290273142306,0.8759089435632172
1730865953.2339149,-1.6195176839828491,1.096706748008728,-9.849236488342285,-0.3170460578908739,-0.21222616666575422,-10.64867762617932,0.910704736726733,1.2429388686318712,0.8361481115519749
1730865953.2839737,-1.6195176839828491,1.096706748008728,-9.849236488342285,-0.3242572028212325,-0.23575992951731803,-10.643632507851766,0.9090564404273381,1.2460115089229717,0.7693616493326687
1730865953.2839737,-1.5690386295318604,1.1863417625427246,-9.894932746887207,-0.3287846636106419,-0.25721992104237473,-10.63827364501012,0.9090371099985055,1.2460375132490662,0.7686082022865875
1730865953.3338645,-1.5596836805343628,1.2637195587158203,-9.941064834594727,-0.330169295229213,-0.2760397967197642,-10.632862221095909,0.9114753531378319,1.2570478549394306,0.8768019767956465
1730865953.384044,-1.59630286693573,1.3051685094833374,-9.960204124450684,-0.3279798274234024,-0.2921189168243876,-10.627827035743007,0.9103208023839594,1.2623020620804608,0.8371531032064714
1730865953.4338489,-1.6284863948822021,1.3273265361785889,-9.94701862335205,-0.3219436392895788,-0.30581225881456564,-10.623717483591648,0.9083718462172964,1.2667535688797371,0.7715513290750707
1730865953.4840422,-1.6553434133529663,1.316172480583191,-9.920696258544922,-0.312072521869899,-0.3178117343259744,-10.621102489480924,0.9116715628048071,1.267930127936245,0.8766564414732084
1730865953.5338588,-1.6599690914154053,1.2806527614593506,-9.860176086425781,-0.298725574521454,-0.32895210402506025,-10.620430905878509,0.9147870310943451,1.2838145910110406,0.8767862151527757
1730865953.583919,-1.6765570640563965,1.1801283359527588,-9.819402694702148,-0.2825809698166153,-0.3399903421797017,-10.621898823159338,0.9148538490789208,1.2900381429414032,0.8369623960899857
1730865953.6338382,-1.6720153093338013,1.0732054710388184,-9.787087440490723,-0.2645449968241342,-0.3513863562083122,-10.625369860879834,0.916756071941667,1.2961164644836667,0.8767203989623195
1730865953.6838663,-1.6663193702697754,0.9791675806045532,-9.763050079345703,-0.24563643030823018,-0.36312634499979424,-10.630378992434274,0.9168766548961178,1.3017420769366514,0.8369680635635565
1730865953.7339408,-1.6707918643951416,0.9239218235015869,-9.750232696533203,-0.22687033140227797,-0.3746556430360756,-10.636211134418819,0.9164059058145338,1.3064627982950892,0.7704454022171889
1730865953.7837968,-1.6994575262069702,0.9047927856445312,-9.781537055969238,-0.20916851370838646,-0.3849626335158032,-10.64202535225376,0.9209711254604871,1.302342146095143,0.876733882656463
1730865953.8338177,-1.7137017250061035,0.9450106620788574,-9.824131965637207,-0.1933184672872455,-0.39279593784122957,-10.647008949190083,0.9216438745701603,1.304521179812338,0.8368418330386929
1730865953.8838098,-1.7199853658676147,1.0237822532653809,-9.900525093078613,-0.1799649916829836,-0.3969612986738398,-10.65054429909043,0.9270187548921599,1.313592110153582,0.8766279614784908
1730865953.933771,-1.7121604681015015,1.109671950340271,-9.941783905029297,-0.16959786185681053,-0.3966278979715976,-10.652349096856245,0.9332655733745641,1.319233813950586,0.8766459620562945
1730865953.9838536,-1.7125602960586548,1.1412822008132935,-9.991416931152344,-0.16252434970196167,-0.39155312677303816,-10.652542627464358,0.9363261951495739,1.322290787671348,0.8365382562248516
1730865954.033785,-1.7383090257644653,1.1559922695159912,-9.991555213928223,-0.15885097465655906,-0.38214240855186377,-10.651613059416421,0.9389652526164672,1.3243640665006446,0.7702446093726009
1730865954.0837812,-1.7700742483139038,1.0934906005859375,-9.966474533081055,-0.15850518956899873,-0.36932489271063307,-10.650292965830324,0.9324783979206245,1.3335541588482178,0.8765730234342205
1730865954.1337168,-1.7931220531463623,1.0574482679367065,-9.924484252929688,-0.16129562249476012,-0.3543015837474696,-10.649372563365118,0.932553677254923,1.3365872783471677,0.8366395582096982
1730865954.1838078,-1.8051255941390991,0.9757516384124756,-9.861323356628418,-0.16697335896571666,-0.33826243902722647,-10.649500098136912,0.9352047879603353,1.3515243184735033,0.8766233837800801
1730865954.233678,-1.8243852853775024,0.909440279006958,-9.807530403137207,-0.17526405702976855,-0.32215521473459585,-10.651022097191344,0.9357800321536747,1.3581988706124448,0.836797446806531
1730865954.2837088,-1.831785798072815,0.8526820540428162,-9.77783489227295,-0.18587530119031248,-0.3065438870776749,-10.653901739911005,0.9351789328134057,1.3557325476475188,0.876621845496873
1730865954.3335953,-1.7967559099197388,0.8678164482116699,-9.767488479614258,-0.1984876112015968,-0.29157900915901835,-10.657737864500625,0.934878913433495,1.3587010630768475,0.8368335442918682
1730865954.3836603,-1.7605763673782349,0.9291214346885681,-9.799591064453125,-0.21271871210570112,-0.2771017359019493,-10.661880001881533,0.9359003556552333,1.3741510974219635,0.8765237476505335
1730865954.433618,-1.710945725440979,1.0032237768173218,-9.818702697753906,-0.22806642327009366,-0.2628583855973799,-10.665602629946342,0.9354501504225623,1.3801886238166632,0.8365232124060235
1730865954.4836576,-1.7012803554534912,1.053971767425537,-9.838756561279297,-0.24387114964885886,-0.24873316983306185,-10.668278102062292,0.9367367069992408,1.6570440536514521,0.8766173000786542
1730865954.5335536,-1.6881037950515747,1.0379717350006104,-9.849413871765137,-0.25933840921291074,-0.23488323927572208,-10.669490738650378,0.936245951132829,1.759194863651661,0.836666270306388
1730865954.5836434,-1.7113316059112549,0.9963055849075317,-9.854170799255371,-0.27362537793000374,-0.22171100739050187,-10.669074282823132,0.9375820386141814,2.013695209255353,0.8765367139934926
1730865954.6335702,-1.745736837387085,0.9328804016113281,-9.85682487487793,-0.28596524037508264,-0.20970205145510018,-10.66709056731789,0.9370655853646687,2.1944178176126057,0.8365665056615373
1730865954.683587,-1.7479357719421387,0.8603179454803467,-9.831171989440918,-0.29579014092076805,-0.19922215352972675,-10.663771253065217,0.9358207548446397,2.375219972685171,0.7698213779812795
1730865954.733575,-1.7491909265518188,0.843873918056488,-9.839099884033203,-0.30280309495723984,-0.19036656424679052,-10.659440420892391,0.9380384522405859,2.179588058393082,0.8766621495052217
1730865954.7836032,-1.719849944114685,0.8954249024391174,-9.856204986572266,-0.30696909323009325,-0.18293219005692843,-10.654448706973852,0.9371135562516781,2.2534150760772986,0.8366327720028917
1730865954.8335345,-1.69038987159729,1.013269066810608,-9.893735885620117,-0.3084416462214715,-0.17654894244069042,-10.649151812066545,0.941855377527473,2.531193499809757,0.8766812174014682
1730865954.8834958,-1.6407148838043213,1.1782209873199463,-9.94733715057373,-0.3074611816853777,-0.17093544446632936,-10.643933595583954,0.9459955937047311,2.967298567593299,0.876722414932492
1730865954.9335127,-1.5968351364135742,1.3148117065429688,-9.980710983276367,-0.30425666208877683,-0.16617501592577483,-10.639243982797396,0.9478374108479964,3.28197765536482,0.8367889957037196
1730865954.9834745,-1.5788203477859497,1.3853707313537598,-9.986942291259766,-0.29897819678502713,-0.1628792607899953,-10.63561007886747,0.9489214535916634,3.5954145863044955,0.770407877680916
1730865955.0333755,-1.59587824344635,1.345052719116211,-9.986001014709473,-0.291689676288695,-0.16213287140089302,-10.633589404146495,0.9458566313476634,3.001722349078048,0.8766936240281376
1730865955.0834413,-1.6471034288406372,1.241713523864746,-9.92891788482666,-0.28243632900798277,-0.16520210387261616,-10.633670006964708,0.9453943431654851,3.0778376301334003,0.8367652707241392
1730865955.1334794,-1.7504501342773438,1.1041513681411743,-9.85863208770752,-0.27137221474766604,-0.17310498712470138,-10.636140607216099,0.9442378902779412,3.1535580500169127,0.7701679531701793
1730865955.1834555,-1.8304283618927002,0.9711137413978577,-9.74976921081543,-0.25890646140693563,-0.18620930423655901,-10.640954739447583,0.9509540557070401,3.2924731160819403,0.8765898858262896
1730865955.2333221,-1.9156988859176636,0.9128645658493042,-9.670672416687012,-0.245804702896425,-0.2040076713384785,-10.647627360191445,0.9514732989050093,3.3868906750314656,0.8368233579312433
1730865955.2834413,-1.9563443660736084,0.903839647769928,-9.61693286895752,-0.23318853085482336,-0.2251497955432504,-10.655215536223565,0.9513962037172677,3.4815454927121703,0.7700159142345508
1730865955.3332965,-1.9563443660736084,0.903839647769928,-9.61693286895752,-0.22241761552944495,-0.24770845078405415,-10.662421079969219,0.9507546543080866,3.5746732233041936,0.6774291197787836
1730865955.3332965,-1.9662718772888184,0.9583784937858582,-9.625625610351562,-0.21488409239921036,-0.2695602646087583,-10.667804431366424,0.9507478657773196,3.575359593827234,0.6766464357729611
1730865955.3834836,-1.923431158065796,1.0500279664993286,-9.705564498901367,-0.21178332129386115,-0.28876693590558855,-10.670052395380875,0.9576716350891574,3.540984010531924,0.8766420086885249
1730865955.4342368,-1.8367159366607666,1.1513241529464722,-9.823517799377441,-0.2139102831248829,-0.30390285400665995,-10.668246943217243,0.9586225500178479,3.6145122419438542,0.8358462422253905
1730865955.4842105,-1.7143102884292603,1.2665013074874878,-9.948857307434082,-0.22148450853558477,-0.31428858176272123,-10.662099896030995,0.9624210480120273,3.8826975951275897,0.8767203355663328
1730865955.5342638,-1.5934988260269165,1.3747628927230835,-10.055098533630371,-0.23401545658462397,-0.32009295923972503,-10.652097878437047,0.9638835751915726,4.029174804643589,0.8366860335559538
1730865955.5842412,-1.4835880994796753,1.4298890829086304,-10.111140251159668,-0.25025756785962594,-0.3222909939429805,-10.639493259683434,0.9653781763337134,4.153747440139934,0.8766634770776092
1730865955.6342456,-1.443881630897522,1.4316983222961426,-10.103753089904785,-0.26830213554068794,-0.3224746310985318,-10.626116437054614,0.9663078564456026,4.301825074402858,0.8367819882591432
1730865955.6842623,-1.4952565431594849,1.3775787353515625,-10.049909591674805,-0.28582969270875624,-0.32253177377164416,-10.614040029266455,0.9680806877920686,4.368636126677129,0.8706508479260056
1730865955.7341847,-1.6399167776107788,1.2702287435531616,-9.953142166137695,-0.30051537985797916,-0.32425159140128246,-10.605173040422724,0.9682275455494763,4.464327127002462,0.8293562057347384
1730865955.7842758,-1.8158236742019653,1.1555479764938354,-9.814238548278809,-0.3105187047900029,-0.32894219720266066,-10.600878697803017,0.9692050303755951,4.72811975175267,0.8646773877327545
1730865955.8341494,-1.987913966178894,1.0372942686080933,-9.684324264526367,-0.3149213288669861,-0.33714872880549374,-10.601689597626596,0.969535874784344,4.980988080639751,0.8606944958446527
1730865955.8841746,-2.1046435832977295,0.9711049795150757,-9.589987754821777,-0.31396631083645726,-0.3485406457548805,-10.607177969938883,0.968887453045251,5.156289580799556,0.8180751892406174
1730865955.9341092,-2.1483964920043945,0.9394667744636536,-9.553539276123047,-0.30901538493366965,-0.3619963603669984,-10.616025389743083,0.9674629422641203,5.3304352731809415,0.7490484846123521
1730865955.9841945,-2.121264934539795,0.9565346837043762,-9.586009979248047,-0.3022341719676461,-0.3758601565486085,-10.626292213377516,0.965267955035035,5.504241747761832,0.6531798564572188
1730865956.0340698,-2.039263963699341,0.9619608521461487,-9.645097732543945,-0.2960971279305437,-0.3882921836275156,-10.635825261861532,0.9700540962556937,5.143397279569009,0.8581532409713265
1730865956.0840585,-1.9312196969985962,0.9948458671569824,-9.719782829284668,-0.29284856322697417,-0.3976067333721553,-10.642693588915476,0.9691724435805945,5.215978345314873,0.8171086987113941
1730865956.1340225,-1.8107657432556152,1.0069457292556763,-9.799466133117676,-0.29405091525438765,-0.4025222804542141,-10.645537838897999,0.967558624033889,5.287495686330339,0.749514764350326
1730865956.184022,-1.7375962734222412,1.0039891004562378,-9.883305549621582,-0.30031374362566565,-0.40229356104437963,-10.643770115394474,0.9652032928271022,5.357997296279351,0.655362450091803
1730865956.2339506,-1.6901278495788574,0.9899908900260925,-9.963652610778809,-0.3112501318801331,-0.3967237218642924,-10.637622454331863,0.976927563254675,5.405535157313933,0.854249606622484
1730865956.2840056,-1.6511867046356201,1.0167818069458008,-10.022025108337402,-0.3256420222984043,-0.386089510480923,-10.628069270400005,0.9772637569147854,5.476154613448137,0.8131096944253946
1730865956.3338845,-1.626352071762085,1.0566904544830322,-10.058816909790039,-0.3417272927458225,-0.3710480591516687,-10.616650136579104,0.9830869170196851,5.700392082300999,0.8559878316852086
1730865956.3839247,-1.6089198589324951,1.1275053024291992,-10.08283519744873,-0.3575108803053573,-0.3525755182120303,-10.60522376819932,0.9839149452028493,5.800395799028527,0.8162272799580458
1730865956.433835,-1.548673152923584,1.161179542541504,-10.08017635345459,-0.37103459012832246,-0.3319281687790929,-10.595696815749875,0.991777006983626,6.0091101998504035,0.8564773288153769
1730865956.4838657,-1.5168516635894775,1.1840696334838867,-10.051786422729492,-0.38056470106342377,-0.31057690987070474,-10.589767278255376,0.9978626941699268,6.35061950490233,0.8641192761023792
1730865956.533793,-1.4813148975372314,1.1318827867507935,-9.987784385681152,-0.38469770299826667,-0.2900729995094109,-10.588702715802135,1.0009449477623715,6.570180966836035,0.8281350910085715
1730865956.5838237,-1.4938756227493286,1.0512200593948364,-9.905617713928223,-0.3824277164841787,-0.27183844720618383,-10.593164378017734,1.0030822972762965,6.7900444429930875,0.765506066244325
1730865956.6337664,-1.5253958702087402,0.9455553293228149,-9.82075309753418,-0.3732138587269249,-0.2569185957897621,-10.60309618685092,1.0042705768545965,7.008562632811837,0.6766378841965306
1730865956.683823,-1.6069215536117554,0.8572342395782471,-9.72569751739502,-0.3570559733184612,-0.245773424531618,-10.617701932203346,1.0003054009400527,6.790748042857764,0.8657869189899725
1730865956.7337284,-1.7038275003433228,0.803158164024353,-9.66273307800293,-0.3345654734114313,-0.23818702388765128,-10.635520853013375,1.0005388430218376,6.9366894174958995,0.8271974673254991
1730865956.7837372,-1.8090814352035522,0.8006678223609924,-9.635173797607422,-0.30700244300649326,-0.2333366583681979,-10.654600245671137,1.0051952588006832,6.651395352639928,0.8707475900412158
1730865956.8336544,-1.8927173614501953,0.8072279691696167,-9.634767532348633,-0.27624115248350334,-0.23000454175041934,-10.672754170508938,1.0095750263262275,6.646458359648978,0.8749224146761496
1730865956.883653,-1.9440635442733765,0.8602471947669983,-9.668485641479492,-0.2446348467787488,-0.22686252468379606,-10.687869734684078,1.0109107432246043,6.644937350970829,0.8371117706642588
1730865956.9336395,-1.9826576709747314,0.9154075980186462,-9.733817100524902,-0.2147829902465184,-0.22275162305208349,-10.698205251790345,1.0116709987946373,6.6428528318160325,0.7725015097255674
1730865956.9837236,-1.9989776611328125,0.9727869033813477,-9.810914993286133,-0.18924546816843194,-0.21690138111615848,-10.70263520107228,1.0131643356856064,6.644087380474722,0.878037931506742
1730865957.033659,-1.9968469142913818,1.0430967807769775,-9.891023635864258,-0.17026415231222988,-0.20905466763619143,-10.70080661808607,1.0140725063641887,6.642450947934587,0.8394976723160366
1730865957.083661,-1.9078164100646973,1.1033395528793335,-9.982389450073242,-0.15952167740791867,-0.19949299548065072,-10.693183461906433,1.014572819914219,6.640293290024698,0.7739334722313954
1730865957.1336153,-1.811535358428955,1.1505705118179321,-10.037453651428223,-0.15793104978572825,-0.18897891687373558,-10.680978713377547,1.0171997129159644,6.6420311887745225,0.876628207897646
1730865957.1835968,-1.684177279472351,1.158101201057434,-10.068291664123535,-0.16546932780270207,-0.17862593348642936,-10.665983481527462,1.0179952082341195,6.64060561491402,0.8366764828961476
1730865957.2335598,-1.607757568359375,1.1402833461761475,-10.083259582519531,-0.18111419060635375,-0.1697040994757035,-10.650311520071556,1.018359299667203,6.638740962577043,0.7699719390412066
1730865957.2836456,-1.5794684886932373,1.0847864151000977,-10.054425239562988,-0.2029443494825395,-0.16340602448788483,-10.63610303735365,1.0182432790643865,6.636463996121429,0.6768206253672515
1730865957.3335211,-1.6266781091690063,1.0333889722824097,-10.00820255279541,-0.22842318594175182,-0.16061786412079665,-10.625235705144288,1.0231241574189913,6.615979877803671,0.876764269219421
1730865957.3835816,-1.7076492309570312,0.985153317451477,-9.948284149169922,-0.2548218551963611,-0.1617506086653897,-10.619078838404054,1.0280005259946168,6.589198382410984,0.8766597623508433
1730865957.4335127,-1.7534598112106323,0.9991579055786133,-9.872818946838379,-0.2796695399775081,-0.16668290427911603,-10.61832495220285,1.0293325308438113,6.57699493452943,0.836836963959201
1730865957.4836228,-1.761965274810791,1.019677996635437,-9.80775260925293,-0.30108521499492563,-0.17483972431154737,-10.622920624300056,1.029940967706214,6.564310498049517,0.770173227838555
1730865957.5335631,-1.7332777976989746,1.0601274967193604,-9.740081787109375,-0.3178970853503947,-0.18537553462694883,-10.632098701841485,1.029773269079896,6.551236843201584,0.6772757027965637
1730865957.5835302,-1.7360866069793701,1.0578792095184326,-9.706241607666016,-0.32957504791858305,-0.1973782759214957,-10.64450265597702,1.0287952126240234,6.537651975494814,0.557532946162185
1730865957.633568,-1.7078824043273926,1.0534155368804932,-9.675688743591309,-0.3360818019663682,-0.21001113510065084,-10.658384395649298,1.0307348113136612,6.569069352813719,0.8766503160449204
1730865957.683474,-1.7233083248138428,1.0290294885635376,-9.678693771362305,-0.3377285542778149,-0.22256320881442176,-10.671845103331638,1.0304283626048842,6.562410689857552,0.8367366834751019
1730865957.733404,-1.7296462059020996,1.0342074632644653,-9.693284034729004,-0.335067642502071,-0.2344413627902086,-10.683082639620642,1.0362628206839295,6.536637942568216,0.8766658088879198
1730865957.7834828,-1.7782323360443115,1.0552161931991577,-9.738544464111328,-0.32882960667162164,-0.24516060638855217,-10.690615214177893,1.037302859453045,6.52222461050729,0.836564553880217
1730865957.833414,-1.8271551132202148,1.1032934188842773,-9.756502151489258,-0.3198996957545065,-0.25437092137996414,-10.693453655914258,1.037530559842014,6.507229457695545,0.7699001916942153
1730865957.8834038,-1.8970963954925537,1.1459044218063354,-9.80887222290039,-0.3093161407763626,-0.26191551611397584,-10.691193903489019,1.0369717796150795,6.491546821419354,0.6762992665017772
1730865957.933347,-1.9201931953430176,1.1988476514816284,-9.833016395568848,-0.2982592905697685,-0.26788423296363095,-10.68402251469814,1.0391293295210375,6.514594434191158,0.8768887687461828
1730865957.983341,-1.93211030960083,1.2210768461227417,-9.855461120605469,-0.28799236121269367,-0.2726266630981672,-10.672648827827738,1.03892565285092,6.507289927495168,0.8367722731479215
1730865958.0332818,-1.8952357769012451,1.1917591094970703,-9.863088607788086,-0.2797355505742616,-0.2766995654770349,-10.658176787926065,1.044448966956313,6.506598268053442,0.8772620474953617
1730865958.0833924,-1.8952357769012451,1.1917591094970703,-9.863088607788086,-0.2745032635647923,-0.2807435827745757,-10.641937015666816,1.045620008511658,6.500446676562448,0.8372425514293713
1730865958.0833924,-1.8420480489730835,1.143674373626709,-9.883455276489258,-0.27296401248644503,-0.2853313136697055,-10.625315311484078,1.0456245678745035,6.500410600200007,0.8369458070213514
1730865958.1332362,-1.7618697881698608,1.129366159439087,-9.8805570602417,-0.27534957687793093,-0.2908437956092912,-10.609612117568666,1.0465244758429917,6.497641279561084,0.8767831441294635
1730865958.1833367,-1.694387674331665,1.115341305732727,-9.905627250671387,-0.28139794858792083,-0.29740501543687015,-10.595946434093074,1.0469689837073806,6.49168033692746,0.8369394040025931
1730865958.2332082,-1.6100733280181885,1.094612956047058,-9.931663513183594,-0.29033729408400566,-0.3048826028252399,-10.585203926247022,1.0466982934703322,6.4849962693177226,0.7708639864110405
1730865958.2832747,-1.5418109893798828,1.0807050466537476,-9.972339630126953,-0.3009370049364818,-0.31293598420817503,-10.578030197961997,1.050589542951625,6.488765650669209,0.8761577063001615
1730865958.3331993,-1.499990701675415,1.0729589462280273,-10.015694618225098,-0.31162720922384096,-0.32108231339634563,-10.574860229584235,1.0530403403167428,6.477415351851096,0.8757746970108462
1730865958.383289,-1.4388550519943237,1.0682786703109741,-10.016959190368652,-0.32066999364006576,-0.328769968029708,-10.57595572546387,1.053294062062812,6.4707788751445845,0.8357478946152261
1730865958.4332135,-1.4234479665756226,1.0768064260482788,-10.036955833435059,-0.32635099043938653,-0.33545601529552643,-10.581418000777036,1.0561718000879299,6.473271145965973,0.8749697965295543
1730865958.4831707,-1.4432932138442993,1.1116139888763428,-10.005428314208984,-0.3271675956025659,-0.3406840370814704,-10.591168327247406,1.0569346607345418,6.4678703174013075,0.8347463300846423
1730865958.5341525,-1.5085569620132446,1.1484904289245605,-9.962830543518066,-0.3220192574782983,-0.34416315323857427,-10.604907544958117,1.0568752955377114,6.461514879335339,0.766760840301465
1730865958.5831633,-1.5824558734893799,1.1850098371505737,-9.87814998626709,-0.3103913227018762,-0.3458360986415716,-10.622061348768643,1.0570703935848138,6.460576355496333,0.8749934480214858
1730865958.6341417,-1.7026240825653076,1.1562330722808838,-9.797066688537598,-0.2924922120234259,-0.3458998881688006,-10.641724839008994,1.056583553908138,6.455314162119323,0.8344487586194753
1730865958.6841717,-1.8434793949127197,1.0966352224349976,-9.701960563659668,-0.2693169949588344,-0.34473734832905,-10.662637107051932,1.0553959300346858,6.449272892049301,0.7677284633712939
1730865958.7341104,-1.9647480249404907,1.0394996404647827,-9.635427474975586,-0.2426315761969213,-0.34276308150817103,-10.683214938524332,1.0535714993194407,6.442384032167483,0.6744867149552263
1730865958.7841659,-2.0362460613250732,0.9632866978645325,-9.589738845825195,-0.21485398745846113,-0.34025318218551526,-10.701660498407783,1.0593308219525965,6.447815767908065,0.8747750675370246
1730865958.8331368,-2.0580220222473145,0.9396564364433289,-9.595098495483398,-0.188803025790939,-0.3372360053070179,-10.716142017297813,1.0591642028466037,6.443100164040049,0.835672856206655
1730865958.8841126,-2.0260348320007324,0.9472898840904236,-9.640368461608887,-0.16733155998692856,-0.33348732114748936,-10.72502999855248,1.0604638564656044,6.4314655492284425,0.8745037915544566
1730865958.9341154,-1.9630955457687378,1.0134309530258179,-9.721592903137207,-0.1529153450778623,-0.3286416341628231,-10.727153461749856,1.0603189536416804,6.424619864774441,0.8338795972096317
1730865958.984118,-1.895137906074524,1.0919886827468872,-9.815616607666016,-0.14728871392703752,-0.3223874068432433,-10.722023979549679,1.0618419255677345,6.415584253848583,0.8752818325209172
1730865959.0339692,-1.8222602605819702,1.1473636627197266,-9.905097961425781,-0.15120720084051495,-0.31466717606393657,-10.709970826090572,1.0619118903627318,6.406994951336269,0.8353595576155859
1730865959.0840662,-1.7455374002456665,1.1361726522445679,-9.956357955932617,-0.16437373246197115,-0.3057834309037083,-10.692143732334507,1.0649460948489846,6.398784956108499,0.8754658845288972
1730865959.1339521,-1.700907826423645,1.1482601165771484,-10.000899314880371,-0.1855169360082653,-0.29635406129627273,-10.670370490165585,1.0658506345600969,6.387654680219381,0.8354872305494416
1730865959.1839936,-1.7207727432250977,1.1174755096435547,-10.020934104919434,-0.2126021653823024,-0.28715900195536626,-10.646904246680567,1.066258828762045,6.375756950738933,0.7686503177676646
1730865959.233999,-1.7523990869522095,1.134559988975525,-9.988039016723633,-0.24315814197291447,-0.27897073155215557,-10.62412012260879,1.0648635833941689,6.390579900552921,0.8791924611609252
1730865959.2839696,-1.8286563158035278,1.1376848220825195,-9.950651168823242,-0.27466428642109436,-0.27243469889671335,-10.60420410425894,1.0642809307461651,6.38526926227998,0.8403074708909514
1730865959.3339097,-1.8731988668441772,1.1633003950119019,-9.883402824401855,-0.3049085741576209,-0.2680206439532628,-10.588872714631496,1.0674817078797285,6.373427931344825,0.882361913786251
1730865959.3839538,-1.87714421749115,1.2097761631011963,-9.829784393310547,-0.33222901168371327,-0.2660328943724892,-10.579171926685015,1.06920587314791,6.3691968224422,0.8846366964072274
1730865959.43391,-1.87714421749115,1.2097761631011963,-9.829784393310547,-0.35558753196980947,-0.2666517149142994,-10.575397976761913,1.068948561484407,6.364071981234822,0.8467892585693455
1730865959.43391,-1.8527741432189941,1.2444229125976562,-9.779115676879883,-0.37449886340134353,-0.2699688621979538,-10.577155884338143,1.0689446728250884,6.364041323417885,0.8465037811205437
1730865959.483997,-1.7791498899459839,1.2536530494689941,-9.761033058166504,-0.3888802844151854,-0.27599883192668384,-10.583510312288062,1.0677537429873232,6.358160412281591,0.7816629452390823
1730865959.5338774,-1.7433054447174072,1.2289862632751465,-9.7857084274292,-0.3988707963400391,-0.28467220024134166,-10.59316733742773,1.0705803848529134,6.334975129296651,0.8872649228230095
1730865959.583923,-1.7001326084136963,1.2023404836654663,-9.813427925109863,-0.40467127953198806,-0.2958051645139612,-10.604680830386613,1.0697585550622968,6.32333897722791,0.84856821349301
1730865959.6338441,-1.658395528793335,1.1724835634231567,-9.855494499206543,-0.40645424484831466,-0.309050188311637,-10.61667500305489,1.0723690653582463,6.3020850847749434,0.8901797412479299
1730865959.6838272,-1.589672565460205,1.1396898031234741,-9.88569164276123,-0.40433279931711447,-0.32386424285880966,-10.628030685755025,1.0742489029518272,6.281906159344699,0.8886809374450371
1730865959.733828,-1.5081108808517456,1.1046420335769653,-9.922158241271973,-0.3983426874336168,-0.3395162179300727,-10.637995163148013,1.0738948390382286,6.265757830275022,0.8487309015286412
1730865959.7838185,-1.4295170307159424,1.1049782037734985,-9.95274543762207,-0.3884174243471041,-0.3551322812209564,-10.646213956350508,1.0725559477814246,6.248747349822502,0.7821525587567584
1730865959.833836,-1.4295170307159424,1.1049782037734985,-9.95274543762207,-0.37438596742912933,-0.36978088564458705,-10.652698164324608,1.0702637769806373,6.230839467555576,0.6889727828277277
1730865959.833836,-1.4276865720748901,1.1359474658966064,-9.951932907104492,-0.35604360039312066,-0.38259056499142463,-10.657736950582429,1.0702482103306772,6.230735946818891,0.6883722999502501
1730865959.8838398,-1.4848183393478394,1.1582427024841309,-9.916403770446777,-0.3332982847732591,-0.392873303115555,-10.661769628824448,1.074232735901163,6.260649626024124,0.8885306118700729
1730865959.9337692,-1.5948827266693115,1.1681678295135498,-9.850994110107422,-0.3063460940167867,-0.40021759491541037,-10.665238499281374,1.0764764561128242,6.226663115954316,0.888156994286109
1730865959.9839382,-1.7093874216079712,1.1369863748550415,-9.79179573059082,-0.27583755300211715,-0.40451455277812787,-10.66844158197381,1.0762261749908992,6.210227066805287,0.8478866851270422
1730865960.0338023,-1.8193243741989136,1.1080282926559448,-9.737626075744629,-0.2429900184769096,-0.4059006398716472,-10.671419628515679,1.0781371160685251,6.230805032635313,0.8879968398826625
1730865960.083812,-1.884267807006836,1.1029753684997559,-9.714607238769531,-0.2095828689593324,-0.4046524451086124,-10.673920704986664,1.0781112784909372,6.225592114472717,0.8479020755593569
1730865960.1337838,-1.9105286598205566,1.1115912199020386,-9.716594696044922,-0.17780382417849,-0.4011029395875495,-10.675458976315614,1.077601063917409,6.219373637466481,0.7811274671531403
1730865960.1837988,-1.9257912635803223,1.116139531135559,-9.744019508361816,-0.1499758073584303,-0.3956144488791269,-10.67544973665186,1.0796431731417282,6.211357363499388,0.8877360409421248
1730865960.2337227,-1.9447674751281738,1.1083884239196777,-9.78177261352539,-0.12824768690236893,-0.3885816602149944,-10.67337893050512,1.0797386990685371,6.203344676550422,0.8476650918259537
1730865960.28374,-1.942165493965149,1.0875669717788696,-9.824285507202148,-0.11433829433013593,-0.3804213694481591,-10.668956631934803,1.0815389708562086,6.192170441744623,0.8875304832960316
1730865960.3336928,-1.9253342151641846,1.0885087251663208,-9.844911575317383,-0.10936886813735978,-0.37153840344489913,-10.662211801240911,1.0819991545201493,6.181594354619277,0.8474096864049094
1730865960.383695,-1.8715403079986572,1.0781447887420654,-9.8873929977417,-0.11376760645134573,-0.3622914882617535,-10.653508621687036,1.0821803889069657,6.170108028819419,0.7806910802632042
1730865960.4336674,-1.8378441333770752,1.0401469469070435,-9.917705535888672,-0.12722917279123014,-0.3529722487077725,-10.643500311715886,1.082060989877388,6.157740739287146,0.6874825762591815
1730865960.48365,-1.7672381401062012,1.032460331916809,-9.951805114746094,-0.14873490323334254,-0.3437836701687926,-10.633052300362005,1.0854650680382767,6.18026384459592,0.8835808264176656
1730865960.5337403,-1.7021394968032837,1.0370874404907227,-9.975760459899902,-0.17663551188828747,-0.33482606433749296,-10.623151099506757,1.0857248759046976,6.175265880533816,0.8428840553465333
1730865960.5838394,-1.65043306350708,1.073177456855774,-10.0149564743042,-0.20878280022022389,-0.3261242443935596,-10.614807921406651,1.0906657565720486,6.024081574745194,0.8789226127281942
1730865960.6337297,-1.6014059782028198,1.14634108543396,-10.020565032958984,-0.24270510264993322,-0.31770631493081103,-10.608969278909507,1.0919507356778337,5.967881339870938,0.8374099364715732
1730865960.6836996,-1.5850491523742676,1.22859787940979,-9.987622261047363,-0.27582119818437867,-0.3097145673553961,-10.60642797543125,1.094629486342454,5.706634304588462,0.8756608394687374
1730865960.733647,-1.6096011400222778,1.2526041269302368,-9.945744514465332,-0.30567785728133373,-0.3025000561079149,-10.607715574566583,1.095733800068826,5.57389283595797,0.8339434868729872
1730865960.7837098,-1.665219783782959,1.2559261322021484,-9.857342720031738,-0.3301985811736232,-0.296629175150417,-10.612985310568686,1.096041374306529,5.4406960328026495,0.7658094213293135
1730865960.8336103,-1.7471556663513184,1.2027697563171387,-9.769553184509277,-0.3479190556280036,-0.2927695923127439,-10.621916405747962,1.0955026750186543,5.306748956512955,0.6711662004890891
1730865960.8836133,-1.8258168697357178,1.1118991374969482,-9.667461395263672,-0.35816385838200976,-0.2914911430777489,-10.633666219707202,1.09645165887358,5.528364597363496,0.8728817403572009
1730865960.9335773,-1.8815194368362427,1.0185134410858154,-9.608986854553223,-0.3611162852615556,-0.2930468213698346,-10.646896729271495,1.0960054691021353,5.459407913184885,0.8320350415304704
1730865960.9835758,-1.8734042644500732,0.954424262046814,-9.58102798461914,-0.357745088694071,-0.29721108398015333,-10.65989975893256,1.1007840807863933,5.265988817640485,0.8688438548940699
1730865961.033538,-1.8734042644500732,0.954424262046814,-9.58102798461914,-0.3495874557434603,-0.3032526817156723,-10.670817961135384,1.1008845784057733,5.174731806528613,0.8276104534255744
1730865961.033538,-1.824157476425171,0.9195178747177124,-9.613903045654297,-0.33844690228503255,-0.31006245385061887,-10.67791679711603,1.100882676720075,5.174213358665029,0.8273017509926592
1730865961.0836797,-1.7324042320251465,0.9404146075248718,-9.695297241210938,-0.3260806842639211,-0.31636873563196133,-10.679851628851818,1.1001366477966519,5.081982676800276,0.7592219651061368
1730865961.133535,-1.6441199779510498,0.9858413338661194,-9.814929962158203,-0.313917141802594,-0.32096140329317596,-10.67589883009311,1.1012977748283905,5.03321962246655,0.8743811080420861
1730865961.1836119,-1.5686087608337402,1.074684739112854,-9.920032501220703,-0.30284511653493745,-0.32290415769794956,-10.66612496999771,1.1006248912003527,4.948100094704415,0.8354195844890243
1730865961.2334654,-1.542607307434082,1.151999592781067,-10.003628730773926,-0.2931353473162411,-0.32172308967772395,-10.651444011203813,1.101456772353073,4.746870134715384,0.8780059057702653
1730865961.283573,-1.5542049407958984,1.2301385402679443,-10.041191101074219,-0.2845212520765702,-0.31752461508071095,-10.633517309045299,1.1005892142179947,4.61315544560174,0.8396883339386847
1730865961.3333614,-1.5542049407958984,1.2301385402679443,-10.041191101074219,-0.2764015951145005,-0.3109919754085105,-10.614501861179527,1.0990333641743717,4.479819448110807,0.7753467475670198
1730865961.3333614,-1.6225168704986572,1.2406723499298096,-10.066964149475098,-0.26808414768130395,-0.3032423261410596,-10.596713009611332,1.0990228831782387,4.479081418781917,0.7749188901879052
1730865961.3834236,-1.7253564596176147,1.2138913869857788,-10.027120590209961,-0.25901813938361157,-0.29558712958549227,-10.582296414647097,1.0967940937074616,4.344566615621444,0.683926467224965
1730865961.4334004,-1.8377536535263062,1.1672279834747314,-9.96264362335205,-0.24900520052655703,-0.2892753616438002,-10.572959564295319,1.101777812493435,4.58698623613629,0.8800339946984249
1730865961.4834306,-1.8791604042053223,1.118408203125,-9.90227222442627,-0.23834249641070096,-0.2852740784886213,-10.569762510232337,1.1009453579939443,4.532449582599678,0.8409875118460106
1730865961.5334456,-1.8703622817993164,1.049418330192566,-9.87574577331543,-0.22781198271269,-0.284112694617201,-10.572997208417208,1.1032653768979732,4.270991663039618,0.8843112397442543
1730865961.5833516,-1.7904411554336548,0.9940613508224487,-9.860814094543457,-0.21848261642002892,-0.28580714055474676,-10.582206367442938,1.1034665182225776,3.9660350314394273,0.8885080810117469
1730865961.6333067,-1.6464136838912964,0.9628157019615173,-9.86606502532959,-0.2113810629195784,-0.2898707596576938,-10.596336151550648,1.1029980937075987,3.764811087766032,0.8516597746400884
1730865961.683353,-1.5627888441085815,0.9482263922691345,-9.848698616027832,-0.20714195304336647,-0.2954142337209486,-10.613957356534561,1.102004244361347,3.5621690483542787,0.788138352343095
1730865961.7333167,-1.5627888441085815,0.9482263922691345,-9.848698616027832,-0.2057879200499876,-0.30131615314624816,-10.63348230034245,1.1004955069427538,3.3591046030720304,0.6981430830703436
1730865961.7333167,-1.562458872795105,0.9341247081756592,-9.841981887817383,-0.2067518726208156,-0.30641520725051263,-10.65333966907113,1.1004843594672522,3.357821540077701,0.6974911656491081
1730865961.783527,-1.5797141790390015,0.9555282592773438,-9.840194702148438,-0.20909499589166122,-0.30967515363243425,-10.6721057378112,1.1033948762397496,3.862765168836341,0.8853746745126856
1730865961.8334281,-1.656130313873291,1.0449622869491577,-9.828990936279297,-0.21178064859192106,-0.31031954719920757,-10.688595427883417,1.1026664904467314,3.794849514454321,0.8454052992555748
1730865961.883437,-1.7408385276794434,1.130565881729126,-9.812065124511719,-0.21393016955869215,-0.30796751735591243,-10.70191001074015,1.101398199443252,3.725685963437902,0.778284573471127
1730865961.933372,-1.8037424087524414,1.1793253421783447,-9.80042552947998,-0.21503283420769098,-0.30274968425616156,-10.711444154476988,1.099609252607361,3.656433957185767,0.6852099327155151
1730865961.9834905,-1.8700915575027466,1.1633671522140503,-9.820185661315918,-0.21505843028261673,-0.2953151307622701,-10.716872514540075,1.1038406754698908,3.6274652756853074,0.8850218882780312
1730865962.0333447,-1.8700915575027466,1.1633671522140503,-9.820185661315918,-0.2144386317311932,-0.28668389238240266,-10.718141178121432,1.1031498658266743,3.5608039392667163,0.8449678191258504
1730865962.0333447,-1.9134926795959473,1.100498914718628,-9.80792236328125,-0.2139371891386559,-0.27800492836338914,-10.715457211990325,1.1031445492212153,3.5604317396741263,0.8446713930050676
1730865962.083408,-1.9134926795959473,1.100498914718628,-9.80792236328125,-0.21446968984929082,-0.27031650977106136,-10.709248395407354,1.104035755062609,3.3435081996460965,0.8849412229825723
1730865962.083408,-1.9817607402801514,0.9967160820960999,-9.799867630004883,-0.2169436297121105,-0.2643674802213093,-10.700096643156968,1.1040331333061746,3.342781687793441,0.8847784508708982
1730865962.1332574,-2.009242534637451,0.8998187184333801,-9.762540817260742,-0.22216016833419858,-0.26049450793450957,-10.688665181782804,1.1033301922510177,3.2235362547980175,0.8449597417859239
1730865962.1833553,-2.0146119594573975,0.8520634174346924,-9.732019424438477,-0.2307649424028856,-0.2585401401338996,-10.67561767788894,1.1033102531873915,3.1166831222271165,0.8846421817437881
1730865962.2332752,-1.9653370380401611,0.8578269481658936,-9.763777732849121,-0.24319138371971816,-0.2578664871339813,-10.661545122715436,1.1034965609151235,2.8477584342341222,0.884579568932927
1730865962.2832632,-1.8760980367660522,0.9307280778884888,-9.811843872070312,-0.2595571862258063,-0.2575254323230547,-10.646955332665302,1.1025652218982434,2.6933089499732663,0.8445389261255156
1730865962.3331802,-1.7786275148391724,1.0387083292007446,-9.875558853149414,-0.2795348882508091,-0.2565532886042146,-10.63234311532507,1.100965409344766,2.538640879720761,0.7781195560269869
1730865962.3832405,-1.7020138502120972,1.1243410110473633,-9.926508903503418,-0.3022612722178728,-0.25428585086036715,-10.618283968881006,1.0986260265421366,2.3823955404516344,0.6846415682526592
1730865962.4332123,-1.6601722240447998,1.1989141702651978,-9.964488983154297,-0.3263539496247099,-0.25057580358401405,-10.605482312373061,1.1036473514396696,2.708657511271681,0.8847524759575456
1730865962.4832904,-1.6342209577560425,1.2611186504364014,-9.975395202636719,-0.35005828479391654,-0.24584626834759546,-10.59474470419562,1.102446812835118,2.644731710893817,0.8449285438120953
1730865962.5331616,-1.622498869895935,1.2675787210464478,-9.962905883789062,-0.3714827823519998,-0.2409943201325604,-10.586884297262632,1.1043663967267734,2.4549321661338745,0.8850997942371519
1730865962.5832772,-1.639206886291504,1.2061913013458252,-9.937066078186035,-0.38885362858652534,-0.23717981111682557,-10.58258501325468,1.1031777164330538,2.365976054875124,0.8453589975593657
1730865962.6331246,-1.6860491037368774,1.1449236869812012,-9.880510330200195,-0.4007437777021745,-0.23553375478296645,-10.582262777579444,1.1010126565076301,2.277021254532177,0.779497713486401
1730865962.6834114,-1.7109571695327759,1.0855287313461304,-9.83228588104248,-0.40625442677077217,-0.2368667000514306,-10.58595521863397,1.1051701141228039,2.2311531825266187,0.8850213088867781
1730865962.7330935,-1.709753394126892,1.0741137266159058,-9.788422584533691,-0.4051106048043712,-0.24148527390176416,-10.593266575903154,1.1039170359143133,2.1484572449296437,0.8449526863058259
1730865962.7832174,-1.6724727153778076,1.0828081369400024,-9.795247077941895,-0.39762976752092805,-0.24917460828766935,-10.603395880564129,1.1067331756906382,2.6186014679698433,0.8902377290530269
1730865962.8330767,-1.6206578016281128,1.0981696844100952,-9.837224006652832,-0.3845699301681355,-0.25932241153218866,-10.61526538152453,1.105887360091553,2.723679984175109,0.8520523744420885
1730865962.8830912,-1.5427521467208862,1.13316011428833,-9.84755802154541,-0.3669129742911309,-0.27110860795993186,-10.627722877656009,1.1073885078456247,3.874965480475113,0.8934774299547117
1730865962.933006,-1.5629488229751587,1.1618047952651978,-9.863628387451172,-0.345662707019847,-0.2836907118196927,-10.639736265656985,1.1064857276311701,4.36293269579064,0.8554093411410291
1730865962.9830446,-1.629149079322815,1.215698003768921,-9.845447540283203,-0.32175098392782564,-0.2963514852382737,-10.650505363223278,1.1047574910757623,4.846753969511844,0.791077932718389
1730865963.0340078,-1.629149079322815,1.215698003768921,-9.845447540283203,-0.29607999633852794,-0.30859335665337273,-10.659483184463465,1.1021980180580633,5.3405909404029455,0.6979578468261951
1730865963.0340078,-1.6967530250549316,1.2590280771255493,-9.838217735290527,-0.2696047531988878,-0.3201672794595315,-10.666346191864381,1.1021824187034135,5.343204106910924,0.6973910459847269
1730865963.084012,-1.7413307428359985,1.2730633020401,-9.82457160949707,-0.24336891946158143,-0.33104766682275544,-10.670952242395202,1.108110208109954,4.496939321329418,0.8913049128913665
1730865963.1339903,-1.7413307428359985,1.2730633020401,-9.82457160949707,-0.21849233477815266,-0.341380631968889,-10.673300378990847,1.1074453696628528,4.728470923286274,0.8513871195925632
1730865963.1339903,-1.7646113634109497,1.2583575248718262,-9.81188678741455,-0.19610654875333694,-0.3514095033033872,-10.673495105787179,1.107440143544286,4.729757309115632,0.8510903661721101
1730865963.1839724,-1.7786732912063599,1.2127102613449097,-9.802888870239258,-0.17724859534127632,-0.36137525950040106,-10.67171649882907,1.1091552074844482,5.548106656958431,0.8907062398838724
1730865963.233917,-1.8130278587341309,1.14822256565094,-9.807696342468262,-0.16276888116194324,-0.37140542660855,-10.668194850271803,1.1088890750692093,5.956325616816983,0.8508186260242925
1730865963.2838762,-1.809478998184204,1.100132703781128,-9.810400009155273,-0.1532809511971041,-0.38141459301681924,-10.663195573427796,1.1082278342196612,6.365544614921679,0.784157680895464
1730865963.333905,-1.797210454940796,1.1131501197814941,-9.829365730285645,-0.149129759848447,-0.391062767590973,-10.65701912245703,1.1103621771437846,6.256370788116442,0.89033141845373
1730865963.383851,-1.7991148233413696,1.125964879989624,-9.836786270141602,-0.1503592251744379,-0.39981792852272896,-10.650008287858206,1.1101503435342441,6.50719857827589,0.8502360094079789
1730865963.4338167,-1.7826963663101196,1.1695894002914429,-9.845488548278809,-0.1566966943375305,-0.40710583244285525,-10.642549353131827,1.1112481481949266,5.987300732972594,0.8851844379305177
1730865963.4838102,-1.7767739295959473,1.2048052549362183,-9.856528282165527,-0.16757321368172778,-0.41247611193079914,-10.635058158447087,1.111091266403547,5.979777928954259,0.8433594729672482
1730865963.5337822,-1.8129676580429077,1.1983704566955566,-9.851751327514648,-0.18218117497919023,-0.4157177542185769,-10.627953268948847,1.1120152648686472,5.975867209857015,0.8813497462280053
1730865963.5838563,-1.865580439567566,1.1427628993988037,-9.82577133178711,-0.19957993047478068,-0.4168739509086956,-10.621616786468058,1.1117538516091918,5.9683012816520495,0.8399470449052592
1730865963.633715,-1.881205439567566,1.0834192037582397,-9.824111938476562,-0.21883753533735184,-0.41614334949823195,-10.616342586958787,1.1109375513622097,5.959320958989976,0.7691660101262908
1730865963.68373,-1.863053321838379,1.0553536415100098,-9.826824188232422,-0.23913911816523883,-0.4137305714450208,-10.612296337225635,1.11304235880756,5.966877116683548,0.8847687168278047
1730865963.7337158,-1.8265241384506226,1.0528087615966797,-9.850543975830078,-0.2598009962932965,-0.4097475954111427,-10.609518634664369,1.1124493641258892,5.961886919117601,0.844521012065741
1730865963.7837036,-1.7715882062911987,1.0776413679122925,-9.877630233764648,-0.2802051756647901,-0.4042184654449883,-10.607971260327089,1.1112286863666292,5.956151852245087,0.7804234104190788
1730865963.8336518,-1.7354477643966675,1.0973707437515259,-9.941924095153809,-0.2997159135847116,-0.39716097724684357,-10.607606687931435,1.1140118397689758,5.95348350043207,0.8842555909209178
1730865963.8837056,-1.689695954322815,1.1317925453186035,-9.966397285461426,-0.31763155315915037,-0.3886830881419177,-10.608440455308696,1.1132497860100714,5.947350934002849,0.8444408897728527
1730865963.9335935,-1.689695954322815,1.1317925453186035,-9.966397285461426,-0.33319534782684307,-0.37904380386166275,-10.610589306833937,1.1116850602625568,5.940313040679146,0.778573167670902
1730865963.9335935,-1.6389662027359009,1.1293141841888428,-9.971222877502441,-0.34565658087299483,-0.3686532646307934,-10.614240600092739,1.1116727637926909,5.940266397101002,0.7780819879717835
1730865963.9836588,-1.6623183488845825,1.1505361795425415,-9.938908576965332,-0.354350660940168,-0.35802009556457903,-10.619569534975453,1.1143603071069526,5.941595770716038,0.8887163095929457
1730865964.0335605,-1.685981035232544,1.114296793937683,-9.907242774963379,-0.3587843737713156,-0.34768085863858067,-10.62664524945027,1.1131853419714126,5.935929241186158,0.8486225014216633
1730865964.0836053,-1.685981035232544,1.114296793937683,-9.907242774963379,-0.3587256629759433,-0.33812845796573804,-10.635357099826823,1.1147887464019115,5.926823028495214,0.8934460127476918
1730865964.0836053,-1.7127622365951538,1.098321795463562,-9.828071594238281,-0.3542630099865547,-0.3297450063220627,-10.645383641815322,1.114785191607595,5.926781752390285,0.8933155024026618
1730865964.1335196,-1.7381293773651123,1.0863145589828491,-9.812661170959473,-0.3458085883581128,-0.32276066327053987,-10.656193758303996,1.1136976779217787,5.918783637763487,0.855947794488607
1730865964.1835907,-1.7394286394119263,1.1070185899734497,-9.751754760742188,-0.3340615820338998,-0.31724999765298045,-10.667064525419221,1.1151956606898008,5.914547889922014,0.9016669227603947
1730865964.2335656,-1.7783422470092773,1.099996566772461,-9.74980354309082,-0.31994294531724665,-0.31316228407805186,-10.67713119985601,1.1141727610094436,5.906849629994598,0.8653932597534262
1730865964.2834716,-1.775434136390686,1.1180026531219482,-9.734968185424805,-0.3045107609428016,-0.31037067330897183,-10.685478562542063,1.1123724409933504,5.898393558047598,0.8025284489020611
1730865964.3334875,-1.775434136390686,1.1180026531219482,-9.734968185424805,-0.28886704203188485,-0.30871679061199075,-10.691257416095315,1.1150396207814897,5.907712759322656,0.9065552580167566
1730865964.3334875,-1.7961090803146362,1.0978853702545166,-9.74190616607666,-0.27405941395453237,-0.3080361591379181,-10.693795563053028,1.1150356043812317,5.907692320515322,0.9064171431645116
1730865964.3834748,-1.8024729490280151,1.096219539642334,-9.761283874511719,-0.26100035546412137,-0.30815763985209965,-10.692680683920521,1.1139901707940398,5.9036440445717995,0.8683296055876824
1730865964.4334664,-1.8024729490280151,1.096219539642334,-9.761283874511719,-0.25042025255964173,-0.30889083577799287,-10.687808399454223,1.1156651973668772,5.895579390235389,0.9141857713546736
1730865964.4334664,-1.8615046739578247,1.0873790979385376,-9.789366722106934,-0.24284793273230668,-0.3100270725787799,-10.67938926420846,1.1156626450839413,5.895548619840834,0.9140502947975765
1730865964.4834557,-1.8906596899032593,1.113863468170166,-9.796687126159668,-0.2386285658535076,-0.3113574010556063,-10.667918531007684,1.1149156061703536,5.889754931472732,0.8769009844514914
1730865964.533443,-1.8906596899032593,1.113863468170166,-9.796687126159668,-0.23796828990247837,-0.3127015333436883,-10.654118674263831,1.1135751946610601,5.883184227292936,0.8132052735227161
1730865964.533443,-1.8843986988067627,1.1354656219482422,-9.818350791931152,-0.2409498105750849,-0.31393946539994977,-10.638858948668283,1.1135658313129115,5.8831444384387135,0.8127650181484191
1730865964.5834439,-1.8520234823226929,1.1645499467849731,-9.829914093017578,-0.24749761977496892,-0.3150344839228428,-10.623070680821392,1.1116266038593905,5.875818726147729,0.722841739194815
1730865964.6334517,-1.8085271120071411,1.176212191581726,-9.861815452575684,-0.25732360852263586,-0.3160471116051474,-10.607681679544154,1.116003943366715,5.884188050799279,0.9158206317573492
1730865964.6834452,-1.7181299924850464,1.1627516746520996,-9.876137733459473,-0.26987567383760636,-0.3171293846920584,-10.59357112556673,1.1151479165588218,5.879174382390906,0.8770924507159277
1730865964.7333987,-1.6924563646316528,1.1392431259155273,-9.905946731567383,-0.284303584559882,-0.3184777014368943,-10.581534618872954,1.1167475455229465,5.869363776144759,0.9164263114426207
1730865964.7834475,-1.6710063219070435,1.1597439050674438,-9.915834426879883,-0.2994840518360884,-0.32026107360896316,-10.572252574580897,1.1159798040631113,5.861964296166539,0.8778816095309078
1730865964.8333828,-1.6623401641845703,1.1732234954833984,-9.910504341125488,-0.3141352129695333,-0.3225801280855153,-10.56625584507891,1.1143883628342774,5.853419077626985,0.8104558010719074
1730865964.8834436,-1.664509892463684,1.188157320022583,-9.918722152709961,-0.3269832879585941,-0.32547982366067507,-10.563885214552805,1.1120989332170277,5.844522127439494,0.7207764664078187
1730865964.933397,-1.664509892463684,1.188157320022583,-9.918722152709961,-0.3369201678239752,-0.3289803366167758,-10.565259404775754,1.117114972376816,5.853696825036276,0.9134778916594568
1730865964.933397,-1.6572636365890503,1.1673773527145386,-9.908549308776855,-0.343117293520911,-0.3330852022713176,-10.570268598282613,1.1171109871175333,5.853669146737256,0.9133260165287019
1730865964.9834638,-1.6591688394546509,1.130024790763855,-9.90406608581543,-0.3450822835478653,-0.3377542129964538,-10.578587977670459,1.1159721616459393,5.848337396567718,0.8731461086415614
1730865965.0333724,-1.6591688394546509,1.130024790763855,-9.90406608581543,-0.3426653208630697,-0.3428591702511605,-10.589705022620464,1.1182086536900069,5.8364602800313765,0.9103039066293322
1730865965.0333724,-1.6374982595443726,1.1253414154052734,-9.897210121154785,-0.3360300169103507,-0.34816602771172966,-10.602964779005216,1.1182062913800408,5.836413145739605,0.9101477307906245
1730865965.0834715,-1.6542800664901733,1.1127800941467285,-9.890379905700684,-0.32559695367806446,-0.3533640976619393,-10.617626412023522,1.1188103954304065,5.820618913838152,0.9078859028117809
1730865965.1333466,-1.6624219417572021,1.1077226400375366,-9.87459659576416,-0.3119807775099331,-0.35811379419340106,-10.632915649878147,1.1180287833572584,5.8097401522184455,0.8667545674215266
1730865965.183495,-1.6803877353668213,1.1172305345535278,-9.872438430786133,-0.2959428177902691,-0.3620883276823077,-10.64806766135872,1.1164800791473048,5.797893930787969,0.7986871825858118
1730865965.2333581,-1.6803877353668213,1.1172305345535278,-9.872438430786133,-0.27834992616556686,-0.36501401237659536,-10.662367715167118,1.1192348958881904,5.810045017167744,0.9063953377582951
1730865965.2333581,-1.6642932891845703,1.1443051099777222,-9.851571083068848,-0.26011594559164325,-0.3667105373260746,-10.67519199985308,1.119232380309737,5.8100175389964726,0.9062613504542519
1730865965.2835011,-1.676072597503662,1.1518168449401855,-9.866317749023438,-0.24212359770553873,-0.36712356290615034,-10.686038365372164,1.1184177929643278,5.803962448385986,0.8656373408371902
1730865965.3333554,-1.676072597503662,1.1518168449401855,-9.866317749023438,-0.22515445529889827,-0.3663382747130913,-10.694548117573579,1.1200459399898728,5.791004390725554,0.9068395524056304
1730865965.3333554,-1.688549518585205,1.173169493675232,-9.839729309082031,-0.20985162808530775,-0.36456373535366804,-10.700521073738521,1.1200445486447266,5.790949358742338,0.9066809731230276
1730865965.3832452,-1.7406500577926636,1.1670211553573608,-9.839791297912598,-0.19671735752945582,-0.3620984374409629,-10.703905789736083,1.1195671723268745,5.78126635130571,0.866805195355425
1730865965.4331973,-1.7592371702194214,1.1434805393218994,-9.807424545288086,-0.1861427000728027,-0.35928584644892747,-10.704763967474571,1.1210073281787674,5.784470608219579,0.9065258163527946
1730865965.4832108,-1.7919294834136963,1.1425443887710571,-9.786770820617676,-0.17844766017538227,-0.3564544350535908,-10.703228069515845,1.1207596817179382,5.777840057129249,0.8662932903520769
1730865965.5332005,-1.8289555311203003,1.1339582204818726,-9.734051704406738,-0.17390124102500573,-0.3538613291470639,-10.699455572418046,1.120072589925151,5.770330779075695,0.7993972311272788
1730865965.5832748,-1.8289555311203003,1.1339582204818726,-9.734051704406738,-0.17271868110314065,-0.35166803089448434,-10.693585252186427,1.121405059684299,5.764781172953717,0.9061969107884827
1730865965.5832748,-1.906752586364746,1.1017496585845947,-9.722082138061523,-0.17504924518488824,-0.34994050740282606,-10.685722354833526,1.121403884902796,5.764739090985521,0.9060478335265006
1730865965.6332035,-1.9440362453460693,1.0649313926696777,-9.711519241333008,-0.18097903516302022,-0.34864436098782264,-10.675963777106663,1.1209694483608057,5.756747562916763,0.8660838785566751
1730865965.6832056,-1.954621434211731,1.0486096143722534,-9.747272491455078,-0.1905518132328452,-0.34762824495767297,-10.66444170881195,1.1183654823990619,5.74329084626327,0.9061135544166329
1730865965.733109,-1.9300211668014526,1.0519165992736816,-9.785317420959473,-0.2037562670435754,-0.34662663508234604,-10.651376732866828,1.1166017307710963,5.731702758376899,0.8649951086007992
1730865965.7832572,-1.8917458057403564,1.0662336349487305,-9.863221168518066,-0.2204505284469654,-0.3453109659106563,-10.63714580285701,1.1143748235153885,5.7196508954656,0.7990253490127974
1730865965.8331983,-1.8261340856552124,1.0515388250350952,-9.917787551879883,-0.2402608756120622,-0.34336975522063884,-10.622346312360563,1.1115522704793586,5.706602191668845,0.7060265238941672
1730865965.8832433,-1.7325536012649536,1.0188775062561035,-9.973783493041992,-0.26249679382405205,-0.3405632734851004,-10.607819557226552,1.1170877268522215,5.732268265424881,0.9060490369071237
1730865965.9331484,-1.6438817977905273,1.0134690999984741,-9.997303009033203,-0.2861006958386286,-0.33672488325060335,-10.594606227463577,1.1156930772421965,5.727303188311944,0.8662905154641982
1730865965.9832146,-1.6068297624588013,1.0392526388168335,-10.010113716125488,-0.3096587797503021,-0.3317465511095631,-10.583834100068001,1.1149233742409734,5.708936151118986,0.9057699559017458
1730865966.0331244,-1.5930547714233398,1.1113393306732178,-9.983500480651855,-0.3315124619531492,-0.3256082122366098,-10.576561975379754,1.1128539783650007,5.698097181272314,0.8660518174728519
1730865966.0831685,-1.6152253150939941,1.2080261707305908,-9.939994812011719,-0.3499701594901571,-0.31846659016295453,-10.573608869321195,1.1130160497696864,5.69206986317634,0.9053044825159043
1730865966.1329873,-1.6628810167312622,1.2549554109573364,-9.904179573059082,-0.36356311273185193,-0.3107564595444103,-10.575402218385332,1.1107487926204924,5.681792549893764,0.8655260873305664
1730865966.183079,-1.7237470149993896,1.2498868703842163,-9.840123176574707,-0.3712798125539452,-0.30321485349231947,-10.581883452744309,1.1075533756709568,5.670706562538624,0.7991260869971979
1730865966.232996,-1.7540323734283447,1.1959750652313232,-9.810408592224121,-0.37272546617594843,-0.29676382348531344,-10.592490834419392,1.1117006181582778,5.675819948461832,0.9052914744756443
1730865966.282932,-1.7761001586914062,1.1373709440231323,-9.77637004852295,-0.3681623934168141,-0.2922814948993183,-10.60621935204294,1.1129594810589423,5.6548174190940355,0.9050641073109025
1730865966.3329697,-1.7739691734313965,1.080772876739502,-9.734260559082031,-0.35842290619436323,-0.2903646709480869,-10.6217434097038,1.1118108633264998,5.643654598804121,0.8651407319544907
1730865966.3838212,-1.7863746881484985,1.0190056562423706,-9.72805404663086,-0.3447370941333303,-0.2911748107711341,-10.637569345010919,1.1134725487066446,5.647925691703483,0.9039146761204521
1730865966.4338863,-1.7863746881484985,1.0190056562423706,-9.72805404663086,-0.3285391097854805,-0.2944031343144625,-10.652196262271271,1.1124951318880483,5.639417801134829,0.8630874026548615
1730865966.4338863,-1.763444423675537,0.9958710074424744,-9.702902793884277,-0.31129190384192296,-0.2993514372327767,-10.66427337199309,1.1124559928435453,5.639169546754239,0.8615626568422268
1730865966.4838243,-1.7485802173614502,0.980993390083313,-9.72205638885498,-0.2943354596536422,-0.30508647026855235,-10.672723180518506,1.1107419021658727,5.6301944619922715,0.795771518686138
1730865966.5338418,-1.7739217281341553,0.9647471904754639,-9.749009132385254,-0.2787718690588723,-0.31059798007768574,-10.676821987380881,1.1142810380697374,5.631692125257566,0.9040796760727836
1730865966.5839176,-1.776928424835205,1.0090956687927246,-9.792386054992676,-0.2654194624193128,-0.31493139052218067,-10.676260527638796,1.1134802371889068,5.62519824345913,0.8637978406269969
1730865966.6337254,-1.7719019651412964,1.0469619035720825,-9.85647201538086,-0.2548264780068745,-0.3173174703737521,-10.671187093140103,1.1152962778870041,5.609095511895676,0.9040183562678589
1730865966.6840096,-1.742720127105713,1.0767850875854492,-9.918389320373535,-0.247290331831164,-0.317295753384993,-10.662218198762265,1.1147611756670346,5.598282224613314,0.8636137430228089
1730865966.733826,-1.7308605909347534,1.0838773250579834,-9.983128547668457,-0.2428567957781012,-0.3147798951359648,-10.650406470922514,1.1164484871099452,5.604653836560091,0.9038776016395803
1730865966.7839155,-1.7244657278060913,1.1198302507400513,-10.016728401184082,-0.24132380806237183,-0.3100367181864554,-10.63715536495447,1.116093073878623,5.59848465641983,0.8637963210299334
1730865966.8337839,-1.7244657278060913,1.1198302507400513,-10.016728401184082,-0.24227964865042984,-0.30360963147376185,-10.624072068458984,1.117288597710043,5.582109775610661,0.9037108687043011
1730865966.8337839,-1.6922295093536377,1.1217204332351685,-10.01152515411377,-0.24516775903685878,-0.29621944926405397,-10.612767054809805,1.117287322898577,5.582059130777049,0.903552311645451
1730865966.8839517,-1.6949405670166016,1.091368556022644,-10.003122329711914,-0.24934714593434473,-0.28864707428134,-10.604643761015488,1.1167592688378825,5.573184192123524,0.8635571970984569
1730865966.9338105,-1.6541407108306885,1.079060673713684,-9.937772750854492,-0.25413770969375304,-0.2816079497013027,-10.600727171828009,1.1184006400040651,5.559855001428734,0.9044941060174212
1730865966.9837117,-1.6971153020858765,1.0559735298156738,-9.882655143737793,-0.2588648012453798,-0.2756483169800585,-10.601539319463136,1.1179635543933337,5.548551328667294,0.8651012503940343
1730865967.0336804,-1.7184339761734009,1.0200108289718628,-9.829143524169922,-0.2629262640785742,-0.27108448240240435,-10.607023780934261,1.1207077645568158,5.5509136591413,0.9048850435963561
1730865967.0837424,-1.7796587944030762,0.9819168448448181,-9.78043270111084,-0.2658881326594056,-0.2679775268270103,-10.616548012493194,1.1209578287837385,5.541464995853053,0.8650760554588613
1730865967.1336548,-1.7767276763916016,0.9837790727615356,-9.749464988708496,-0.267569026577697,-0.2661377903789722,-10.628994502906895,1.1205409964271316,5.531469870172831,0.799329060409455
1730865967.1838517,-1.7815088033676147,1.03798508644104,-9.75819206237793,-0.2680557574419379,-0.2651862494488619,-10.642922606785959,1.1215389151877402,5.533035242324001,0.9045917981226242
1730865967.2337184,-1.7815088033676147,1.03798508644104,-9.75819206237793,-0.2676385013337304,-0.26468289638419423,-10.656777755636135,1.1210081843144641,5.526056551907634,0.8647124101951418
1730865967.2337184,-1.7619465589523315,1.1153185367584229,-9.77953052520752,-0.26670858435977834,-0.26426848434887334,-10.669107727295417,1.1210033306734937,5.526015554475857,0.8644140019794718
1730865967.283684,-1.7306779623031616,1.2181533575057983,-9.794438362121582,-0.2656566353943681,-0.26378035424212837,-10.678737777145084,1.1198116723453517,5.518406904498225,0.7981653506000941
1730865967.3336196,-1.73723566532135,1.2622041702270508,-9.825244903564453,-0.2647863057718268,-0.26334812103277266,-10.684882597120778,1.1179546744159292,5.510104968152944,0.7050287627639397
1730865967.3837023,-1.7728885412216187,1.2536513805389404,-9.841352462768555,-0.2642771472814049,-0.26342041805735494,-10.68719568237624,1.1231141559822773,5.513227782365159,0.9048053436009245
1730865967.4336104,-1.7957485914230347,1.2329119443893433,-9.852080345153809,-0.26422091903568046,-0.2646556744462171,-10.685758547479299,1.122569140188153,5.5066272737680535,0.8648423282404818
1730865967.4835632,-1.8130037784576416,1.187165379524231,-9.869086265563965,-0.2646923658004778,-0.26771524109727823,-10.681016308899682,1.124894937794055,5.489631712075978,0.9047911480341736
1730865967.5335834,-1.8130037784576416,1.187165379524231,-9.869086265563965,-0.26579175742763994,-0.2730657950098946,-10.673679904094273,1.1245278506293452,5.48040028067072,0.8647659829391928
1730865967.5335834,-1.8403993844985962,1.1168467998504639,-9.861696243286133,-0.26764313427235975,-0.2808608602706505,-10.664614333445574,1.1245237738084175,5.480344559470966,0.8644551168199928
1730865967.5836523,-1.8365612030029297,1.1099493503570557,-9.855596542358398,-0.2703747658356925,-0.2909018298167764,-10.654722518291312,1.128798944644503,5.466095762890123,0.9043797888017537
1730865967.6335382,-1.8015090227127075,1.1125519275665283,-9.858222961425781,-0.27409149174908704,-0.30266494149939904,-10.64484253448671,1.1304321377404145,5.439817853938899,0.9038523609996296
1730865967.683565,-1.7416749000549316,1.0947171449661255,-9.853496551513672,-0.2788170127707036,-0.31539637997591585,-10.635679027759757,1.1307791134493832,5.422606449529581,0.8637631215145877
1730865967.7336876,-1.707353949546814,1.0896289348602295,-9.870576858520508,-0.2844112832892671,-0.3282395091753303,-10.627772610786383,1.1304165787137328,5.404418550800036,0.7963887705309587
1730865967.7836096,-1.6856294870376587,1.0882185697555542,-9.87708854675293,-0.2905190249156637,-0.340343278780816,-10.6215006084157,1.129341864113602,5.385631287517768,0.7033856254844868
1730865967.833548,-1.6856732368469238,1.1131680011749268,-9.89499282836914,-0.29659600245151485,-0.35094993145275,-10.617099136002881,1.131362406463845,5.4306029125592,0.9035749698930765
1730865967.8835711,-1.6620116233825684,1.1451038122177124,-9.884458541870117,-0.3019992323067089,-0.3594794705793978,-10.614688687967078,1.1307768882911924,5.423527880766843,0.8636486644186778
1730865967.9334772,-1.6606212854385376,1.1801331043243408,-9.870457649230957,-0.30608883573124274,-0.36560642951687,-10.614283432751874,1.1339090177505309,5.406344039660592,0.9030838201257491
1730865967.9834714,-1.653437852859497,1.1797866821289062,-9.851520538330078,-0.30830798001686704,-0.36930147176005956,-10.61577908699132,1.1338514302434972,5.3943698412193175,0.863072010865276
1730865968.0334425,-1.6758476495742798,1.1824043989181519,-9.821070671081543,-0.3082440550099194,-0.3708087323294411,-10.618934534004982,1.1330245631994131,5.381477863433999,0.7965834855282679
1730865968.0835173,-1.7237505912780762,1.1566532850265503,-9.81063461303711,-0.30568698834307706,-0.3705606955032872,-10.623366329248174,1.1314270584192672,5.367626469971082,0.7033386505940907
1730865968.1334534,-1.7996176481246948,1.1426687240600586,-9.782665252685547,-0.3006955363711217,-0.36906378765437864,-10.628566870788735,1.1352767839211513,5.395585632428203,0.9027755479809759
1730865968.1835039,-1.8628112077713013,1.1092867851257324,-9.77823543548584,-0.29366130757414965,-0.3667905136258393,-10.633945833540743,1.1346105897925,5.390256933806677,0.8627877814576027
1730865968.2334023,-1.8774480819702148,1.0935637950897217,-9.79169750213623,-0.2853255348241107,-0.3641006041493273,-10.638890711591664,1.1363870495146335,5.372653658445503,0.9022140303786989
1730865968.2834685,-1.8534674644470215,1.108945369720459,-9.822172164916992,-0.2766953616439567,-0.36120764077329365,-10.642848778794908,1.1383240472311331,5.351450126947995,0.9018040442682879
1730865968.3333826,-1.7973651885986328,1.1064001321792603,-9.855999946594238,-0.26885407779190995,-0.3582012885671749,-10.64542165850191,1.1383690170230654,5.336740624147032,0.8615178517928328
1730865968.3833833,-1.749116063117981,1.0848197937011719,-9.900351524353027,-0.2627270585556519,-0.35509872723227387,-10.646444841311178,1.1377508675467354,5.32119812547039,0.7948336197037964
1730865968.4334073,-1.749116063117981,1.0848197937011719,-9.900351524353027,-0.25889903631277345,-0.35187811937207325,-10.646023076749529,1.1364766644422586,5.30470369580814,0.7011923493136151
1730865968.4334073,-1.6887575387954712,1.0780417919158936,-9.944061279296875,-0.25754587579140387,-0.34848982616220153,-10.644506336036397,1.136467578494401,5.304607568772752,0.7005846603611724
1730865968.4834383,-1.660573959350586,1.0784896612167358,-9.943114280700684,-0.25845720333448313,-0.344870464992886,-10.642422149734154,1.1390924677734653,5.338902050145566,0.902017945839879
1730865968.5333052,-1.6808581352233887,1.0688133239746094,-9.9386625289917,-0.2611035008385444,-0.340962059619933,-10.640388972843107,1.1398829066226484,5.314497762167789,0.9015132852606501
1730865968.5834394,-1.6925055980682373,1.0484857559204102,-9.91047477722168,-0.2647553596857238,-0.3367213938331854,-10.639012670224956,1.1393103413255996,5.302976013448564,0.8615494561397526
1730865968.6333168,-1.7340891361236572,1.0040960311889648,-9.874168395996094,-0.2686492547580979,-0.3321072354910038,-10.638773027201081,1.1419350147951939,5.308713536037402,0.9016913562566303
1730865968.6832635,-1.7513102293014526,0.9668171405792236,-9.831408500671387,-0.27214361460116765,-0.3270441548630081,-10.639925793942231,1.1417968780923815,5.301820669536985,0.8619409372601947
1730865968.7332773,-1.7555934190750122,0.9132131338119507,-9.825553894042969,-0.2748155945912889,-0.3213803316552952,-10.642448908618569,1.1409720962140428,5.294075433177033,0.7952772220038679
1730865968.783267,-1.7511773109436035,0.8991687297821045,-9.808719635009766,-0.2764788832449044,-0.3148663282418902,-10.646056386066359,1.1427233380953645,5.284943244582063,0.9017154029050732
1730865968.833155,-1.7669599056243896,0.9138646125793457,-9.811017036437988,-0.2771411873202805,-0.3071817555426881,-10.650273721400628,1.1421555602247258,5.275487252871502,0.8618130298721534
1730865968.8833268,-1.7647291421890259,0.9623916149139404,-9.817171096801758,-0.2769466580339879,-0.29802547470442037,-10.654540186035009,1.14089439666908,5.265271156487511,0.7952441802857393
1730865968.9331322,-1.774051547050476,0.9942019581794739,-9.836055755615234,-0.27612759952613186,-0.2872446963719878,-10.6583115816385,1.1443751161919853,5.26513960641446,0.9016617900935595
1730865968.9830694,-1.7563841342926025,1.0308074951171875,-9.850176811218262,-0.2749598280012417,-0.2749402591028569,-10.661149934178484,1.1438676552248381,5.257224081689875,0.8620255456931986
1730865969.0331802,-1.7418923377990723,1.052126407623291,-9.863423347473145,-0.27371240014983983,-0.2614998714697414,-10.662785056130039,1.1426624644648358,5.248526508909571,0.7950035374503586
1730865969.0830772,-1.7634446620941162,1.1164103746414185,-9.859697341918945,-0.2726011486328115,-0.24756536995706538,-10.663134939941225,1.1407914724920736,5.239298871170098,0.7022301185787889
1730865969.1331055,-1.7613576650619507,1.1499154567718506,-9.857751846313477,-0.2717729138160868,-0.23397400018530679,-10.662283086243855,1.1459080267956565,5.24263160212307,0.9013129610121952
1730865969.1830616,-1.7668864727020264,1.152148723602295,-9.854114532470703,-0.27132151752524314,-0.2216860527788752,-10.660427307035576,1.1491771811995364,5.213503566705677,0.9011645345518855
1730865969.2330203,-1.7597706317901611,1.146106243133545,-9.849930763244629,-0.27130394844660605,-0.2116745664538931,-10.65782370230283,1.1494802660217893,5.200006533647215,0.8610014667044555
1730865969.2830868,-1.7832831144332886,1.1196283102035522,-9.831854820251465,-0.27174581258000086,-0.20478052738523334,-10.65473854631591,1.1503328872979948,5.190609809429884,0.9009753304091133
1730865969.3329446,-1.7911642789840698,1.0579688549041748,-9.824539184570312,-0.2726529758515802,-0.20157083320913866,-10.651407130285872,1.150187974581676,5.177331696816834,0.8610827159069514
1730865969.3830001,-1.793712854385376,1.0126854181289673,-9.833224296569824,-0.27403124071406687,-0.20222467357016566,-10.648006271288068,1.1547249791595329,5.175909867690334,0.8966217824733638
1730865969.432937,-1.7517714500427246,1.0202561616897583,-9.849518775939941,-0.2758869377732487,-0.20648157172977974,-10.644656982160855,1.1553609236344777,5.166534266978736,0.8553016303278252
1730865969.4829564,-1.7155946493148804,1.0792349576950073,-9.881749153137207,-0.27818611134874016,-0.21370521129857858,-10.64145908323731,1.1573888284202054,5.15572378003667,0.8934258787701889
1730865969.532836,-1.6973638534545898,1.1483683586120605,-9.885079383850098,-0.2807941954024636,-0.22307166499505654,-10.63853538388343,1.1578793388762934,5.144737485976951,0.8520640940115566
1730865969.5827827,-1.6990910768508911,1.1914793252944946,-9.90003490447998,-0.28345124585703957,-0.2338020431880432,-10.636054226714762,1.1576680938236004,5.133150891528942,0.7840745289642072
1730865969.6338701,-1.7048535346984863,1.1952179670333862,-9.894710540771484,-0.28581129440227004,-0.24532448109157873,-10.634216820427824,1.1567100785181466,5.120613373827876,0.6864864932948923
1730865969.6838133,-1.7279154062271118,1.140415906906128,-9.889106750488281,-0.28752329760603607,-0.25729636243545057,-10.633220471270585,1.1550584931320709,5.107821253251782,0.5650434157106006
1730865969.7338028,-1.727390170097351,1.0967813730239868,-9.850716590881348,-0.2883132784503867,-0.26949923640082285,-10.633209308186217,1.1591965502903905,5.1495439394676845,0.8885546692146898
1730865969.7837937,-1.7448590993881226,1.0502889156341553,-9.854978561401367,-0.28803707364288555,-0.281688790841928,-10.634222566912493,1.1586757283583227,5.1458263259819725,0.8477904512284816
1730865969.8337355,-1.7205950021743774,1.0371060371398926,-9.837763786315918,-0.28669036759247274,-0.29349491180457066,-10.636166523446084,1.1625954106585137,5.131541763813922,0.8814285416620044
1730865969.8838043,-1.7044275999069214,1.004769206047058,-9.838481903076172,-0.2843762275206163,-0.30441098068148364,-10.638827452978532,1.1628767033826197,5.123327174718478,0.8385988550691058
1730865969.9337204,-1.6762114763259888,1.0011883974075317,-9.852025985717773,-0.28124271407634893,-0.31384794226673374,-10.641914238231927,1.1624517472271871,5.114370889867267,0.7693872712857995
1730865969.9836867,-1.6579885482788086,0.9812003374099731,-9.872231483459473,-0.2774190342667325,-0.32121235368544604,-10.645118296308192,1.161329517902487,5.104610738366558,0.6735366679927881
1730865970.0337353,-1.6788157224655151,1.0039273500442505,-9.869159698486328,-0.27298266817595956,-0.32598669133577374,-10.648177019302356,1.1654492509827383,5.112943593037296,0.8775574340648128
1730865970.0836577,-1.7302862405776978,0.9892690777778625,-9.866273880004883,-0.26798354415501463,-0.3278033421147268,-10.650910669077025,1.1652232065676271,5.1068984378297335,0.8364832019584777
1730865970.1336935,-1.7561147212982178,1.0005706548690796,-9.84821891784668,-0.2625210196023895,-0.3264963273273223,-10.653216625969026,1.166842731259311,5.095424417843754,0.8746980627010162
1730865970.1836424,-1.7367112636566162,1.0267400741577148,-9.844929695129395,-0.25681014923173373,-0.32212156915632595,-10.65503751613592,1.1626497405817695,5.075923552631209,0.8713925351611386
1730865970.2335315,-1.7292639017105103,1.0034098625183105,-9.847564697265625,-0.2511686627054736,-0.31495365505529926,-10.656332860378848,1.1600568002508582,5.061596686117337,0.8291757656673613
1730865970.283596,-1.7082710266113281,1.0320013761520386,-9.856908798217773,-0.24593576317225851,-0.3054560532201115,-10.657074115527097,1.1568492744566494,5.046522250285894,0.760487797948224
1730865970.3336132,-1.7297741174697876,1.0265306234359741,-9.872505187988281,-0.24139207877578273,-0.29422739555635175,-10.65726152521389,1.1530071116665719,5.030590610090221,0.6645325420279933
1730865970.3835676,-1.73284912109375,1.026072382926941,-9.879054069519043,-0.23772880841065086,-0.2819433830847993,-10.656946375769786,1.1620013979966395,5.0698523867431105,0.8737840833491697
1730865970.4335475,-1.7507237195968628,1.0402652025222778,-9.899032592773438,-0.23506234528489162,-0.2692991431140074,-10.656243662581936,1.160608207443604,5.064592714353927,0.8338819381540485
1730865970.4835615,-1.7441734075546265,1.067531943321228,-9.886956214904785,-0.23346012275086608,-0.2569622476660715,-10.655327899626906,1.158630790648629,5.058681267024742,0.7673769736564844
1730865970.5335526,-1.7646288871765137,1.0706843137741089,-9.89332103729248,-0.23295414885588953,-0.245550925533068,-10.654408875453711,1.166075137957529,5.054933482336975,0.8733478084951871
1730865970.583584,-1.8092890977859497,1.0768513679504395,-9.85693645477295,-0.23355366959387872,-0.23561915920168033,-10.653689089812822,1.1659645866703958,5.049969649164465,0.8336714862325093
1730865970.6335008,-1.8451093435287476,1.0780317783355713,-9.835271835327148,-0.23527979045762573,-0.22762760819913416,-10.653309724279108,1.1652681349796934,5.044362967006057,0.7669115870189387
1730865970.6835158,-1.8778879642486572,1.068177342414856,-9.794242858886719,-0.2382104189787145,-0.22190795825463683,-10.653296737083997,1.1680581001841426,5.03872293649979,0.8736423563664917
1730865970.7335863,-1.8792659044265747,1.0619271993637085,-9.761591911315918,-0.24249538856963493,-0.21863346614244508,-10.65352438422493,1.167915352194211,5.032293413003476,0.8336473121991176
1730865970.7835293,-1.8781741857528687,1.0342954397201538,-9.767451286315918,-0.24832058680303587,-0.21779915845835476,-10.653714831178581,1.1720673125527652,5.0190761839492435,0.8740518106076941
1730865970.8334446,-1.8452465534210205,1.0448501110076904,-9.792409896850586,-0.25583308384641246,-0.21921699569936087,-10.65349310751078,1.1800658709218579,5.004880693872789,0.8741813349247414
1730865970.8834481,-1.7909832000732422,1.0523160696029663,-9.833215713500977,-0.2650497996160383,-0.22254149486497887,-10.652496745622779,1.183080540988224,4.994224463139262,0.8344454684009263
1730865970.9334626,-1.7380390167236328,1.0403714179992676,-9.891928672790527,-0.2757693492709381,-0.227328026409305,-10.650503209003313,1.1854288116172618,4.982967551854245,0.7679027705269662
1730865970.9834626,-1.6841381788253784,1.027842402458191,-9.939653396606445,-0.28751440131244477,-0.23309044106521176,-10.647531402566273,1.1870709615005341,4.971131083362656,0.6746332163494565
1730865971.0333781,-1.598343849182129,1.0370818376541138,-9.97574520111084,-0.2995246060912597,-0.23933503028702058,-10.643886446604862,1.183667884421856,4.997123936732294,0.8743576124639735
1730865971.083417,-1.5712602138519287,1.0332560539245605,-9.993497848510742,-0.3107955196136054,-0.24558911963270466,-10.640130467439423,1.184174391885342,4.9924447346487995,0.8345800126660423
1730865971.133399,-1.550557255744934,1.039259433746338,-9.944525718688965,-0.3201684771117143,-0.25143649113425104,-10.63697808786861,1.1847930397530293,4.979460321587221,0.8745276555310686
1730865971.1834455,-1.5575945377349854,1.0153611898422241,-9.915091514587402,-0.32648047384704065,-0.25654297239590523,-10.635130862073101,1.1845756423643592,4.970894723380147,0.8346633632737855
1730865971.233443,-1.6128383874893188,0.9890211224555969,-9.859123229980469,-0.32874887708073536,-0.26065348164694313,-10.635097724206304,1.1835387428446367,4.9616822403281695,0.768196090562608
1730865971.283348,-1.6128383874893188,0.9890211224555969,-9.859123229980469,-0.326344958211585,-0.26356590832613613,-10.637072572352096,1.181688686610399,4.951841937203256,0.6754136771178396
1730865971.283348,-1.700724482536316,0.9786924719810486,-9.800239562988281,-0.3191109671908511,-0.2651135778940261,-10.640905826209428,1.1816725739433251,4.951769388933323,0.6746567855956391
1730865971.3333108,-1.7688379287719727,1.0146944522857666,-9.755945205688477,-0.3074108760515071,-0.26517981082113784,-10.646140394041662,1.186058176158597,4.970161984989329,0.8746434616941073
1730865971.3833656,-1.7688379287719727,1.0146944522857666,-9.755945205688477,-0.2921225888082541,-0.26373759030737065,-10.652071997462322,1.1885441594982122,4.951489126994978,0.8741648118673351
1730865971.3833656,-1.8208271265029907,1.02140212059021,-9.763900756835938,-0.274542903156764,-0.26088389564652886,-10.657846808622034,1.1885466163681144,4.951430557312661,0.8739915218830261
1730865971.433279,-1.8217395544052124,1.0340009927749634,-9.765320777893066,-0.2562118506282203,-0.256840567751567,-10.662604514130102,1.188606412182587,4.942115187430528,0.8341601187324373
1730865971.48329,-1.782911777496338,1.0537012815475464,-9.80487060546875,-0.23871159301900963,-0.2519305561356823,-10.665621475831042,1.1904083333529942,4.937918317567396,0.8739237766970671
1730865971.5332751,-1.7525897026062012,1.0612386465072632,-9.85537052154541,-0.22345875609296534,-0.24655263486663448,-10.666424071175838,1.1906390804991018,4.928611029845894,0.8337724874488175
1730865971.5832372,-1.7406247854232788,1.1116029024124146,-9.87990665435791,-0.21151880318195906,-0.24115990681285976,-10.664870289351942,1.1903269870793278,4.918715074636307,0.7671085314046391
1730865971.633259,-1.770524501800537,1.115897536277771,-9.90289306640625,-0.20351317935421898,-0.23624391608994627,-10.66117475334966,1.1894926067408356,4.908171220475545,0.6733559947342267
1730865971.683197,-1.7900440692901611,1.1545110940933228,-9.899785995483398,-0.19964897480001464,-0.23231804614377227,-10.655855163433245,1.1926494442241038,4.929318275324208,0.8741994284651879
1730865971.7331789,-1.8505797386169434,1.163799524307251,-9.896068572998047,-0.19983094087639364,-0.22988834392392035,-10.649618672070284,1.1944346780694657,4.91208662675341,0.8739582855975909
1730865971.783353,-1.8505797386169434,1.163799524307251,-9.896068572998047,-0.20379169274688755,-0.2294117257321233,-10.643228873535055,1.194562592261926,4.903787327187918,0.8337440672498675
1730865971.783353,-1.8653908967971802,1.1624170541763306,-9.862640380859375,-0.21118379894172948,-0.2312430867958027,-10.637387371663438,1.194561636692457,4.903724377335544,0.833350532201982
1730865971.8332534,-1.84821355342865,1.119704008102417,-9.858514785766602,-0.22160836349894927,-0.2355750878627021,-10.632641971827415,1.1941592978635815,4.894953310393045,0.7672040168347615
1730865971.8832345,-1.8270213603973389,1.114829421043396,-9.805334091186523,-0.2345982950575251,-0.24238324807937647,-10.629322740949402,1.1931852280645319,4.885500429928469,0.6739447816294651
1730865971.9334147,-1.793975830078125,1.0453251600265503,-9.822367668151855,-0.24958694917346544,-0.2513914391070604,-10.627512612343622,1.1967582780481738,4.90159601241777,0.8741820457015782
1730865971.9832606,-1.7209333181381226,1.0137131214141846,-9.828447341918945,-0.26587689847829876,-0.26206272284158055,-10.62706974733026,1.1964721622948256,4.897003958209304,0.8345313000426686
1730865972.0332992,-1.6012029647827148,0.9719731211662292,-9.870986938476562,-0.28260133311483837,-0.2736169528861267,-10.627711670938332,1.1998339467580634,4.882838652227356,0.8745601658601715
1730865972.0832047,-1.5673483610153198,0.9927900433540344,-9.874567985534668,-0.298682446168126,-0.2850960623116213,-10.62912901905977,1.200140562440876,4.873622241491085,0.8349600635368237
1730865972.133241,-1.5673483610153198,0.9927900433540344,-9.874567985534668,-0.3128555887876827,-0.2954906357191992,-10.63106929524037,1.2021415540082074,4.868913857940615,0.8746592977463693
1730865972.133241,-1.5617990493774414,1.0194441080093384,-9.915316581726074,-0.32381557892413254,-0.3038954434406503,-10.633366003738914,1.2021450800793025,4.868857762074628,0.8744855281490608
1730865972.1831715,-1.576568603515625,1.0584110021591187,-9.886327743530273,-0.3304249757122004,-0.309644767786753,-10.63593746000047,1.202274313153929,4.859949611643154,0.8349767200665853
1730865972.2332606,-1.631142258644104,1.0728533267974854,-9.91388988494873,-0.33189326205946945,-0.31240231291172793,-10.638770617021878,1.2015767029630893,4.8501265185493505,0.7682398119005854
1730865972.283102,-1.7173388004302979,1.079965353012085,-9.86382007598877,-0.32791181735782365,-0.3121888774765266,-10.64188421609408,1.202841097571488,4.857617659524217,0.8747990938382973
1730865972.3331964,-1.82231605052948,1.1077828407287598,-9.826631546020508,-0.31875820050372283,-0.30934175502768635,-10.645270832259015,1.202068274736139,4.852202400918773,0.8346518325332253
1730865972.383157,-1.8533849716186523,1.1184059381484985,-9.800682067871094,-0.3053391116221635,-0.3044374254458072,-10.648828111929511,1.208282657296476,4.838678698704715,0.8747688618220881
1730865972.4330823,-1.8954871892929077,1.0949914455413818,-9.761144638061523,-0.2891134732014785,-0.29820321470228756,-10.652313505521814,1.209233356351409,4.829359737489467,0.8348932899002697
1730865972.4830406,-1.8989217281341553,1.0262970924377441,-9.779446601867676,-0.2718903340709953,-0.2913998468030832,-10.655353743713512,1.2094824557310078,4.8193589402615995,0.7687808892379235
1730865972.5331557,-1.8536771535873413,1.0082930326461792,-9.78778076171875,-0.2555610618613531,-0.28467284408984156,-10.657511797896278,1.209067988192944,4.808483725940455,0.6747403121632449
1730865972.5831227,-1.783974289894104,1.004658818244934,-9.84261703491211,-0.24181545677530802,-0.27843858816652,-10.658396578579115,1.2098599811929056,4.828299043534038,0.8748192779186483
1730865972.6330674,-1.783974289894104,1.004658818244934,-9.84261703491211,-0.23189204255591728,-0.2728691340568202,-10.6577762595806,1.2149491518148796,4.799448421601164,0.8745249817318314
1730865972.6330674,-1.7528783082962036,1.0574264526367188,-9.855023384094238,-0.22644461360352244,-0.2679638435589934,-10.65564101835949,1.214967290110725,4.799319343492659,0.8743407385232812
1730865972.6830595,-1.7219197750091553,1.080628514289856,-9.910914421081543,-0.225548522483026,-0.26366131078010735,-10.652199708286027,1.216668984651717,4.789917536068308,0.8807228113005259
1730865972.7331333,-1.7219197750091553,1.080628514289856,-9.910914421081543,-0.22878615750678985,-0.25994075399728617,-10.647849412683593,1.218207442750041,4.775538527892542,0.843648899543562
1730865972.7331333,-1.704637885093689,1.1132997274398804,-9.919187545776367,-0.23536826661138044,-0.25686485311611484,-10.643132510055874,1.2182163675385524,4.7754333266046975,0.8432870295988882
1730865972.7830756,-1.6880874633789062,1.1303209066390991,-9.951221466064453,-0.24427482225252553,-0.25457237958874995,-10.638665653403416,1.2191452120219637,4.760615641364435,0.7802621087638937
1730865972.8330402,-1.6892642974853516,1.1353075504302979,-9.929433822631836,-0.2543877385235286,-0.2532580010242079,-10.635060693847475,1.2194627694122535,4.744995154581925,0.6899873340241248
1730865972.8830557,-1.6928538084030151,1.1137971878051758,-9.93874454498291,-0.26460631863498385,-0.25313608675176513,-10.63285490368551,1.2191314436550096,4.728789362777003,0.5734313193761766
1730865972.9329422,-1.7044410705566406,1.0738990306854248,-9.894899368286133,-0.27395199408933946,-0.25437224836346917,-10.632442091498111,1.2173366571515023,4.786984307091214,0.8813120641930783
1730865972.9829872,-1.7288248538970947,1.0470776557922363,-9.854463577270508,-0.28165605576159214,-0.2569986450116136,-10.634005276680458,1.2167796133515154,4.783527295596523,0.8420547819324025
1730865973.0330038,-1.782965898513794,1.0143132209777832,-9.822835922241211,-0.2872272831842995,-0.26085275986488066,-10.637462419334145,1.2155100308523061,4.779418785220582,0.7761366622420632
1730865973.082945,-1.8363450765609741,1.0109021663665771,-9.767317771911621,-0.29050613743086706,-0.26557024074188074,-10.642446315122953,1.2196271821740057,4.770501589619499,0.8849116830942321
1730865973.132889,-1.8869452476501465,0.9894759058952332,-9.760782241821289,-0.29169672587895745,-0.27063238690348396,-10.648333086116939,1.2193292559884559,4.7641193046987595,0.8462374191320898
1730865973.1829495,-1.8473352193832397,1.0347927808761597,-9.739604949951172,-0.29133821361042483,-0.27545165976090363,-10.654318999836605,1.2183035678398157,4.757058569209952,0.7809870509030648
1730865973.232936,-1.816389560699463,1.0465000867843628,-9.774761199951172,-0.2901765212469698,-0.2794816067829772,-10.659540424750556,1.2215219170206204,4.757846403175872,0.8873547348081452
1730865973.2828844,-1.783855676651001,1.0769073963165283,-9.79489803314209,-0.28896411018045576,-0.28232576884758165,-10.663218826977591,1.223953162119537,4.741580492513531,0.8908290580262082
1730865973.3328242,-1.7646828889846802,1.053520679473877,-9.82564926147461,-0.2882835057740427,-0.2837991117277816,-10.664796246061623,1.223988129661624,4.733037344979916,0.852433689850472
1730865973.3828576,-1.7351040840148926,1.0145779848098755,-9.854711532592773,-0.2884578250076001,-0.283908393423731,-10.664023193156355,1.2233025897935421,4.723784256538127,0.7873894745897163
1730865973.432912,-1.7351040840148926,1.0145779848098755,-9.854711532592773,-0.2895406829862785,-0.2827677710342825,-10.660979141406244,1.2218896967360806,4.71379266017514,0.6953922633949805
1730865973.432912,-1.683071255683899,0.9749651551246643,-9.900102615356445,-0.29135353439623257,-0.28051093431045354,-10.656033049500316,1.2218772035598826,4.71371999432383,0.6946515979139358
1730865973.4828544,-1.6453770399093628,0.9578630328178406,-9.910890579223633,-0.29353243543444074,-0.2772387175048728,-10.649774393317596,1.2197532426094226,4.703137523204632,0.5770950189790837
1730865973.532847,-1.649688720703125,0.9565423130989075,-9.945751190185547,-0.2955689433137498,-0.2729976225714322,-10.642941609728418,1.2168797893360457,4.691788543506304,0.4321334716150174
1730865973.5828483,-1.6442580223083496,0.9954084157943726,-9.940225601196289,-0.29687602302367017,-0.26779736060499815,-10.63634662809535,1.225189306920635,4.728510854675004,0.888992086880598
1730865973.632834,-1.6689367294311523,1.0497392416000366,-9.937795639038086,-0.2968922765182765,-0.261681372435001,-10.630785579282868,1.2244383062337278,4.724377550012967,0.849132702326768
1730865973.682793,-1.6859419345855713,1.0834542512893677,-9.915569305419922,-0.29519081995527413,-0.2548223251012257,-10.62693921769851,1.228736262649735,4.7163449616509086,0.8888951554420859
1730865973.7328548,-1.71327543258667,1.1262437105178833,-9.893120765686035,-0.2915609842974769,-0.2475849221290972,-10.625281074445844,1.2287435426225843,4.71103087775333,0.8489127554201473
1730865973.782775,-1.7269731760025024,1.1472166776657104,-9.872698783874512,-0.28604756604156834,-0.24052288599707541,-10.626015224785892,1.2280278633195083,4.7051180044531336,0.7824235498435591
1730865973.8327966,-1.735066294670105,1.1401067972183228,-9.833118438720703,-0.27894037933009475,-0.2343151495478275,-10.629054174242238,1.2292728343154993,4.695565000195739,0.8891352869720125
1730865973.8827624,-1.717958927154541,1.1496965885162354,-9.815305709838867,-0.27071576033115097,-0.2296599229466499,-10.6340328275393,1.228659782147228,4.688162931628799,0.849385183435598
1730865973.9327734,-1.6673269271850586,1.18075430393219,-9.812365531921387,-0.2619352699412127,-0.22716763686753605,-10.640357402085076,1.2316740056257465,4.684041583137379,0.8896339790608726
1730865973.9827108,-1.718985915184021,1.200554609298706,-9.816550254821777,-0.2531309944245229,-0.22730206312284373,-10.647294883426195,1.2317041617895093,4.676758398970223,0.8500849024391098
1730865974.032757,-1.777178168296814,1.1863377094268799,-9.796299934387207,-0.24475382649406113,-0.2303654194014308,-10.654083495831937,1.232831795969469,4.672778531669326,0.889680572927741
1730865974.0837018,-1.8267006874084473,1.1075407266616821,-9.833602905273438,-0.23722388041236195,-0.23646936208709987,-10.660028803569842,1.232650511037846,4.665654361291904,0.8487369805375772
1730865974.1328225,-1.8129234313964844,1.0744457244873047,-9.833734512329102,-0.231001294890958,-0.24546108557249724,-10.664580156944183,1.231899105717505,4.658182628152634,0.7829599939194124
1730865974.1827915,-1.7848941087722778,1.034195899963379,-9.854951858520508,-0.2265705228090025,-0.2568568368492819,-10.667390311772085,1.2305694480177451,4.64997096066019,0.6897372915701678
1730865974.2327878,-1.7069191932678223,1.0519814491271973,-9.866008758544922,-0.22432505658369367,-0.26986045463335423,-10.668341914745369,1.2346658620915678,4.660023444625483,0.8899411759424388
1730865974.2827125,-1.7330290079116821,1.0380792617797852,-9.891645431518555,-0.2244290374458636,-0.28347859248494,-10.667539333352888,1.2343716742521358,4.654942797578887,0.8499778928072149
1730865974.333654,-1.723747968673706,1.0607243776321411,-9.90710735321045,-0.22675902857374017,-0.2966785196230055,-10.665281606953432,1.2358574778178026,4.642401056386199,0.8896073213197456
1730865974.383695,-1.6333900690078735,1.1029419898986816,-9.92292594909668,-0.2309417387111723,-0.3085378572276455,-10.662022249135035,1.2355318648707068,4.634556624206309,0.8490793633395373
1730865974.4336932,-1.7185343503952026,1.0912126302719116,-9.885492324829102,-0.2364137825245972,-0.3183647725718576,-10.65830699657841,1.2346234301048022,4.625951247131319,0.7820353848271968
1730865974.4835937,-1.7632367610931396,1.0811116695404053,-9.884361267089844,-0.24251340903164945,-0.32575564914101307,-10.654681890171677,1.2376472109555885,4.630395815196111,0.8898559221522883
1730865974.533778,-1.7660847902297974,1.066494345664978,-9.817702293395996,-0.24863977214184,-0.3305679287087018,-10.651588915545313,1.2372784402459074,4.624725349726874,0.8495841108629234
1730865974.583637,-1.76335608959198,1.0730304718017578,-9.786660194396973,-0.2543780923257865,-0.33284971126518603,-10.649275543787418,1.2389055308202026,4.612911012243531,0.8896017738792722
1730865974.6336203,-1.755035638809204,1.0663394927978516,-9.755593299865723,-0.2595070259134573,-0.33278151963704866,-10.647738878625464,1.23857102822137,4.604181990251087,0.8496511912837239
1730865974.683558,-1.7797462940216064,1.05051851272583,-9.727736473083496,-0.26394453367456006,-0.3306372393959016,-10.646727266795018,1.2398120393165362,4.598214381505078,0.8897669670848921
1730865974.7336075,-1.7905184030532837,1.0506978034973145,-9.733460426330566,-0.267707646439021,-0.32674593070574476,-10.645801149822638,1.239359415425958,4.589142408990162,0.8497537991779083
1730865974.7834837,-1.7196898460388184,1.0897799730300903,-9.776664733886719,-0.2708845622953421,-0.32146311978132713,-10.644440031102578,1.239819523736877,4.578969094744074,0.8897060191918743
1730865974.8335426,-1.7713710069656372,1.1019127368927002,-9.835098266601562,-0.27358247203826414,-0.31517599029198134,-10.642188074781698,1.2389554458573993,4.570100235538048,0.8496678607915501
1730865974.8835092,-1.8028919696807861,1.1387075185775757,-9.852670669555664,-0.2758889252911735,-0.3083288949370475,-10.638800019378525,1.2366111786818859,4.557086741329812,0.8893502043864614
1730865974.9336016,-1.8285831212997437,1.182466745376587,-9.922863006591797,-0.2779047409504758,-0.3014383317912742,-10.63432575108019,1.2345303637068374,4.545815400663972,0.8493336854174708
1730865974.9834633,-1.8077365159988403,1.2220063209533691,-9.935257911682129,-0.2797941702146308,-0.2950949269580606,-10.629116723616855,1.231763556569666,4.533841626803335,0.7830258601369944
1730865975.0335941,-1.8268399238586426,1.19771409034729,-9.958266258239746,-0.28177526177331813,-0.2899430868062041,-10.623771813140252,1.2282733084622555,4.5210507493357595,0.6896074531309904
1730865975.0834959,-1.7553056478500366,1.1827597618103027,-9.942646980285645,-0.28405899030927056,-0.2866063975970757,-10.61903064312121,1.2241007714618848,4.507624710315735,0.5703292031772585
1730865975.1334362,-1.7702215909957886,1.131227731704712,-9.93575382232666,-0.28677367769923445,-0.28556456709236,-10.615633732219614,1.2344813137202304,4.544871548827554,0.8893127847905492
1730865975.1834197,-1.7350672483444214,1.0756663084030151,-9.8892240524292,-0.28990957282367136,-0.28703068561196016,-10.614183938900823,1.2328411399219747,4.53982218016876,0.8495045248140816
1730865975.2334309,-1.6980245113372803,1.014807939529419,-9.849322319030762,-0.2933068440976974,-0.29086636633639174,-10.61503100502296,1.2362743934361702,4.520212873070854,0.8889299444645952
1730865975.2833824,-1.74787175655365,0.9247363805770874,-9.83838939666748,-0.2966790718726929,-0.29654726830506495,-10.618199351178134,1.2356139917987392,4.5089355736100325,0.8490598486486748
1730865975.3333728,-1.7218077182769775,0.9190731048583984,-9.835184097290039,-0.2996750504106069,-0.30318707032880493,-10.623390350158955,1.2373771466385879,4.501872572388739,0.8888201503761269
1730865975.3833628,-1.710154414176941,0.9689270853996277,-9.809120178222656,-0.30195951968546786,-0.3096525009172213,-10.630058587808303,1.2368020289971726,4.490541472603655,0.8487956262173935
1730865975.4333987,-1.6837084293365479,0.9878154993057251,-9.841340065002441,-0.3032527118698126,-0.31478399585159994,-10.63751878515184,1.238199406541764,4.493773933474399,0.8885440473136136
1730865975.483403,-1.650559425354004,1.0081390142440796,-9.836055755615234,-0.30332044782104356,-0.3176358215653472,-10.645056636966265,1.2374413822275592,4.487574184158517,0.8485477742862562
1730865975.5333564,-1.6746716499328613,1.0141290426254272,-9.857386589050293,-0.3019591256959152,-0.31762210475067537,-10.652033172886602,1.248349010295596,4.478358952493432,0.8886258414722632
1730865975.5833364,-1.6851810216903687,1.004333734512329,-9.852632522583008,-0.2990145863600637,-0.3145445062468758,-10.657958202127096,1.256636204591804,4.473236572175041,0.8886720420598023
1730865975.6333683,-1.5812643766403198,1.044628381729126,-9.859695434570312,-0.2944157723032017,-0.30854586960178715,-10.662519746264632,1.2607434875962589,4.466682922977197,0.8486686633183211
1730865975.683324,-1.7228114604949951,1.0327458381652832,-9.875347137451172,-0.28817524412154316,-0.30004262094769457,-10.665581338039063,1.264106360215577,4.459405982629133,0.782367845162869
1730865975.7333395,-1.7228114604949951,1.0327458381652832,-9.875347137451172,-0.2804082907228276,-0.28965195861735993,-10.667165960813115,1.2667837968858668,4.45132863731458,0.6887477324181859
1730865975.7333395,-1.8088876008987427,1.0366780757904053,-9.752493858337402,-0.2714174203895837,-0.2781021816621615,-10.667410102878225,1.2668002977601285,4.45126861815918,0.6879861489651632
1730865975.7832942,-1.8492463827133179,1.0879586935043335,-9.823813438415527,-0.2617596134576245,-0.2661505465851026,-10.666466182451945,1.2566595869336603,4.458733350655558,0.8886147185787742
