Timestamp,IMU_Linear_Acc_X,IMU_Linear_Acc_Y,IMU_Linear_Acc_Z,Filtered_X,Filtered_Y,Filtered_Z,Pose_X,Pose_Y,Pose_Z
1730865950.6837897,-1.3720238208770752,1.2254197597503662,-9.91110610961914,-0.13830883385469306,-0.3246943008000593,-10.715353966683844,0.8690608021043865,4.00938139028081,0.8926886352829827
1730865950.7338083,-1.3720238208770752,1.2254197597503662,-9.91110610961914,-0.13753043389372277,-0.3220465600476924,-10.680944837931303,0.8680327769777199,4.005873668556358,0.8960293319344462
1730865950.78379,-1.6006672382354736,1.0863429307937622,-9.86929702758789,-0.1357257690446841,-0.3168851889663581,-10.616913885110268,0.86874521791785,4.00788505247545,0.8958973015847261
1730865950.8337855,-1.6006672382354736,1.0863429307937622,-9.86929702758789,-0.1346831026922473,-0.31440461392591457,-10.587388667432526,0.8722626572140773,4.013818223841924,0.8960258953279843
1730865950.8837059,-1.81550133228302,1.01986563205719,-9.81452465057373,-0.13229253890580778,-0.3097140392617714,-10.533496507845562,0.8736248327823213,4.0165539927371805,0.8959659357410974
1730865950.9336746,-1.9375649690628052,0.9927679896354675,-9.77560806274414,-0.12950654463303624,-0.30545075501065766,-10.486618051331558,0.8755060450928714,4.0203321072638145,0.8958647731600655
1730865950.9836621,-2.0869340896606445,1.0083929300308228,-9.737180709838867,-0.12640774174623126,-0.3016584902752216,-10.44679670489137,0.8908309837122762,4.074232849896761,0.8945845459920448
1730865951.0336392,-2.0562994480133057,1.051559329032898,-9.758321762084961,-0.12478923203575384,-0.29994214411803816,-10.429510008149547,0.9417648641884088,4.242353708383951,0.8729883032155654
1730865951.083622,-1.9736506938934326,1.1039338111877441,-9.822582244873047,-0.12315986413891597,-0.29834370090299617,-10.413945457415961,0.9323695468281437,4.198801139099864,0.8704047336876258
1730865951.133597,-1.9302725791931152,1.1401413679122925,-9.887577056884766,-0.12155038538003983,-0.2968606069403563,-10.400074587428618,0.9485437051458155,4.245445272101133,0.8223685832090131
1730865951.1835477,-1.8705997467041016,1.1601102352142334,-9.892549514770508,-0.11999318776514681,-0.29549030433946055,-10.387863837940742,0.9468092768170268,4.228730903000875,0.8428196610764174
1730865951.233644,-1.852792739868164,1.1702474355697632,-9.919771194458008,-0.11852086892199681,-0.2942307196691765,-10.377275582342172,0.9540623561869215,4.2442780291522455,0.7874644892054339
1730865951.2836158,-1.850260853767395,1.1229956150054932,-9.914119720458984,-0.1171651589948357,-0.29308044808476474,-10.368268816693892,0.9542796625936409,4.243192519548682,0.8164680640120991
1730865951.3335752,-1.8229795694351196,1.0839333534240723,-9.910886764526367,-0.11595623547274556,-0.29203857592285354,-10.360799575486627,0.957873112428993,4.250028955137992,0.7595868164467421
1730865951.3836124,-1.7985893487930298,1.0479875802993774,-9.888747215270996,-0.11492227272771795,-0.29110419610736216,-10.354821164431016,0.96282701146636,4.256230090790679,0.7905293834400472
1730865951.4335694,-1.7535266876220703,0.9978740811347961,-9.872357368469238,-0.1140890160346981,-0.29027582338181795,-10.350284249007073,0.9689434623619522,4.259248620060971,0.787908629380391
1730865951.4836032,-1.7225205898284912,0.9698752164840698,-9.863229751586914,-0.11347931036881775,-0.28955086808056957,-10.347136874112325,0.9736445584329013,4.262716320018056,0.7327145287344223
1730865951.533507,-1.668954610824585,0.9353963732719421,-9.8529052734375,-0.11311262617154975,-0.28892521885586075,-10.345324513103826,0.9780755799686227,4.265466641246387,0.6512734484023047
1730865951.583536,-1.6359572410583496,0.9215210676193237,-9.852986335754395,-0.11300462450977068,-0.2883929743547483,-10.344790201101429,0.9822053752179009,4.267481922318792,0.5442055129920012
1730865951.6334298,-1.6144894361495972,0.9229671359062195,-9.850465774536133,-0.11316681606099879,-0.2879463589794511,-10.345474752413898,0.9765532609837342,4.273357781783786,0.7051622984782582
1730865951.6834772,-1.6067534685134888,0.9610587358474731,-9.857247352600098,-0.1136064077093681,-0.28757587309228033,-10.347317046309627,0.97692541264409,4.275488594277572,0.6452424854804294
1730865951.7344527,-1.5976148843765259,1.0084751844406128,-9.867647171020508,-0.11432638029790033,-0.28727073673940207,-10.350254370973817,0.9734798326086144,4.287473100086932,0.693646293553709
1730865951.7843916,-1.6114647388458252,1.0301212072372437,-9.874835968017578,-0.11532574966813704,-0.28701956854542976,-10.35422281578273,0.971878594518706,4.292324950628153,0.6353565483349528
1730865951.8344188,-1.5975745916366577,1.018343448638916,-9.889068603515625,-0.11659994267528198,-0.2868110480426418,-10.35915768655948,0.9699855795680818,4.29646433172772,0.5510989268155475
1730865951.8845086,-1.6075562238693237,0.9683912396430969,-9.893061637878418,-0.11814121149734987,-0.2866342560354542,-10.36499391145805,0.9703862718402465,4.300354574735667,0.647645364276211
1730865951.934418,-1.626556634902954,0.905511736869812,-9.897462844848633,-0.1199390501092511,-0.28647855122736854,-10.371666408209474,0.9688645119334687,4.303225964832337,0.5883006941862171
1730865951.9844997,-1.6508206129074097,0.8503293991088867,-9.890620231628418,-0.12198067038064012,-0.2863330794472526,-10.379110380411742,0.9662986238936901,4.315144805062674,0.6309199134598508
1730865952.034278,-1.668717384338379,0.7852784395217896,-9.882685661315918,-0.12425156040015403,-0.2861861478460307,-10.387261522523389,0.9638751513035303,4.320608063194487,0.5732820068385083
1730865952.0843859,-1.668717384338379,0.7852784395217896,-9.882685661315918,-0.1267360276014977,-0.286024694600193,-10.396056150057095,0.9619731942457419,4.330159690639878,0.6075130948135998
1730865952.0843859,-1.666137456893921,0.7490000128746033,-9.847501754760742,-0.12941760610127329,-0.2858340274039206,-10.405431281392561,0.961957351165105,4.33020034391201,0.607231033852934
1730865952.134316,-1.6244356632232666,0.7482098340988159,-9.854060173034668,-0.1322792594446956,-0.28559785397322834,-10.415324666867502,0.9592744739174753,4.336308785209026,0.5494608241914869
1730865952.1843207,-1.6244356632232666,0.7482098340988159,-9.854060173034668,-0.13530337983566515,-0.28529849510167016,-10.425674815431229,0.9562391186622017,4.341748536305388,0.4653028323988884
1730865952.1843207,-1.5937052965164185,0.7874472141265869,-9.882034301757812,-0.13847168835879603,-0.28491725097098686,-10.436421144632602,0.9562197170188225,4.341779286093161,0.46471406806144716
1730865952.2342668,-1.5707736015319824,0.8576775789260864,-9.910017013549805,-0.14176514549893632,-0.2844350045245706,-10.447504310108616,0.9573739317313441,4.3435573149294875,0.5554436359313732
1730865952.2842512,-1.587791085243225,0.9232023358345032,-9.935588836669922,-0.14516390672729057,-0.28383310453910887,-10.458866662531237,0.9584163947039509,4.3490663463195,0.5572759769410538
1730865952.3342435,-1.5839658975601196,0.9715844392776489,-9.951668739318848,-0.14864739855790748,-0.2830943984013371,-10.470452721898598,0.9575612801977696,4.352434099519109,0.5040592135843321
1730865952.3842833,-1.6285433769226074,0.9795622229576111,-9.949352264404297,-0.15219458707428954,-0.2822041256278394,-10.482209544349459,0.9560929164430533,4.353293153851906,0.5273756708943043
1730865952.4342704,-1.6731714010238647,0.9589577913284302,-9.931402206420898,-0.15578443495199032,-0.281150405461042,-10.494086891093756,0.9543673435563382,4.354410741626856,0.46979175974442544
1730865952.4843504,-1.7608195543289185,0.9085907340049744,-9.892904281616211,-0.15939656172291095,-0.2799242118442218,-10.506037156410361,0.9522413799534898,4.354828764480713,0.3857113319934267
1730865952.5342863,-1.8198007345199585,0.8613375425338745,-9.845653533935547,-0.1630120920019963,-0.27851890643019567,-10.518015060687617,0.9536224545957271,4.36230596026914,0.47540924468027607
1730865952.5842535,-1.8743910789489746,0.8098325729370117,-9.812735557556152,-0.16661453657152037,-0.27692952768797674,-10.529977185677009,0.9521815144216145,4.364301502034201,0.4154693850754973
1730865952.634168,-1.8814746141433716,0.8248398900032043,-9.78154468536377,-0.17019046253743017,-0.2751521014861578,-10.541881501082058,0.9532090758450751,4.374349934147584,0.45727262178374734
1730865952.6841817,-1.8178749084472656,0.9012826681137085,-9.799697875976562,-0.17372971083962135,-0.273183304895018,-10.553687049240004,0.9521312994050951,4.378648726872314,0.39844732102954694
1730865952.7341259,-1.7743693590164185,0.9895063042640686,-9.821540832519531,-0.17722501393409318,-0.2710207551521747,-10.565353923465766,0.9516560382567807,4.384787087430214,0.43317343506841544
1730865952.7841399,-1.7426655292510986,1.0704177618026733,-9.879551887512207,-0.18067116825520546,-0.2686638498191405,-10.57684359304762,0.950151747864506,4.388835544499115,0.3743375701340844
1730865952.834016,-1.7173658609390259,1.144403100013733,-9.899643898010254,-0.1840641704824279,-0.26611477280940277,-10.58811948205165,0.9500993963775055,4.398746104627056,0.40747797253038426
1730865952.884022,-1.7238008975982666,1.201750636100769,-9.902915954589844,-0.18740059701211337,-0.2633793340205165,-10.599147562344596,0.9485258302804332,4.404380811117819,0.34854443661717155
1730865952.9340377,-1.7645459175109863,1.1820310354232788,-9.86949348449707,-0.19067731305446012,-0.2604674550339953,-10.609896684769641,0.9516756633202834,4.414634645709739,0.3816618860582534
1730865952.9839852,-1.7645459175109863,1.1820310354232788,-9.86949348449707,-0.19389151636718377,-0.2573931477096601,-10.620338551111498,0.9535542717246953,4.417923825626061,0.37951131938826876
1730865952.9839852,-1.83077871799469,1.1543887853622437,-9.82955265045166,-0.1970409907074908,-0.2541740051112418,-10.630447468536211,0.9535578467661413,4.417950271360255,0.3792647136322779
1730865953.0339887,-1.8594506978988647,1.0799541473388672,-9.79504680633545,-0.2001244524712362,-0.25083039089414816,-10.640200023907532,0.9539301442829722,4.422233178894526,0.3231854929929304
1730865953.0839276,-1.8404059410095215,1.018115758895874,-9.759230613708496,-0.203141898800765,-0.24738440351041147,-10.649574688733992,0.9538019120265467,4.425916834028578,0.24030364469086526
1730865953.1339393,-1.7897979021072388,0.9865586757659912,-9.764646530151367,-0.20609468747602402,-0.243858703409002,-10.658551427189753,0.9531643079098445,4.428981683128033,0.1310456716600338
1730865953.1840162,-1.7897979021072388,0.9865586757659912,-9.764646530151367,-0.20898518765055418,-0.24027551104186684,-10.667111482698246,0.9552764291364134,4.4357202643582365,0.3235111193942657
1730865953.1840162,-1.698754072189331,1.0258070230484009,-9.786855697631836,-0.2118161954108104,-0.23665606496994956,-10.675237421189452,0.9552733994738084,4.435747841783885,0.3231546523258714
1730865953.2339149,-1.6195176839828491,1.096706748008728,-9.849236488342285,-0.21459023180647485,-0.23302062184470654,-10.682913401894597,0.9546303336640132,4.4389229821366065,0.2653339848298906
1730865953.2839737,-1.6195176839828491,1.096706748008728,-9.849236488342285,-0.21730872621698077,-0.22938885897708217,-10.690125629143981,0.9534362202857556,4.441578378365941,0.1797734182560185
1730865953.2839737,-1.5690386295318604,1.1863417625427246,-9.894932746887207,-0.21997135793550254,-0.22578037720413704,-10.696862834022536,0.9534236594851899,4.441598573649336,0.17892641271674672
1730865953.3338645,-1.5690386295318604,1.1863417625427246,-9.894932746887207,-0.22257577141590873,-0.2222151251697682,-10.703116617038903,0.955130882253513,4.452323936797427,0.28787086093173075
1730865953.3338645,-1.5596836805343628,1.2637195587158203,-9.941064834594727,-0.22511755780830048,-0.2187137470963592,-10.708881651398821,0.9551255523846701,4.452363206233397,0.28755946547460964
1730865953.384044,-1.59630286693573,1.3051685094833374,-9.960204124450684,-0.22759043726339104,-0.2152978775249776,-10.71415583172718,0.9541394019129418,4.4572412284713385,0.2332020915926055
1730865953.4338489,-1.6284863948822021,1.3273265361785889,-9.94701862335205,-0.22998668785761484,-0.21199039462574826,-10.718940368934671,0.9525887541327711,4.461565100960201,0.15244114901740477
1730865953.4840422,-1.6553434133529663,1.316172480583191,-9.920696258544922,-0.2322977715113018,-0.20881550975944918,-10.723239688060321,0.9549486615134841,4.465949954527329,0.26700806693283113
1730865953.5338588,-1.6553434133529663,1.316172480583191,-9.920696258544922,-0.2345149708592794,-0.20579853797225525,-10.727061053598373,0.9567817388753245,4.474869420869464,0.27450692407728217
1730865953.5338588,-1.6599690914154053,1.2806527614593506,-9.860176086425781,-0.2366298425653273,-0.20296539979873576,-10.730414048728926,0.9567806893319292,4.474914705222761,0.2741693962166945
1730865953.583919,-1.6765570640563965,1.1801283359527588,-9.819402694702148,-0.23863446451609538,-0.20034191041967708,-10.733309972308348,0.9563546278419038,4.480250734394494,0.2191986566036967
1730865953.6338382,-1.6765570640563965,1.1801283359527588,-9.819402694702148,-0.24052159717700972,-0.197952835048198,-10.735761170487788,0.9583601972671787,4.488201603877541,0.2519267355033216
1730865953.6338382,-1.6720153093338013,1.0732054710388184,-9.787087440490723,-0.24228481142661973,-0.19582087943684698,-10.7377804861391,0.958360956959691,4.488249629523674,0.25159741315128936
1730865953.6838663,-1.6663193702697754,0.9791675806045532,-9.763050079345703,-0.2439185330939134,-0.19396574499631108,-10.739380912049217,0.9581514494472341,4.4940647353788155,0.19661263711509297
1730865953.7339408,-1.6707918643951416,0.9239218235015869,-9.750232696533203,-0.24541800712639567,-0.1924031556134886,-10.74057532316236,0.9573324066122914,4.499408021859964,0.11479933852787562
1730865953.7837968,-1.6994575262069702,0.9047927856445312,-9.781537055969238,-0.24677928278309222,-0.1911440141070917,-10.741376294216344,0.961662874230888,4.500916997480342,0.22092612649720847
1730865953.8338177,-1.7137017250061035,0.9450106620788574,-9.824131965637207,-0.24799931618246354,-0.1901940766921819,-10.74179617687719,0.9617307518836328,4.504102645268699,0.16395050949488288
1730865953.8838098,-1.7199853658676147,1.0237822532653809,-9.900525093078613,-0.24907615707203867,-0.18955432501050457,-10.741847522735327,0.966381977612856,4.511030688526138,0.20723052749437448
1730865953.933771,-1.7121604681015015,1.109671950340271,-9.941783905029297,-0.2500090742943051,-0.18922196426154067,-10.74154375721226,0.9704670098085603,4.515433229987517,0.2070321785298975
1730865953.9838536,-1.7125602960586548,1.1412822008132935,-9.991416931152344,-0.250798533633113,-0.18919174359508423,-10.740899881757123,0.9723368806958618,4.519146462182571,0.15013593312879248
1730865954.033785,-1.7383090257644653,1.1559922695159912,-9.991555213928223,-0.251446100993107,-0.18945712504984658,-10.739932974550378,0.973570022324299,4.522364613445094,0.0669006069404739
1730865954.0837812,-1.7700742483139038,1.0934906005859375,-9.966474533081055,-0.2519544310102779,-0.19001092813774542,-10.738662333565351,0.9736827331490808,4.527941834194462,0.14866059333510506
1730865954.1337168,-1.7931220531463623,1.0574482679367065,-9.924484252929688,-0.25232741195839326,-0.19084535113689305,-10.737109190019654,0.9734657640403628,4.53132715380609,0.0875932927225486
1730865954.1838078,-1.8051255941390991,0.9757516384124756,-9.861323356628418,-0.25257036309419423,-0.19195152553775896,-10.73529604733971,0.9756347525004324,4.542507191024399,0.1286218168030165
1730865954.233678,-1.8243852853775024,0.909440279006958,-9.807530403137207,-0.2526901477513631,-0.19331885188052597,-10.733245801477862,0.9754387028213009,4.548434285229147,0.06884102875597614
1730865954.2837088,-1.831785798072815,0.8526820540428162,-9.77783489227295,-0.2526951783003506,-0.19493430308393978,-10.73098083750196,0.976141720169166,4.55125040998184,0.10375169676327352
1730865954.3335953,-1.7967559099197388,0.8678164482116699,-9.767488479614258,-0.2525953091536467,-0.19678190832938902,-10.72852232244144,0.9753609891258093,4.5550445160273405,0.044065956453140556
1730865954.3836603,-1.7605763673782349,0.9291214346885681,-9.799591064453125,-0.2524015229364572,-0.1988427224377494,-10.72588986267452,0.9763486099701193,4.5641584000838265,0.07731354152929182
1730865954.433618,-1.710945725440979,1.0032237768173218,-9.818702697753906,-0.25212536438264455,-0.20109545711376092,-10.723101563419572,0.9753783099541261,4.56953772531321,0.017539615397611757
1730865954.4836576,-1.7012803554534912,1.053971767425537,-9.838756561279297,-0.25177826581409324,-0.20351759555199087,-10.720174363297208,0.9766035568118022,4.574425346155015,0.05070226677401243
1730865954.5335536,-1.6881037950515747,1.0379717350006104,-9.849413871765137,-0.25137099619687797,-0.20608651945862846,-10.717124419350222,0.9756391980010997,4.578799317089638,-0.009090381939028443
1730865954.5836434,-1.7113316059112549,0.9963055849075317,-9.854170799255371,-0.25091338243014166,-0.20878017633303367,-10.7139673930358,0.9769936978050643,4.582674194433096,0.02383637892823806
1730865954.6335702,-1.745736837387085,0.9328804016113281,-9.85682487487793,-0.25041433276251385,-0.21157710583720757,-10.71071860928579,0.9760969644802239,4.586000772746942,-0.035832706475542604
1730865954.683587,-1.7479357719421387,0.8603179454803467,-9.831171989440918,-0.2498820939837648,-0.2144559803738373,-10.707393090217716,0.974573038560888,4.588804039083632,-0.12240858376261612
1730865954.733575,-1.7491909265518188,0.843873918056488,-9.839099884033203,-0.2493245446998532,-0.21739497295984728,-10.704005467208695,0.976690504240649,4.591076521390903,-0.028149915390978407
1730865954.7836032,-1.719849944114685,0.8954249024391174,-9.856204986572266,-0.24874931280483734,-0.22037135101758895,-10.700569866857848,0.9755395505814523,4.592794682052489,-0.08942001759503544
1730865954.8335345,-1.69038987159729,1.013269066810608,-9.893735885620117,-0.24816365314846844,-0.22336170946841694,-10.69709994153586,0.9788660382774049,4.5939890094051,-0.04633512609291614
1730865954.8834958,-1.6407148838043213,1.1782209873199463,-9.94733715057373,-0.24757412831361714,-0.22634303074820386,-10.693609126167424,0.982351870154255,4.594672026874067,-0.046718641427513544
1730865954.9335127,-1.5968351364135742,1.3148117065429688,-9.980710983276367,-0.2469861634696038,-0.22929438913787922,-10.690111064077364,0.9833463038801229,4.594722553792392,-0.10411999140310912
1730865954.9834745,-1.5788203477859497,1.3853707313537598,-9.986942291259766,-0.2464035864252998,-0.23219877628368688,-10.686620029167756,0.9837160285731725,4.594197745867755,-0.18756323323878685
1730865955.0333755,-1.59587824344635,1.345052719116211,-9.986001014709473,-0.24582833736153822,-0.2350443523586823,-10.68315113115182,0.9845726386855881,4.59309137961452,-0.10563287084200425
1730865955.0834413,-1.6471034288406372,1.241713523864746,-9.92891788482666,-0.24526054303683517,-0.23782458210253327,-10.679720189632972,0.9841523831671702,4.591390226962749,-0.1666370671506572
1730865955.1334794,-1.7504501342773438,1.1041513681411743,-9.85863208770752,-0.24469905843975115,-0.24053717288244703,-10.676343240844854,0.9831179002824197,4.589088665256323,-0.25443764999968826
1730865955.1834555,-1.8304283618927002,0.9711137413978577,-9.74976921081543,-0.24414244222574888,-0.2431822079265592,-10.673035671402383,0.9875610852847458,4.586177270291979,-0.15064573260148326
1730865955.2333221,-1.9156988859176636,0.9128645658493042,-9.670672416687012,-0.24359014485658048,-0.24576010721278932,-10.669811089861087,0.9875357021022857,4.582681581871749,-0.2114544553873331
1730865955.2834413,-1.9156988859176636,0.9128645658493042,-9.670672416687012,-0.2430435406904709,-0.24827005969719187,-10.66668025380071,0.9869010893671825,4.578539701797788,-0.29945132007229935
1730865955.2834413,-1.9563443660736084,0.903839647769928,-9.61693286895752,-0.24250650098035414,-0.25070929928342706,-10.66365043230866,0.9868960356526212,4.5785157890803525,-0.2999959155136294
1730865955.3332965,-1.9563443660736084,0.903839647769928,-9.61693286895752,-0.24198549530093963,-0.25307307933350587,-10.660725255512585,0.9856650483788832,4.5737942822987225,-0.4135820985533242
1730865955.3332965,-1.9662718772888184,0.9583784937858582,-9.625625610351562,-0.24148942234221238,-0.2553549882472941,-10.657904849684918,0.9856508042677662,4.573747443721315,-0.4147617004836598
1730865955.3834836,-1.923431158065796,1.0500279664993286,-9.705564498901367,-0.24102926992146664,-0.25754754027346627,-10.655186255709111,0.9915399207964437,4.568375425593635,-0.25427977145652375
1730865955.4342368,-1.8367159366607666,1.1513241529464722,-9.823517799377441,-0.24061750910538676,-0.25964315591082204,-10.652564303793126,0.9919577241842876,4.562239859539049,-0.31152443551924197
1730865955.4842105,-1.7143102884292603,1.2665013074874878,-9.948857307434082,-0.24026707906316822,-0.26163545210611494,-10.650032991026343,0.995803885855001,4.555555224736954,-0.26598697015365513
1730865955.5342638,-1.5934988260269165,1.3747628927230835,-10.055098533630371,-0.23998996746178441,-0.2635206058059356,-10.647587140803925,0.996643202804846,4.54817543363696,-0.32409757758053664
1730865955.5842412,-1.4835880994796753,1.4298890829086304,-10.111140251159668,-0.23979562737516763,-0.26529855396588775,-10.645223929418933,0.9991721293509417,4.540159919459785,-0.28813615760413175
1730865955.6342456,-1.443881630897522,1.4316983222961426,-10.103753089904785,-0.23968960114899493,-0.26697375018755737,-10.642943873712705,0.9998033873359793,4.531479668803936,-0.3470350661944517
1730865955.6842623,-1.4952565431594849,1.3775787353515625,-10.049909591674805,-0.2396727621910346,-0.26855521014696504,-10.640751024801078,1.0013303604610435,4.52207001929927,-0.3163879469733692
1730865955.7341847,-1.6399167776107788,1.2702287435531616,-9.953142166137695,-0.23974155667470368,-0.27005575744281907,-10.63865234092301,1.001424060123274,4.512095872503708,-0.3765468468902336
1730865955.7842758,-1.8158236742019653,1.1555479764938354,-9.814238548278809,-0.239889379648139,-0.27149059237800166,-10.636656398952862,1.0028792782457763,4.501354746578613,-0.34819513201520474
1730865955.8341494,-1.987913966178894,1.0372942686080933,-9.684324264526367,-0.24010878465704596,-0.2728754753057788,-10.634771676218834,1.00321818844985,4.490003442435007,-0.35356583303275685
1730865955.8841746,-1.987913966178894,1.0372942686080933,-9.684324264526367,-0.24039378946607542,-0.27422498215774116,-10.63300481306775,1.0026822523637609,4.477944211747757,-0.41298671470499265
1730865955.8841746,-2.1046435832977295,0.9711049795150757,-9.589987754821777,-0.24074147931021805,-0.2755513026307555,-10.631359395877773,1.002677030992167,4.477866905892232,-0.41344026321043253
1730865955.9341092,-2.1483964920043945,0.9394667744636536,-9.553539276123047,-0.24115277151028647,-0.2768636537873585,-10.629835365368738,1.0015478900352912,4.465219344841899,-0.4987716704272676
1730865955.9841945,-2.121264934539795,0.9565346837043762,-9.586009979248047,-0.24163269775327834,-0.27816804625616176,-10.628428793432382,0.9998017982943321,4.451727511501713,-0.6116923948983018
1730865956.0340698,-2.039263963699341,0.9619608521461487,-9.645097732543945,-0.2421901572161173,-0.2794673405689767,-10.627132102665,1.0031862484614404,4.437605285923635,-0.4356010796553752
1730865956.0840585,-1.9312196969985962,0.9948458671569824,-9.719782829284668,-0.24283689372465472,-0.28076164169693274,-10.625934904267694,1.00215647587539,4.422717814987512,-0.4955773591712832
1730865956.1340225,-1.8107657432556152,1.0069457292556763,-9.799466133117676,-0.24358586430071053,-0.28204889062111504,-10.6248252515317,1.000526939831252,4.40721646219949,-0.5816685143797181
1730865956.184022,-1.7375962734222412,1.0039891004562378,-9.883305549621582,-0.24444942763699687,-0.2833254555926264,-10.623790991467244,0.9982790944734893,4.390932924262847,-0.694753474674042
1730865956.2339506,-1.6901278495788574,0.9899908900260925,-9.963652610778809,-0.2454377885524873,-0.28458656734514653,-10.622821038959165,1.0065040987427698,4.374066304135559,-0.49333963235603795
1730865956.2840056,-1.6511867046356201,1.0167818069458008,-10.022025108337402,-0.24655798334881304,-0.2858265709705409,-10.62190647263186,1.0064082164452406,4.356298521910449,-0.5558883274707369
1730865956.3338845,-1.626352071762085,1.0566904544830322,-10.058816909790039,-0.24781339193290264,-0.28703918006504303,-10.621041345142924,1.0105656204484241,4.338025352096427,-0.4984104953803391
1730865956.3839247,-1.6089198589324951,1.1275053024291992,-10.08283519744873,-0.24920360244406375,-0.2882179457021276,-10.620223121120954,1.0111021084124823,4.3188423209163025,-0.5579786540881598
1730865956.433835,-1.548673152923584,1.161179542541504,-10.08017635345459,-0.2507244586108094,-0.2893569456969228,-10.619452739858952,1.017249941058648,4.299105291835682,-0.5188019555103954
1730865956.4838657,-1.5168516635894775,1.1840696334838867,-10.051786422729492,-0.2523681158443649,-0.2904514743558472,-10.618734339960419,1.0220641945696067,4.278365124848441,-0.5159437270925813
1730865956.533793,-1.4813148975372314,1.1318827867507935,-9.987784385681152,-0.2541230436866574,-0.2914984328186634,-10.618074650123736,1.0247749630010685,4.257315344051966,-0.5696708308698033
1730865956.5838237,-1.4938756227493286,1.0512200593948364,-9.905617713928223,-0.25597411361204014,-0.2924961840251711,-10.61748204561896,1.026885138448639,4.235265435558001,-0.6505557131723928
1730865956.6337664,-1.5253958702087402,0.9455553293228149,-9.82075309753418,-0.2579029581852126,-0.29344381190674934,-10.616965345694513,1.028347003776298,4.212558194928026,-0.7576674047822415
1730865956.683823,-1.6069215536117554,0.8572342395782471,-9.72569751739502,-0.25988870926494284,-0.29433997798051326,-10.616532513603541,1.0301566064365377,4.1890606040317575,-0.5937438157951688
1730865956.7337284,-1.7038275003433228,0.803158164024353,-9.66273307800293,-0.26190913137270294,-0.2951817462717411,-10.616189438422012,1.030653394885222,4.164887280344534,-0.6538826109156283
1730865956.7837372,-1.8090814352035522,0.8006678223609924,-9.635173797607422,-0.26394205618657235,-0.2959637555522192,-10.61593898798252,1.034227216833196,4.139981863441206,-0.6004547603459442
1730865956.8336544,-1.8927173614501953,0.8072279691696167,-9.634767532348633,-0.26596690197007555,-0.2966779683576598,-10.615780524478886,1.0366410762476432,4.114366000377228,-0.5969453027650131
1730865956.883653,-1.9440635442733765,0.8602471947669983,-9.668485641479492,-0.26796599426701373,-0.29731398716991997,-10.615709960302677,1.0374862797920261,4.087976020057191,-0.6513356473142938
1730865956.9336395,-1.9826576709747314,0.9154075980186462,-9.733817100524902,-0.26992546176659493,-0.29785979238889365,-10.615720301902524,1.037660757354804,4.06075236341415,-0.73249437348459
1730865956.9837236,-1.9989776611328125,0.9727869033813477,-9.810914993286133,-0.27183564890539774,-0.29830273555330655,-10.615802587000413,1.0406533692892186,4.742176576168959,-0.649645860367701
1730865957.033659,-1.9968469142913818,1.0430967807769775,-9.891023635864258,-0.27369112032904314,-0.2986306048691941,-10.615947070407497,1.0408443162669434,4.739759613147703,-0.7084351640913041
1730865957.083661,-1.9078164100646973,1.1033395528793335,-9.982389450073242,-0.27549027812311677,-0.29883263167660196,-10.616144473188012,1.0403448356362797,4.736563490981637,-0.7946238751925859
1730865957.1336153,-1.811535358428955,1.1505705118179321,-10.037453651428223,-0.277234482391609,-0.2989003668087245,-10.616387136403482,1.0440127776841057,4.752722864975714,-0.6923990800116545
1730865957.1835968,-1.684177279472351,1.158101201057434,-10.068291664123535,-0.2789266603524959,-0.29882831470940524,-10.616669914137097,1.043906562513244,4.750304318173393,-0.7528187236329823
1730865957.2335598,-1.607757568359375,1.1402833461761475,-10.083259582519531,-0.28056967220502316,-0.29861418073280793,-10.616990649347096,1.0431044587816967,4.747151806462822,-0.839425235082381
1730865957.2836456,-1.5794684886932373,1.0847864151000977,-10.054425239562988,-0.2821648789725565,-0.2982586507509808,-10.617350194759267,1.0415968384440915,4.743242829865639,-0.9528532745476677
1730865957.3335211,-1.6266781091690063,1.0333889722824097,-10.00820255279541,-0.2837113425337876,-0.2977647468525995,-10.61775201473872,1.048567923101124,4.733149975925577,-0.757550641140643
1730865957.3835816,-1.7076492309570312,0.985153317451477,-9.948284149169922,-0.28520589223537174,-0.2971369401768897,-10.618201423405223,1.0517099051873342,4.716437992557965,-0.742858364477492
1730865957.4335127,-1.7534598112106323,0.9991579055786133,-9.872818946838379,-0.286643926598218,-0.2963803110329014,-10.618704583293518,1.0522474595706282,4.705594036805222,-0.7997305280254486
1730865957.4836228,-1.761965274810791,1.019677996635437,-9.80775260925293,-0.28802045117170816,-0.29550005517752925,-10.619267418787539,1.052063456186129,4.6938969950655505,-0.8840092370348935
1730865957.5335631,-1.7332777976989746,1.0601274967193604,-9.740081787109375,-0.28933079991057264,-0.29450145411183837,-10.619894579060825,1.0511587068629813,4.681579154663069,-0.9940229343299669
1730865957.5835302,-1.7360866069793701,1.0578792095184326,-9.706241607666016,-0.29057084448218234,-0.29339014237126226,-10.620588578824297,1.0495280841889896,4.66850398215739,-1.130768383027986
1730865957.633568,-1.7078824043273926,1.0534155368804932,-9.675688743591309,-0.29173688793362246,-0.2921723597188356,-10.621349226574743,1.0559648926662886,4.677696966764394,-0.8462813359656607
1730865957.683474,-1.7233083248138428,1.0290294885635376,-9.678693771362305,-0.29282550279706737,-0.2908549771302106,-10.622173395745893,1.055384049041592,4.669605527318891,-0.908538905414349
1730865957.733404,-1.7296462059020996,1.0342074632644653,-9.693284034729004,-0.2938334547846402,-0.28944531608179924,-10.623055135019726,1.0605153479519733,4.650718774214304,-0.8465181844449964
1730865957.7834828,-1.7782323360443115,1.0552161931991577,-9.738544464111328,-0.294757796085439,-0.2879509535467025,-10.623986091159694,1.0608614796797307,4.637355190869545,-0.9063705810488223
1730865957.833414,-1.8271551132202148,1.1032934188842773,-9.756502151489258,-0.2955961760659233,-0.28637971722322675,-10.624956172824886,1.0604696284931354,4.623452624050505,-0.9918411394597461
1730865957.8834038,-1.8970963954925537,1.1459044218063354,-9.80887222290039,-0.2963473546687435,-0.28473994104832445,-10.625954310188238,1.0593364184301346,4.608737251505079,-1.1044414902034358
1730865957.933347,-1.9201931953430176,1.1988476514816284,-9.833016395568848,-0.29701180550038964,-0.28304089101686036,-10.626969189205496,1.0637280765420338,4.616215392654992,-0.9157744860818628
1730865957.983341,-1.93211030960083,1.2210768461227417,-9.855461120605469,-0.29759218184095804,-0.28129320222761417,-10.62798989598268,1.0630990178597575,4.607365025686769,-0.9773779881838488
1730865958.0332818,-1.8952357769012451,1.1917591094970703,-9.863088607788086,-0.29809342458431815,-0.279509131302772,-10.629006392546136,1.0678130108871597,4.605652307040793,-0.9231756301095093
1730865958.0833924,-1.8952357769012451,1.1917591094970703,-9.863088607788086,-0.29852247236822704,-0.2777024520101752,-10.63000977605812,1.0680669976151014,4.59839912149875,-0.9829074165621172
1730865958.0833924,-1.8420480489730835,1.143674373626709,-9.883455276489258,-0.29888772779242334,-0.27588802375292615,-10.63099236992451,1.0680661418553181,4.598347510395475,-0.983404525556799
1730865958.1332362,-1.7618697881698608,1.129366159439087,-9.8805570602417,-0.2991983807125591,-0.27408120641111566,-10.631947747398847,1.0700643657398046,4.594762388215052,-0.9554800714046874
1730865958.1833367,-1.694387674331665,1.115341305732727,-9.905627250671387,-0.29946353625069444,-0.27229727013802957,-10.632870751173243,1.0700884305466207,4.588283749330802,-1.0109261978562507
1730865958.2332082,-1.6100733280181885,1.094612956047058,-9.931663513183594,-0.2996911982139387,-0.27055091700124023,-10.633757540383556,1.06936564721407,4.581190676511656,-1.0923422250734043
1730865958.2832747,-1.5418109893798828,1.0807050466537476,-9.972339630126953,-0.29988729328194463,-0.26885593459580337,-10.634605719372331,1.073408528390376,4.580890326116121,-1.0043533803839308
1730865958.3331993,-1.499990701675415,1.0729589462280273,-10.015694618225098,-0.30005487725872493,-0.2672249297066033,-10.635414571212957,1.07491899014854,4.575108469311807,-0.9999688283180282
1730865958.383289,-1.4388550519943237,1.0682786703109741,-10.016959190368652,-0.3001936101168923,-0.2656691461899548,-10.636185315817366,1.0748033111702802,4.56869565609111,-1.0572557115999341
1730865958.4332135,-1.4234479665756226,1.0768064260482788,-10.036955833435059,-0.300299509138805,-0.26419839392482,-10.6369212387762,1.0777947574641074,4.565732684883247,-1.0315407469516533
1730865958.4831707,-1.4432932138442993,1.1116139888763428,-10.005428314208984,-0.300364987780027,-0.26282111485938126,-10.637627591112304,1.077978034136497,4.559875720344891,-1.0913477809463044
1730865958.5341525,-1.5085569620132446,1.1484904289245605,-9.962830543518066,-0.30037930573911076,-0.2615446334492143,-10.638311234729873,1.077395844165609,4.553331219000247,-1.1784782502941078
1730865958.5831633,-1.5824558734893799,1.1850098371505737,-9.87814998626709,-0.3003295041550732,-0.2603755760153913,-10.638979992482811,1.0794062081577342,4.552352770104189,-1.0848204958194452
1730865958.6341417,-1.7026240825653076,1.1562330722808838,-9.797066688537598,-0.30020171980824184,-0.25932028717185024,-10.63964170462886,1.0785867900487494,4.5467806169058385,-1.1468742190041818
1730865958.6841717,-1.8434793949127197,1.0966352224349976,-9.701960563659668,-0.29998274680631487,-0.25838494802847173,-10.640303110879547,1.077020687198555,4.540645260605399,-1.234853484564684
1730865958.7341104,-1.9647480249404907,1.0394996404647827,-9.635427474975586,-0.29966174082726316,-0.257575213159433,-10.64096874466084,1.074716501537331,4.53390178830171,-1.3488446652705162
1730865958.7841659,-2.0362460613250732,0.9632866978645325,-9.589738845825195,-0.29923181486348616,-0.2568954943978572,-10.64164003983462,1.0803020094435427,4.535802882196752,-1.1538389169933838
1730865958.8331368,-2.0580220222473145,0.9396564364433289,-9.595098495483398,-0.2986911376529999,-0.2563481862495798,-10.642314837040098,1.0792426894881084,4.530799620878434,-1.2141887739923016
1730865958.8841126,-2.0260348320007324,0.9472898840904236,-9.640368461608887,-0.2980432599605509,-0.2559331251706292,-10.642987431386734,1.0810447470473388,4.5246063843761934,-1.1614940699680225
1730865958.9341154,-1.9630955457687378,1.0134309530258179,-9.721592903137207,-0.29729664006587814,-0.2556475420109067,-10.643649210824245,1.079886917846088,4.518095068592126,-1.2212623838070908
1730865958.984118,-1.895137906074524,1.0919886827468872,-9.815616607666016,-0.29646354905959293,-0.25548661483504076,-10.64428979635084,1.0816692493953737,4.50994544260265,-1.1826634064762072
1730865959.0339692,-1.8222602605819702,1.1473636627197266,-9.905097961425781,-0.2955586625379481,-0.2554444627584408,-10.644898462388413,1.0806147746558106,4.501762439338015,-1.2417435088342308
1730865959.0840662,-1.7455374002456665,1.1361726522445679,-9.956357955932617,-0.2945976211392355,-0.25551516601790747,-10.645465536381224,1.0837371807631426,4.490438903369075,-1.2076910435088843
1730865959.1339521,-1.700907826423645,1.1482601165771484,-10.000899314880371,-0.2935957317005124,-0.2556933877587226,-10.645983490312577,1.0833852246425555,4.479889633891471,-1.2668919021117138
1730865959.1839936,-1.7207727432250977,1.1174755096435547,-10.020934104919434,-0.29256699119347895,-0.25597451027940926,-10.646447588957527,1.0822953264009474,4.468634508342298,-1.3531783300080582
1730865959.233999,-1.7523990869522095,1.134559988975525,-9.988039016723633,-0.2915236637225233,-0.25635449749028616,-10.646856096315243,1.0842702332440008,4.471920623969976,-1.2569858751964234
1730865959.2839696,-1.8286563158035278,1.1376848220825195,-9.950651168823242,-0.2904764776055697,-0.25682972430774376,-10.647210031336943,1.0831655753128133,4.465164426930844,-1.3169988261788421
1730865959.3339097,-1.8731988668441772,1.1633003950119019,-9.883402824401855,-0.2894352609747692,-0.2573969225756998,-10.647512504983888,1.0857871392043776,4.457117673617441,-1.2722727241938443
1730865959.3839538,-1.87714421749115,1.2097761631011963,-9.829784393310547,-0.28840967658432104,-0.25805328926723015,-10.647767799690603,1.086815276804965,4.453570295596212,-1.2718702334238974
1730865959.43391,-1.87714421749115,1.2097761631011963,-9.829784393310547,-0.28740969202978306,-0.25879672030733164,-10.647980444686539,1.086264800965543,4.447092647793059,-1.3267867885133493
1730865959.43391,-1.8527741432189941,1.2444229125976562,-9.779115676879883,-0.2864456400625127,-0.2596260453218924,-10.648154535632223,1.0862582340635532,4.447043251094314,-1.3272810286636942
1730865959.483997,-1.7791498899459839,1.2536530494689941,-9.761033058166504,-0.28552793128855597,-0.26054116126786814,-10.648293319104074,1.0849710261207264,4.439774507444462,-1.4102933192720686
1730865959.5338774,-1.7433054447174072,1.2289862632751465,-9.7857084274292,-0.2846664775896054,-0.2615430483902683,-10.648398936249283,1.087591899003452,4.426101970349764,-1.3261315590259488
1730865959.583923,-1.7001326084136963,1.2023404836654663,-9.813427925109863,-0.28386997486330534,-0.2626335909401306,-10.648472416051149,1.0868008962341889,4.41509988207929,-1.3819837676110063
1730865959.6338441,-1.658395528793335,1.1724835634231567,-9.855494499206543,-0.2831452828424396,-0.26381515875266903,-10.648514008893109,1.0888130452625466,4.396424596945177,-1.3420067969010665
1730865959.6838272,-1.589672565460205,1.1396898031234741,-9.88569164276123,-0.28249694901209577,-0.2650900741024238,-10.648523719622123,1.0900215845071972,4.381216907236037,-1.3436711851749794
1730865959.733828,-1.5081108808517456,1.1046420335769653,-9.922158241271973,-0.2819267357560936,-0.2664600897211695,-10.648501852994091,1.0895667111484941,4.3652571012782895,-1.3996287240178695
1730865959.7838185,-1.4295170307159424,1.1049782037734985,-9.95274543762207,-0.28143306037603816,-0.2679259449276742,-10.648449480712397,1.0884009693003538,4.348582301139763,-1.4825611362810291
1730865959.833836,-1.4276865720748901,1.1359474658966064,-9.951932907104492,-0.2810104750530057,-0.26948712856558665,-10.648368782932678,1.0865341992897124,4.331296489346362,-1.5918911926333918
1730865959.8838398,-1.4276865720748901,1.1359474658966064,-9.951932907104492,-0.28064949775559667,-0.27114195422300164,-10.648263191789026,1.0900136576952948,4.335759163383742,-1.4269896542688416
1730865959.8838398,-1.4848183393478394,1.1582427024841309,-9.916403770446777,-0.2803369932139539,-0.27288783697042673,-10.648137282577087,1.090008196250736,4.335693042069698,-1.4272860971699013
1730865959.9337692,-1.5948827266693115,1.1681678295135498,-9.850994110107422,-0.2800570887919275,-0.27472158323511275,-10.647996396882299,1.0911885955505436,4.319093002394372,-1.421964482373498
1730865959.9839382,-1.5948827266693115,1.1681678295135498,-9.850994110107422,-0.27979246854527634,-0.27663962779819573,-10.647846045139435,1.09054142920661,4.304262260095577,-1.4746388279483602
1730865959.9839382,-1.7093874216079712,1.1369863748550415,-9.79179573059082,-0.279525698338578,-0.27863816220659543,-10.647691288390819,1.0905353747919073,4.304170427377988,-1.4750388962244592
1730865960.0338023,-1.8193243741989136,1.1080282926559448,-9.737626075744629,-0.27924041755595286,-0.28071305975537997,-10.647536221306291,1.0918689820443843,4.305330416969567,-1.4583575369766577
1730865960.083812,-1.884267807006836,1.1029753684997559,-9.714607238769531,-0.2789225595558412,-0.2828596315894987,-10.64738347799698,1.091285795565156,4.298159463920618,-1.5120775441589238
1730865960.1337838,-1.9105286598205566,1.1115912199020386,-9.716594696044922,-0.27856145968430523,-0.2850724174665691,-10.64723383636688,1.0900053923698265,4.2902775961417365,-1.5924326566075375
1730865960.1837988,-1.9257912635803223,1.116139531135559,-9.744019508361816,-0.2781504560566991,-0.2873451741150478,-10.647086149947466,1.0926587453382959,4.2851524355356965,-1.5076409156794799
1730865960.2337227,-1.9447674751281738,1.1083884239196777,-9.78177261352539,-0.27768694485984313,-0.28967101356475156,-10.64693766602385,1.0917761637953038,4.277174058398435,-1.5671552660014205
1730865960.28374,-1.942165493965149,1.0875669717788696,-9.824285507202148,-0.2771721355360317,-0.29204252433326655,-10.646784613074395,1.0938970877006022,4.266963811872848,-1.5262789979718572
1730865960.3336928,-1.9253342151641846,1.0885087251663208,-9.844911575317383,-0.2766106522107826,-0.2944517882150431,-10.646622880881335,1.0931875868183338,4.256946345381496,-1.5852858856739582
1730865960.383695,-1.8715403079986572,1.0781447887420654,-9.8873929977417,-0.276009954814837,-0.29689035449038614,-10.64644863088508,1.0917821327537858,4.246126130486779,-1.6713071540255182
1730865960.4336674,-1.8378441333770752,1.0401469469070435,-9.917705535888672,-0.2753795439726159,-0.29934922284728943,-10.646258789236603,1.089696549123575,4.234616163370788,-1.7834365766872087
1730865960.48365,-1.7672381401062012,1.032460331916809,-9.951805114746094,-0.27473002570936833,-0.3018187739594903,-10.646051461024319,1.0953306941969527,4.243350109347521,-1.6024571898609783
1730865960.5337403,-1.7021394968032837,1.0370874404907227,-9.975760459899902,-0.2740721334945441,-0.3042886734962571,-10.645826266598165,1.0945790584543287,4.237074141279825,-1.6649526007541176
1730865960.5838394,-1.65043306350708,1.073177456855774,-10.0149564743042,-0.27341576257186884,-0.30674793182376214,-10.645584582607132,1.0991931903881575,4.229971146899209,-1.615001939899438
1730865960.6337297,-1.6014059782028198,1.14634108543396,-10.020565032958984,-0.2727691205441074,-0.3091852660554888,-10.645329697244751,1.0994376581173986,4.222225838235477,-1.6756796228567943
1730865960.6836996,-1.5850491523742676,1.22859787940979,-9.987622261047363,-0.2721381199546957,-0.3115898002403503,-10.645066810819666,1.1028640331749906,4.213651080428683,-1.6400085874899986
1730865960.733647,-1.6096011400222778,1.2526041269302368,-9.945744514465332,-0.2715261087253998,-0.3139519657332202,-10.644802728135392,1.1034171894227904,4.204277808521735,-1.701199383061193
1730865960.7837098,-1.665219783782959,1.2559261322021484,-9.857342720031738,-0.2709340430294815,-0.31626423813526405,-10.64454518528029,1.1032883345492213,4.194053437797203,-1.7896426379387482
1730865960.8336103,-1.7471556663513184,1.2027697563171387,-9.769553184509277,-0.27036113781432924,-0.3185213698165011,-10.644301878913907,1.1024897453615505,4.183183988805417,-1.90326470004812
1730865960.8836133,-1.8258168697357178,1.1118991374969482,-9.667461395263672,-0.2698058756107137,-0.3207200139022638,-10.64407931013946,1.1062165845671033,4.171442046934948,-1.7211370475309575
1730865960.9335773,-1.8258168697357178,1.1118991374969482,-9.667461395263672,-0.26926707991856885,-0.32285789989376645,-10.64388168227444,1.1057517797182166,4.158908962212746,-1.784021944787232
1730865960.9335773,-1.8815194368362427,1.0185134410858154,-9.608986854553223,-0.2687446945336862,-0.3249329410735877,-10.643710188286033,1.1057441474508198,4.158786075947098,-1.784746373064711
1730865960.9835758,-1.8734042644500732,0.954424262046814,-9.58102798461914,-0.2682401617278624,-0.326942471267602,-10.643562758373129,1.1084180778561492,4.14550819988675,-1.7461058742648485
1730865961.033538,-1.8734042644500732,0.954424262046814,-9.58102798461914,-0.2677565164529264,-0.328882558859136,-10.643434059846115,1.1083876064121125,4.13134784691718,-1.802604590281732
1730865961.033538,-1.824157476425171,0.9195178747177124,-9.613903045654297,-0.2672982152816553,-0.3307475462646375,-10.643315715555717,1.1083845414449645,4.131226053263907,-1.8031884765764703
1730865961.0836797,-1.7324042320251465,0.9404146075248718,-9.695297241210938,-0.266870620299566,-0.33252997604393386,-10.643196900519378,1.1076831059514836,4.116242132428567,-1.8863766977233738
1730865961.133535,-1.6441199779510498,0.9858413338661194,-9.814929962158203,-0.266479103294434,-0.3342208466459198,-10.643065398071327,1.109499992646709,4.100469108595878,-1.7921752021173363
1730865961.1836119,-1.5686087608337402,1.074684739112854,-9.920032501220703,-0.2661279069373096,-0.33581021485465196,-10.642909049464848,1.1087301411756003,4.083756282950204,-1.8478268307705665
1730865961.2334654,-1.542607307434082,1.151999592781067,-10.003628730773926,-0.2658191011528055,-0.33728817279117285,-10.642717329197506,1.1096272318549192,4.066258945467852,-1.8057326901160375
1730865961.283573,-1.5542049407958984,1.2301385402679443,-10.041191101074219,-0.2655519769373854,-0.3386460155673898,-10.64248265263173,1.1085033889172078,4.04783187255406,-1.862572720261533
1730865961.3333614,-1.6225168704986572,1.2406723499298096,-10.066964149475098,-0.2653230675222053,-0.3398772824615094,-10.642201145106629,1.1067320444676545,4.028736783748893,-1.945262717280093
1730865961.3834236,-1.7253564596176147,1.2138913869857788,-10.027120590209961,-0.2651268282190968,-0.3409783442969251,-10.641872812655315,1.104280789214281,4.008613432423547,-2.055341303184876
1730865961.4334004,-1.8377536535263062,1.1672279834747314,-9.96264362335205,-0.2649568593162717,-0.3419483476788043,-10.641501134177389,1.1085226888908823,3.987717611071274,-1.8743563450380265
1730865961.4834306,-1.8791604042053223,1.118408203125,-9.90227222442627,-0.2648073518145546,-0.342788619596236,-10.641092149525871,1.107117651162532,3.9659058383070946,-1.9352387792280632
1730865961.5334456,-1.8703622817993164,1.049418330192566,-9.87574577331543,-0.26467423647047295,-0.34350180892411286,-10.640653317592427,1.1093619936322472,3.943252086354585,-1.879565715639266
1730865961.5833516,-1.7904411554336548,0.9940613508224487,-9.860814094543457,-0.26455557818553377,-0.3440909653337912,-10.640192532890753,1.1097137051773374,3.919872580553325,-1.8746002917429478
1730865961.6333067,-1.6464136838912964,0.9628157019615173,-9.86606502532959,-0.2644510552859841,-0.3445586891488868,-10.639717516380388,1.108681689007333,3.895522205102014,-1.9289618470374283
1730865961.683353,-1.5627888441085815,0.9482263922691345,-9.848698616027832,-0.2643606943122405,-0.3449065163174556,-10.639235536399156,1.1069837312085284,3.8702450876565693,-2.010152983287538
1730865961.7333167,-1.562458872795105,0.9341247081756592,-9.841981887817383,-0.26428343758349454,-0.34513463142354156,-10.63875328237678,1.1046279883260148,3.84416214841224,-2.1177906332635215
1730865961.783527,-1.5797141790390015,0.9555282592773438,-9.840194702148438,-0.26421628776439876,-0.3452418645206422,-10.638276764527774,1.1083554726582858,3.8170878752766626,-1.9548163397176315
1730865961.8334281,-1.656130313873291,1.0449622869491577,-9.828990936279297,-0.2641543319949172,-0.34522598018184814,-10.63781123690347,1.1069267390402364,3.789203484324448,-2.0165497054224395
1730865961.883437,-1.7408385276794434,1.130565881729126,-9.812065124511719,-0.2640914568974134,-0.345084387956087,-10.637361143592916,1.1048423290812375,3.760549081562182,-2.104676536427068
1730865961.933372,-1.8037424087524414,1.1793253421783447,-9.80042552947998,-0.2640214406262838,-0.3448152007739401,-10.63693004079023,1.1021154449792576,3.7311963842948037,-2.218661917779981
1730865961.9834905,-1.8700915575027466,1.1633671522140503,-9.820185661315918,-0.2639390824358721,-0.3444181926507783,-10.636520526039682,1.1073139038894217,3.7007495940369806,-2.0144787015850594
1730865962.0333447,-1.9134926795959473,1.100498914718628,-9.80792236328125,-0.263841109179093,-0.3438951671620066,-10.63613427155017,1.1058874556686509,3.6694908881763584,-2.076447322824484
1730865962.083408,-1.9134926795959473,1.100498914718628,-9.80792236328125,-0.2637267494595338,-0.3432496493995933,-10.635772141440016,1.1073796410143568,3.637481209947436,-2.0203725539000854
1730865962.083408,-1.9817607402801514,0.9967160820960999,-9.799867630004883,-0.2635979656009911,-0.3424862175116397,-10.635434281978652,1.1073729337303588,3.6372717624234925,-2.020670805791573
1730865962.1332574,-2.009242534637451,0.8998187184333801,-9.762540817260742,-0.26345951173719634,-0.34160966709859564,-10.635120130420368,1.105990044788891,3.604117018019932,-2.080789843337082
1730865962.1833553,-2.0146119594573975,0.8520634174346924,-9.732019424438477,-0.26331897157418666,-0.34062399155899165,-10.634828303880987,1.1066494192392347,3.5707420942220214,-2.0368287446857267
1730865962.2332752,-1.9653370380401611,0.8578269481658936,-9.763777732849121,-0.2631866096227289,-0.3395314711432835,-10.634556420162289,1.1066440017470136,3.536173078457906,-2.03870422867443
1730865962.2832632,-1.8760980367660522,0.9307280778884888,-9.811843872070312,-0.2630747695826432,-0.3383323700414199,-10.63430112166911,1.1052340155036255,3.500533924381977,-2.093830091482666
1730865962.3331802,-1.8760980367660522,0.9307280778884888,-9.811843872070312,-0.2629968569683808,-0.33702535228725095,-10.63405845858382,1.1031779943004678,3.464293819806463,-2.1750869360689586
1730865962.3331802,-1.7786275148391724,1.0387083292007446,-9.875558853149414,-0.2629662560645322,-0.3356082898682412,-10.633824425677446,1.1031579609096909,3.4639859164357336,-2.1758812086850625
1730865962.3832405,-1.7020138502120972,1.1243410110473633,-9.926508903503418,-0.26299535946235125,-0.3340792252516627,-10.633595493673793,1.1004503243301222,3.4269929831181116,-2.283489486480879
1730865962.4332123,-1.6601722240447998,1.1989141702651978,-9.964488983154297,-0.2630946140701521,-0.33243747900492,-10.633369184210036,1.1044829303798194,3.3892098523161054,-2.1283197301561088
1730865962.4832904,-1.6342209577560425,1.2611186504364014,-9.975395202636719,-0.2632717096640248,-0.330684727422815,-10.633144592428236,1.1030756102080252,3.3500932754729713,-2.186807807819198
1730865962.5331616,-1.622498869895935,1.2675787210464478,-9.962905883789062,-0.26353116290428175,-0.32882575153504734,-10.63292263496367,1.1046328950295121,3.3107481566472328,-2.139414599566232
1730865962.5832772,-1.639206886291504,1.2061913013458252,-9.937066078186035,-0.263874305085205,-0.3268686459430595,-10.632705937591586,1.1033577470853462,3.2699398834101028,-2.1981488212746636
1730865962.6331246,-1.6860491037368774,1.1449236869812012,-9.880510330200195,-0.2642996027186839,-0.3248243538809064,-10.632498406887878,1.1014507522773223,3.2290161440825735,-2.2821973093421914
1730865962.6834114,-1.7109571695327759,1.0855287313461304,-9.83228588104248,-0.2648032713121892,-0.32270565789422045,-10.632304565524052,1.1042345225042969,3.1865613733788454,-2.1860795693792268
1730865962.7330935,-1.709753394126892,1.0741137266159058,-9.788422584533691,-0.26537999970621956,-0.3205260512320425,-10.632128777190022,1.102966500072696,3.14315693429399,-2.2476279350382997
1730865962.7832174,-1.6724727153778076,1.0828081369400024,-9.795247077941895,-0.26602347462603815,-0.3182989046129558,-10.631974571764449,1.1049873969166735,3.100538765025428,-2.1998687647245116
1730865962.8330767,-1.6206578016281128,1.0981696844100952,-9.837224006652832,-0.2667265054357367,-0.31603709730660345,-10.631844320039232,1.1040179437538924,3.055292846750455,-2.2590130410920137
1730865962.8830912,-1.5427521467208862,1.13316011428833,-9.84755802154541,-0.2674807602650088,-0.31375302715970543,-10.631739364358863,1.1053226926637856,3.0118279830782293,-2.219662199298563
1730865962.933006,-1.5629488229751587,1.1618047952651978,-9.863628387451172,-0.26827632297045123,-0.3114588341999925,-10.631660407829077,1.1043179109893624,2.9658974232911337,-2.276612724877645
1730865962.9830446,-1.629149079322815,1.215698003768921,-9.845447540283203,-0.2691015102094234,-0.30916673429512614,-10.631607842689782,1.1026356199739975,2.9189932569453085,-2.3604446396145984
1730865963.0340078,-1.6967530250549316,1.2590280771255493,-9.838217735290527,-0.26994333267661946,-0.3068894177821865,-10.631581867649055,1.1002291015027896,2.8704715046563076,-2.4731509253185524
1730865963.084012,-1.7413307428359985,1.2730633020401,-9.82457160949707,-0.27078847116134336,-0.3046404410140145,-10.631582430429939,1.10465167845618,2.822642881219765,-2.2931438219717464
1730865963.1339903,-1.7646113634109497,1.2583575248718262,-9.81188678741455,-0.27162427566586256,-0.3024344367739482,-10.631609100609374,1.1033378060582273,2.773457983905019,-2.3547879989313194
1730865963.1839724,-1.7786732912063599,1.2127102613449097,-9.802888870239258,-0.2724394500292764,-0.3002869663132566,-10.631660946939483,1.105168505957053,2.7243982941868077,-2.302168825978111
1730865963.233917,-1.8130278587341309,1.14822256565094,-9.807696342468262,-0.27322441212559373,-0.2982139747682033,-10.631736457121722,1.1039898993984765,2.673746327569034,-2.3618447387623167
1730865963.2838762,-1.809478998184204,1.100132703781128,-9.810400009155273,-0.2739714766879654,-0.29623096462596776,-10.631833542613728,1.1021297864703758,2.6224591051415245,-2.4479739125567526
1730865963.333905,-1.797210454940796,1.1131501197814941,-9.829365730285645,-0.2746749055307519,-0.2943521646428986,-10.631949646195938,1.1050288285752867,11.494954678007918,-2.348808570920327
1730865963.383851,-1.7991148233413696,1.125964879989624,-9.836786270141602,-0.27533077222629565,-0.2925900426026861,-10.632081929811244,1.1038120335103954,11.741591848064024,-2.4096377192788188
1730865963.4338167,-1.7826963663101196,1.1695894002914429,-9.845488548278809,-0.27593669774457674,-0.2909553026631305,-10.632227490956886,1.1054576785552386,9.81447425300313,-2.3690699578708245
1730865963.4838102,-1.7767739295959473,1.2048052549362183,-9.856528282165527,-0.2764915640506037,-0.28945723285780456,-10.632383549611408,1.1043358117036304,9.870774066125648,-2.4299888400458474
1730865963.5337822,-1.8129676580429077,1.1983704566955566,-9.851751327514648,-0.27699527705078125,-0.28810416239545616,-10.632547581055148,1.1057006867764092,9.709944701116905,-2.3976375419775793
1730865963.5838563,-1.865580439567566,1.1427628993988037,-9.82577133178711,-0.2774487233882021,-0.28690372573931355,-10.632717357775801,1.1046074346171668,9.71909895589218,-2.4578827861067243
1730865963.633715,-1.881205439567566,1.0834192037582397,-9.824111938476562,-0.2778539961676255,-0.28586268132052756,-10.63289085257344,1.1026944247474713,9.728139575799034,-2.5508285125599244
1730865963.68373,-1.863053321838379,1.0553536415100098,-9.826824188232422,-0.2782146573567781,-0.2849863544454988,-10.63306607732516,1.105526002483726,9.707222981021491,-2.4477046663560045
1730865963.7337158,-1.8265241384506226,1.0528087615966797,-9.850543975830078,-0.27853570073805156,-0.28427807753905493,-10.633241022111726,1.1042586002160386,9.705205406578175,-2.5106950848896354
1730865963.7837036,-1.7715882062911987,1.0776413679122925,-9.877630233764648,-0.2788231179019509,-0.2837389623064742,-10.633413775452025,1.1024146375542603,9.702654368303973,-2.594593707764353
1730865963.8336518,-1.7354477643966675,1.0973707437515259,-9.941924095153809,-0.2790832118898482,-0.28336807070628145,-10.633582822623394,1.1055514969887263,9.695624607228623,-2.490197545120214
1730865963.8837056,-1.689695954322815,1.1317925453186035,-9.966397285461426,-0.2793218710094471,-0.28316284530103464,-10.633747490446058,1.104333797830365,9.690225716632282,-2.5512584739669184
1730865963.9335935,-1.6389662027359009,1.1293141841888428,-9.971222877502441,-0.2795439341770932,-0.28311960665355884,-10.6339083857436,1.1024413211395208,9.684206000273681,-2.637775808124465
1730865963.9836588,-1.6623183488845825,1.1505361795425415,-9.938908576965332,-0.2797527103920019,-0.28323396296653763,-10.634067569666303,1.1052349174877025,9.682400694733763,-2.5283334120734966
1730865964.0335605,-1.685981035232544,1.114296793937683,-9.907242774963379,-0.279949809840579,-0.28350104946614335,-10.634228338294195,1.1038052551250959,9.676453724467619,-2.5912335063940715
1730865964.0836053,-1.7127622365951538,1.098321795463562,-9.828071594238281,-0.28013539718016345,-0.28391555795770673,-10.634394672576867,1.1052946143858908,9.669055966935558,-2.5393495461202096
1730865964.1335196,-1.7381293773651123,1.0863145589828491,-9.812661170959473,-0.280308697457178,-0.2844715869102897,-10.634570499785795,1.1039619737556794,9.661362084816414,-2.59691727755258
1730865964.1835907,-1.7394286394119263,1.1070185899734497,-9.751754760742188,-0.2804684952183386,-0.2851624905273781,-10.634758966177799,1.105106027125715,9.655609368583931,-2.5559251517819437
1730865964.2335656,-1.7783422470092773,1.099996566772461,-9.74980354309082,-0.280613515443089,-0.2859808968842278,-10.634961890308523,1.1037613049370762,9.647628308787358,-2.6119243756537167
1730865964.2834716,-1.775434136390686,1.1180026531219482,-9.734968185424805,-0.28074271404457585,-0.28691886624791657,-10.635179455488474,1.1017166152575213,9.638948845604304,-2.694433630311028
1730865964.3334875,-1.775434136390686,1.1180026531219482,-9.734968185424805,-0.28085548972522884,-0.2879680806523636,-10.635410146962549,1.103971614596304,9.642359814149852,-2.5995573121960835
1730865964.3334875,-1.7961090803146362,1.0978853702545166,-9.74190616607666,-0.28095177609220223,-0.28911999448624115,-10.635650880998435,1.1039616412098898,9.642319189558979,-2.599931478545466
1730865964.3834748,-1.8024729490280151,1.096219539642334,-9.761283874511719,-0.28103207422309184,-0.29036588079235215,-10.635897257869155,1.1024113990037507,9.637067817862427,-2.6582063284144715
1730865964.4334664,-1.8024729490280151,1.096219539642334,-9.761283874511719,-0.2810975005335389,-0.2916967936291762,-10.636143901415249,1.1039273871644293,9.632875116001692,-2.608041555422744
1730865964.4334664,-1.8615046739578247,1.0873790979385376,-9.789366722106934,-0.2811498494278729,-0.2931035518208223,-10.636384823076503,1.103919589494318,9.63282981530148,-2.608360421448161
1730865964.4834557,-1.8906596899032593,1.113863468170166,-9.796687126159668,-0.28119175552591114,-0.29457678947263327,-10.636613770549982,1.1026133050217448,9.626909067366874,-2.6607037570879166
1730865964.533443,-1.8906596899032593,1.113863468170166,-9.796687126159668,-0.28122696867548413,-0.29610708365189853,-10.636824542395406,1.100604564953698,9.620236096007917,-2.7396267366714286
1730865964.533443,-1.8843986988067627,1.1354656219482422,-9.818350791931152,-0.2812605066631836,-0.29768515248399674,-10.637011223001323,1.1005918972031739,9.620198295859282,-2.7401216818832226
1730865964.5834439,-1.8520234823226929,1.1645499467849731,-9.829914093017578,-0.2812985090383066,-0.29930208686093485,-10.637168362228351,1.0978659581197325,9.612745559108953,-2.84618161312338
1730865964.6334517,-1.8085271120071411,1.176212191581726,-9.861815452575684,-0.281347826595697,-0.30094961142224574,-10.637291179599268,1.103068859933172,9.615353544781595,-2.654264143873051
1730865964.6834452,-1.8085271120071411,1.176212191581726,-9.861815452575684,-0.2814154698762233,-0.3026203237945842,-10.637375793984207,1.1017344741315704,9.609894220261904,-2.7082980559743404
1730865964.6834452,-1.7181299924850464,1.1627516746520996,-9.876137733459473,-0.2815080505689372,-0.3043077893638664,-10.637419401424665,1.1017264346907591,9.609866406456142,-2.70861906512816
1730865964.7333987,-1.6924563646316528,1.1392431259155273,-9.905946731567383,-0.28163121245774136,-0.30600643729970256,-10.637420372612452,1.1031410032079147,9.602730253815743,-2.671718762582909
1730865964.7834475,-1.6710063219070435,1.1597439050674438,-9.915834426879883,-0.28178905197493515,-0.3077113382331604,-10.637378341508947,1.102000801667988,9.595484156391429,-2.7241111523219375
1730865964.8333828,-1.6623401641845703,1.1732234954833984,-9.910504341125488,-0.28198373217722483,-0.3094180494424416,-10.637294287077356,1.1000873891534504,9.58713799888805,-2.8060774575631604
1730865964.8834436,-1.664509892463684,1.188157320022583,-9.918722152709961,-0.2822154066901811,-0.3111226452626303,-10.637170504965017,1.0975626790294686,9.578387720688399,-2.910672643146545
1730865964.933397,-1.664509892463684,1.188157320022583,-9.918722152709961,-0.28248235817285827,-0.3128218420340247,-10.637010468318815,1.1021502927248419,9.5821226139956,-2.7370995096465283
1730865964.933397,-1.6572636365890503,1.1673773527145386,-9.908549308776855,-0.28278123285362267,-0.3145130481372889,-10.63681865565841,1.1021436656084407,9.58208768191713,-2.7373874476510602
1730865964.9834638,-1.6591688394546509,1.130024790763855,-9.90406608581543,-0.2831072818114464,-0.3161942285199755,-10.636600349730818,1.1006876444710918,9.575900464347843,-2.798544731861548
1730865965.0333724,-1.6591688394546509,1.130024790763855,-9.90406608581543,-0.28345457907513427,-0.31786359393014074,-10.636361406642756,1.1028257879905632,9.56715551405905,-2.746089884364333
1730865965.0333724,-1.6374982595443726,1.1253414154052734,-9.897210121154785,-0.28381621914953714,-0.3195192880386747,-10.636108046561324,1.1028221118755257,9.567114752581412,-2.7463050121660064
1730865965.0834715,-1.6374982595443726,1.1253414154052734,-9.897210121154785,-0.2841844580300059,-0.32115923454746304,-10.635846685270527,1.1031654635486388,9.556764996561894,-2.7510064099790905
1730865965.0834715,-1.6542800664901733,1.1127800941467285,-9.890379905700684,-0.28455082496880746,-0.3227811112091569,-10.635583788004483,1.1031626750685541,9.556718030793418,-2.751189126676334
1730865965.1333466,-1.6542800664901733,1.1127800941467285,-9.890379905700684,-0.2849063135648324,-0.3243823404980206,-10.635325739005177,1.1022197989647973,9.546368234877672,-2.803041238413748
1730865965.1333466,-1.6624219417572021,1.1077226400375366,-9.87459659576416,-0.2852416517066871,-0.32596007209860967,-10.635078720049068,1.1022133357534865,9.54631458501264,-2.803365618917157
1730865965.183495,-1.6624219417572021,1.1077226400375366,-9.87459659576416,-0.2855475508168313,-0.3275111865046662,-10.634848581952625,1.1005521250410473,9.53508381574536,-2.8821099169958075
1730865965.183495,-1.6803877353668213,1.1172305345535278,-9.872438430786133,-0.2858149089283222,-0.32903233685440714,-10.634640724006855,1.100542412256308,9.535027809728932,-2.8825528428962737
1730865965.2333581,-1.6642932891845703,1.1443051099777222,-9.851571083068848,-0.28603499086244133,-0.33052005990010225,-10.634460003612046,1.1025752147370096,9.536915401382895,-2.8048421392363254
1730865965.2835011,-1.6642932891845703,1.1443051099777222,-9.851571083068848,-0.28619954940027864,-0.3319709777807056,-10.634310645366977,1.1014058102045887,9.530110990815249,-2.856978631081325
1730865965.2835011,-1.676072597503662,1.1518168449401855,-9.866317749023438,-0.2863008698550059,-0.3333820135607598,-10.634196162499457,1.1013984243307184,9.530076066473406,-2.857295085316777
1730865965.3333554,-1.676072597503662,1.1518168449401855,-9.866317749023438,-0.2863318190878218,-0.33475051881146234,-10.634119379340325,1.1024745312421278,9.520639684779177,-2.831594428994344
1730865965.3333554,-1.688549518585205,1.173169493675232,-9.839729309082031,-0.2862859448346913,-0.33607432998995346,-10.63408251735887,1.1024698323005,9.520584443177595,-2.831839831160692
1730865965.3832452,-1.688549518585205,1.173169493675232,-9.839729309082031,-0.2861575835223441,-0.33735183203246794,-10.634087194195041,1.1013559511559168,9.511235808191227,-2.8846769745059913
1730865965.3832452,-1.7406500577926636,1.1670211553573608,-9.839791297912598,-0.28594198415823835,-0.3385820198682661,-10.634134341151604,1.1013471241614425,9.511177085304329,-2.885073809238719
1730865965.4331973,-1.7592371702194214,1.1434805393218994,-9.807424545288086,-0.28563553054225777,-0.33976446164036417,-10.63422414597003,1.1025567894954047,9.508132068408873,-2.8595314519792683
1730865965.4832108,-1.7919294834136963,1.1425443887710571,-9.786770820617676,-0.28523605893962395,-0.34089912858243865,-10.63435597855047,1.101600256104019,9.500801973794333,-2.910767140924633
1730865965.5332005,-1.8289555311203003,1.1339582204818726,-9.734051704406738,-0.28474316257615695,-0.34198618579641427,-10.634528200184166,1.0999329040681876,9.492612236382417,-2.9885473310378825
1730865965.5832748,-1.906752586364746,1.1017496585845947,-9.722082138061523,-0.2841584848966344,-0.34302581806107535,-10.634737882313171,1.102229359339847,9.487462525038376,-2.903458442072695
1730865965.6332035,-1.9440362453460693,1.0649313926696777,-9.711519241333008,-0.2834860979696581,-0.3440180176887087,-10.634980572514237,1.1009275028939887,9.479095625083842,-2.9619865084205705
1730865965.6832056,-1.954621434211731,1.0486096143722534,-9.747272491455078,-0.2827328714555866,-0.3449622748495913,-10.63525027816443,1.100079609864052,9.46765027656899,-2.920973713019274
1730865965.733109,-1.9300211668014526,1.0519165992736816,-9.785317420959473,-0.2819085533606793,-0.3458572965518242,-10.635539768115839,1.0977874235118046,9.45633582956497,-2.9816601388679924
1730865965.7832572,-1.8917458057403564,1.0662336349487305,-9.863221168518066,-0.28102540733370657,-0.34670093228443505,-10.635841183047404,1.0948856755420502,9.444591281989341,-3.066355101900742
1730865965.8331983,-1.8261340856552124,1.0515388250350952,-9.917787551879883,-0.2800974723180488,-0.3474903121598798,-10.636146867774917,1.0912688467186318,9.431889767596573,-3.17793435827815
1730865965.8832433,-1.7325536012649536,1.0188775062561035,-9.973783493041992,-0.2791395577017,-0.34822200322285646,-10.636450261577277,1.0961414115005537,9.442535529846772,-2.9961685434124776
1730865965.9331484,-1.6438817977905273,1.0134690999984741,-9.997303009033203,-0.27816604885371793,-0.348892012471407,-10.636746639726859,1.0941067189531184,9.43594861238382,-3.0573335549942637
1730865965.9832146,-1.6068297624588013,1.0392526388168335,-10.010113716125488,-0.2771896932443182,-0.3494957341717179,-10.63703355660654,1.094203057339435,9.423594020178756,-3.004865869825782
1730865966.0331244,-1.6068297624588013,1.0392526388168335,-10.010113716125488,-0.2762207030694172,-0.3500280614421757,-10.63731095472453,1.0918923407674501,9.413352646004027,-3.0641840717792546
1730865966.0331244,-1.5930547714233398,1.1113393306732178,-9.983500480651855,-0.27526641005070474,-0.3504837130844845,-10.637580985298435,1.0918707460887154,9.413265809521203,-3.0647744289887773
1730865966.0831685,-1.6152253150939941,1.2080261707305908,-9.939994812011719,-0.2743313754378408,-0.35085779598597644,-10.637847580512027,1.0915600032632418,9.404680332208365,-3.0374524020314073
1730865966.1329873,-1.6628810167312622,1.2549554109573364,-9.904179573059082,-0.2734177713946497,-0.3511466493470377,-10.638115813765696,1.0892373337197583,9.393943029252055,-3.0925259944188697
1730865966.183079,-1.7237470149993896,1.2498868703842163,-9.840123176574707,-0.27252601306288665,-0.35134869244601175,-10.638391144026341,1.086203692929971,9.382215417921113,-3.174962589875694
1730865966.232996,-1.7540323734283447,1.1959750652313232,-9.810408592224121,-0.27165558986387794,-0.35146477512731567,-10.63867865284656,1.0881674782277913,9.37987633944075,-3.08578529744543
1730865966.282932,-1.7540323734283447,1.1959750652313232,-9.810408592224121,-0.27080584011551023,-0.35149788232089024,-10.638982408708955,1.0888555735248993,9.368999847635383,-3.0814168997672153
1730865966.282932,-1.7761001586914062,1.1373709440231323,-9.77637004852295,-0.2699764267613418,-0.35145250306501363,-10.639305104077156,1.088846482370425,9.368920002277251,-3.0817428762995362
1730865966.3329697,-1.7739691734313965,1.080772876739502,-9.734260559082031,-0.26916753328546794,-0.3513339349048755,-10.639647890918289,1.08730802885127,9.357919598818764,-3.1381392015626113
1730865966.3838212,-1.7863746881484985,1.0190056562423706,-9.72805404663086,-0.26837993197685495,-0.35114751829477553,-10.640010216265361,1.0887027682399273,9.352652155503684,-3.1070675006491504
1730865966.4338863,-1.7863746881484985,1.0190056562423706,-9.72805404663086,-0.26761499669809374,-0.3508978698380305,-10.640389698875463,1.0875209744156422,9.343015401280818,-3.1630023919207835
1730865966.4338863,-1.763444423675537,0.9958710074424744,-9.702902793884277,-0.26687465133078647,-0.3505883665365283,-10.640782181559834,1.087478503970333,9.342735060623736,-3.1649395774456597
1730865966.4838243,-1.7485802173614502,0.980993390083313,-9.72205638885498,-0.2661612063407606,-0.3502209625589384,-10.641181904029587,1.0856745586804717,9.332539104418755,-3.245397086869578
1730865966.5338418,-1.7739217281341553,0.9647471904754639,-9.749009132385254,-0.2654771236439497,-0.349796171785936,-10.641581757483443,1.0881634521325372,9.332825093737243,-3.1560785618015497
1730865966.5839176,-1.776928424835205,1.0090956687927246,-9.792386054992676,-0.2648248877430264,-0.3493131373889606,-10.641973717960202,1.0869814401578146,9.325224177338093,-3.212699147321946
1730865966.6337254,-1.7719019651412964,1.0469619035720825,-9.85647201538086,-0.26420703184289157,-0.34876992230023574,-10.64234948626995,1.0885339622337782,9.314085023695657,-3.172968204928033
1730865966.6840096,-1.742720127105713,1.0767850875854492,-9.918389320373535,-0.2636261382136099,-0.3481640694318938,-10.642701268281547,1.0874503609199737,9.303536438978808,-3.2315554014022134
1730865966.733826,-1.7308605909347534,1.0838773250579834,-9.983128547668457,-0.26308467716434747,-0.3474932179655672,-10.643022608220829,1.08898888440716,9.302149646210978,-3.196907150384209
1730865966.7839155,-1.7244657278060913,1.1198302507400513,-10.016728401184082,-0.2625847577617698,-0.3467555594764855,-10.643309143392623,1.088031251072998,9.294282807636309,-3.2560429653200114
1730865966.8337839,-1.7244657278060913,1.1198302507400513,-10.016728401184082,-0.26212794359384334,-0.34595013444289224,-10.64355910617823,1.0891771989092018,9.286484517088525,-3.2226906349291555
1730865966.8337839,-1.6922295093536377,1.1217204332351685,-10.01152515411377,-0.26171516555226304,-0.34507701423594594,-10.64377343497223,1.0891729313339604,9.286432022114514,-3.222966438110516
1730865966.8839517,-1.6949405670166016,1.091368556022644,-10.003122329711914,-0.2613466395459916,-0.34413731127749403,-10.643955523365301,1.088132152133404,9.277239537926297,-3.282374348853511
1730865966.9338105,-1.6541407108306885,1.079060673713684,-9.937772750854492,-0.2610217452037812,-0.34313298258100033,-10.644110736557877,1.0896742651204099,9.266142821672972,-3.243165672722531
1730865966.9837117,-1.6971153020858765,1.0559735298156738,-9.882655143737793,-0.26073893001024073,-0.3420665084251294,-10.64424571273773,1.0888182709508707,9.254736784700468,-3.298168216387165
1730865967.0336804,-1.7184339761734009,1.0200108289718628,-9.829143524169922,-0.2604957832643252,-0.3409405455754863,-10.644367466280404,1.0913365585323935,9.248226750840768,-3.265717377156113
1730865967.0837424,-1.7796587944030762,0.9819168448448181,-9.78043270111084,-0.2602893947552051,-0.3397575597690618,-10.644482476005685,1.0909565031259827,9.237510359242835,-3.3242530765655807
1730865967.1336548,-1.7767276763916016,0.9837790727615356,-9.749464988708496,-0.2601168973671484,-0.33851945185742893,-10.644595941788488,1.0899387298672376,9.226183423783002,-3.407948801119149
1730865967.1838517,-1.7815088033676147,1.03798508644104,-9.75819206237793,-0.2599759170996622,-0.33722737028753813,-10.644711306536603,1.0920624355444761,9.226075798771458,-3.315550899340684
1730865967.2337184,-1.7815088033676147,1.03798508644104,-9.75819206237793,-0.25986475140882126,-0.3358818968056562,-10.644830119011463,1.0911776953170123,9.217589974096928,-3.3759984240307177
1730865967.2337184,-1.7619465589523315,1.1153185367584229,-9.77953052520752,-0.25978232505653154,-0.3344835098775327,-10.644952209332367,1.0911675004596584,9.217515003118137,-3.3766197577042254
1730865967.283684,-1.7306779623031616,1.2181533575057983,-9.794438362121582,-0.25972800872512136,-0.3330332123064399,-10.645076041272821,1.0896365234844025,9.20822403331395,-3.4634580087374056
1730865967.3336196,-1.73723566532135,1.2622041702270508,-9.825244903564453,-0.2597013358566228,-0.3315333655507262,-10.645199139160255,1.0874632775131585,9.19811247143189,-3.5766177264832577
1730865967.3837023,-1.7728885412216187,1.2536513805389404,-9.841352462768555,-0.2597017846529306,-0.32998848871405523,-10.645318541090411,1.0925540909623723,9.200417640277957,-3.376031968165285
1730865967.4336104,-1.7957485914230347,1.2329119443893433,-9.852080345153809,-0.2597288310177305,-0.32840555259634213,-10.645431215294007,1.0915939143775093,9.192853965716433,-3.4344133190974655
1730865967.4835632,-1.8130037784576416,1.187165379524231,-9.869086265563965,-0.25978222469661094,-0.3267936577454081,-10.645534374586692,1.0936468875821679,9.183940031524894,-3.382193421050814
1730865967.5335834,-1.8130037784576416,1.187165379524231,-9.869086265563965,-0.2598622539828299,-0.32516337419410724,-10.645625681731893,1.0928055230048241,9.17459840992483,-3.44051230738258
1730865967.5335834,-1.8403993844985962,1.1168467998504639,-9.861696243286133,-0.2599698757997708,-0.32352603281742953,-10.645703353322398,1.0927961811683868,9.17452025533385,-3.441086263420882
1730865967.5836523,-1.8365612030029297,1.1099493503570557,-9.855596542358398,-0.2601067627521483,-0.32189305832439075,-10.645766143098363,1.0955509635432366,9.162748846373246,-3.413945676541935
1730865967.6335382,-1.8015090227127075,1.1125519275665283,-9.858222961425781,-0.260275273311552,-0.3202753947270821,-10.645813239376547,1.0968101696881603,9.145491459979377,-3.4188311347257776
1730865967.683565,-1.7416749000549316,1.0947171449661255,-9.853496551513672,-0.2604781964937954,-0.318683163106879,-10.645844163311573,1.0968383645282989,9.129952288642507,-3.473593970209123
1730865967.7336876,-1.707353949546814,1.0896289348602295,-9.870576858520508,-0.2607182058064002,-0.3171255288925563,-10.645858717245154,1.0962056714812924,9.113400605653759,-3.556095767071149
1730865967.7836096,-1.6856294870376587,1.0882185697555542,-9.87708854675293,-0.26099722437008105,-0.31561062505389337,-10.645856999574985,1.0949333934527563,9.096332162716735,-3.66376989863347
1730865967.833548,-1.6856732368469238,1.1131680011749268,-9.89499282836914,-0.2613159788691307,-0.3141455347979626,-10.645839485182236,1.098219359788615,9.107186659297259,-3.502354655375651
1730865967.8835711,-1.6620116233825684,1.1451038122177124,-9.884458541870117,-0.2616738288424513,-0.31273643306228427,-10.645807119244981,1.0973914745908528,9.098143700236434,-3.5640741162963354
1730865967.9334772,-1.6620116233825684,1.1451038122177124,-9.884458541870117,-0.2620687598350673,-0.311388876381617,-10.645761341085079,1.100079253478323,9.086175335466697,-3.513542403688621
1730865967.9334772,-1.6606212854385376,1.1801331043243408,-9.870457649230957,-0.26249744044633994,-0.31010810463412686,-10.645704001180185,1.1000782914551555,9.086103503668841,-3.5138429271854914
1730865967.9834714,-1.653437852859497,1.1797866821289062,-9.851520538330078,-0.26295533989347963,-0.3088992676533195,-10.645637194907508,1.0996034417434946,9.074702746484062,-3.5731829540405107
1730865968.0334425,-1.6758476495742798,1.1824043989181519,-9.821070671081543,-0.2634369065588259,-0.3077675704419203,-10.645563026154385,1.098473356260802,9.06250266258223,-3.659142934030772
1730865968.0835173,-1.7237505912780762,1.1566532850265503,-9.81063461303711,-0.263935849075232,-0.3067182832354476,-10.645483314645668,1.0966788668534284,9.04948530584908,-3.772085950890524
1730865968.1334534,-1.7996176481246948,1.1426687240600586,-9.782665252685547,-0.26444564144966115,-0.3057565739218858,-10.645399313851208,1.1014102033883946,9.06206002582609,-3.5599545859405257
1730865968.1835039,-1.8628112077713013,1.1092867851257324,-9.77823543548584,-0.2649602858835298,-0.30488721360311855,-10.645311498032981,1.1004883756119168,9.055572395019722,-3.618677749687213
1730865968.2334023,-1.8774480819702148,1.0935637950897217,-9.79169750213623,-0.2654751368757321,-0.30411423774380136,-10.645219458514156,1.102404752365917,9.04313406991256,-3.5644178179526844
1730865968.2834685,-1.8534674644470215,1.108945369720459,-9.822172164916992,-0.26598743269748154,-0.3034406674650111,-10.645121988125311,1.103711386094929,9.028247744783634,-3.5622996667917053
1730865968.3333826,-1.7973651885986328,1.1064001321792603,-9.855999946594238,-0.2664962753332245,-0.30286841389983815,-10.645017392787071,1.1031777959611897,9.015168090720765,-3.6190665460579616
1730865968.3833833,-1.749116063117981,1.0848197937011719,-9.900351524353027,-0.267002088952621,-0.30239834011809663,-10.644903961575853,1.1019858308390318,9.001424748954127,-3.7018700247281506
1730865968.4334073,-1.6887575387954712,1.0780417919158936,-9.944061279296875,-0.26750580590987527,-0.30203030031752653,-10.644780499469954,1.100109384929143,8.986774159475074,-3.8123162549223704
1730865968.4834383,-1.660573959350586,1.0784896612167358,-9.943114280700684,-0.26800804692236213,-0.30176310453190114,-10.644646815635648,1.104025504964785,8.9937480351381,-3.645022045196247
1730865968.5333052,-1.6808581352233887,1.0688133239746094,-9.9386625289917,-0.26850852211118864,-0.30159451274988747,-10.644503999571736,1.1046879327408405,8.982059931477343,-3.6332967129389835
1730865968.5834394,-1.6925055980682373,1.0484857559204102,-9.91047477722168,-0.26900583741145606,-0.3015212716478885,-10.64435437188105,1.1036893184650665,8.971324724127168,-3.690589871695447
1730865968.6333168,-1.7340891361236572,1.0040960311889648,-9.874168395996094,-0.2694977064537236,-0.30153908337201796,-10.64420115374018,1.1055362704998983,8.968531601008948,-3.6618278401128026
1730865968.6832635,-1.7513102293014526,0.9668171405792236,-9.831408500671387,-0.2699813848340159,-0.3016424255164511,-10.644047958017754,1.1047951825481044,8.960256877801841,-3.7209312274440913
1730865968.7332773,-1.7555934190750122,0.9132131338119507,-9.825553894042969,-0.2704541206008727,-0.3018242490084426,-10.643898228343438,1.1033748890690527,8.951204909242808,-3.806864339832607
1730865968.783267,-1.7511773109436035,0.8991687297821045,-9.808719635009766,-0.2709134525513502,-0.3020756624111506,-10.643754800597115,1.1058831894622048,8.943740146712804,-3.714289114506263
1730865968.833155,-1.7669599056243896,0.9138646125793457,-9.811017036437988,-0.27135731792878703,-0.30238577450275933,-10.643619682631414,1.1048661033002418,8.934082674659132,-3.775124600544326
1730865968.8833268,-1.7647291421890259,0.9623916149139404,-9.817171096801758,-0.27178408152533473,-0.3027418851358001,-10.643494015979602,1.10315813860931,8.923603334634517,-3.8631656280974855
1730865968.9331322,-1.7647291421890259,0.9623916149139404,-9.817171096801758,-0.2721925596549112,-0.30313003631601215,-10.643378158238821,1.1063709439248468,8.920986734368508,-3.7568416356701944
1730865968.9331322,-1.774051547050476,0.9942019581794739,-9.836055755615234,-0.27258202003229304,-0.3035356781592475,-10.643271836672852,1.106366604848908,8.920933563114787,-3.7571401937540863
1730865968.9830694,-1.7563841342926025,1.0308074951171875,-9.850176811218262,-0.2729521515836457,-0.30394425384794566,-10.643174347686838,1.1053402460499724,8.912135009206342,-3.817648861451269
1730865969.0331802,-1.7418923377990723,1.052126407623291,-9.863423347473145,-0.2733029821200565,-0.3043417355116542,-10.643084796851301,1.1036218351371143,8.902500054133164,-3.905301289541126
1730865969.0830772,-1.7634446620941162,1.1164103746414185,-9.859697341918945,-0.2736347384353316,-0.30471516111455343,-10.643002323567215,1.1012300810983682,8.89215369837382,-4.01905601165687
1730865969.1331055,-1.7613576650619507,1.1499154567718506,-9.857751846313477,-0.2739477621154421,-0.30505317517520447,-10.642926227431115,1.1072244339192978,8.893267945097172,-3.797359693906201
1730865969.1830616,-1.7668864727020264,1.152148723602295,-9.854114532470703,-0.27424254013357857,-0.3053465175136111,-10.642855979794618,1.1095066134034004,8.877193889786938,-3.781429023156614
1730865969.2330203,-1.7597706317901611,1.146106243133545,-9.849930763244629,-0.274519749992002,-0.3055882735303178,-10.642791172956937,1.1090853138262828,8.865071186907619,-3.8374464052311543
1730865969.2830868,-1.7832831144332886,1.1196283102035522,-9.831854820251465,-0.2747802661310109,-0.3057737741973366,-10.642731443327204,1.1106521275396017,8.852060971119565,-3.8071842410580183
1730865969.3329446,-1.7911642789840698,1.0579688549041748,-9.824539184570312,-0.27502519670472647,-0.30590019777057303,-10.642676358141145,1.1100516891228789,8.838382163514536,-3.8659284783535424
1730865969.3830001,-1.793712854385376,1.0126854181289673,-9.833224296569824,-0.2752559770733979,-0.3059659321705341,-10.64262529503165,1.1130236310915294,8.832828868634154,-3.8360123750526696
1730865969.432937,-1.7517714500427246,1.0202561616897583,-9.849518775939941,-0.27547439984276667,-0.30596985686590816,-10.642577414375182,1.112957968046983,8.821614037001826,-3.8962021358121297
1730865969.4829564,-1.7155946493148804,1.0792349576950073,-9.881749153137207,-0.2756824230301672,-0.30591090871465765,-10.642531793020664,1.1153866023962626,8.811877850481922,-3.865660058472947
1730865969.532836,-1.6973638534545898,1.1483683586120605,-9.885079383850098,-0.27588176807376774,-0.3057882204419124,-10.642487678786935,1.1153720211446736,8.800188154155244,-3.926129240988029
1730865969.5827827,-1.6990910768508911,1.1914793252944946,-9.90003490447998,-0.2760735295315654,-0.30560173211145264,-10.642444738973694,1.1146691356886775,8.787680133861496,-4.013428219184108
1730865969.6338701,-1.7048535346984863,1.1952179670333862,-9.894710540771484,-0.27625800380855803,-0.3053528592407765,-10.64240319819546,1.113227556905902,8.774030601915294,-4.130858875268929
1730865969.6838133,-1.7279154062271118,1.140415906906128,-9.889106750488281,-0.27643476075191525,-0.30504479020371095,-10.642363848416283,1.1111378233143572,8.760053972859467,-4.271254633911871
1730865969.7338028,-1.727390170097351,1.0967813730239868,-9.850716590881348,-0.27660286416681834,-0.30468221906418996,-10.642327926112547,1.1174251632599492,8.780687538220027,-3.975405737537384
1730865969.7837937,-1.7448590993881226,1.0502889156341553,-9.854978561401367,-0.2767611228375467,-0.3042706557448488,-10.642296858419002,1.1165028219233386,8.775123995272113,-4.0388773632116735
1730865969.8337355,-1.7205950021743774,1.0371060371398926,-9.837763786315918,-0.2769082732794932,-0.303815662350807,-10.642271982522804,1.120149863199013,8.766530633307923,-3.9804630429837364
1730865969.8838043,-1.7044275999069214,1.004769206047058,-9.838481903076172,-0.2770430216541503,-0.3033222765283061,-10.642254358552828,1.1197824200434066,8.758580206167359,-4.042608103284406
1730865969.9337204,-1.6762114763259888,1.0011883974075317,-9.852025985717773,-0.27716391740912205,-0.3027946624592695,-10.642244697470314,1.118723032254948,8.749890511525745,-4.131216241905163
1730865969.9836867,-1.6579885482788086,0.9812003374099731,-9.872231483459473,-0.2772691245074737,-0.30223592586473497,-10.642243413479111,1.1169725049576285,8.740450681619393,-4.246331034346356
1730865970.0337353,-1.6788157224655151,1.0039273500442505,-9.869159698486328,-0.2773562309263653,-0.3016480640262353,-10.642250789060558,1.1220604292558847,8.743252634285936,-4.056355813192765
1730865970.0836577,-1.7302862405776978,0.9892690777778625,-9.866273880004883,-0.27742228138278113,-0.30103205369157165,-10.642267130952945,1.1213077436989412,8.736410595360493,-4.119716336955452
1730865970.1336935,-1.7302862405776978,0.9892690777778625,-9.866273880004883,-0.27746411321109377,-0.30038801383776387,-10.642292815146757,1.12341109305958,8.727451298467908,-4.0669752883774155
1730865970.1336935,-1.7561147212982178,1.0005706548690796,-9.84821891784668,-0.27747879882578574,-0.2997153545934982,-10.642328241351581,1.1234077688615058,8.727383047873447,-4.067359101942137
1730865970.1836424,-1.7367112636566162,1.0267400741577148,-9.844929695129395,-0.27746394035062283,-0.29901294997954264,-10.642373737387281,1.121143563809294,8.712889450690318,-4.0714352751316625
1730865970.2335315,-1.7292639017105103,1.0034098625183105,-9.847564697265625,-0.27741774499550165,-0.29827938105373175,-10.642429450186649,1.1187940360672648,8.699863307419664,-4.125642368056307
1730865970.283596,-1.7082710266113281,1.0320013761520386,-9.856908798217773,-0.27733891671083527,-0.2975131497540605,-10.642495299891698,1.1157663053819231,8.686160217371738,-4.20604674143615
1730865970.3336132,-1.7297741174697876,1.0265306234359741,-9.872505187988281,-0.27722647404848755,-0.2967128153992865,-10.642571042066098,1.112007356877932,8.6715617960732,-4.314133584769895
1730865970.3835676,-1.73284912109375,1.026072382926941,-9.879054069519043,-0.27707965832260917,-0.2958771086028603,-10.642656407550744,1.1164401161405888,8.682740351884325,-4.149141478108075
1730865970.4335475,-1.7507237195968628,1.0402652025222778,-9.899032592773438,-0.2768979921334114,-0.29500501678662877,-10.642751264148275,1.1142748352293261,8.67555985581339,-4.209986355681231
1730865970.4835615,-1.7441734075546265,1.067531943321228,-9.886956214904785,-0.2766813988514413,-0.29409587039883156,-10.642855751288955,1.111413997026488,8.667635153718493,-4.297557553790103
1730865970.5335526,-1.7646288871765137,1.0706843137741089,-9.89332103729248,-0.27643028790947743,-0.293149504549661,-10.642970337651882,1.1168680991487296,8.668417363788155,-4.183313642987073
1730865970.583584,-1.8092890977859497,1.0768513679504395,-9.85693645477295,-0.2761456453014035,-0.29216643435850875,-10.643095760844457,1.1157843966113876,8.662402098616456,-4.243603653693834
1730865970.6335008,-1.8451093435287476,1.0780317783355713,-9.835271835327148,-0.275829253436501,-0.2911479322290375,-10.643232828232655,1.1139995735356285,8.65559026463704,-4.331143086795342
1730865970.6835158,-1.8778879642486572,1.068177342414856,-9.794242858886719,-0.2754840385464958,-0.2900959974971653,-10.643382088971043,1.1179304664388958,8.651538929758889,-4.221558753658945
1730865970.7335863,-1.8792659044265747,1.0619271993637085,-9.761591911315918,-0.2751143747643848,-0.2890132470357476,-10.643543438556474,1.1170526670341903,8.64452767483141,-4.2824860820395
1730865970.7835293,-1.8781741857528687,1.0342954397201538,-9.767451286315918,-0.2747261808941668,-0.28790273289218593,-10.643715765900119,1.1212505365808902,8.631163702095652,-4.2364903964493115
1730865970.8334446,-1.8452465534210205,1.0448501110076904,-9.792409896850586,-0.2743267549657265,-0.2867677136397215,-10.643896810912176,1.125911648031904,8.621155030162406,-4.236256666807491
1730865970.8834481,-1.7909832000732422,1.0523160696029663,-9.833215713500977,-0.2739243505307935,-0.28561147853921776,-10.644083361985688,1.1275754877617816,8.610067497743419,-4.2927532680833735
1730865970.9334626,-1.7380390167236328,1.0403714179992676,-9.891928672790527,-0.27352751655388563,-0.2844373000577233,-10.644271758848555,1.128561044605481,8.598210601446024,-4.376222200190195
1730865970.9834626,-1.6841381788253784,1.027842402458191,-9.939653396606445,-0.2731443008488224,-0.2832484232228115,-10.64445856997177,1.1288590278925659,8.585532636121501,-4.487479883884012
1730865971.0333781,-1.598343849182129,1.0370818376541138,-9.97574520111084,-0.2727814450742359,-0.2820479912673304,-10.644641287344523,1.1326277346555123,8.594801905247849,-4.319588235328939
1730865971.083417,-1.5712602138519287,1.0332560539245605,-9.993497848510742,-0.2724436318055764,-0.2808389729121203,-10.64481886742032,1.1329544782562058,8.588373021420644,-4.380920087167328
1730865971.133399,-1.550557255744934,1.039259433746338,-9.944525718688965,-0.27213291007243456,-0.27962416085767905,-10.644991961079468,1.1344679660296357,8.579682185424927,-4.330201810435622
1730865971.1834455,-1.5575945377349854,1.0153611898422241,-9.915091514587402,-0.2718484871398591,-0.27840618682949275,-10.645162715095571,1.134174730077335,8.571221285483604,-4.389784991517481
1730865971.233443,-1.6128383874893188,0.9890211224555969,-9.859123229980469,-0.27158694614062573,-0.27718745074073314,-10.64533419460884,1.1332024102652318,8.562079636014643,-4.475893313538459
1730865971.283348,-1.700724482536316,0.9786924719810486,-9.800239562988281,-0.27134289205876105,-0.27596993000608305,-10.645509631184943,1.1315572089577672,8.552274939694794,-4.588255970207676
1730865971.3333108,-1.7688379287719727,1.0146944522857666,-9.755945205688477,-0.27110999163513116,-0.27475500906350925,-10.645691650644235,1.1354967652726295,8.5594173389024,-4.402564004030521
1730865971.3833656,-1.8208271265029907,1.02140212059021,-9.763900756835938,-0.2708821593013083,-0.2735435319269026,-10.64588162940966,1.137261214306497,8.548891542579758,-4.388895152082762
1730865971.433279,-1.8217395544052124,1.0340009927749634,-9.765320777893066,-0.2706545141757952,-0.27233605792076865,-10.646079388815977,1.1367326324389888,8.540603472873604,-4.445969465883519
1730865971.48329,-1.782911777496338,1.0537012815475464,-9.80487060546875,-0.27042383242627577,-0.2711331322814415,-10.646283296833357,1.1386944113187127,8.532015684759058,-4.417149858272854
1730865971.5332751,-1.7525897026062012,1.0612386465072632,-9.85537052154541,-0.2701884266962704,-0.2699354982630365,-10.64649068541646,1.1382481910873379,8.522615103863602,-4.476161434105716
1730865971.5832372,-1.7406247854232788,1.1116029024124146,-9.87990665435791,-0.26994766097437234,-0.2687443021108756,-10.646698463762498,1.1371257699563344,8.512482581608378,-4.562096428027766
1730865971.633259,-1.770524501800537,1.115897536277771,-9.90289306640625,-0.2697014873530026,-0.26756133911286195,-10.646903741112112,1.1353255405021214,8.5016640913837,-4.6748336354438695
1730865971.683197,-1.7900440692901611,1.1545110940933228,-9.899785995483398,-0.26945028087028927,-0.26638931215487127,-10.64710425915611,1.1400422126529033,8.509282293428203,-4.4948234967302705
1730865971.7331789,-1.8505797386169434,1.163799524307251,-9.896068572998047,-0.2691949929385789,-0.2652320299978165,-10.647298566513877,1.141317745424429,8.500555385344082,-4.48201281876065
1730865971.783353,-1.8653908967971802,1.1624170541763306,-9.862640380859375,-0.26893749136887274,-0.2640945026134953,-10.647485959479901,1.1407083218863372,8.492757374831715,-4.539543350948526
1730865971.8332534,-1.84821355342865,1.119704008102417,-9.858514785766602,-0.2686808650753849,-0.2629828526745347,-10.647666244270201,1.1394343586455775,8.48437383625756,-4.623090348709477
1730865971.8832345,-1.8270213603973389,1.114829421043396,-9.805334091186523,-0.2684294390186378,-0.2619039763788972,-10.647839404733652,1.137476956365837,8.47526899714881,-4.733981801236837
1730865971.9334147,-1.793975830078125,1.0453251600265503,-9.822367668151855,-0.2681884442857937,-0.26086503217365337,-10.648005255768942,1.1422602921573515,8.479904494110682,-4.560942143313679
1730865971.9832606,-1.7209333181381226,1.0137131214141846,-9.828447341918945,-0.267963467711798,-0.25987284660375404,-10.64816320816185,1.141406441698455,8.474278498136018,-4.622429148768349
1730865972.0332992,-1.6012029647827148,0.9719731211662292,-9.870986938476562,-0.26775968428074726,-0.2589332870380785,-10.64831229633374,1.1446933582983831,8.463833623414063,-4.570392965308612
1730865972.0832047,-1.5673483610153198,0.9927900433540344,-9.874567985534668,-0.2675808549858295,-0.25805076265370935,-10.648451452395229,1.1444025227718262,8.455286807738506,-4.629583073133081
1730865972.133241,-1.5673483610153198,0.9927900433540344,-9.874567985534668,-0.26742842402377387,-0.25722804493032303,-10.648579817741922,1.1467651100712155,8.44773933162067,-4.592346881589333
1730865972.133241,-1.5617990493774414,1.0194441080093384,-9.915316581726074,-0.26730115550542893,-0.25646641674197945,-10.648696940490279,1.1467659895026947,8.44768246818319,-4.592644958281588
1730865972.1831715,-1.576568603515625,1.0584110021591187,-9.886327743530273,-0.26719530556436466,-0.25576602566438134,-10.648802895732345,1.146572118722472,8.438657598382592,-4.651399604557135
1730865972.2332606,-1.631142258644104,1.0728533267974854,-9.91388988494873,-0.26710507840747144,-0.25512634388193073,-10.648898353278005,1.1457066869113006,8.428849762968678,-4.7377362862692785
1730865972.283102,-1.7173388004302979,1.079965353012085,-9.86382007598877,-0.2670233328288753,-0.25454661481496754,-10.648984528454507,1.1478821481808754,8.431687176919576,-4.626707131380464
1730865972.3331964,-1.82231605052948,1.1077828407287598,-9.826631546020508,-0.2669426152383283,-0.2540261627118883,-10.649062956572939,1.147032208889282,8.425414588061114,-4.684714956731048
1730865972.383157,-1.8533849716186523,1.1184059381484985,-9.800682067871094,-0.2668563772441934,-0.2535645962880371,-10.649135075352232,1.1513906204866882,8.415632132143342,-4.640588944561915
1730865972.4330823,-1.8954871892929077,1.0949914455413818,-9.761144638061523,-0.2667599967076814,-0.25316194831880423,-10.649201740449875,1.1516149148843786,8.406981022658593,-4.698615438596732
1730865972.4830406,-1.8989217281341553,1.0262970924377441,-9.779446601867676,-0.26665132602224645,-0.25281860020308583,-10.649262861269623,1.1511779655565875,8.397709777032803,-4.782990910491752
1730865972.5331557,-1.8989217281341553,1.0262970924377441,-9.779446601867676,-0.26653079744176633,-0.25253488494811105,-10.649317273679356,1.1500616006858977,8.38767767659286,-4.895389733708576
1730865972.5331557,-1.8536771535873413,1.0082930326461792,-9.78778076171875,-0.26640119287289576,-0.252310598644649,-10.649362860588543,1.1500513254048614,8.387604681329943,-4.896278161593698
1730865972.5831227,-1.783974289894104,1.004658818244934,-9.84261703491211,-0.2662670863774753,-0.25214471692070595,-10.649396835921424,1.1534603665693115,8.391836526338734,-4.740760273579394
1730865972.6330674,-1.783974289894104,1.004658818244934,-9.84261703491211,-0.2661340304870958,-0.25203532810071216,-10.649416144469665,1.1579892800009313,8.367378850678318,-4.733192701398531
1730865972.6330674,-1.7528783082962036,1.0574264526367188,-9.855023384094238,-0.26600777564390277,-0.25197972250989253,-10.649417884713896,1.1579989218451312,8.36727650740713,-4.733495315013335
1730865972.6830595,-1.7219197750091553,1.080628514289856,-9.910914421081543,-0.2658937375744195,-0.2519746968828378,-10.649399630346286,1.1601564512982752,8.353958301274435,-4.737599950649562
1730865972.7331333,-1.704637885093689,1.1132997274398804,-9.919187545776367,-0.26579661973199586,-0.2520170324902761,-10.649359724119645,1.1612672852803057,8.339308144113131,-4.787267892940195
1730865972.7830756,-1.6880874633789062,1.1303209066390991,-9.951221466064453,-0.2657200999942573,-0.25210395573464583,-10.649297599094973,1.1617042234807031,8.324179493723987,-4.862976235419234
1730865972.8330402,-1.6892642974853516,1.1353075504302979,-9.929433822631836,-0.26566663965086135,-0.2522334497105655,-10.649213986420984,1.1614788685178614,8.308328719167008,-4.965790983252126
1730865972.8830557,-1.6928538084030151,1.1137971878051758,-9.93874454498291,-0.2656374534107374,-0.2524043660057144,-10.649110906316121,1.1605859556935152,8.291834402925744,-5.095422953109702
1730865972.9329422,-1.7044410705566406,1.0738990306854248,-9.894899368286133,-0.2656326243587219,-0.2526162847427172,-10.648991460347116,1.1640348661184472,8.316713675321106,-4.830217602415411
1730865972.9829872,-1.7288248538970947,1.0470776557922363,-9.854463577270508,-0.26565133244932854,-0.25286913214180917,-10.648859448061692,1.1632684592234124,8.311154502618962,-4.890666322554487
1730865973.0330038,-1.782965898513794,1.0143132209777832,-9.822835922241211,-0.26569219993436743,-0.25316268774563655,-10.64871882819187,1.1618321708496762,8.304936865726699,-4.978091721396132
1730865973.082945,-1.8363450765609741,1.0109021663665771,-9.767317771911621,-0.26575379788682973,-0.2534961532134084,-10.648573122810493,1.1657912674954003,8.300817716761879,-4.850851585621526
1730865973.132889,-1.8869452476501465,0.9894759058952332,-9.760782241821289,-0.2658352855309666,-0.2538678810673787,-10.648424885167575,1.1650627813038794,8.29427957593494,-4.91028229908637
1730865973.1829495,-1.8473352193832397,1.0347927808761597,-9.739604949951172,-0.2659369691143265,-0.2542752990864093,-10.648275327234183,1.163668389754513,8.28708623532784,-4.9964793340190985
1730865973.232936,-1.816389560699463,1.0465000867843628,-9.774761199951172,-0.2660604543477726,-0.25471507106628133,-10.648124203345391,1.1670144188516773,8.285777864345414,-4.88426545019501
1730865973.2828844,-1.783855676651001,1.0769073963165283,-9.79489803314209,-0.26620829146769454,-0.2551834614293832,-10.647969993923686,1.1685165321456037,8.277272675466527,-4.874210401526165
1730865973.3328242,-1.7646828889846802,1.053520679473877,-9.82564926147461,-0.2663833870523645,-0.25567671260143865,-10.647810328401317,1.1680665227576075,8.269404113642377,-4.9297580426366805
1730865973.3828576,-1.7351040840148926,1.0145779848098755,-9.854711532592773,-0.2665884786985145,-0.2561912000155294,-10.647642500845468,1.1669459739222405,8.26087746529197,-5.01216900404214
1730865973.432912,-1.683071255683899,0.9749651551246643,-9.900102615356445,-0.26682570580924503,-0.2567232543373691,-10.64746397571822,1.1651586772307811,8.251724157267548,-5.121124911819178
1730865973.4828544,-1.6453770399093628,0.9578630328178406,-9.910890579223633,-0.26709617360998034,-0.25726877046953733,-10.647272859749794,1.1627144667354485,8.241970422289485,-5.256118936058669
1730865973.532847,-1.649688720703125,0.9565423130989075,-9.945751190185547,-0.26739953744872935,-0.25782287048614816,-10.647068284603673,1.1595887348369625,8.231521990657678,-5.418457559025722
1730865973.5828483,-1.6442580223083496,0.9954084157943726,-9.940225601196289,-0.2677337968343121,-0.25837982750539545,-10.646850640708198,1.1689357722327747,8.24664276014557,-5.003553165356962
1730865973.632834,-1.6689367294311523,1.0497392416000366,-9.937795639038086,-0.26809539132609844,-0.25893333839119337,-10.646621638082394,1.1677955250200305,8.241536589936285,-5.066367081970537
1730865973.682793,-1.6859419345855713,1.0834542512893677,-9.915569305419922,-0.26847951515875274,-0.25947709651674,-10.646384172151011,1.1714464999935046,8.238075639984395,-4.994896551518944
1730865973.7328548,-1.71327543258667,1.1262437105178833,-9.893120765686035,-0.2688805485546792,-0.26000545768650307,-10.646142015756329,1.170879441719523,8.232452721099294,-5.0546882771386
1730865973.782775,-1.7269731760025024,1.1472166776657104,-9.872698783874512,-0.26929251958667544,-0.2605139942445742,-10.645899414174817,1.1696400377984946,8.22619436882435,-5.140971044330707
1730865973.8327966,-1.735066294670105,1.1401067972183228,-9.833118438720703,-0.26970950480491296,-0.26099983845732755,-10.645660653770502,1.172082057222361,8.219362949711407,-5.0366585737184035
1730865973.8827624,-1.717958927154541,1.1496965885162354,-9.815305709838867,-0.27012588591685094,-0.26146176752099803,-10.645429635962671,1.1710752236951152,8.211872328661286,-5.097241992319445
1730865973.9327734,-1.6673269271850586,1.18075430393219,-9.812365531921387,-0.2705363765470178,-0.26190011445490335,-10.645209513393961,1.173578512278278,8.206158584999034,-5.052226358630489
1730865973.9827108,-1.718985915184021,1.200554609298706,-9.816550254821777,-0.2709358472587458,-0.2623167102940862,-10.645002498454673,1.1729476390797982,8.198363501667743,-5.111405005472616
1730865974.032757,-1.777178168296814,1.1863377094268799,-9.796299934387207,-0.27131927548650847,-0.2627148956010241,-10.644809855580585,1.1744943097812843,8.193278934906228,-5.075764504316877
1730865974.0837018,-1.8267006874084473,1.1075407266616821,-9.833602905273438,-0.2716821289191818,-0.26309936142622947,-10.644631980585805,1.1737346295418558,8.185488419825854,-5.136472254425753
1730865974.1328225,-1.8129234313964844,1.0744457244873047,-9.833734512329102,-0.27202097250805735,-0.26347559984171365,-10.644468558764125,1.1723304181903058,8.17731234451348,-5.2213699333283925
1730865974.1827915,-1.7848941087722778,1.034195899963379,-9.854951858520508,-0.2723338009313757,-0.26384910218941154,-10.644318821845111,1.1702272552402622,8.168347088998361,-5.334095374655518
1730865974.2327878,-1.7069191932678223,1.0519814491271973,-9.866008758544922,-0.27261984227736025,-0.2642246857394337,-10.644181822943168,1.1750589615724814,8.172104439899066,-5.152239338263476
1730865974.2827125,-1.7330290079116821,1.0380792617797852,-9.891645431518555,-0.27287897922870075,-0.26460617542034526,-10.644056680777615,1.1740611872916449,8.166138002330674,-5.214165051438411
1730865974.333654,-1.723747968673706,1.0607243776321411,-9.90710735321045,-0.2731112153472404,-0.26499639063905445,-10.643942817320692,1.1759097516266819,8.158623215256911,-5.161861182363163
1730865974.383695,-1.6333900690078735,1.1029419898986816,-9.92292594909668,-0.27331638987063545,-0.26539732478256617,-10.643840180731381,1.1749243291204898,8.151023595152564,-5.221844172812602
1730865974.4336932,-1.7185343503952026,1.0912126302719116,-9.885492324829102,-0.2734939428885754,-0.26581046339568887,-10.643749369866104,1.1732556544087787,8.142764668177687,-5.308412020935907
1730865974.4835937,-1.7632367610931396,1.0811116695404053,-9.884361267089844,-0.2736428453040676,-0.2662370752645566,-10.643671551205804,1.176366842505418,8.142769970684766,-5.2086666003178825
1730865974.533778,-1.7660847902297974,1.066494345664978,-9.817702293395996,-0.27376198608866326,-0.2666782752639634,-10.643608157265046,1.175346589091513,8.136468276564429,-5.269905368084386
1730865974.583637,-1.76335608959198,1.0730304718017578,-9.786660194396973,-0.2738506874071472,-0.2671349139504666,-10.643560427541203,1.1771652314533076,8.127919204851423,-5.225938757972687
1730865974.6336203,-1.755035638809204,1.0663394927978516,-9.755593299865723,-0.2739088989471963,-0.2676074835391763,-10.643528877728052,1.176245529608727,8.11968108331871,-5.285237496957105
1730865974.683558,-1.7797462940216064,1.05051851272583,-9.727736473083496,-0.27393714843211925,-0.26809608547870684,-10.643512849478487,1.1776572057910846,8.112127509173304,-5.249573522322894
1730865974.7336075,-1.7905184030532837,1.0506978034973145,-9.733460426330566,-0.27393651113354495,-0.2686003896116538,-10.643510253462368,1.1766866705958132,8.103073505399067,-5.3091133571447555
1730865974.7834837,-1.7196898460388184,1.0897799730300903,-9.776664733886719,-0.27390860669546946,-0.26911961943071006,-10.643517573304548,1.1774433491447645,8.09616687656975,-5.275808857895042
1730865974.8335426,-1.7713710069656372,1.1019127368927002,-9.835098266601562,-0.27385544463309697,-0.26965270238165473,-10.643530229080381,1.1761851511885237,8.087101435676898,-5.3349585821763155
1730865974.8835092,-1.8028919696807861,1.1387075185775757,-9.852670669555664,-0.2737792495513717,-0.270198585749108,-10.64354324490558,1.175146950681083,8.076152684122402,-5.302439564873073
1730865974.9336016,-1.8285831212997437,1.182466745376587,-9.922863006591797,-0.2736825862121771,-0.27075660869281004,-10.643551970524285,1.17292992648234,8.065218356362656,-5.361810667549714
1730865974.9834633,-1.8077365159988403,1.2220063209533691,-9.935257911682129,-0.27356865586058887,-0.27132690568610524,-10.64355269775291,1.1700189950539275,8.053560004763446,-5.448060804535844
1730865975.0335941,-1.8268399238586426,1.19771409034729,-9.958266258239746,-0.27344141316394693,-0.2719107683996533,-10.643543126730846,1.166416809776146,8.04120288585542,-5.56117348217883
1730865975.0834959,-1.7553056478500366,1.1827597618103027,-9.942646980285645,-0.27330542637927524,-0.27251074121407304,-10.643522590219572,1.1621488135596998,8.028223532601977,-5.700334914240422
1730865975.1334362,-1.7702215909957886,1.131227731704712,-9.93575382232666,-0.27316554351656513,-0.2731303330288215,-10.643491990460024,1.1694273625353877,8.04280982601694,-5.40573578798501
1730865975.1834197,-1.7350672483444214,1.0756663084030151,-9.8892240524292,-0.27302648174781136,-0.27377344074679516,-10.643453499892669,1.167251615945221,8.03644229848213,-5.467939617516496
1730865975.2334309,-1.6980245113372803,1.014807939529419,-9.849322319030762,-0.27289247236880054,-0.27444361252994226,-10.643410071892578,1.1703222792130241,8.022400607955879,-5.405798376719339
1730865975.2833824,-1.74787175655365,0.9247363805770874,-9.83838939666748,-0.2727669935020748,-0.2751432343279071,-10.643364847300116,1.1689756325978031,8.012096177172689,-5.465295208997576
1730865975.3333728,-1.7218077182769775,0.9190731048583984,-9.835184097290039,-0.27265268188393355,-0.2758727468355131,-10.643320658923441,1.1708315351362772,8.001939365653527,-5.425358941202993
1730865975.3833628,-1.710154414176941,0.9689270853996277,-9.809120178222656,-0.27255142328988796,-0.27663017704893644,-10.643279764761925,1.1697584863376382,7.990547905537359,-5.4850806079481655
1730865975.4333987,-1.6837084293365479,0.9878154993057251,-9.841340065002441,-0.27246437693936054,-0.27741128779131197,-10.64324374918191,1.1709830516102127,7.989631444049919,-5.450236285292987
1730865975.483403,-1.650559425354004,1.0081390142440796,-9.836055755615234,-0.27239182788801897,-0.27821020059627766,-10.643213552581123,1.1698631457139017,7.981798317078121,-5.509628697805891
1730865975.5333564,-1.6746716499328613,1.0141290426254272,-9.857386589050293,-0.27233300320392784,-0.27902004805801756,-10.643189631860558,1.1765915742324309,7.974788757777657,-5.4763478528379155
1730865975.5833364,-1.6851810216903687,1.004333734512329,-9.852632522583008,-0.27228604629266395,-0.279833423866784,-10.643172161068321,1.1822883981438477,7.969748045011279,-5.478822542726181
1730865975.6333683,-1.6851810216903687,1.004333734512329,-9.852632522583008,-0.272248222149728,-0.2806426276312838,-10.643161176477712,1.1851786675252143,7.962292545250149,-5.535653656717615
1730865975.6333683,-1.5812643766403198,1.044628381729126,-9.859695434570312,-0.2722160989518123,-0.28143981683006014,-10.643156646017875,1.1852016803198941,7.962221964271194,-5.536288738447447
1730865975.683324,-1.7228114604949951,1.0327458381652832,-9.875347137451172,-0.27218550550181947,-0.2822172233543541,-10.64315851783979,1.1873835731749582,7.954150332131913,-5.618926218734665
1730865975.7333395,-1.7228114604949951,1.0327458381652832,-9.875347137451172,-0.27215165130719704,-0.282967402569931,-10.643166810234703,1.1889131480325343,7.945279127536709,-5.729059243049509
1730865975.7333395,-1.8088876008987427,1.0366780757904053,-9.752493858337402,-0.27210974781531017,-0.28368336404228833,-10.64318159630429,1.1889231399944071,7.945201353803586,-5.730100708825414
1730865975.7832942,-1.8492463827133179,1.0879586935043335,-9.823813438415527,-0.27205583247508164,-0.28435865093723195,-10.643202675921732,1.1897845659400241,7.946473619905672,-5.578581023309184
1730865975.8332365,-1.8476037979125977,1.0733569860458374,-9.768607139587402,-0.2719874342812033,-0.2849875332698699,-10.643229174052077,1.1899594468538,7.94024185986895,-5.634300714623556
1730865975.8832293,-1.7965223789215088,1.0459142923355103,-9.815152168273926,-0.27190386242423903,-0.28556519882278397,-10.643259436399802,1.193768429114146,7.929864795808747,-5.590892521746213
1730865975.933179,-1.7969716787338257,1.0425485372543335,-9.871280670166016,-0.27180598547466134,-0.2860877015763691,-10.643291230898631,1.1958423335168535,7.926514244086363,-5.590626537796127
1730865975.9832678,-1.7303887605667114,1.079399585723877,-9.879664421081543,-0.2716956912109215,-0.28655176973961316,-10.643322186788906,1.1964730877419116,7.919488182672748,-5.64694715247091
1730865976.0331671,-1.6776671409606934,1.154143214225769,-9.950304985046387,-0.2715752488887056,-0.286954840457238,-10.643350358292459,1.196419889805775,7.911726392091546,-5.730211124539197
1730865976.0831647,-1.6643404960632324,1.210000991821289,-9.945380210876465,-0.2714466269104283,-0.2872954940454404,-10.643374723270906,1.1981929542594425,7.906369133664018,-5.648462927151061
1730865976.1330926,-1.6949403285980225,1.204162359237671,-9.977410316467285,-0.27131097761454226,-0.2875740574582286,-10.643395530075477,1.1977708621675853,7.898441214831308,-5.709040132543422
1730865976.1830785,-1.715383529663086,1.1504161357879639,-9.959513664245605,-0.27116856012838386,-0.2877929016009491,-10.643414437798626,1.200207265148903,7.887493264286401,-5.668054684943626
1730865976.2331274,-1.7309974431991577,1.0735752582550049,-9.935346603393555,-0.2710190356878845,-0.28795610893779067,-10.64343441574075,1.2017917253266956,7.881820481722263,-5.671936546106542
1730865976.2831085,-1.751832365989685,1.0295008420944214,-9.867960929870605,-0.27086185163315835,-0.2880686185619856,-10.643459374859782,1.2017727643010063,7.8731015763431005,-5.729984858222864
1730865976.333172,-1.7894331216812134,1.0231446027755737,-9.804779052734375,-0.270696581036455,-0.28813528773268293,-10.643493509675668,1.2010745265060478,7.863622549168386,-5.814979711599415
1730865976.3830342,-1.7807178497314453,0.9962002635002136,-9.770801544189453,-0.2705232300407021,-0.2881602620100074,-10.643540474786457,1.2029234248251444,7.864007752900621,-5.733606055586039
1730865976.4331918,-1.7807178497314453,0.9962002635002136,-9.770801544189453,-0.2703424396931947,-0.2881466981583467,-10.643602687521001,1.2021457056788418,7.857246279573632,-5.795669560237598
1730865976.4331918,-1.7861945629119873,0.9779112339019775,-9.746031761169434,-0.27015550074622807,-0.28809667413630885,-10.64368098315618,1.2021364956755618,7.857187785921968,-5.796290168138779
1730865976.4830334,-1.7849152088165283,0.9251965284347534,-9.751386642456055,-0.2699642668717358,-0.2880111336098432,-10.643774570776902,1.2007024661938632,7.8498341601705715,-5.8836407675292595
1730865976.5330846,-1.784656286239624,0.8895010352134705,-9.759675979614258,-0.26977106903807185,-0.2878897239020277,-10.643881141516676,1.1985749515446678,7.84165571460665,-5.998791847158348
1730865976.583109,-1.7826882600784302,0.8732828497886658,-9.80506706237793,-0.2695786289554785,-0.28773052649359043,-10.643997127771225,1.2045328072456867,7.844451090439099,-5.799861538627804
1730865976.6331296,-1.7952266931533813,0.8966658711433411,-9.827330589294434,-0.2693899723227657,-0.28752990617208546,-10.64411815476571,1.2038571251685424,7.838573576997727,-5.859331892761499
1730865976.6830444,-1.813761830329895,0.8992002606391907,-9.887080192565918,-0.2692083956116121,-0.2872826653986974,-10.644239624194213,1.2025102863003727,7.831989805535387,-5.945266325832834
1730865976.7331476,-1.7603381872177124,1.0126773118972778,-9.927574157714844,-0.26903746244672316,-0.2869825214847539,-10.644357343579868,1.205654442724643,7.827869456155133,-5.830589244542011
1730865976.7829556,-1.7603381872177124,1.0126773118972778,-9.927574157714844,-0.2688808673732683,-0.2866228732894584,-10.644468104611333,1.208342173666783,7.819163548491638,-5.823179535264021
1730865976.7829556,-1.7341268062591553,1.0816811323165894,-9.964619636535645,-0.2687421314192494,-0.28619767327917367,-10.644570061813809,1.2083441019514736,7.8191150187598595,-5.823447424931269
1730865976.8330567,-1.752147912979126,1.1004984378814697,-9.94594955444336,-0.2686243238723304,-0.2857021364199169,-10.644662867797798,1.2083277526966845,7.810682886515763,-5.881374194959492
1730865976.882986,-1.7777737379074097,1.0999888181686401,-9.936602592468262,-0.2685299814276838,-0.2851331963085324,-10.64474761519667,1.211799305623203,7.7993634510418595,-5.84635954889526
1730865976.9328961,-1.7552416324615479,1.0999363660812378,-9.89273738861084,-0.2684612205387624,-0.2844896806555222,-10.644826568295251,1.21239999119334,7.7884270316289115,-5.9015529118025
1730865976.9829338,-1.7443795204162598,1.0299259424209595,-9.859451293945312,-0.268419850072973,-0.28377215519541943,-10.644902688603722,1.2123267812770828,7.776800059625236,-5.983314017328688
1730865977.0329692,-1.738450288772583,0.9913241267204285,-9.821126937866211,-0.26840732302056697,-0.282982435590783,-10.644979052990523,1.2143658555000112,7.780340681010403,-5.892229673131098
1730865977.0829315,-1.72636079788208,1.0042277574539185,-9.780694961547852,-0.26842460743388197,-0.28212292436724606,-10.64505827808794,1.214001177318058,7.773270937729695,-5.952066952038067
1730865977.1329029,-1.7019740343093872,1.0301756858825684,-9.777835845947266,-0.26847207387873834,-0.281196155882119,-10.645142041914262,1.216321527551729,7.764690477348058,-5.909614404723855
1730865977.1829247,-1.7100615501403809,1.0236696004867554,-9.772236824035645,-0.26854938651612903,-0.280204753500967,-10.645230800896305,1.216016753972201,7.755857496932113,-5.968918450741352
1730865977.2328663,-1.6848812103271484,1.0475960969924927,-9.79813289642334,-0.26865542183539415,-0.2791515859325324,-10.645323773131967,1.215040516722491,7.746348085680728,-6.054708006808589
1730865977.282879,-1.6928070783615112,1.0816024541854858,-9.839337348937988,-0.2687882450120086,-0.2780399327557185,-10.645419184923936,1.2133969082236218,7.7361652310721185,-6.16683306237446
1730865977.3328586,-1.6839771270751953,1.121504783630371,-9.875795364379883,-0.2689451306774194,-0.2768737194869147,-10.645514737462042,1.2174645660103967,7.743768365955925,-5.983751689816712
1730865977.382834,-1.7058701515197754,1.1514695882797241,-9.901827812194824,-0.2691226468510714,-0.27565785451963276,-10.645608177369734,1.2165269272611265,7.738121030002471,-6.045804951197308
1730865977.4328403,-1.7058701515197754,1.1514695882797241,-9.901827812194824,-0.2693168259479408,-0.27439853367885453,-10.645697778507266,1.2177396929550213,7.728202068418847,-5.992063787670166
1730865977.4328403,-1.718064785003662,1.188222885131836,-9.899704933166504,-0.2695233858865258,-0.27310338204751383,-10.645782590499909,1.217734348479386,7.728150646762432,-5.9923572460959775
1730865977.4828014,-1.7559535503387451,1.210862636566162,-9.879318237304688,-0.2697379680978318,-0.2717814804939398,-10.64586243472749,1.2165612852451155,7.719759569710325,-6.051578212383739
1730865977.5329611,-1.7530285120010376,1.21330988407135,-9.857230186462402,-0.26995641317913216,-0.27044337825420434,-10.645937710194922,1.217876761531714,7.7082203967178256,-6.009355761340768
1730865977.5827668,-1.771667242050171,1.2144695520401,-9.824956893920898,-0.27017503011923205,-0.2691010352268358,-10.646009076883308,1.2167669095992153,7.697356011266587,-6.064628336864145
1730865977.6327608,-1.7904527187347412,1.173574447631836,-9.815088272094727,-0.27039078212581424,-0.2677675800058973,-10.6460770903672,1.2149874103538532,7.685852941258886,-6.146246104785666
1730865977.6826727,-1.791128396987915,1.1400463581085205,-9.794534683227539,-0.2706014150931674,-0.2664568458770821,-10.646141886246442,1.2205635861198112,7.689624028321682,-6.053486965772063
1730865977.732706,-1.791128396987915,1.1400463581085205,-9.794534683227539,-0.27080553443325656,-0.26518276725610923,-10.646202980145365,1.220437047220424,7.682732399404757,-6.113183224449062
1730865977.732706,-1.7754602432250977,1.096877932548523,-9.804055213928223,-0.2710025665177174,-0.26395882677838955,-10.646259202049269,1.2204339338848487,7.682684244741544,-6.113670332123653
1730865977.7826765,-1.7451756000518799,1.0755596160888672,-9.820162773132324,-0.27119257839571603,-0.26279761694498727,-10.646308782322905,1.225248211867295,7.673807504582435,-6.082125691216395
1730865977.8326948,-1.7535194158554077,1.0384587049484253,-9.841119766235352,-0.2713759961138834,-0.26171042945490886,-10.646349576727848,1.2265394260351035,7.664870957123347,-6.137588838439856
1730865977.8826828,-1.7427948713302612,1.0323339700698853,-9.852581024169922,-0.2715533471676915,-0.2607068787438811,-10.646379360374688,1.227142244266699,7.655333242579205,-6.219411489347427
1730865977.932601,-1.7566986083984375,1.0032477378845215,-9.877225875854492,-0.2717251357375672,-0.25979464143056435,-10.646396115681013,1.2270688811181543,7.6452169704225525,-6.32701360251916
1730865977.9826145,-1.751990556716919,1.0094205141067505,-9.899985313415527,-0.27189183157862745,-0.25897933200029427,-10.646398293412162,1.2279293418094006,7.653153594545114,-6.152044947021541
1730865978.0336628,-1.751990556716919,1.0094205141067505,-9.899985313415527,-0.2720538970957781,-0.25826451220227686,-10.646385043696354,1.2269925784888345,7.647636162545013,-6.214649812619115
1730865978.0336628,-1.7626899480819702,1.0143227577209473,-9.914119720458984,-0.27221180778361936,-0.25765183801450764,-10.646356363874858,1.2269830479566564,7.6475930658899065,-6.215213659612747
1730865978.0835943,-1.7406483888626099,1.0380933284759521,-9.910380363464355,-0.2723660588492839,-0.2571413124224078,-10.646313131019403,1.2285160308740015,7.634204177134889,-6.1747032378184805
1730865978.1336367,-1.7406483888626099,1.0380933284759521,-9.910380363464355,-0.27251713036931613,-0.25673160087773395,-10.646257050378722,1.2414938229767352,7.6246808390024805,-6.17915341798594
1730865978.1336367,-1.7494313716888428,1.0510751008987427,-9.90699577331543,-0.272665410959514,-0.2564203545639452,-10.646190545165798,1.2415384837888552,7.62460413004961,-6.179475638843909
1730865978.1836076,-1.718260645866394,1.0800387859344482,-9.886003494262695,-0.27281114036363485,-0.25620450205187045,-10.646116593698153,1.247079261753621,7.614183166297565,-6.235188219575496
1730865978.2335746,-1.7213134765625,1.065432071685791,-9.858278274536133,-0.27295434674491903,-0.25608052577057233,-10.646038492640269,1.2519467001742615,7.6031219470092894,-6.31731315304005
1730865978.283583,-1.7201809883117676,1.035151481628418,-9.832938194274902,-0.27309475128091987,-0.25604464353536255,-10.64595952459511,1.256167017499907,7.591333396507262,-6.426766523865945
1730865978.3336213,-1.7472566366195679,1.0085045099258423,-9.819117546081543,-0.27323175023351853,-0.2560927478860986,-10.645882590608545,1.257379700336063,7.6008903875099,-6.235678131989522
1730865978.3834875,-1.7398953437805176,1.0001616477966309,-9.799436569213867,-0.27336453905194846,-0.25622016252573027,-10.645809910211485,1.2594921106018706,7.594804952171775,-6.2945141798893705
1730865978.4336264,-1.7398953437805176,1.0001616477966309,-9.799436569213867,-0.2734922712722668,-0.2564214415238921,-10.645742835045972,1.2556780520314914,7.584322297621545,-6.225677865058677
1730865978.4336264,-1.7612855434417725,1.0042710304260254,-9.807564735412598,-0.27361415207363415,-0.2566903417106793,-10.645681790363447,1.2556711057581196,7.584259517215191,-6.225968033291758
1730865978.483481,-1.776827335357666,1.0146998167037964,-9.798775672912598,-0.27372953047198245,-0.25701994606469025,-10.645626345686868,1.2543929247207544,7.5754756645090895,-6.2783766553686435
1730865978.5336518,-1.7869014739990234,0.9881681203842163,-9.822782516479492,-0.27383806117585274,-0.2574028378386602,-10.645575363276661,1.252423124694013,7.56599951254982,-6.357692846577504
1730865978.5834239,-1.7913928031921387,0.9635969996452332,-9.843122482299805,-0.27393986581549934,-0.2578311831978916,-10.645527203560917,1.2497893988258395,7.555956618032396,-6.462793755066109
1730865978.6335306,-1.7745351791381836,0.944753110408783,-9.866405487060547,-0.27403559359373514,-0.25829664966505883,-10.645480019227998,1.2547611234112348,7.560846562232459,-6.286404110009027
1730865978.6834292,-1.7401525974273682,0.9377371668815613,-9.902955055236816,-0.2741263185848207,-0.258790261916573,-10.645432113760439,1.241809654741356,7.551136602321333,-6.273340863268901
1730865978.7334626,-1.6854290962219238,0.9745905995368958,-9.937728881835938,-0.2742132255502453,-0.2593023786857187,-10.64538232307907,1.2349524187111107,7.542717671846664,-6.329369119308073
1730865978.783451,-1.6466100215911865,0.9855256676673889,-9.951215744018555,-0.27429710632383586,-0.2598229070863798,-10.645330386929029,1.224724560495313,7.540767339975999,-6.300363327704427
1730865978.8334842,-1.6563363075256348,1.0078275203704834,-9.9380521774292,-0.2743778457705389,-0.2603416969391358,-10.645277193539833,1.2152529725879992,7.534247644807245,-6.359405296852058
1730865978.8833902,-1.7004355192184448,1.0166414976119995,-9.931790351867676,-0.2744541989523367,-0.26084893932033043,-10.645224774001418,1.2050778255471992,7.527062723177795,-6.445378776948896
1730865978.9333422,-1.7124758958816528,1.0166045427322388,-9.904008865356445,-0.2745240118554997,-0.26133545761762195,-10.645176066129409,1.1943510678119054,7.519321654089617,-6.556638914686122
1730865978.9833767,-1.7484877109527588,0.9874158501625061,-9.873875617980957,-0.2745847014512596,-0.26179283933600267,-10.645134544170482,1.2112473033319675,7.518089728035137,-6.377647921257618
1730865979.0333667,-1.7781975269317627,0.9723923206329346,-9.826956748962402,-0.274633744712137,-0.2622133659786836,-10.64510375726339,1.2126313209440067,7.5052900403032305,-6.364797743235705
