Timestamp,IMU_Linear_Acc_X,IMU_Linear_Acc_Y,IMU_Linear_Acc_Z,Filtered_X,Filtered_Y,Filtered_Z,Pose_X,Pose_Y,Pose_Z
1730865946.9339588,-1.6460669040679932,1.1705397367477417,-9.888028144836426,-0.00131363029793956,-0.0014220697405412353,-0.19021477752611077,0.8988800728027714,3.8322731674132053,0.8989983157236763
1730865946.9839773,-1.6460669040679932,1.1705397367477417,-9.888028144836426,-0.0017347818516460075,-0.0020119457706161857,-0.23926838359731584,0.8992181489571649,3.832340155808304,0.8989979210863737
1730865947.0338826,-1.5448205471038818,1.3515266180038452,-9.916738510131836,-0.0028502788659638557,-0.003681812317151446,-0.3609039652161121,0.8908175473145583,3.8325447507691086,0.8989958287677844
1730865947.083904,-1.4505513906478882,1.3764179944992065,-9.885746955871582,-0.004378783677271787,-0.006150523253044503,-0.5164691500440088,0.8609169789001487,3.8338853651503855,0.8989503359117348
1730865947.1338828,-1.5220105648040771,1.4168083667755127,-9.791072845458984,-0.006349749643532903,-0.009610863620947211,-0.7082665957377379,0.8597273027828748,3.8400959923474685,0.8977302979064264
1730865947.1838188,-1.5220105648040771,1.4168083667755127,-9.791072845458984,-0.0075003904727090134,-0.011776179789385591,-0.8182196015254063,0.8310645986470576,3.846362551008939,0.8945896403476917
1730865947.1838188,-1.466209888458252,1.5062932968139648,-9.781386375427246,-0.008757365270482705,-0.014265476460730992,-0.9376729839485868,0.8309704632955975,3.846383076388651,0.8945759426666634
1730865947.2339377,-1.466209888458252,1.5062932968139648,-9.781386375427246,-0.010116255136222982,-0.01710406383910803,-1.066651117073047,0.8024135272422551,3.852585562185449,0.8890909437655209
1730865947.2339377,-1.6475468873977661,1.4503509998321533,-9.745635986328125,-0.011571455274634542,-0.020317116044211905,-1.2051205463049128,0.8022932485367488,3.8526115847342233,0.8890622357356766
1730865947.2838902,-1.6475468873977661,1.4503509998321533,-9.745635986328125,-0.013116796666865504,-0.023929242221682766,-1.3529914618722663,0.8714578275916005,3.858720072538483,0.8805473459230414
1730865947.2838902,-1.7597566843032837,1.3032793998718262,-9.741059303283691,-0.014746659826335315,-0.027963635497858724,-1.5101195078893708,0.8714394656376812,3.858739187201191,0.8805154682140041
1730865947.3337905,-1.7597566843032837,1.3032793998718262,-9.741059303283691,-0.01645694201379259,-0.03244097210180336,-1.676307990979224,0.8762271531507484,3.8646990059223447,0.8683257512226801
1730865947.3337905,-1.6816997528076172,1.2365984916687012,-9.753911018371582,-0.018245503526636352,-0.037378315912135876,-1.8513104735805548,0.876211167700553,3.864729337719097,0.8682535073011697
1730865947.3838024,-1.757475733757019,1.2633165121078491,-9.788309097290039,-0.020112015823857344,-0.04278837498224366,-2.034833700982096,0.8730085241140365,3.8707050432858656,0.8513493602628581
1730865947.4338114,-1.9410609006881714,1.2342725992202759,-9.715015411376953,-0.0220577362249093,-0.04867923182363972,-2.2265407639572983,0.8737127915432593,3.8764451044746364,0.8291214355226413
1730865947.4836771,-1.7980672121047974,1.2204742431640625,-9.816902160644531,-0.024085837598985475,-0.05505436832334433,-2.4260543277732682,0.8705492876192499,3.8821693635399828,0.8011055898779519
1730865947.5337312,-1.6201061010360718,1.2407430410385132,-9.861479759216309,-0.026201520649049587,-0.061912794264444855,-2.632960057059372,0.8673177126512069,3.887757105897349,0.7667256744284583
1730865947.5837328,-1.6417081356048584,1.2559638023376465,-9.932706832885742,-0.028410899046477582,-0.06924928787171694,-2.8468105010184432,0.8739460229330351,3.8930966490443777,0.7254752714989325
1730865947.6336718,-1.4783844947814941,1.2720919847488403,-9.962823867797852,-0.03071932313346236,-0.0770548184584022,-3.0671292359128617,0.8727933419192706,3.898340929750893,0.6768030713591002
1730865947.6836586,-1.4127205610275269,1.249739170074463,-9.95790958404541,-0.03313004207123692,-0.08531702740963279,-3.293414832505661,0.8715617584146317,3.903377878623123,0.6202167024908708
1730865947.7336457,-1.4345476627349854,1.2176520824432373,-9.960887908935547,-0.035643209200523544,-0.09402054765819814,-3.525144436605552,0.8712102865169554,3.908066783533922,0.5553695769323659
1730865947.7836764,-1.4345476627349854,1.2176520824432373,-9.960887908935547,-0.038255410026902685,-0.10314709902113477,-3.7617770070611334,0.8697842274270503,3.912637294020864,0.4810875408255898
1730865947.7836764,-1.6071974039077759,1.2252144813537598,-9.856568336486816,-0.040960038711046864,-0.1126755411778639,-4.002756304423795,0.8697780961696584,3.9126557628648286,0.48075890955671446
1730865947.8337014,-1.532752275466919,1.1856809854507446,-9.923158645629883,-0.04374834178416242,-0.12258204816385047,-4.24751363283847,0.8682552543348377,3.91692555104086,0.3967613717868721
1730865947.8835726,-1.49844229221344,1.2116985321044922,-9.878271102905273,-0.04661041267885091,-0.1328403344634204,-4.49547054332166,0.8680134164681407,3.92074188760765,0.3019893195334187
1730865947.9345996,-1.49844229221344,1.2116985321044922,-9.878271102905273,-0.049535498237486514,-0.14342190130772506,-4.7460417208440235,0.8665851420440877,3.9244261077063123,0.19309281370974057
1730865947.9345996,-1.521494746208191,1.106750726699829,-9.946966171264648,-0.0525119019035631,-0.1542962876164439,-4.998637963908639,0.8665788797916183,3.924440775625274,0.19261004987376518
1730865947.9846032,-1.521494746208191,1.106750726699829,-9.946966171264648,-0.0555270884364668,-0.16543109043366577,-5.252669254680301,0.8694198971386369,3.9275015044699533,0.07347061145947544
1730865947.9846032,-1.521235466003418,1.066617727279663,-9.89339542388916,-0.058567990258433296,-0.17679176173016478,-5.507547834069346,0.8694190134738214,3.927517419905149,0.0728044888862543
1730865948.034629,-1.6524330377578735,0.9745575785636902,-9.893824577331543,-0.061621387701269695,-0.1883414532297306,-5.762690887245264,0.8704402529812375,3.9301093865840153,-0.059547734587697486
1730865948.0845356,-1.6524330377578735,0.9745575785636902,-9.893824577331543,-0.06467453207847979,-0.20004089404071462,-6.017522818341214,0.8704033883907454,3.9323935851814356,-0.20713396984244103
1730865948.0845356,-1.714928388595581,0.9513433575630188,-9.833707809448242,-0.06771594778575872,-0.21184831709157081,-6.271477414603046,0.8704028452790475,3.9324029648979915,-0.20784929307429748
1730865948.1347377,-1.6118273735046387,0.9223973155021667,-9.884674072265625,-0.07073594510380088,-0.2237196348292642,-6.523999939211327,0.8701962236805386,3.9341591619797045,-0.3713532779991379
1730865948.1846237,-1.3661701679229736,0.9260615110397339,-9.857068061828613,-0.07372629990608959,-0.23560880901834258,-6.774549163612133,0.8698094601662635,3.9353416007453403,-0.5513813957259814
1730865948.2345996,-1.3661701679229736,0.9260615110397339,-9.857068061828613,-0.07667889170454222,-0.24746829709249502,-7.022599397056224,0.8685814008490617,3.9357060251237366,0.8944579645947303
1730865948.2345996,-1.2212275266647339,0.8862243294715881,-9.932165145874023,-0.07958399712503901,-0.25924956269861804,-7.267642451146403,0.8685787379276638,3.935707127991096,0.8943639732508605
1730865948.2835228,-1.0323896408081055,0.8774198889732361,-9.941996574401855,-0.08242897046504391,-0.27090352742133866,-7.509189611671284,0.8678525437897757,3.935643543374311,0.8632377714349185
1730865948.3344536,-1.2495695352554321,0.9381879568099976,-9.924843788146973,-0.08519734823372628,-0.2823809665428833,-7.746773585520483,0.8688612032579878,3.934632616108917,0.869042570850042
1730865948.3844686,-1.4342632293701172,1.0002256631851196,-9.9284086227417,-0.08786903951400005,-0.29363314990380385,-7.979950086893174,0.8684276801168647,3.933132926947091,0.8307317195714441
1730865948.4344435,-1.6491162776947021,1.1198151111602783,-9.88106918334961,-0.09042235578142968,-0.3046129184404319,-8.208298942821113,0.8677779536037523,3.930908373178078,0.7727769183145388
1730865948.4846096,-1.8150001764297485,1.2128596305847168,-9.911548614501953,-0.09283707608407674,-0.3152760778039692,-8.431424896240069,0.866891944777174,3.927884295783321,0.6933782472656537
1730865948.5345068,-1.8150001764297485,1.2128596305847168,-9.911548614501953,-0.09509712959843646,-0.3255827736137524,-8.64895831886399,0.8664812285198762,3.9237947173375027,0.8510056096905578
1730865948.5345068,-1.8747748136520386,1.2866096496582031,-9.855307579040527,-0.09719210591659769,-0.3354984308960134,-8.860555896262406,0.8664772647875274,3.923776138755374,0.8508430073853213
1730865948.5845046,-1.8972151279449463,1.2438414096832275,-9.890105247497559,-0.09911761449986047,-0.3449941280622334,-9.065901124813765,0.8614538382041896,3.9187855205206588,0.8577737840990104
1730865948.6345894,-1.8699368238449097,1.2726092338562012,-9.829380989074707,-0.10087502487025352,-0.3540465534139165,-9.264704581158881,0.8590227424599933,3.913245322102953,0.8137918653421864
1730865948.6844258,-1.9649289846420288,1.1705948114395142,-9.842905044555664,-0.10247097356911865,-0.3626376130457329,-9.456704069833638,0.8579956114135057,3.9064639722597354,0.8494783676314672
1730865948.7343395,-1.755480170249939,1.117276906967163,-9.814167976379395,-0.10391669772782793,-0.37075365888697825,-9.64166465952448,0.8558222334665385,3.899159974433882,0.7993987833621288
1730865948.7843802,-1.648979902267456,1.0715574026107788,-9.870731353759766,-0.10522685462563394,-0.3783844237109035,-9.819378684789626,0.8578785130615186,3.8905009196787312,0.8449679946313499
1730865948.8343627,-1.619248390197754,1.0923936367034912,-9.766934394836426,-0.10641766443456205,-0.3855220332532078,-9.989665757692533,0.8566601516378243,3.8812344095818294,0.7911611089978257
1730865948.8843756,-1.5719029903411865,1.1600306034088135,-9.814069747924805,-0.10750513830482417,-0.3921605303049009,-10.152372592669927,0.8596523932473914,3.8706078817028042,0.8421404880027641
1730865948.9342463,-1.4718180894851685,1.2043366432189941,-9.855443000793457,-0.108503969098547,-0.39829603536379116,-10.307372668849416,0.8592771042147302,3.8593881126040106,0.7861848349882685
1730865948.9843962,-1.5622344017028809,1.2559999227523804,-9.844598770141602,-0.10942685387896928,-0.4039272883256172,-10.454566049721151,0.8642759242400996,3.846706685038107,0.840148639869917
1730865949.0343103,-1.6065484285354614,1.3037285804748535,-9.91126537322998,-0.11028430149129925,-0.40905620947264437,-10.593879327371194,0.865321616459233,3.833459833847174,0.7823436598980589
1730865949.084335,-1.6464300155639648,1.3352413177490234,-9.848318099975586,-0.11108514258029678,-0.413688312169707,-10.72526540491178,0.8660905335904505,3.819188113957492,0.6979187898111137
1730865949.1342292,-1.7890230417251587,1.2793657779693604,-9.847938537597656,-0.11183744347916023,-0.4178328608635196,-10.848702949468574,0.8673729892892565,3.8032466557337687,0.8379241291421282
1730865949.1843033,-1.9112098217010498,1.1769911050796509,-9.826825141906738,-0.11254961934453996,-0.42150251045130516,-10.96419548128167,0.8677539713061077,3.7870095388335305,0.7775833892517223
1730865949.2342906,-1.7468112707138062,1.169215440750122,-9.872337341308594,-0.11323153567471939,-0.42471234353801185,-11.071770337842457,0.8678571811354925,3.7695459515401253,0.6891086528812739
1730865949.2843397,-1.7610691785812378,1.1731765270233154,-9.90518856048584,-0.1138948057901297,-0.4274787930703141,-11.171477828520143,0.8687953305019145,3.750420183502781,0.8400714336435435
1730865949.3341703,-1.772855281829834,1.1963719129562378,-9.869773864746094,-0.11455212939895859,-0.4298190323423165,-11.263390556290359,0.8688549554327986,3.73093064284502,0.778041216414398
1730865949.3842542,-1.7723252773284912,1.1582468748092651,-9.856871604919434,-0.11521660569602642,-0.4317508200166781,-11.34760256885518,0.8686285950254374,3.7102898537966764,0.687596121013442
1730865949.4341888,-1.5951693058013916,1.1924304962158203,-9.84045124053955,-0.11590130620196626,-0.43329243248107535,-11.424228158073054,0.8701613401117549,0.9350094780517189,0.8425546843539746
1730865949.4842129,-1.4303251504898071,1.1096744537353516,-9.871488571166992,-0.11661836623346612,-0.4344624990194567,-11.49340053262305,0.8700916882432491,0.9335767510417877,0.7785895457116064
1730865949.5342839,-1.4494115114212036,1.127644419670105,-9.831385612487793,-0.11737742862667766,-0.4352797090744964,-11.555270598865494,0.8668418288284183,0.920069962502028,0.8485092270187046
1730865949.5842733,-1.374488115310669,1.0864741802215576,-9.847817420959473,-0.11818434425337163,-0.4357624405172451,-11.6100057871091,0.865366111985736,0.9212423441302295,0.786070857009746
1730865949.634126,-1.4525998830795288,1.0719263553619385,-9.802490234375,-0.11904078798266454,-0.43592844115428186,-11.657788791639266,0.8638215353602102,0.9227875954917902,0.8519179541653119
1730865949.684152,-1.5784028768539429,1.0320987701416016,-9.840079307556152,-0.11994473992968618,-0.43579457139506816,-11.698816254024461,0.8620308257273865,0.9243626974196312,0.7890475364570463
1730865949.734146,-1.5448294878005981,0.9901504516601562,-9.828018188476562,-0.12089161974005815,-0.4353765198475163,-11.733297518736052,0.8636139467199412,0.9274847249132568,0.8511032783741056
1730865949.7841535,-1.495914340019226,0.9905200004577637,-9.897010803222656,-0.1218754182726453,-0.43468850779816987,-11.761453565313198,0.8625227149628464,0.9281448491159551,0.7862924524104513
1730865949.8341901,-1.5989469289779663,0.96947181224823,-9.889765739440918,-0.1228892093055923,-0.43374310631297164,-11.783516120761782,0.8634412911917061,0.9345979274685419,0.8500835099043069
1730865949.8841543,-1.5671354532241821,0.9694827198982239,-9.91878890991211,-0.1239254107733122,-0.4325512371701359,-11.799726820015323,0.8632153094108793,0.9350533843643184,0.8525066863419374
1730865949.9341342,-1.4966825246810913,0.9941743016242981,-9.964380264282227,-0.12497611996020183,-0.43112232341647483,-11.810336297440587,0.8622588296579975,0.9347711043524022,0.7881723325639363
1730865949.984129,-1.4800490140914917,0.969645619392395,-9.981051445007324,-0.1260331210777907,-0.42946455227078706,-11.81560326897829,0.8609879861618795,0.9334098729762369,0.6942389761006738
1730865950.0342054,-1.459653377532959,1.016774296760559,-9.992463111877441,-0.1270875338264424,-0.42758518870188245,-11.81579362363078,0.8593991531074612,0.9309730817880888,0.5706275684382636
1730865950.0840492,-1.5144121646881104,1.049118995666504,-9.973414421081543,-0.12812961256935446,-0.4254909381837357,-11.811179373350141,0.8650346580217881,0.941657105649933,0.8361913450195533
1730865950.1340241,-1.6105612516403198,1.0086636543273926,-9.94045639038086,-0.1291490379947119,-0.4231883735161928,-11.802037358700186,0.8646390432654713,0.9413107829016902,0.7668597038319479
1730865950.1840804,-1.5536221265792847,1.06661057472229,-9.94149398803711,-0.13013562910577647,-0.420684258160097,-11.788647767020654,0.8671084741088984,0.9496038512897479,0.8386896751952314
1730865950.2339597,-1.603241205215454,1.065562129020691,-9.964529037475586,-0.1310799875196427,-0.41798573668142824,-11.771292684788822,0.8670829321635859,0.9505392901073113,0.7715964621662
1730865950.2839465,-1.879683494567871,1.0326447486877441,-9.866992950439453,-0.13197401854039809,-0.4151005052532694,-11.750254815276296,0.8667300398926489,0.9504388236754838,0.6751813365363826
1730865950.3339956,-2.0737950801849365,0.9914940595626831,-9.809025764465332,-0.1328121656082341,-0.4120367961092683,-11.725816101459996,0.8705641131028397,0.959117834162475,0.8329016972005852
1730865950.3840535,-1.8243703842163086,0.9407444000244141,-9.798154830932617,-0.13359320484706935,-0.4088030219810994,-11.698256095277703,0.8706674659488332,0.9595384060070761,0.7647361459315472
1730865950.4339852,-1.6435387134552002,1.0102969408035278,-9.805895805358887,-0.13432065148427663,-0.4054073313963351,-11.667850470402055,0.8746817420951903,0.970793297999283,0.8337405615327658
1730865950.4839067,-1.5730770826339722,1.1460793018341064,-9.76155948638916,-0.13500090846585852,-0.4018576139988309,-11.63486999527479,0.8755261084804572,0.9732701095844203,0.7675769067779726
1730865950.5338778,-1.402429223060608,1.2469379901885986,-9.80485725402832,-0.1356406657695703,-0.39816231910788913,-11.599579796981683,0.8760365137362705,0.9747596898236948,0.6724069952168132
1730865950.5837739,-1.2801685333251953,1.27745521068573,-9.844583511352539,-0.1362448131893812,-0.39433173274516964,-11.562238823812994,0.876208960092336,0.9752641850026615,0.5484374558660666
1730865950.6338754,-1.3144124746322632,1.2810062170028687,-9.876189231872559,-0.13681492143322815,-0.3903789157377112,-11.523099624473376,0.8760388368845574,0.9747843283625964,0.3942355882858806
1730865950.6837897,-1.3720238208770752,1.2254197597503662,-9.91110610961914,-0.13734857650994475,-0.3863198649620564,-11.482408339609854,0.87552793330595,0.9733389975048724,0.21272363530134725
1730865950.7338083,-1.4993278980255127,1.1518988609313965,-9.931300163269043,-0.13783993938433964,-0.3821729485376174,-11.440404671904776,0.8794130765082653,0.9837793268826582,0.8251060044527264
1730865950.78379,-1.6006672382354736,1.0863429307937622,-9.86929702758789,-0.1382812255038568,-0.3779578521157464,-11.397321676545726,0.8795846161897248,0.9842714566906007,0.7571794061134358
1730865950.8337855,-1.81550133228302,1.01986563205719,-9.81452465057373,-0.1386645980887457,-0.37369435260829076,-11.353385179973086,0.883275397879069,0.9905680204791208,0.8354150541527424
1730865950.8837059,-1.9375649690628052,0.9927679896354675,-9.77560806274414,-0.1389842367664852,-0.3694012230998603,-11.308812802080727,0.8839155414500732,0.9913836299964253,0.771754445909064
1730865950.9336746,-2.0457820892333984,0.9714118242263794,-9.726194381713867,-0.13923830806071177,-0.3650954594910321,-11.263812886162714,0.8842083551184174,0.9912832171473952,0.6800357908510697
1730865950.9836621,-2.0869340896606445,1.0083929300308228,-9.737180709838867,-0.13943036552773222,-0.36079192527912257,-11.218583642236453,0.8874727051513721,1.0056892155930626,0.8330155192671067
1730865951.0336392,-2.0562994480133057,1.051559329032898,-9.758321762084961,-0.13956985969831354,-0.35650345417537316,-11.17331266381996,0.8880421120395219,1.0080140169052392,0.7687945508066552
1730865951.083622,-1.9736506938934326,1.1039338111877441,-9.822582244873047,-0.1396716950980222,-0.3522413551167609,-11.128176915243156,0.8969648908660395,1.0170787318775385,0.8370075697273475
1730865951.133597,-1.9302725791931152,1.1401413679122925,-9.887577056884766,-0.13975498791280266,-0.34801611905241564,-11.083343162688957,0.8997687702969037,1.0202888526189124,0.7748041048865572
1730865951.1835477,-1.8705997467041016,1.1601102352142334,-9.892549514770508,-0.13984147765338784,-0.34383807355815876,-11.03896863399794,0.9063056450060741,1.0280056156333728,0.8378629217507656
1730865951.233644,-1.852792739868164,1.1702474355697632,-9.919771194458008,-0.13995407413183825,-0.33971781789486954,-10.995201568287824,0.909895007237305,1.0317257092039,0.7760972475540149
1730865951.2836158,-1.850260853767395,1.1229956150054932,-9.914119720458984,-0.14011576729907427,-0.3356663576013767,-10.952181464425436,0.912313311687038,1.0394422411542314,0.8385450004246089
1730865951.3335752,-1.8229795694351196,1.0839333534240723,-9.910886764526367,-0.14034892217066694,-0.3316948815830526,-10.910039094719366,0.9148369073158419,1.042956311100825,0.7775352874437563
1730865951.3836124,-1.7985893487930298,1.0479875802993774,-9.888747215270996,-0.14067480586055803,-0.32781423598668047,-10.86889637403962,0.9209893066174829,1.0523666438321988,0.839067356871758
1730865951.4335694,-1.7535266876220703,0.9978740811347961,-9.872357368469238,-0.14111313673330517,-0.32403430181370035,-10.828866122840573,0.9291264121468735,1.0565498402826,0.845251488806231
1730865951.4836032,-1.7225205898284912,0.9698752164840698,-9.863229751586914,-0.14168158620284538,-0.32036343491063446,-10.790051799033101,0.9335980832265116,1.0595325496651102,0.7873419491014106
1730865951.533507,-1.668954610824585,0.9353963732719421,-9.8529052734375,-0.14239527559636564,-0.3168080186702981,-10.752547296474004,0.9377021014162417,1.0617101674200136,0.7026529447647809
1730865951.583536,-1.6359572410583496,0.9215210676193237,-9.852986335754395,-0.14326631072787072,-0.31337216934548234,-10.716436864287756,0.941451491886006,1.063101400594318,0.5910794401021219
1730865951.6334298,-1.6144894361495972,0.9229671359062195,-9.850465774536133,-0.1443034088287623,-0.3100576290081769,-10.681795146113496,0.9284843430768104,1.0693623027931995,0.8342604915279817
1730865951.6834772,-1.6067534685134888,0.9610587358474731,-9.857247352600098,-0.1455117118271903,-0.30686389640745504,-10.648687322622347,0.9286572117361683,1.0713001510992681,0.7720703841620051
1730865951.7344527,-1.5976148843765259,1.0084751844406128,-9.867647171020508,-0.146892829721832,-0.3037886546854454,-10.617169346171073,0.9228561438034119,1.0844785988395829,0.8389650031874089
1730865951.7843916,-1.6114647388458252,1.0301212072372437,-9.874835968017578,-0.14844506637391075,-0.300828437482473,-10.58728825665629,0.9210725682561268,1.0891941047919704,0.7791789893131144
1730865951.8344188,-1.5975745916366577,1.018343448638916,-9.889068603515625,-0.15016375959079556,-0.29797928156884956,-10.5590825520853,0.9189093186337295,1.0931764807248099,0.692732617347647
1730865951.8845086,-1.6075562238693237,0.9683912396430969,-9.893061637878418,-0.15204165899712457,-0.2952370604729205,-10.532582580288285,0.9189595148805177,1.0979440939560998,0.836664086787515
1730865951.934418,-1.626556634902954,0.905511736869812,-9.897462844848633,-0.15406930573392505,-0.2925973571975268,-10.507810921218695,0.9172454739717927,1.1007458483604018,0.776274213465876
1730865951.9844997,-1.6508206129074097,0.8503293991088867,-9.890620231628418,-0.15623547160605872,-0.2900549722232988,-10.48478272617946,0.9143389459019783,1.1142917957309793,0.8403484502491448
1730865952.034278,-1.668717384338379,0.7852784395217896,-9.882685661315918,-0.15852768043397464,-0.2876032990286788,-10.463505992241975,0.911723792011678,1.1197356139428292,0.782083474213349
1730865952.0843859,-1.668717384338379,0.7852784395217896,-9.882685661315918,-0.16093271433034848,-0.28523379751978784,-10.443981786920324,0.9100174102893064,1.1301483812068853,0.8409355544599904
1730865952.0843859,-1.666137456893921,0.7490000128746033,-9.847501754760742,-0.16343698444834376,-0.2829357385071274,-10.426204448052664,0.9100021628209527,1.1301853172137226,0.8406774794372912
1730865952.134316,-1.6244356632232666,0.7482098340988159,-9.854060173034668,-0.16602669752615665,-0.2806962423067839,-10.41016175305527,0.907130866232642,1.136294654820841,0.7826603248610338
1730865952.1843207,-1.5937052965164185,0.7874472141265869,-9.882034301757812,-0.16868779181370228,-0.27850053711382017,-10.395835131455954,0.9038167180722628,1.1417591961365918,0.6981658887459747
1730865952.2342668,-1.5707736015319824,0.8576775789260864,-9.910017013549805,-0.17140570331930327,-0.27633250027270334,-10.383200091104534,0.9078262913645748,1.1379242193933854,0.8469279493875095
1730865952.2842512,-1.587791085243225,0.9232023358345032,-9.935588836669922,-0.17416516137693128,-0.2741755608633296,-10.372226873373632,0.9094529404141343,1.145311534011485,0.8509684062679113
1730865952.3342435,-1.5839658975601196,0.9715844392776489,-9.951668739318848,-0.17695020322819016,-0.27201379104986434,-10.362881163823683,0.9084123643237355,1.1487494100297526,0.7967751493306929
1730865952.3842833,-1.6285433769226074,0.9795622229576111,-9.949352264404297,-0.17974442556640152,-0.2698328577804359,-10.355124702769054,0.9074218380324895,1.1479414032574493,0.8437981259932601
1730865952.4342704,-1.6731714010238647,0.9589577913284302,-9.931402206420898,-0.18253142499000877,-0.26762056727332567,-10.348915710725592,0.9055293080224854,1.1491285191826246,0.7863792805287895
1730865952.4843504,-1.7608195543289185,0.9085907340049744,-9.892904281616211,-0.18529544218089772,-0.2653668955339692,-10.344209084154585,0.9031869484033419,1.1496445754095355,0.7034134844574542
1730865952.5342863,-1.8198007345199585,0.8613375425338745,-9.845653533935547,-0.18802219459133782,-0.26306357550159054,-10.340956365968447,0.9060717434164978,1.1598461593680727,0.8385864593509279
1730865952.5842535,-1.8743910789489746,0.8098325729370117,-9.812735557556152,-0.19069974259104272,-0.2607034388368973,-10.339105566488879,0.9044828809277093,1.161935915321585,0.7795252413618623
1730865952.634168,-1.8814746141433716,0.8248398900032043,-9.78154468536377,-0.19331914533862282,-0.2582797776799972,-10.33860098253486,0.9064103875817381,1.174298612573767,0.8411822421997187
1730865952.6841817,-1.8178749084472656,0.9012826681137085,-9.799697875976562,-0.19587466470281067,-0.255786058074449,-10.339383179992563,0.9052058934683284,1.178652861458949,0.7836762885417391
1730865952.7341259,-1.7743693590164185,0.9895063042640686,-9.821540832519531,-0.19836337008883106,-0.2532162569599198,-10.341389274073792,0.9051041029974309,1.1849750799714875,0.841519028593144
1730865952.7841399,-1.7426655292510986,1.0704177618026733,-9.879551887512207,-0.2007842988097054,-0.2505657487223788,-10.344553558935782,0.9034770017417898,1.189125226577823,0.783834591782823
1730865952.834016,-1.7173658609390259,1.144403100013733,-9.899643898010254,-0.20313758105281968,-0.24783235594809597,-10.348808392551916,0.9038116301638158,1.20170837611511,0.8414090333358133
1730865952.884022,-1.7238008975982666,1.201750636100769,-9.902915954589844,-0.20542380886284098,-0.2450172320837949,-10.35408509602734,0.9021313951867078,1.207439632068841,0.7838829305162096
1730865952.9340377,-1.7645459175109863,1.1820310354232788,-9.86949348449707,-0.20764373557655658,-0.24212538844091333,-10.360314590132667,0.9071372080630322,1.2193505543048548,0.8422018561472714
1730865952.9839852,-1.83077871799469,1.1543887853622437,-9.82955265045166,-0.2097983702409226,-0.23916568751299996,-10.367427634700613,0.9102418285989586,1.223895394439037,0.8482636891475686
1730865953.0339887,-1.8594506978988647,1.0799541473388672,-9.79504680633545,-0.21188941760251684,-0.236150234388817,-10.375354750526228,0.9105323239064436,1.2283032368157025,0.7930956137203522
1730865953.0839276,-1.8404059410095215,1.018115758895874,-9.759230613708496,-0.21391975430173285,-0.23309332324522478,-10.384026021044843,0.9102917028927842,1.2320893176324523,0.7126516813852876
1730865953.1339393,-1.7897979021072388,0.9865586757659912,-9.764646530151367,-0.21589353801767264,-0.230010231592177,-10.393370964676516,0.9095100302022379,1.2353310657962655,0.6053970496496301
1730865953.1840162,-1.698754072189331,1.0258070230484009,-9.786855697631836,-0.2178157638332051,-0.22691624172116548,-10.403318634672834,0.9114136452648242,1.2394294169670828,0.8374591061688609
1730865953.2339149,-1.6195176839828491,1.096706748008728,-9.849236488342285,-0.21969136534398767,-0.2238262509148834,-10.41379806110567,0.9106819849639147,1.2426632877501322,0.7777180269283722
1730865953.2839737,-1.5690386295318604,1.1863417625427246,-9.894932746887207,-0.22152414441547175,-0.2207550690521556,-10.424739026876662,0.9093833004691992,1.24538296379869,0.6908349703648355
1730865953.3338645,-1.5596836805343628,1.2637195587158203,-9.941064834594727,-0.22331590542225782,-0.21771817192250173,-10.436073005784454,0.91117177047493,1.2561041780776299,0.8399951312721572
1730865953.384044,-1.59630286693573,1.3051685094833374,-9.960204124450684,-0.22506609461155558,-0.21473252489446457,-10.447734019165607,0.9100663485448757,1.2607965091531026,0.780225085827466
1730865953.4338489,-1.6284863948822021,1.3273265361785889,-9.94701862335205,-0.22677202051499315,-0.21181713637420765,-10.459659218103846,0.9084118219565704,1.2649048143975703,0.695145081130926
1730865953.4840422,-1.6553434133529663,1.316172480583191,-9.920696258544922,-0.22842946987433366,-0.2089931703919553,-10.471789085439658,0.9111010926595535,1.2682801009365197,0.8397347085160544
1730865953.5338588,-1.6599690914154053,1.2806527614593506,-9.860176086425781,-0.230033391054913,-0.20628361657586108,-10.484067249718933,0.9133660707925728,1.2800781681254991,0.8484096141171531
1730865953.583919,-1.6765570640563965,1.1801283359527588,-9.819402694702148,-0.23157841534879242,-0.20371254573263997,-10.496440003492939,0.912916215345392,1.285389166086081,0.7924793307739738
1730865953.6338382,-1.6720153093338013,1.0732054710388184,-9.787087440490723,-0.2330591881861264,-0.2013039412370433,-10.508855710169367,0.9157882426420051,1.2950307727429982,0.8436484791708809
1730865953.6838663,-1.6663193702697754,0.9791675806045532,-9.763050079345703,-0.23447055688967833,-0.19908021278306556,-10.521264314649954,0.9155067096284377,1.3007181512993382,0.7856569538423152
1730865953.7339408,-1.6707918643951416,0.9239218235015869,-9.750232696533203,-0.2358076456456319,-0.19706072973542163,-10.533617063861627,0.9146340801008568,1.3059612147736546,0.7007911751401995
1730865953.7837968,-1.6994575262069702,0.9047927856445312,-9.781537055969238,-0.23706590654210222,-0.1952607591768719,-10.545866455787653,0.919918040442975,1.3039499804391732,0.8397683545002096
1730865953.8338177,-1.7137017250061035,0.9450106620788574,-9.824131965637207,-0.23824126836159482,-0.1936910353009754,-10.557966476784216,0.9199125054590906,1.3071269770459188,0.7795529458230126
1730865953.8838098,-1.7199853658676147,1.0237822532653809,-9.900525093078613,-0.23933036757134235,-0.19235803306846733,-10.569873170449025,0.9255139369163176,1.313254559627711,0.8426862087607084
1730865953.933771,-1.7121604681015015,1.109671950340271,-9.941783905029297,-0.24033071600147654,-0.1912648744618149,-10.58154544321708,0.9310404670994442,1.3187068784439107,0.8484224228185073
1730865953.9838536,-1.7125602960586548,1.1412822008132935,-9.991416931152344,-0.24124071891306184,-0.19041256329740575,-10.592945884236762,0.9329471274334057,1.3224129041633101,0.7917117021251471
1730865954.033785,-1.7383090257644653,1.1559922695159912,-9.991555213928223,-0.24205961642863796,-0.1898010746776876,-10.60404136996204,0.9342376135600995,1.3256176435395677,0.7090280089949417
1730865954.0837812,-1.7700742483139038,1.0934906005859375,-9.966474533081055,-0.24278750844585592,-0.18942992598006517,-10.614803297571871,0.9328452785888561,1.3329428374589574,0.8395814570022647
1730865954.1337168,-1.7931220531463623,1.0574482679367065,-9.924484252929688,-0.2434255339238042,-0.18929813024223532,-10.625207375548088,0.9326741783370631,1.3363572248818316,0.7786564577358274
1730865954.1838078,-1.8051255941390991,0.9757516384124756,-9.861323356628418,-0.24397610071206438,-0.18940368818481737,-10.63523302687041,0.9345874096640335,1.349330352861338,0.8424331144605591
1730865954.233678,-1.8243852853775024,0.909440279006958,-9.807530403137207,-0.24444302926192824,-0.18974286690560813,-10.64486256103645,0.9344389246455809,1.3552798210770394,0.7831810564181424
1730865954.2837088,-1.831785798072815,0.8526820540428162,-9.77783489227295,-0.24483158636851315,-0.19030945114222383,-10.65408031022529,0.9348883756282249,1.3568731535863576,0.8425621274022479
1730865954.3335953,-1.7967559099197388,0.8678164482116699,-9.767488479614258,-0.24514840515716635,-0.19109417996371242,-10.662871950014503,0.9341548451740522,1.3606811824914995,0.7835616696462856
1730865954.3836603,-1.7605763673782349,0.9291214346885681,-9.799591064453125,-0.24540119647000908,-0.1920846736261433,-10.671224173385594,0.9353115202227368,1.3721745102796337,0.8425611531767587
1730865954.433618,-1.710945725440979,1.0032237768173218,-9.818702697753906,-0.24559820625036932,-0.19326602676529564,-10.679124756052811,0.9343790381816757,1.377616561625374,0.7829627542935202
1730865954.4836576,-1.7012803554534912,1.053971767425537,-9.838756561279297,-0.2457475628230585,-0.19462188921997534,-10.686562886572538,0.9360088646470257,1.3825798116543537,0.8422640933867135
1730865954.5335536,-1.6881037950515747,1.0379717350006104,-9.849413871765137,-0.24585674610547453,-0.19613556334107568,-10.69352953712713,0.9350876003067112,1.3870010819965468,0.7832137195772756
1730865954.5836434,-1.7113316059112549,0.9963055849075317,-9.854170799255371,-0.2459323274487383,-0.197790645432816,-10.700017726017753,0.9368604471323535,1.3909998633457858,0.8422260144358363
1730865954.6335702,-1.745736837387085,0.9328804016113281,-9.85682487487793,-0.24598001004858,-0.1995710299587449,-10.706022644492903,0.9359938688979829,1.394465077581291,0.7827000434634782
1730865954.683587,-1.7479357719421387,0.8603179454803467,-9.831171989440918,-0.24600490162001948,-0.2014604314397443,-10.711541650034475,0.9345030942363759,1.3974496691161635,0.6958536249146673
1730865954.733575,-1.7491909265518188,0.843873918056488,-9.839099884033203,-0.24601182169168637,-0.20344173693996642,-10.716574130358524,0.9373940094806094,1.3999387036255488,0.8388729902942988
1730865954.7836032,-1.719849944114685,0.8954249024391174,-9.856204986572266,-0.24600543168214736,-0.20549658757451172,-10.721121334204888,0.9362663127317898,1.4018984028636106,0.7776649104370363
1730865954.8335345,-1.69038987159729,1.013269066810608,-9.893735885620117,-0.24599012380703555,-0.20760560223818403,-10.725186340163997,0.9405428470911397,1.4034126456416067,0.8420192431658876
1730865954.8834958,-1.6407148838043213,1.1782209873199463,-9.94733715057373,-0.24596971178204893,-0.20974943099262425,-10.728774245735485,0.9443361487688985,1.4044769903776573,0.8479328738307037
1730865954.9335127,-1.5968351364135742,1.3148117065429688,-9.980710983276367,-0.24594699433961353,-0.21191045532604574,-10.731892519995304,0.9453430745289964,1.404891381293902,0.7904671159303227
1730865954.9834745,-1.5788203477859497,1.3853707313537598,-9.986942291259766,-0.245923302735469,-0.2140746119850161,-10.734551347679588,0.9457291062975881,1.404772157738821,0.7068124198704187
1730865955.0333755,-1.59587824344635,1.345052719116211,-9.986001014709473,-0.2458982167776359,-0.21623264465838285,-10.736763751945396,0.94594918304658,1.4042012983445684,0.8390001380493128
1730865955.0834413,-1.6471034288406372,1.241713523864746,-9.92891788482666,-0.24586964422507865,-0.2183802425830158,-10.738545382122425,0.9455307863967335,1.4030022476514523,0.7777361298169633
1730865955.1334794,-1.7504501342773438,1.1041513681411743,-9.85863208770752,-0.24583436658296104,-0.22051698305101539,-10.739913930787356,0.9444881062639293,1.4012408273809704,0.6889356140907235
1730865955.1834555,-1.8304283618927002,0.9711137413978577,-9.74976921081543,-0.24578901768603686,-0.22264447081095412,-10.740888175015002,0.9499636512680568,1.3990547129293065,0.8384856780682104
1730865955.2333221,-1.9156988859176636,0.9128645658493042,-9.670672416687012,-0.24573127404188025,-0.2247643066919527,-10.74148675309477,0.9499351547322001,1.3962085982520729,0.7774334557558101
1730865955.2834413,-1.9563443660736084,0.903839647769928,-9.61693286895752,-0.24566092475515058,-0.226876520876377,-10.741726946621263,0.9492857925216456,1.392755796266747,0.6884734029842104
1730865955.3332965,-1.9662718772888184,0.9583784937858582,-9.625625610351562,-0.2455805574869813,-0.2289788853030464,-10.741623815749314,0.9480329741335939,1.388780497559343,0.5739187800122375
1730865955.3834836,-1.923431158065796,1.0500279664993286,-9.705564498901367,-0.24549570485415304,-0.23106715904554148,-10.741189985919938,0.956581396691623,1.3843586336875378,0.8359744412818362
1730865955.4342368,-1.8367159366607666,1.1513241529464722,-9.823517799377441,-0.24541437947415112,-0.23313605244098737,-10.740436238469165,0.9568293867443582,1.3791263991760268,0.7723713169684698
1730865955.4842105,-1.7143102884292603,1.2665013074874878,-9.948857307434082,-0.2453460198983684,-0.2351805811693707,-10.739372806978519,0.9613186291704886,1.3735816435607966,0.8415768312329703
1730865955.5342638,-1.5934988260269165,1.3747628927230835,-10.055098533630371,-0.2452999925782955,-0.2371975009818635,-10.738011008897352,0.9620867517272724,1.3672124528678824,0.7810324790257308
1730865955.5842412,-1.4835880994796753,1.4298890829086304,-10.111140251159668,-0.24528393381557725,-0.2391865765742314,-10.736364741315189,0.9648188005667062,1.3605130418205447,0.8421218213442674
1730865955.6342456,-1.443881630897522,1.4316983222961426,-10.103753089904785,-0.24530230207846876,-0.24115140473105695,-10.73445143523295,0.9654120010360133,1.3529686456967098,0.7820533065124716
1730865955.6842623,-1.4952565431594849,1.3775787353515625,-10.049909591674805,-0.24535555159426134,-0.24309952386612446,-10.73229221378729,0.9675814160116596,1.3450653400688697,0.8373370334371525
1730865955.7341847,-1.6399167776107788,1.2702287435531616,-9.953142166137695,-0.24544030914366655,-0.2450417215553289,-10.72991122788924,0.9676452122325493,1.3363481636745536,0.7764061225492281
1730865955.7842758,-1.8158236742019653,1.1555479764938354,-9.814238548278809,-0.2455506884864717,-0.2469906625499297,-10.727334329211146,0.9689294502095511,1.3272596141705268,0.8311210194384309
1730865955.8341494,-1.987913966178894,1.0372942686080933,-9.684324264526367,-0.24568044146239118,-0.24895912888229682,-10.724587312534624,0.9693356975859715,1.3176200450355484,0.8327869376097398
1730865955.8841746,-2.1046435832977295,0.9711049795150757,-9.589987754821777,-0.24582531316609435,-0.2509582701978355,-10.721694053488008,0.9687697679693,1.3070351007447492,0.7728494388501178
1730865955.9341092,-2.1483964920043945,0.9394667744636536,-9.553539276123047,-0.24598492953353124,-0.25299625665011605,-10.718674978107742,0.9675923125934399,1.29585091177572,0.6863490834897944
1730865955.9841945,-2.121264934539795,0.9565346837043762,-9.586009979248047,-0.24616374193574714,-0.2550775958162056,-10.715546252137267,0.9657920217661394,1.2839753608292288,0.5725519452974228
1730865956.0340698,-2.039263963699341,0.9619608521461487,-9.645097732543945,-0.24637086744324982,-0.2572031290013378,-10.712319856555341,0.9695553218482919,1.2718283458942494,0.8168633344138906
1730865956.0840585,-1.9312196969985962,0.9948458671569824,-9.719782829284668,-0.24661897620394896,-0.25937048781529654,-10.70900441807871,0.9684466721264686,1.2587575218077862,0.7535301392860612
1730865956.1340225,-1.8107657432556152,1.0069457292556763,-9.799466133117676,-0.2469225753646654,-0.2615747446672766,-10.705606454575113,0.9667124676537193,1.2449478493709263,0.6629538675192506
1730865956.184022,-1.7375962734222412,1.0039891004562378,-9.883305549621582,-0.2472961179358707,-0.2638090598628813,-10.70213171820122,0.9643759730799638,1.2305824987370895,0.5463977734441904
1730865956.2339506,-1.6901278495788574,0.9899908900260925,-9.963652610778809,-0.2477523725110317,-0.26606516960050103,-10.698586460883988,0.9755150974937353,1.215922783195696,0.8131031435595457
1730865956.2840056,-1.6511867046356201,1.0167818069458008,-10.022025108337402,-0.24830133861904155,-0.26833368761699095,-10.694978521543208,0.9753892862379472,1.200118075139033,0.7494571721978114
1730865956.3338845,-1.626352071762085,1.0566904544830322,-10.058816909790039,-0.24894969343205303,-0.27060440613451703,-10.691318127970057,0.981484808184308,1.18429192221979,0.8202051741378463
1730865956.3839247,-1.6089198589324951,1.1275053024291992,-10.08283519744873,-0.2497005954233297,-0.27286680871377605,-10.687618326753658,0.9820076959961266,1.1672109318480683,0.7603524896255401
1730865956.433835,-1.548673152923584,1.161179542541504,-10.08017635345459,-0.25055367505627835,-0.2751108005320283,-10.683895038525087,0.9899807708806148,1.1499911916044523,0.8214974942196329
1730865956.4838657,-1.5168516635894775,1.1840696334838867,-10.051786422729492,-0.25150503836704496,-0.2773274363374728,-10.680166775856195,0.9960526468749011,1.1322003438290882,0.8330539733691049
1730865956.533793,-1.4813148975372314,1.1318827867507935,-9.987784385681152,-0.252547220913654,-0.2795093462489985,-10.676454028122015,0.9987966704488861,1.1131275572890704,0.778749125841801
1730865956.5838237,-1.4938756227493286,1.0512200593948364,-9.905617713928223,-0.25366923094600563,-0.2816506234991071,-10.672778312987646,1.0009203182775732,1.0932635735761054,0.6974849701134568
1730865956.6337664,-1.5253958702087402,0.9455553293228149,-9.82075309753418,-0.2548568676543024,-0.2837461137892578,-10.669160969848253,1.0024085017207411,1.0726525977034564,0.589241371399114
1730865956.683823,-1.6069215536117554,0.8572342395782471,-9.72569751739502,-0.25609342204083774,-0.2857902995076313,-10.665621856988007,1.0010260875111352,1.0521824162553817,0.8265464170173226
1730865956.7337284,-1.7038275003433228,0.803158164024353,-9.66273307800293,-0.257360776389971,-0.2877761498101195,-10.662178131692066,1.0015420575671605,1.0301613235074363,0.7659048104338029
1730865956.7837372,-1.8090814352035522,0.8006678223609924,-9.635173797607422,-0.2586408081529208,-0.28969431562998027,-10.65884330268395,1.0046433651574185,1.0085068031413347,0.8360979279171599
1730865956.8336544,-1.8927173614501953,0.8072279691696167,-9.634767532348633,-0.259916881914065,-0.2915328991594632,-10.655626746479259,1.0082099058448453,0.9860736812043331,0.8456267201096493
1730865956.883653,-1.9440635442733765,0.8602471947669983,-9.668485641479492,-0.2611751456277547,-0.2932777882713724,-10.652533765240566,1.009089622102493,0.9619691737551976,0.7909929012322396
1730865956.9336395,-1.9826576709747314,0.9154075980186462,-9.733817100524902,-0.2624054048890002,-0.2949134105894787,-10.649566133937036,1.00931371202738,0.9369908076372875,0.709189950922834
1730865956.9837236,-1.9989776611328125,0.9727869033813477,-9.810914993286133,-0.26360151666490916,-0.2964237407525814,-10.64672304214506,1.0125610830488596,6.588054143478476,0.8410060730963381
1730865957.033659,-1.9968469142913818,1.0430967807769775,-9.891023635864258,-0.2647613774715677,-0.29779337801783,-10.644002285724882,1.0127963263150945,6.589401819511766,0.7823989718305162
1730865957.083661,-1.9078164100646973,1.1033395528793335,-9.982389450073242,-0.2658865267693745,-0.29900856292165834,-10.641401523105275,1.0123701980638096,6.590018309231028,0.6964694079950877
1730865957.1336153,-1.811535358428955,1.1505705118179321,-10.037453651428223,-0.26698125602038997,-0.30005806204108776,-10.638919437383638,1.0163877401685446,6.631294467290858,0.8396840998784201
1730865957.1835968,-1.684177279472351,1.158101201057434,-10.068291664123535,-0.26805120844461894,-0.3009338088103233,-10.636556638909042,1.0163369878084272,6.629671861418587,0.7794600572435
1730865957.2335598,-1.607757568359375,1.1402833461761475,-10.083259582519531,-0.26910173759925676,-0.30163115590566714,-10.63431615185787,1.0156123988634949,6.627279449085324,0.6920353976247615
1730865957.2836456,-1.5794684886932373,1.0847864151000977,-10.054425239562988,-0.2701364698565578,-0.3021486584136484,-10.632203446966805,1.0142218339342868,6.624153159536908,0.5787853892611176
1730865957.3335211,-1.6266781091690063,1.0333889722824097,-10.00820255279541,-0.2711565008674077,-0.30248743165456016,-10.630226056312452,1.0221267334387534,6.615928022469158,0.8369526530943202
1730865957.3835816,-1.7076492309570312,0.985153317451477,-9.948284149169922,-0.2721604602806038,-0.3026502647938041,-10.628392825346092,1.0261934608777328,6.5954327500946235,0.8475039932513793
1730865957.4335127,-1.7534598112106323,0.9991579055786133,-9.872818946838379,-0.27314531310978174,-0.30264078047889165,-10.626712926425114,1.0268015548703633,6.5846025040235565,0.790601464838658
1730865957.4836228,-1.761965274810791,1.019677996635437,-9.80775260925293,-0.2741073986849004,-0.3024629394622309,-10.625194788006324,1.026725051956867,6.572966656129294,0.7067730703872012
1730865957.5335631,-1.7332777976989746,1.0601274967193604,-9.740081787109375,-0.2750431544487013,-0.30212100815485843,-10.623845074166807,1.0259585916658789,6.560582057856296,0.5963231711455859
1730865957.5835302,-1.7360866069793701,1.0578792095184326,-9.706241607666016,-0.27594932889475243,-0.30161982217094685,-10.622667842684315,1.0245096892270356,6.547510992980575,0.45998750585804776
1730865957.633568,-1.7078824043273926,1.0534155368804932,-9.675688743591309,-0.2768228799685777,-0.3009650338550023,-10.621663991299343,1.0303713045018492,6.565981889670335,0.8351154706756799
1730865957.683474,-1.7233083248138428,1.0290294885635376,-9.678693771362305,-0.27766081890590094,-0.30016313276156703,-10.620831047488176,1.0298738173920823,6.55786467233552,0.7729132920935385
1730865957.733404,-1.7296462059020996,1.0342074632644653,-9.693284034729004,-0.2784601405581684,-0.29922125867799376,-10.620163297930892,1.0349858526041253,6.5387599986971345,0.8421311530749346
1730865957.7834828,-1.7782323360443115,1.0552161931991577,-9.738544464111328,-0.27921792412056395,-0.29814699967217884,-10.619652230961922,1.0354193197182033,6.525406202114839,0.7827004690834907
1730865957.833414,-1.8271551132202148,1.1032934188842773,-9.756502151489258,-0.279931651969865,-0.2969483797651581,-10.619287220387848,1.0351518195632752,6.511292688444295,0.6965688095593029
1730865957.8834038,-1.8970963954925537,1.1459044218063354,-9.80887222290039,-0.2805997318170577,-0.29563410635374315,-10.619056305421697,1.034181916207766,6.496447842567795,0.5838850538282686
1730865957.933347,-1.9201931953430176,1.1988476514816284,-9.833016395568848,-0.28122210907865963,-0.2942139874745772,-10.61894694550706,1.0386142790092803,6.51120786214828,0.8369709573551314
1730865957.983341,-1.93211030960083,1.2210768461227417,-9.855461120605469,-0.281800742617393,-0.29269935989852275,-10.61894668540762,1.038072586814253,6.50225179071191,0.7750969153201441
1730865958.0332818,-1.8952357769012451,1.1917591094970703,-9.863088607788086,-0.28233972278164177,-0.2911033322675747,-10.619043651795259,1.043080392714283,6.503811004874978,0.8429381513353749
1730865958.0833924,-1.8952357769012451,1.1917591094970703,-9.863088607788086,-0.2828449919282154,-0.28944067116636707,-10.619226833310416,1.0434258612431546,6.496525397109097,0.7836175972061802
1730865958.0833924,-1.8420480489730835,1.143674373626709,-9.883455276489258,-0.2833238212552618,-0.28772735985296155,-10.61948619247408,1.043425789972805,6.496481048048614,0.7831959256625312
1730865958.1332362,-1.7618697881698608,1.129366159439087,-9.8805570602417,-0.28378414486583675,-0.28598000319100336,-10.61981270999038,1.0459651490806323,6.496080387917639,0.8479329464743598
1730865958.1833367,-1.694387674331665,1.115341305732727,-9.905627250671387,-0.28423369863932885,-0.2842152274401123,-10.620198424867674,1.046071059602914,6.489555250067702,0.7927137766440945
1730865958.2332082,-1.6100733280181885,1.094612956047058,-9.931663513183594,-0.28467901454260747,-0.28244919184657447,-10.620636501725343,1.0454667549411132,6.482364659797202,0.711352565709106
1730865958.2832747,-1.5418109893798828,1.0807050466537476,-9.972339630126953,-0.28512445568566824,-0.28069723221034243,-10.621121379572529,1.0498642360445802,6.486710307263399,0.841833015152656
1730865958.3331993,-1.499990701675415,1.0729589462280273,-10.015694618225098,-0.28557143336505364,-0.2789735845512859,-10.62164902500773,1.052061126133321,6.478738050210166,0.8483972550436563
1730865958.383289,-1.4388550519943237,1.0682786703109741,-10.016959190368652,-0.28601789277466616,-0.27729119308780786,-10.622217209610401,1.0520267123545948,6.472297790531272,0.7915794837633219
1730865958.4332135,-1.4234479665756226,1.0768064260482788,-10.036955833435059,-0.28645807664361417,-0.27566162941829986,-10.622825657625132,1.0553020332305743,6.471577908141095,0.8418215646578393
1730865958.4831707,-1.4432932138442993,1.1116139888763428,-10.005428314208984,-0.28688257438525055,-0.27409514896842235,-10.623475964074526,1.0555585257265703,6.4657140453209765,0.7826032849905322
1730865958.5341525,-1.5085569620132446,1.1484904289245605,-9.962830543518066,-0.287278782203681,-0.2726009320348407,-10.624171258041375,1.055084509833342,6.459036387139813,0.6950214415099359
1730865958.5831633,-1.5824558734893799,1.1850098371505737,-9.87814998626709,-0.28763184804482916,-0.2711874939853146,-10.624915570005648,1.056786006673343,6.459559029499064,0.837742377661369
1730865958.6341417,-1.7026240825653076,1.1562330722808838,-9.797066688537598,-0.28792599523681484,-0.2698630927932577,-10.625712904967934,1.056041023075436,6.453922636219414,0.7757813900052194
1730865958.6841717,-1.8434793949127197,1.0966352224349976,-9.701960563659668,-0.28814609327384955,-0.2686358386392529,-10.62656614053817,1.054583610245646,6.447716627468421,0.688210135794119
1730865958.7341104,-1.9647480249404907,1.0394996404647827,-9.635427474975586,-0.2882793707908204,-0.267513322592449,-10.627475936576538,1.0524015530144022,6.44082820344435,0.5738610666965162
1730865958.7841659,-2.0362460613250732,0.9632866978645325,-9.589738845825195,-0.28831701965160694,-0.26650189245358713,-10.628439856612177,1.0584414394248989,6.446426717288213,0.8346044158080871
1730865958.8331368,-2.0580220222473145,0.9396564364433289,-9.595098495483398,-0.288255301318527,-0.2656058705706454,-10.629451888177691,1.0574435393068238,6.441354474284103,0.7741973678622686
1730865958.8841126,-2.0260348320007324,0.9472898840904236,-9.640368461608887,-0.28809588065030023,-0.26482700588737557,-10.63050250377325,1.05946605534816,6.432546595869395,0.8399327900763753
1730865958.9341154,-1.9630955457687378,1.0134309530258179,-9.721592903137207,-0.2878453584730204,-0.26416441954047715,-10.63157931177129,1.0583625567883443,6.42594571442752,0.7800197484149833
1730865958.984118,-1.895137906074524,1.0919886827468872,-9.815616607666016,-0.2875141835145245,-0.2636151512273083,-10.6326682084117,1.060699338129266,6.416390381662134,0.84098015336748
1730865959.0339692,-1.8222602605819702,1.1473636627197266,-9.905097961425781,-0.28711525028589113,-0.2631751469908323,-10.633754809207998,1.0596940363171086,6.408154664412202,0.7818849746652291
1730865959.0840662,-1.7455374002456665,1.1361726522445679,-9.956357955932617,-0.2866624653476891,-0.2628402736476686,-10.634825858815862,1.0635162884139988,6.398740026208904,0.8414775982699144
1730865959.1339521,-1.700907826423645,1.1482601165771484,-10.000899314880371,-0.28616945373685787,-0.2626069353456097,-10.635870332056315,1.0632080581649532,6.388139222009017,0.782231270148866
1730865959.1839936,-1.7207727432250977,1.1174755096435547,-10.020934104919434,-0.28564858771240204,-0.2624722049942573,-10.63688009091217,1.062184972683737,6.376895827871101,0.6964550106545105
1730865959.233999,-1.7523990869522095,1.134559988975525,-9.988039016723633,-0.2851105681043328,-0.26243368232548214,-10.637850098944682,1.0643118088697319,6.386962930495613,0.8410673004196275
1730865959.2839696,-1.8286563158035278,1.1376848220825195,-9.950651168823242,-0.28456462528983956,-0.2624893193044353,-10.638778184252184,1.0632464914774307,6.3801784337661935,0.7811887737241028
1730865959.3339097,-1.8731988668441772,1.1633003950119019,-9.883402824401855,-0.28401915823888946,-0.2626373624796824,-10.639664383013569,1.0664031314313356,6.373187930172898,0.847466584090382
1730865959.3839538,-1.87714421749115,1.2097761631011963,-9.829784393310547,-0.2834824723233849,-0.2628764580209919,-10.64051002470244,1.0681445261959448,6.368051880383344,0.8552875999039319
1730865959.43391,-1.87714421749115,1.2097761631011963,-9.829784393310547,-0.2829632521026431,-0.26320588277978874,-10.641316812437992,1.0676229221196292,6.361543024807761,0.8004233860095297
1730865959.43391,-1.8527741432189941,1.2444229125976562,-9.779115676879883,-0.2824706237786873,-0.2636257766700211,-10.642086146943635,1.0676181345381157,6.3615053833735775,0.8000491350299969
1730865959.483997,-1.7791498899459839,1.2536530494689941,-9.761033058166504,-0.28201386962183295,-0.2641372743158414,-10.64281871466427,1.0663790871866223,6.354234837287965,0.7176185368894668
1730865959.5338774,-1.7433054447174072,1.2289862632751465,-9.7857084274292,-0.2816018527165608,-0.26474251940192517,-10.643514234382302,1.070046877612018,6.336488984770082,0.8565521363847878
1730865959.583923,-1.7001326084136963,1.2023404836654663,-9.813427925109863,-0.2812423006384093,-0.26544448414975597,-10.644171452792943,1.0692710970834525,6.325449740832218,0.8005850178496656
1730865959.6338441,-1.658395528793335,1.1724835634231567,-9.855494499206543,-0.28094118583584726,-0.2662465500072343,-10.644788479748717,1.0716809386453146,6.304386025833627,0.8589821200781639
1730865959.6838272,-1.589672565460205,1.1396898031234741,-9.88569164276123,-0.2807022497515039,-0.267151973955733,-10.645363322396907,1.0733404452418693,6.284620750000024,0.8625265341566024
1730865959.733828,-1.5081108808517456,1.1046420335769653,-9.922158241271973,-0.28052652983007925,-0.26816336630687,-10.645894431116792,1.0728872508416778,6.268570268174346,0.8060953579553126
1730865959.7838185,-1.4295170307159424,1.1049782037734985,-9.95274543762207,-0.2804117990729702,-0.26928224692391856,-10.64638116649303,1.0717433890642762,6.252098914183203,0.7240526997798854
1730865959.833836,-1.4295170307159424,1.1049782037734985,-9.95274543762207,-0.2803520468714803,-0.2705087807239112,-10.646824140954571,1.069894829532997,6.234859978053145,0.6150272498664354
1730865959.833836,-1.4276865720748901,1.1359474658966064,-9.951932907104492,-0.2803373135146375,-0.27184177466149095,-10.647225363271334,1.069882941191207,6.234765007100297,0.6143660202589729
1730865959.8838398,-1.4848183393478394,1.1582427024841309,-9.916403770446777,-0.28035407205766477,-0.2732789176496345,-10.647588129151929,1.0737348726690064,6.255992601666765,0.8511682760339995
1730865959.9337692,-1.5948827266693115,1.1681678295135498,-9.850994110107422,-0.2803861378036747,-0.27481715280979896,-10.647916640217641,1.075344547331081,6.2326778255712325,0.8606179771788119
1730865959.9839382,-1.7093874216079712,1.1369863748550415,-9.79179573059082,-0.2804160576401237,-0.27645298557298625,-10.648215348365994,1.0745600573521081,6.218186923490007,0.8044640704148094
1730865960.0338023,-1.8193243741989136,1.1080282926559448,-9.737626075744629,-0.28042682204118136,-0.2781825352946543,-10.648488134479853,1.077080969035913,6.225349877071696,0.8551317038487647
1730865960.083812,-1.884267807006836,1.1029753684997559,-9.714607238769531,-0.2804035329214891,-0.28000134026935664,-10.648737557517657,1.076337580240858,6.217632578489517,0.7965567507028003
1730865960.1337838,-1.9105286598205566,1.1115912199020386,-9.716594696044922,-0.28033464489864623,-0.2819041519759342,-10.64896438921362,1.0748926594603525,6.2091801293755315,0.7111966112212524
1730865960.1837988,-1.9257912635803223,1.116139531135559,-9.744019508361816,-0.28021258139852423,-0.28388491728101944,-10.649167545114917,1.0786388139380196,6.209625369347196,0.8504707342411397
1730865960.2337227,-1.9447674751281738,1.1083884239196777,-9.78177261352539,-0.2800338039530291,-0.28593691143941474,-10.64934440153617,1.0777016070222198,6.2015077885170955,0.7893563183725368
1730865960.28374,-1.942165493965149,1.0875669717788696,-9.824285507202148,-0.2797985801080435,-0.2880528547280359,-10.649491381483147,1.0803732459932656,6.192230175673776,0.8531851945002451
1730865960.3336928,-1.9253342151641846,1.0885087251663208,-9.844911575317383,-0.27951059635942965,-0.29022492541413675,-10.649604632932698,1.079639117167556,6.1821688369932275,0.7936907791227931
1730865960.383695,-1.8715403079986572,1.0781447887420654,-9.8873929977417,-0.27917638962307256,-0.292444730829783,-10.649680637070668,1.0782082047436072,6.171380297712799,0.7076305911899088
1730865960.4336674,-1.8378441333770752,1.0401469469070435,-9.917705535888672,-0.2788045613660695,-0.2947032878011866,-10.6497166989706,1.0760910044361451,6.159905614133375,0.5954952362816182
1730865960.48365,-1.7672381401062012,1.032460331916809,-9.951805114746094,-0.27840485050556396,-0.296990951332908,-10.649711359217502,1.0841328268294028,6.176922523100681,0.8439844543941066
1730865960.5337403,-1.7021394968032837,1.0370874404907227,-9.975760459899902,-0.2779871626463145,-0.29929731728009185,-10.649664727426366,1.0833553417229502,6.170631076553014,0.7810077094908049
1730865960.5838394,-1.65043306350708,1.073177456855774,-10.0149564743042,-0.2775606106602652,-0.30161128122732406,-10.649578720298056,1.0889612737844818,6.163573113241447,0.8447034706983994
1730865960.6337297,-1.6014059782028198,1.14634108543396,-10.020565032958984,-0.27713267062806,-0.30392140019141756,-10.64945721373251,1.0891914023785756,6.155910333326829,0.7843166878416863
1730865960.6836996,-1.5850491523742676,1.22859787940979,-9.987622261047363,-0.276708578935744,-0.30621659289783637,-10.649306040140956,1.0934892934678615,6.147382269651939,0.8416434127299751
1730865960.733647,-1.6096011400222778,1.2526041269302368,-9.945744514465332,-0.27629106643592577,-0.30848704063770205,-10.649132677464848,1.0940173249829095,6.138080372229375,0.7803897581438075
1730865960.7837098,-1.665219783782959,1.2559261322021484,-9.857342720031738,-0.27588053430198345,-0.3107249250562591,-10.648945572525298,1.0938537782255702,6.128022797078056,0.6926247835716945
1730865960.8336103,-1.7471556663513184,1.2027697563171387,-9.769553184509277,-0.2754757068373216,-0.31292466184999723,-10.648753166810792,1.093004603846457,6.1172159389543825,0.5785919923381156
1730865960.8836133,-1.8258168697357178,1.1118991374969482,-9.667461395263672,-0.2750746419237732,-0.3150825262201684,-10.64856273681358,1.0962475241224776,6.105540587603493,0.8321661890188012
1730865960.9335773,-1.8815194368362427,1.0185134410858154,-9.608986854553223,-0.27467585549281254,-0.31719574631455394,-10.648379235707836,1.0957517477652015,6.093161119769728,0.7693879522729157
1730865960.9835758,-1.8734042644500732,0.954424262046814,-9.58102798461914,-0.27427923596855697,-0.31926131706321753,-10.648204403121007,1.0996936060582558,6.079864568693837,0.8344272549570236
1730865961.033538,-1.8734042644500732,0.954424262046814,-9.58102798461914,-0.27388646964815366,-0.3212749619459474,-10.648036366652704,1.0995053042585194,6.065888054659265,0.7737465653090965
1730865961.033538,-1.824157476425171,0.9195178747177124,-9.613903045654297,-0.27350093423612076,-0.3232305846413705,-10.647869786995052,1.0995023506094446,6.065808030371195,0.7733347493222695
1730865961.0836797,-1.7324042320251465,0.9404146075248718,-9.695297241210938,-0.2731271644877168,-0.3251202034063325,-10.647696487562119,1.0986271643558665,6.050985195914381,0.6857786375951129
1730865961.133535,-1.6441199779510498,0.9858413338661194,-9.814929962158203,-0.27276993861666804,-0.32693421494439723,-10.647506541914993,1.1009381616235134,6.0353144117966755,0.8417611951678354
1730865961.1836119,-1.5686087608337402,1.074684739112854,-9.920032501220703,-0.27243312217827714,-0.3286620048058718,-10.64728975296925,1.1001086130900508,6.018818794133922,0.78514796319722
1730865961.2334654,-1.542607307434082,1.151999592781067,-10.003628730773926,-0.2721186076414414,-0.3302929321539355,-10.64703725631273,1.1010018891783493,6.001511304257985,0.846071747653617
1730865961.283573,-1.5542049407958984,1.2301385402679443,-10.041191101074219,-0.27182569192253736,-0.33181750497425266,-10.646742854262017,1.099838548887436,5.983348730867301,0.7890520706937216
1730865961.3333614,-1.6225168704986572,1.2406723499298096,-10.066964149475098,-0.2715510817904308,-0.3332284285803985,-10.646403809908534,1.098004711593597,5.96446026891881,0.7058225628559345
1730865961.3834236,-1.7253564596176147,1.2138913869857788,-10.027120590209961,-0.27128955849237335,-0.3345212000815591,-10.646021041322372,1.095483015674902,5.944647578420742,0.5955593578100908
1730865961.4334004,-1.8377536535263062,1.1672279834747314,-9.96264362335205,-0.27103518597700793,-0.3356940594530163,-10.64559873581638,1.1009269481999155,5.923983893393489,0.8413666645988702
1730865961.4834306,-1.8791604042053223,1.118408203125,-9.90227222442627,-0.27078274251341217,-0.336747400705203,-10.645143458781611,1.0994825319170298,5.902428042702749,0.7803170409652032
1730865961.5334456,-1.8703622817993164,1.049418330192566,-9.87574577331543,-0.27052885617911737,-0.33768291967504355,-10.644663031228715,1.1021529521493767,5.8799845846101055,0.8494757876801691
1730865961.5833516,-1.7904411554336548,0.9940613508224487,-9.860814094543457,-0.27027238626154515,-0.33850269893973495,-10.644165564584997,1.1026936596875585,5.8568306520062485,0.8592095425491434
1730865961.6333067,-1.6464136838912964,0.9628157019615173,-9.86606502532959,-0.270013890120793,-0.3392083633819553,-10.643658868538099,1.1016312728060897,5.832814235092886,0.8048112885265768
1730865961.683353,-1.5627888441085815,0.9482263922691345,-9.848698616027832,-0.26975434613514415,-0.33980047057185164,-10.643150187842338,1.099892912788463,5.807945862825716,0.7237538351460193
1730865961.7333167,-1.562458872795105,0.9341247081756592,-9.841981887817383,-0.2694937099955683,-0.34027822888430437,-10.642646090807062,1.097485172954889,5.782281862387383,0.616300534986965
1730865961.783527,-1.5797141790390015,0.9555282592773438,-9.840194702148438,-0.26923004857549643,-0.3406394991308932,-10.64215238271092,1.1024982431459485,5.755398847361382,0.8466818608795978
1730865961.8334281,-1.656130313873291,1.0449622869491577,-9.828990936279297,-0.26895955393497595,-0.34088108809949763,-10.641674041566835,1.1010466219916146,5.72801424524143,0.7852409653837316
1730865961.883437,-1.7408385276794434,1.130565881729126,-9.812065124511719,-0.2686772487699948,-0.34099946319038166,-10.641215176071295,1.0989168409614198,5.6996949588756225,0.6969428034683098
1730865961.933372,-1.8037424087524414,1.1793253421783447,-9.80042552947998,-0.26837806946773046,-0.3409918146928308,-10.64077895849858,1.0961262809281278,5.670645864504436,0.5824765005021227
1730865961.9834905,-1.8700915575027466,1.1633671522140503,-9.820185661315918,-0.26805798723769014,-0.34085701705180815,-10.640367563893138,1.1027863813015646,5.640472930095031,0.8452430301055007
1730865962.0333447,-1.9134926795959473,1.100498914718628,-9.80792236328125,-0.26771490672423204,-0.34059600060219763,-10.639982212492978,1.101349118544004,5.609847335158157,0.7838539410302163
1730865962.083408,-1.9134926795959473,1.100498914718628,-9.80792236328125,-0.2673492328151871,-0.3402114464835821,-10.639623295285043,1.1031064393441268,5.577840609181327,0.8503611378049204
1730865962.083408,-1.9817607402801514,0.9967160820960999,-9.799867630004883,-0.26696409580142416,-0.3397071208420157,-10.639290471798406,1.103100693870529,5.577666621940877,0.8501096342666736
1730865962.1332574,-2.009242534637451,0.8998187184333801,-9.762540817260742,-0.26656540318000393,-0.33908704159796815,-10.638982685768742,1.1017228414988578,5.545468968810398,0.7910639276927824
1730865962.1833553,-2.0146119594573975,0.8520634174346924,-9.732019424438477,-0.2661618716423209,-0.33835446087968407,-10.638698060162223,1.1027537672052805,5.5117155241153,0.8585849138465977
1730865962.2332752,-1.9653370380401611,0.8578269481658936,-9.763777732849121,-0.2657648730327089,-0.3375109558876697,-10.63843372350011,1.102817234249064,5.477357798748336,0.8607109349880245
1730865962.2832632,-1.8760980367660522,0.9307280778884888,-9.811843872070312,-0.2653878279466007,-0.33655612752370967,-10.638185838664391,1.1013968708660733,5.442271971499955,0.8056917113443204
1730865962.3331802,-1.7786275148391724,1.0387083292007446,-9.875558853149414,-0.26504509646817426,-0.3354881145946985,-10.637950047630726,1.0993214801674647,5.406479705114779,0.7243915480206706
1730865962.3832405,-1.7020138502120972,1.1243410110473633,-9.926508903503418,-0.2647505740874577,-0.33430475501924994,-10.63772222016798,1.0965703303604277,5.369643889896851,0.6159656938699335
1730865962.4332123,-1.6601722240447998,1.1989141702651978,-9.964488983154297,-0.2645163661951023,-0.33300496597710527,-10.637499230081339,1.1027134892290278,5.331816348758042,0.8465847404809779
1730865962.4832904,-1.6342209577560425,1.2611186504364014,-9.975395202636719,-0.26435186330048277,-0.33158991931447,-10.637279534610197,1.1012136142808353,5.293170144873543,0.7848188688546891
1730865962.5331616,-1.622498869895935,1.2675787210464478,-9.962905883789062,-0.2642633076713743,-0.3300638096025553,-10.637063427662056,1.1034816822913893,5.253271981937369,0.8504280034146151
1730865962.5832772,-1.639206886291504,1.2061913013458252,-9.937066078186035,-0.26425376512234405,-0.3284340805469504,-10.636852932075858,1.1021922044556092,5.213526448323465,0.7914496717625387
1730865962.6331246,-1.6860491037368774,1.1449236869812012,-9.880510330200195,-0.26432343100161365,-0.3267109762001589,-10.6366513753066,1.1002525131271714,5.172971325408466,0.7063016891443348
1730865962.6834114,-1.7109571695327759,1.0855287313461304,-9.83228588104248,-0.26447023068574127,-0.3249065464288011,-10.636462728186974,1.104337021694062,5.130568965909461,0.8472383385068956
1730865962.7330935,-1.709753394126892,1.0741137266159058,-9.788422584533691,-0.26469053189598757,-0.32303353178738803,-10.636290832793915,1.1030743487557622,5.087800191390559,0.7859259188696222
1730865962.7832174,-1.6724727153778076,1.0828081369400024,-9.795247077941895,-0.2649796584398181,-0.3211045425168539,-10.63613873007312,1.1058277159417336,5.0451967643428635,0.8549499776063401
1730865962.8330767,-1.6206578016281128,1.0981696844100952,-9.837224006652832,-0.2653320053142083,-0.31913170066522584,-10.636008336560497,1.1048778111582696,5.000835435040487,0.7965904763796502
1730865962.8830912,-1.5427521467208862,1.13316011428833,-9.84755802154541,-0.2657407662898449,-0.31712666001530565,-10.635900576592546,1.1067124040279885,4.956687933295422,0.8591055315174766
1730865962.933006,-1.5629488229751587,1.1618047952651978,-9.863628387451172,-0.2661974833869208,-0.315100838507935,-10.635815772690426,1.105707837574906,4.911136377734402,0.8018037438164427
1730865962.9830446,-1.629149079322815,1.215698003768921,-9.845447540283203,-0.26669185746968316,-0.3130657596923831,-10.635753974741988,1.1040320387336264,4.864607393012298,0.7176359501623271
1730865963.0340078,-1.6967530250549316,1.2590280771255493,-9.838217735290527,-0.2672122039593612,-0.3110334581731593,-10.635715077806829,1.1016398446703912,4.81646606790935,0.6046236532923582
1730865963.084012,-1.7413307428359985,1.2730633020401,-9.82457160949707,-0.26774642427335515,-0.3090168770524389,-10.635698764823395,1.1072421591656116,4.768766737168184,0.8521688694069782
1730865963.1339903,-1.7646113634109497,1.2583575248718262,-9.81188678741455,-0.2682830011814581,-0.30703008337165727,-10.635704379323704,1.1059375512551481,4.719740118618103,0.790222959410347
1730865963.1839724,-1.7786732912063599,1.2127102613449097,-9.802888870239258,-0.2688116804745285,-0.30508812435764626,-10.635730802371123,1.1081222395575971,4.671099532176833,0.856516519608914
1730865963.233917,-1.8130278587341309,1.14822256565094,-9.807696342468262,-0.26932382896595075,-0.30320648628030994,-10.63577637171604,1.1069759804039396,4.621122166524609,0.7973871270360036
1730865963.2838762,-1.809478998184204,1.100132703781128,-9.810400009155273,-0.26981261583021177,-0.30140027064006736,-10.6358388857724,1.1051502304200316,4.570076585364771,0.7113610758123075
1730865963.333905,-1.797210454940796,1.1131501197814941,-9.829365730285645,-0.2702730620034654,-0.299683365136423,-10.63591571016452,1.1092191693146012,6.315722403904536,0.8526291861730656
1730865963.383851,-1.7991148233413696,1.125964879989624,-9.836786270141602,-0.2707019046570269,-0.29806795785197177,-10.636003964378611,1.108028561939261,6.5557370797627454,0.7919306513374644
1730865963.4338167,-1.7826963663101196,1.1695894002914429,-9.845488548278809,-0.27109733320699597,-0.2965645354460201,-10.63610073681855,1.1101879510527055,6.140170027498914,0.8515490770141194
1730865963.4838102,-1.7767739295959473,1.2048052549362183,-9.856528282165527,-0.2714587038108863,-0.2951822309683766,-10.636203270267986,1.109094125321245,6.194948707127043,0.7906452397488702
1730865963.5337822,-1.8129676580429077,1.1983704566955566,-9.851751327514648,-0.27178630369960155,-0.29392928097911236,-10.636309093135601,1.1110254633289898,6.037274525856243,0.8471571847114214
1730865963.5838563,-1.865580439567566,1.1427628993988037,-9.82577133178711,-0.2720813098029239,-0.2928132889980815,-10.636416059692426,1.10995068203245,6.046061470933837,0.7863780497467362
1730865963.633715,-1.881205439567566,1.0834192037582397,-9.824111938476562,-0.2723460167086706,-0.2918410431787006,-10.636522251432053,1.1081406147030939,6.054382464095601,0.6962570867878748
1730865963.68373,-1.863053321838379,1.0553536415100098,-9.826824188232422,-0.27258410166277236,-0.29101795780460726,-10.636625814029395,1.1120738151097773,5.984201951102779,0.8463389354475048
1730865963.7337158,-1.8265241384506226,1.0528087615966797,-9.850543975830078,-0.2728005904462255,-0.29034751178862483,-10.636724894614975,1.1108518094581836,5.982036961927338,0.7840514656072883
1730865963.7837036,-1.7715882062911987,1.0776413679122925,-9.877630233764648,-0.273001426583455,-0.2898310187930496,-10.636817760124252,1.1090252050449199,5.979271764356454,0.6989177206818137
1730865963.8336518,-1.7354477643966675,1.0973707437515259,-9.941924095153809,-0.27319278845416456,-0.28946779589776034,-10.63690309371283,1.1130979322007948,5.957861710154347,0.8463509757641464
1730865963.8837056,-1.689695954322815,1.1317925453186035,-9.966397285461426,-0.2733803667979644,-0.28925559141647333,-10.636980437627745,1.1119163684097957,5.952415380394789,0.7854683341636044
1730865963.9335935,-1.6389662027359009,1.1293141841888428,-9.971222877502441,-0.2735687339331907,-0.2891910795602316,-10.637050629757864,1.1100557099386843,5.9462678888879905,0.6982323362322571
1730865963.9836588,-1.6623183488845825,1.1505361795425415,-9.938908576965332,-0.2737608672636826,-0.2892702671761893,-10.63711597606048,1.1136009960076028,5.941759842535366,0.8501734962808565
1730865964.0335605,-1.685981035232544,1.114296793937683,-9.907242774963379,-0.2739579845418134,-0.28948873009104287,-10.637180029290382,1.1122234685912118,5.935818030177989,0.787975653260751
1730865964.0836053,-1.7127622365951538,1.098321795463562,-9.828071594238281,-0.27415980140867235,-0.2898416395142978,-10.637247037097193,1.1140547895584627,5.927465589575701,0.8587765607923281
1730865964.1335196,-1.7381293773651123,1.0863145589828491,-9.812661170959473,-0.2743650416393986,-0.29032360888394976,-10.637321201674537,1.1127372395212771,5.919658452903125,0.8004334115243888
1730865964.1835907,-1.7394286394119263,1.1070185899734497,-9.751754760742188,-0.2745719406267916,-0.290928539636042,-10.63740595066693,1.1144325755955047,5.914121668161459,0.8671423031394666
1730865964.2335656,-1.7783422470092773,1.099996566772461,-9.74980354309082,-0.27477863070729,-0.2916496360014259,-10.63750338877964,1.1131282180932713,5.906139249940604,0.8114425276041307
1730865964.2834716,-1.775434136390686,1.1180026531219482,-9.734968185424805,-0.27498343605401565,-0.29247955996712854,-10.637613988589862,1.111137002795851,5.897430946992386,0.7291652911987787
1730865964.3334875,-1.775434136390686,1.1180026531219482,-9.734968185424805,-0.27518508890176807,-0.2934106174945161,-10.637736526145193,1.11422345925781,5.90503920771442,0.8695681755118133
1730865964.3334875,-1.7961090803146362,1.0978853702545166,-9.74190616607666,-0.2753828259894821,-0.29443490577070885,-10.637868208539263,1.1142167050902392,5.905010980928482,0.8693092903543885
1730865964.3834748,-1.8024729490280151,1.096219539642334,-9.761283874511719,-0.27557642539223615,-0.2955443562089684,-10.638004925453563,1.1127013119479994,5.899738268580707,0.8111314921977222
1730865964.4334664,-1.8615046739578247,1.0873790979385376,-9.789366722106934,-0.2757663116166804,-0.29673068562154453,-10.638141612586313,1.1148983178610286,5.895351098209559,0.8873133753680491
1730865964.4834557,-1.8906596899032593,1.113863468170166,-9.796687126159668,-0.2759537989523762,-0.29798537806255865,-10.638272692527746,1.1136119192824183,5.889367180778581,0.8346303441965707
1730865964.533443,-1.8843986988067627,1.1354656219482422,-9.818350791931152,-0.2761413983162964,-0.2992998083587728,-10.638392494565052,1.111638738032361,5.882650732306098,0.7554871285715373
1730865964.5834439,-1.8520234823226929,1.1645499467849731,-9.829914093017578,-0.27633292626067574,-0.30066552283247605,-10.638495588520245,1.1089799344083275,5.87519547270687,0.6499431828401289
1730865964.6334517,-1.8085271120071411,1.176212191581726,-9.861815452575684,-0.2765332245246748,-0.3020745850501902,-10.638577061018587,1.1150697089999986,5.882371502374809,0.8806722847492476
1730865964.6834452,-1.7181299924850464,1.1627516746520996,-9.876137733459473,-0.27674752965453026,-0.30351983628215634,-10.638632782567564,1.1136182222724387,5.8767220778186315,0.8211679434900173
1730865964.7333987,-1.6924563646316528,1.1392431259155273,-9.905946731567383,-0.2769806340123635,-0.30499494000164984,-10.638659664420853,1.1157887210918451,5.869516851039786,0.8832608590022061
1730865964.7834475,-1.6710063219070435,1.1597439050674438,-9.915834426879883,-0.27723609630605495,-0.30649422504012425,-10.63865587314175,1.1145259947602335,5.862241923416296,0.8256511202892582
1730865964.8333828,-1.6623401641845703,1.1732234954833984,-9.910504341125488,-0.2775157812836041,-0.30801253913054666,-10.638620952266095,1.1124922498761631,5.8538527138041365,0.7380631955819201
1730865964.8834436,-1.6623401641845703,1.1732234954833984,-9.910504341125488,-0.27781975522748337,-0.3095452622879,-10.63855579211423,1.109891636315113,5.845157080964258,0.6292668402395297
1730865964.8834436,-1.664509892463684,1.188157320022583,-9.918722152709961,-0.27814639405280794,-0.3110883904543018,-10.638462474570286,1.109875094509094,5.845105923980912,0.628581414921179
1730865964.933397,-1.664509892463684,1.188157320022583,-9.918722152709961,-0.27849259847140434,-0.3126385830838293,-10.638344104396086,1.1162482760651398,5.852096223126821,0.8761002058374122
1730865964.933397,-1.6572636365890503,1.1673773527145386,-9.908549308776855,-0.2788540360155598,-0.31419315072947746,-10.638204663340415,1.116242650469501,5.8520652242718985,0.8758506714707438
1730865964.9834638,-1.6591688394546509,1.130024790763855,-9.90406608581543,-0.27922534974607865,-0.3157499095970392,-10.63804883225585,1.1148716296896917,5.846040779959265,0.8172231418030934
1730865965.0333724,-1.6374982595443726,1.1253414154052734,-9.897210121154785,-0.27960031756013526,-0.3173068707485158,-10.637881770502705,1.117513860406398,5.8368277256861,0.8851013759244355
1730865965.0834715,-1.6542800664901733,1.1127800941467285,-9.890379905700684,-0.27997197260811846,-0.3188619080585639,-10.637708898330938,1.1181442936398565,5.823215642293913,0.884840152235923
1730865965.1333466,-1.6624219417572021,1.1077226400375366,-9.87459659576416,-0.28033274833831123,-0.3204125557038333,-10.637535696540647,1.1171107520893906,5.812972019569282,0.8288608684500591
1730865965.183495,-1.6624219417572021,1.1077226400375366,-9.87459659576416,-0.2806747058407051,-0.32195593350842583,-10.637367511283433,1.1153746093221637,5.801914122134982,0.7462189638975152
1730865965.183495,-1.6803877353668213,1.1172305345535278,-9.872438430786133,-0.28098979349667397,-0.32348875861866844,-10.63720939134906,1.115362165476982,5.80184585074458,0.7456470368801593
1730865965.2333581,-1.6642932891845703,1.1443051099777222,-9.851571083068848,-0.2812700673272939,-0.3250074594708563,-10.637065978978681,1.118479398926808,5.807631779346264,0.8739504004633054
1730865965.2835011,-1.676072597503662,1.1518168449401855,-9.866317749023438,-0.28150784426085773,-0.3265084000198127,-10.636941421031588,1.1172110814550247,5.800536932314003,0.8167612333119091
1730865965.3333554,-1.688549518585205,1.173169493675232,-9.839729309082031,-0.28169580855621845,-0.3279881487114772,-10.636839293346542,1.119111287609824,5.791248664594016,0.8748890393926726
1730865965.3832452,-1.7406500577926636,1.1670211553573608,-9.839791297912598,-0.28182718474056534,-0.32944369779541816,-10.636762539280229,1.1178785475727653,5.781874551683712,0.8167311814671699
1730865965.4331973,-1.7592371702194214,1.1434805393218994,-9.807424545288086,-0.2818960681961028,-0.33087255201131377,-10.636713378139952,1.1199535223298833,5.781947556524592,0.8736171809333138
1730865965.4832108,-1.7919294834136963,1.1425443887710571,-9.786770820617676,-0.2818978328449661,-0.33227264117964295,-10.636693155666922,1.118798665749886,5.774224476791147,0.8146838395693902
1730865965.5332005,-1.8289555311203003,1.1339582204818726,-9.734051704406738,-0.2818294821946528,-0.3336421366979285,-10.636702123666916,1.1169355444797437,5.765648675740085,0.7289838976312818
1730865965.5832748,-1.8289555311203003,1.1339582204818726,-9.734051704406738,-0.28168990370781033,-0.3349793092664327,-10.636739168388559,1.1203977224814563,5.763557306516383,0.8689942130793025
1730865965.5832748,-1.906752586364746,1.1017496585845947,-9.722082138061523,-0.2814800442393144,-0.33628243472013214,-10.636801615663543,1.1203921359589604,5.763512310023225,0.8687279205436313
1730865965.6332035,-1.9440362453460693,1.0649313926696777,-9.711519241333008,-0.2812031062181072,-0.33754963476058103,-10.636885223417124,1.1190553222570427,5.755122329141719,0.8084193596826497
1730865965.6832056,-1.954621434211731,1.0486096143722534,-9.747272491455078,-0.28086480647899725,-0.3387785974900084,-10.636984339308356,1.1181054185054733,5.7436059762112714,0.8797844540075714
1730865965.733109,-1.9300211668014526,1.0519165992736816,-9.785317420959473,-0.28047346329676937,-0.33996630583549314,-10.637092235130602,1.1158360621407433,5.732171926582886,0.8223868738646347
1730865965.7832572,-1.8917458057403564,1.0662336349487305,-9.863221168518066,-0.2800396762132389,-0.3411089634362978,-10.637201695456975,1.112996295692703,5.7204842995970315,0.7418844062741166
1730865965.8331983,-1.8261340856552124,1.0515388250350952,-9.917787551879883,-0.2795756253575894,-0.34220213291340795,-10.637305829594451,1.1094060722631283,5.7077008136625915,0.633451624223685
1730865965.8832433,-1.7325536012649536,1.0188775062561035,-9.973783493041992,-0.27909410349487973,-0.343240892181227,-10.637398942865854,1.1160016078978778,5.728353566766241,0.8697454344690477
1730865965.9331484,-1.6438817977905273,1.0134690999984741,-9.997303009033203,-0.27860735578408447,-0.3442198373418675,-10.637477260368318,1.113963462583365,5.721735061790023,0.8089757338892517
1730865965.9832146,-1.6068297624588013,1.0392526388168335,-10.010113716125488,-0.27812589753591976,-0.3451330297392775,-10.637539353551155,1.114287876791621,5.709803542569697,0.8723848810966397
1730865966.0331244,-1.5930547714233398,1.1113393306732178,-9.983500480651855,-0.2776576336078005,-0.34597417191476787,-10.63758620997282,1.1119737673750079,5.69958594550552,0.8131868572393365
1730865966.0831685,-1.6152253150939941,1.2080261707305908,-9.939994812011719,-0.2772075247754139,-0.3467372044473568,-10.637620932793043,1.1123303418783448,5.691386408507637,0.8715691976754312
1730865966.1329873,-1.6628810167312622,1.2549554109573364,-9.904179573059082,-0.2767778046934715,-0.3474172440855316,-10.637648124472928,1.1098983283259745,5.680592816321787,0.812406054535781
1730865966.183079,-1.7237470149993896,1.2498868703842163,-9.840123176574707,-0.27636862276756363,-0.3480114710843991,-10.637673102932688,1.1067580549991376,5.668859102062193,0.7262222577869231
1730865966.232996,-1.7540323734283447,1.1959750652313232,-9.810408592224121,-0.27597892206178254,-0.3485194910163588,-10.63770109935156,1.1106354937193688,5.672864610005534,0.8676539352707819
1730865966.282932,-1.7761001586914062,1.1373709440231323,-9.77637004852295,-0.2756072770411556,-0.3489429970364035,-10.637736555166946,1.111677496811511,5.657664341608289,0.8762108171101578
1730865966.3329697,-1.7739691734313965,1.080772876739502,-9.734260559082031,-0.2752524637287856,-0.3492849482393161,-10.637782600177381,1.1100965864941237,5.64658589183063,0.8191467294718104
1730865966.3838212,-1.7863746881484985,1.0190056562423706,-9.72805404663086,-0.2749137252983281,-0.3495486115468106,-10.637840701609601,1.112387724625165,5.64493935175714,0.8701038516286151
1730865966.4338863,-1.7863746881484985,1.0190056562423706,-9.72805404663086,-0.27459084562046737,-0.349736731165052,-10.637910491890306,1.1110378112358024,5.635057176652112,0.8098953356451589
1730865966.4338863,-1.763444423675537,0.9958710074424744,-9.702902793884277,-0.27428412383453904,-0.34985100597913166,-10.637989805174698,1.110991819440576,5.634778570790462,0.8079003039036279
1730865966.4838243,-1.7485802173614502,0.980993390083313,-9.72205638885498,-0.2739942345738745,-0.3498918993271682,-10.63807483594298,1.1090175526420658,5.624398529987069,0.7237649249515617
1730865966.5338418,-1.7739217281341553,0.9647471904754639,-9.749009132385254,-0.2737220141421033,-0.3498586144304932,-10.63816038082227,1.1133957722291934,5.629465523662336,0.8720849708360686
1730865966.5839176,-1.776928424835205,1.0090956687927246,-9.792386054992676,-0.2734683507252028,-0.3497491567548264,-10.638240260588232,1.1121464847989349,5.6218331485963215,0.8146870033756736
1730865966.6337254,-1.776928424835205,1.0090956687927246,-9.792386054992676,-0.2732342319765042,-0.3495605831564519,-10.638307892512396,1.1143458810182247,5.60987141575764,0.8726227340033594
1730865966.6337254,-1.7719019651412964,1.0469619035720825,-9.85647201538086,-0.2730207993484748,-0.3492894314574767,-10.63835684300683,1.1143416016049252,5.6098170197807145,0.8723785560419262
1730865966.6840096,-1.742720127105713,1.0767850875854492,-9.918389320373535,-0.27282929124432787,-0.34893220079632997,-10.638381359352408,1.113206566860462,5.599316713537784,0.8138210278569861
1730865966.733826,-1.7308605909347534,1.0838773250579834,-9.983128547668457,-0.2726608633452577,-0.34848581284243163,-10.638377015432189,1.1156873231077182,5.602098568045662,0.8788196412650384
1730865966.7839155,-1.7244657278060913,1.1198302507400513,-10.016728401184082,-0.27251635232517135,-0.34794799823390626,-10.638341408393991,1.1147853512291745,5.594526203940419,0.8234135470024981
1730865966.8337839,-1.7244657278060913,1.1198302507400513,-10.016728401184082,-0.27239610582721385,-0.3473175713105164,-10.638274650007649,1.1165017194863347,5.583202547915005,0.8743344680877371
1730865966.8337839,-1.6922295093536377,1.1217204332351685,-10.01152515411377,-0.27229990760173384,-0.3465945912653251,-10.638179468374965,1.1164975794150338,5.583152438698378,0.8740768498030647
1730865966.8839517,-1.6949405670166016,1.091368556022644,-10.003122329711914,-0.2722269058258847,-0.3457803523885787,-10.638060949223492,1.1154385731172514,5.574043917973489,0.8161049697500458
1730865966.9338105,-1.6541407108306885,1.079060673713684,-9.937772750854492,-0.272175500768029,-0.34487716860491213,-10.637926045694691,1.1177062999189524,5.560541486144792,0.8796767555647657
1730865966.9837117,-1.6971153020858765,1.0559735298156738,-9.882655143737793,-0.2721432563443085,-0.34388803403887647,-10.637782874286522,1.116801476397719,5.549139799849541,0.8249902446725818
1730865967.0336804,-1.7184339761734009,1.0200108289718628,-9.829143524169922,-0.2721269800564854,-0.3428162590094135,-10.637639813737742,1.1197274228085419,5.547828535245632,0.8754899034855106
1730865967.0837424,-1.7796587944030762,0.9819168448448181,-9.78043270111084,-0.27212308630359333,-0.3416650861525682,-10.637504590016864,1.1192880996992693,5.537199253621223,0.8175220870186629
1730865967.1336548,-1.7767276763916016,0.9837790727615356,-9.749464988708496,-0.2721281423739055,-0.34043730105279874,-10.637383530645431,1.118180295254657,5.52587410728625,0.7339977357278652
1730865967.1838517,-1.7815088033676147,1.03798508644104,-9.75819206237793,-0.2721393206955646,-0.33913503004561274,-10.63728108530093,1.1209080567412713,5.530227996618659,0.8684554823067602
1730865967.2337184,-1.7815088033676147,1.03798508644104,-9.75819206237793,-0.2721545783410782,-0.33775991206050204,-10.637199688109941,1.119958411763866,5.521770010402474,0.808309639605781
1730865967.2337184,-1.7619465589523315,1.1153185367584229,-9.77953052520752,-0.27217261305882223,-0.3363135489802277,-10.63713993340818,1.1199506699074229,5.521716645747189,0.8078686216967185
1730865967.283684,-1.7306779623031616,1.2181533575057983,-9.794438362121582,-0.27219268117242607,-0.3347981209806088,-10.637100929013997,1.1183267035636886,5.512434164727131,0.7213961577342444
1730865967.3336196,-1.7306779623031616,1.2181533575057983,-9.794438362121582,-0.2722143069959174,-0.333217169755456,-10.637080697087104,1.1160182446575637,5.502274653400069,0.6080580895292576
1730865967.3336196,-1.73723566532135,1.2622041702270508,-9.825244903564453,-0.27223701382004695,-0.33157628218480206,-10.637076536617958,1.1160039159948403,5.502217449129886,0.6073730686522473
1730865967.3837023,-1.7728885412216187,1.2536513805389404,-9.841352462768555,-0.2722602545417113,-0.3298833610668147,-10.637085354343082,1.1223959683878924,5.5113217262017695,0.8729032542645355
1730865967.4336104,-1.7957485914230347,1.2329119443893433,-9.852080345153809,-0.272283584248562,-0.3281485136890354,-10.63710400098097,1.1214288671874397,5.503858986292726,0.8171022381747105
1730865967.4835632,-1.8130037784576416,1.187165379524231,-9.869086265563965,-0.2723069631845757,-0.3263836413075298,-10.637129563310431,1.1239468377467654,5.4910168737035825,0.8743999700587104
1730865967.5335834,-1.8130037784576416,1.187165379524231,-9.869086265563965,-0.27233101478638577,-0.32460179857654664,-10.63715956388507,1.1230542479756231,5.481645719586875,0.8166755459315832
1730865967.5335834,-1.8403993844985962,1.1168467998504639,-9.861696243286133,-0.2723571487718063,-0.32281650398116823,-10.63719206014151,1.1230472041353603,5.48158992225845,0.8162699745574818
1730865967.5836523,-1.8365612030029297,1.1099493503570557,-9.855596542358398,-0.27238760093147124,-0.32104109129156105,-10.637225623757708,1.127592619948959,5.467023815531791,0.8765536757966963
1730865967.6335382,-1.8015090227127075,1.1125519275665283,-9.858222961425781,-0.2724253958449976,-0.31928815288509854,-10.637259234877014,1.1295208143356685,5.444818870788673,0.8793113183316617
1730865967.683565,-1.7416749000549316,1.0947171449661255,-9.853496551513672,-0.2724740839319277,-0.3175692147603892,-10.637292177861605,1.1294848227343113,5.429269593422894,0.8244749052440975
1730865967.7336876,-1.7416749000549316,1.0947171449661255,-9.853496551513672,-0.2725372185024572,-0.315894625033849,-10.637323972429742,1.1287611918196794,5.4128014939842615,0.74238432236846
1730865967.7336876,-1.707353949546814,1.0896289348602295,-9.870576858520508,-0.27261782005200375,-0.3142735074151394,-10.637354337877882,1.1287554030413045,5.412710270925013,0.7418672138563085
1730865967.7836096,-1.6856294870376587,1.0882185697555542,-9.87708854675293,-0.27271801955738684,-0.3127137467418042,-10.637383219268258,1.127362280111535,5.395688622171692,0.6344064679447879
1730865967.833548,-1.6856732368469238,1.1131680011749268,-9.89499282836914,-0.272838837643665,-0.3112220414605465,-10.637410881676304,1.1309721538671103,5.4253099715937925,0.8695228695238395
1730865967.8835711,-1.6620116233825684,1.1451038122177124,-9.884458541870117,-0.27298006502870226,-0.309804076246494,-10.63743801019558,1.1301436542003138,5.4166571945303685,0.8115100725450929
1730865967.9334772,-1.6620116233825684,1.1451038122177124,-9.884458541870117,-0.27314024367322937,-0.30846482356874505,-10.637465735347806,1.133016227638873,5.406313814862421,0.8713320793719094
1730865967.9334772,-1.6606212854385376,1.1801331043243408,-9.870457649230957,-0.27331671206175495,-0.3072088565955733,-10.63749555199106,1.1330152635709962,5.406254542769274,0.8710872315823088
1730865967.9834714,-1.653437852859497,1.1797866821289062,-9.851520538330078,-0.2735057112644139,-0.30604058642981424,-10.637529155251784,1.132498271287037,5.39496201538602,0.8128039018809002
1730865968.0334425,-1.653437852859497,1.1797866821289062,-9.851520538330078,-0.27370253214207574,-0.3049644150634844,-10.63756823393542,1.1312974809338867,5.382848443282909,0.7277299744772344
1730865968.0334425,-1.6758476495742798,1.1824043989181519,-9.821070671081543,-0.27390168540571336,-0.303984771476107,-10.637614267472568,1.1312890611152253,5.382780307189013,0.7271933314949527
1730865968.0835173,-1.7237505912780762,1.1566532850265503,-9.81063461303711,-0.27409717865591626,-0.3031060280890615,-10.637668335509048,1.129408484068014,5.3699485407736995,0.6158478196076598
1730865968.1334534,-1.7996176481246948,1.1426687240600586,-9.782665252685547,-0.27428301928608234,-0.30233231874606203,-10.637730916083845,1.1348051081690107,5.392652949016569,0.8753645630150079
1730865968.1835039,-1.8628112077713013,1.1092867851257324,-9.77823543548584,-0.27445395840045717,-0.3016672648780148,-10.637801694878345,1.1338803606836587,5.386367492440983,0.8191226255325413
1730865968.2334023,-1.8774480819702148,1.0935637950897217,-9.79169750213623,-0.27460628965560224,-0.3011136556628571,-10.637879463757214,1.1356959006834757,5.373856877614583,0.8731842485143272
1730865968.2834685,-1.8534674644470215,1.108945369720459,-9.822172164916992,-0.27473835671372904,-0.3006731871337565,-10.637962207579502,1.1372298311625413,5.35562266650134,0.875861464322162
1730865968.3333826,-1.7973651885986328,1.1064001321792603,-9.855999946594238,-0.27485051039294717,-0.30034638318290124,-10.638047418212963,1.1366576910002273,5.342570307268797,0.819483082184955
1730865968.3833833,-1.749116063117981,1.0848197937011719,-9.900351524353027,-0.27494454556790915,-0.30013267299889973,-10.638132567073999,1.1354003574894083,5.328794977506104,0.7366587672621357
1730865968.4334073,-1.749116063117981,1.0848197937011719,-9.900351524353027,-0.2750229210346995,-0.30003045075667883,-10.638215601095181,1.1334516340277705,5.314235248322558,0.6270045395929058
1730865968.4334073,-1.6887575387954712,1.0780417919158936,-9.944061279296875,-0.27508809962651326,-0.30003707053025924,-10.63829532298503,1.1334370655933357,5.314140445636042,0.6262234916744713
1730865968.4834383,-1.660573959350586,1.0784896612167358,-9.943114280700684,-0.2751420584225055,-0.30014886852626893,-10.63837162296874,1.1383673261582503,5.334746487286511,0.8646162242757746
1730865968.5333052,-1.660573959350586,1.0784896612167358,-9.943114280700684,-0.27518587406454026,-0.30036124440807027,-10.638445588402806,1.139124994991966,5.3184339337931394,0.8740944321234133
1730865968.5333052,-1.6808581352233887,1.0688133239746094,-9.9386625289917,-0.2752195007115478,-0.3006687665844896,-10.638519457567849,1.1391211139022752,5.3183735011215845,0.8738441241639525
1730865968.5834394,-1.6925055980682373,1.0484857559204102,-9.91047477722168,-0.2752418738926555,-0.30106524655790745,-10.638596411749234,1.1381157276911584,5.307743871315138,0.8179728391041355
1730865968.6333168,-1.7340891361236572,1.0040960311889648,-9.874168395996094,-0.27525124718043376,-0.3015437063460454,-10.638680232145155,1.141100045937845,5.306989742590918,0.8772547329724347
1730865968.6832635,-1.7513102293014526,0.9668171405792236,-9.831408500671387,-0.27524562471884406,-0.30209619062033927,-10.638774821067457,1.1404688218206178,5.299063874186162,0.8227870508741394
1730865968.7332773,-1.7513102293014526,0.9668171405792236,-9.831408500671387,-0.27522317819133824,-0.30271350508841,-10.638883673906248,1.1391472251827532,5.290360453281876,0.7415548062800232
1730865968.7332773,-1.7555934190750122,0.9132131338119507,-9.825553894042969,-0.27518251036669084,-0.3033850420617843,-10.639009496877177,1.1391380312756525,5.29031038746584,0.7410332814048862
1730865968.783267,-1.7511773109436035,0.8991687297821045,-9.808719635009766,-0.2751227286588285,-0.3040987027945366,-10.63915405953173,1.1421160104011467,5.28441072791833,0.8712613455054873
1730865968.833155,-1.7669599056243896,0.9138646125793457,-9.811017036437988,-0.2750434284119493,-0.30484087551591593,-10.639318173712606,1.1411893322823536,5.274844379717252,0.8152131999354726
1730865968.8833268,-1.7669599056243896,0.9138646125793457,-9.811017036437988,-0.2749446847497098,-0.3055965868711378,-10.639501711442804,1.1395737748017032,5.26450745744868,0.732498442262214
1730865968.8833268,-1.7647291421890259,0.9623916149139404,-9.817171096801758,-0.27482706282047886,-0.3063498952202815,-10.63970368699281,1.1395630385021738,5.264448776221782,0.7319724346853501
1730865968.9331322,-1.774051547050476,0.9942019581794739,-9.836055755615234,-0.27469160254467034,-0.30708446444993553,-10.639922417299646,1.1435756662194272,5.263782871622899,0.8701708271352522
1730865968.9830694,-1.7563841342926025,1.0308074951171875,-9.850176811218262,-0.2745397662336393,-0.30778424431015367,-10.640155750874706,1.1426293675990677,5.254962693646799,0.8130833841418083
1730865969.0331802,-1.7418923377990723,1.052126407623291,-9.863423347473145,-0.27437333433687716,-0.3084341286924815,-10.640401339550149,1.1410212650830036,5.245562692991517,0.730767812373615
1730865969.0830772,-1.7634446620941162,1.1164103746414185,-9.859697341918945,-0.2741942501044541,-0.3090205053262214,-10.640656879860346,1.1387283368629013,5.235360601188056,0.6218030818655006
1730865969.1331055,-1.7613576650619507,1.1499154567718506,-9.857751846313477,-0.2740045236484647,-0.3095317595198411,-10.640920248730827,1.145025877259567,5.240597707004544,0.8643598437769158
1730865969.1830616,-1.7668864727020264,1.152148723602295,-9.854114532470703,-0.27380625206120957,-0.30995872750770026,-10.641189523513574,1.1476086735696711,5.2194005244652075,0.8732759788456191
1730865969.2330203,-1.7597706317901611,1.146106243133545,-9.849930763244629,-0.27360165529682695,-0.3102949128885192,-10.64146293883612,1.1471648971681496,5.207213009316369,0.8163201854785945
1730865969.2830868,-1.7832831144332886,1.1196283102035522,-9.831854820251465,-0.2733930744820931,-0.3105363543160448,-10.641738816630783,1.1494604977803502,5.191585202719478,0.8680327997233549
1730865969.3329446,-1.7911642789840698,1.0579688549041748,-9.824539184570312,-0.27318300170146737,-0.3106811964311668,-10.642015458958586,1.148861113983462,5.1779103831095155,0.8091826530713406
1730865969.3830001,-1.793712854385376,1.0126854181289673,-9.833224296569824,-0.27297416755156556,-0.3107290229607339,-10.642291032957706,1.1533051651740989,5.173504720953926,0.8636848232345795
1730865969.432937,-1.7517714500427246,1.0202561616897583,-9.849518775939941,-0.27276956624130183,-0.3106801107949915,-10.642563547869203,1.1532506813239443,5.1622384692582814,0.8033122036851009
1730865969.4829564,-1.7155946493148804,1.0792349576950073,-9.881749153137207,-0.27257225976341304,-0.3105349694744625,-10.642830992777533,1.1564587316283934,5.154441765120104,0.8598483167635178
1730865969.532836,-1.6973638534545898,1.1483683586120605,-9.885079383850098,-0.2723849728002483,-0.3102944547405827,-10.643091594483117,1.1564600060700148,5.142712505089371,0.7992822141112194
1730865969.5827827,-1.6990910768508911,1.1914793252944946,-9.90003490447998,-0.2722097001574717,-0.30996035648075393,-10.643344068783039,1.1557823524684672,5.1301856282896185,0.7120531061411104
1730865969.6338701,-1.7048535346984863,1.1952179670333862,-9.894710540771484,-0.27204753401178694,-0.30953604469054297,-10.643587760500601,1.1543767301252,5.1164942129442,0.5946163066930108
1730865969.6838133,-1.7279154062271118,1.140415906906128,-9.889106750488281,-0.2718987347609455,-0.3090267460686016,-10.643822655172652,1.1523268759038092,5.102431921701417,0.4538349113662258
1730865969.7338028,-1.727390170097351,1.0967813730239868,-9.850716590881348,-0.27176295147799606,-0.30843925735845645,-10.644049257352934,1.1586963879157102,5.143979656421677,0.8465373958929674
1730865969.7837937,-1.7448590993881226,1.0502889156341553,-9.854978561401367,-0.27163947350457396,-0.3077812373102884,-10.644268337417426,1.1578017950022865,5.138411155116096,0.7831822395974637
1730865969.8337355,-1.7205950021743774,1.0371060371398926,-9.837763786315918,-0.2715274143601568,-0.3070604260515317,-10.6444806511669,1.1614819445160258,5.131439986649857,0.8475558158050007
1730865969.8838043,-1.7044275999069214,1.004769206047058,-9.838481903076172,-0.2714257553516706,-0.3062840527134541,-10.64468675250411,1.1611449733243067,5.1234750481883005,0.7854583969466884
1730865969.9337204,-1.6762114763259888,1.0011883974075317,-9.852025985717773,-0.2713332213990172,-0.3054584718813673,-10.64488692072139,1.160131657222206,5.114774992231208,0.6970067645068437
1730865969.9836867,-1.6579885482788086,0.9812003374099731,-9.872231483459473,-0.27124805489559245,-0.304588965207156,-10.645081211946128,1.1584416424898116,5.105311917268201,0.5819886010552758
1730865970.0337353,-1.6788157224655151,1.0039273500442505,-9.869159698486328,-0.27116782823980373,-0.30367967915814487,-10.645269622877901,1.1646054671727781,5.111260674121096,0.8369406059368126
1730865970.0836577,-1.7302862405776978,0.9892690777778625,-9.866273880004883,-0.271089479952825,-0.30273370173298114,-10.645452245165334,1.1638913852640973,5.104426611615037,0.7738168749274026
1730865970.1336935,-1.7302862405776978,0.9892690777778625,-9.866273880004883,-0.2710096542661661,-0.3017532150809002,-10.645629308521272,1.1660643230676255,5.09566897251195,0.8398769866895079
1730865970.1336935,-1.7561147212982178,1.0005706548690796,-9.84821891784668,-0.2709251475726808,-0.3007396352897101,-10.645801133059061,1.1660621110145095,5.095620309267859,0.839603532001794
1730865970.1836424,-1.7367112636566162,1.0267400741577148,-9.844929695129395,-0.2708332072841097,-0.299693776963485,-10.645968031328493,1.1632792634795766,5.078594919716128,0.849979139103553
1730865970.2335315,-1.7292639017105103,1.0034098625183105,-9.847564697265625,-0.2707316116397181,-0.298616089138679,-10.646130196763952,1.1609549754321002,5.065535509611545,0.7955730651496832
1730865970.283596,-1.7082710266113281,1.0320013761520386,-9.856908798217773,-0.27061856596079936,-0.29750686279397764,-10.646287655051394,1.1579754726198328,5.051834942623639,0.7151128069961404
1730865970.3336132,-1.7297741174697876,1.0265306234359741,-9.872505187988281,-0.2704925252465499,-0.2963663618748129,-10.646440323460293,1.1542891201679937,5.037262537753692,0.6071767718131494
1730865970.3835676,-1.73284912109375,1.026072382926941,-9.879054069519043,-0.270352107172773,-0.295194932549726,-10.646588147690302,1.1608344097217251,5.064468322484583,0.8372843714708718
1730865970.4335475,-1.7507237195968628,1.0402652025222778,-9.899032592773438,-0.27019615552618004,-0.2939930848463028,-10.646731260440292,1.1586963313979006,5.057266526707705,0.7760846360745782
1730865970.4835615,-1.7441734075546265,1.067531943321228,-9.886956214904785,-0.2700238646432084,-0.29276157573248257,-10.646870112873145,1.1558950124791,5.049374190652074,0.6886011834348394
1730865970.5335526,-1.7646288871765137,1.0706843137741089,-9.89332103729248,-0.26983486967347503,-0.29150156831787544,-10.647005528970269,1.1641715777097574,5.052967059546585,0.8361753624227302
1730865970.583584,-1.8092890977859497,1.0768513679504395,-9.85693645477295,-0.2696293420418506,-0.2902148054307418,-10.647138641897806,1.1631309592339043,5.046995174838893,0.7761321331551033
1730865970.6335008,-1.8451093435287476,1.0780317783355713,-9.835271835327148,-0.26940821423385264,-0.2889036857485449,-10.647270691495159,1.1614011487806672,5.040201746643442,0.6885462064623865
1730865970.6835158,-1.8778879642486572,1.068177342414856,-9.794242858886719,-0.26917353207956785,-0.28757123288926123,-10.647402692951871,1.1668323054665954,5.037776801718473,0.8359943137026898
1730865970.7335863,-1.8792659044265747,1.0619271993637085,-9.761591911315918,-0.26892876363460416,-0.2862209860097305,-10.647535038012975,1.1659939374625143,5.030778154387369,0.7751101520203146
1730865970.7835293,-1.8781741857528687,1.0342954397201538,-9.767451286315918,-0.2686789006582587,-0.2848568179502404,-10.647667138722563,1.1706818829993184,5.019417182347356,0.8396612546487248
1730865970.8334446,-1.8781741857528687,1.0342954397201538,-9.767451286315918,-0.2684303273507894,-0.28348269808639354,-10.647797259289122,1.177112578887282,5.006316736729771,0.8457626421993376
1730865970.8334446,-1.8452465534210205,1.0448501110076904,-9.792409896850586,-0.26819053377265495,-0.2821024843147979,-10.647922610065493,1.1771233930069507,5.006259641131417,0.8455323299240641
1730865970.8834481,-1.7909832000732422,1.0523160696029663,-9.833215713500977,-0.2679676860388686,-0.28071985624342294,-10.648039660060526,1.17881561150732,4.995214164356658,0.7891295924259712
1730865970.9334626,-1.7380390167236328,1.0403714179992676,-9.891928672790527,-0.2677699970958275,-0.2793383670058427,-10.648144634432118,1.1798488960821878,4.98339601016915,0.7057243712153521
1730865970.9834626,-1.6841381788253784,1.027842402458191,-9.939653396606445,-0.26760495857288824,-0.2779614624970417,-10.64823416632272,1.180210403322006,4.970899324886343,0.5957973559036779
1730865971.0333781,-1.598343849182129,1.0370818376541138,-9.97574520111084,-0.26747856163080763,-0.276592408121317,-10.648305973185929,1.183560835236089,4.993575508052451,0.8446386507121834
1730865971.083417,-1.598343849182129,1.0370818376541138,-9.97574520111084,-0.26739459283819617,-0.2752342210530695,-10.648359364241065,1.18395777804709,4.987419337926137,0.7864236516322398
1730865971.083417,-1.5712602138519287,1.0332560539245605,-9.993497848510742,-0.26735417043014975,-0.27388967501999245,-10.648395452556588,1.1839581454463137,4.987380858115241,0.786000129889095
1730865971.133399,-1.550557255744934,1.039259433746338,-9.944525718688965,-0.2673556373167275,-0.27256132848378056,-10.64841707033053,1.1847337813282688,4.979558763146796,0.8480551552507088
1730865971.1834455,-1.5575945377349854,1.0153611898422241,-9.915091514587402,-0.2673946858660541,-0.27125152362699706,-10.648428407987835,1.184533891228097,4.971150500625061,0.7934943936711474
1730865971.233443,-1.6128383874893188,0.9890211224555969,-9.859123229980469,-0.2674646550760552,-0.26996230776300456,-10.648434407202739,1.1836646612322865,4.962063176252302,0.7122720134003026
1730865971.283348,-1.6128383874893188,0.9890211224555969,-9.859123229980469,-0.26755708649387644,-0.2686952543165786,-10.648440070321143,1.182131663408133,4.952333025277164,0.6047724436879957
1730865971.283348,-1.700724482536316,0.9786924719810486,-9.800239562988281,-0.26766246809219474,-0.2674512890166444,-10.648449886182323,1.1821206679371228,4.95227376418159,0.6040611582367528
1730865971.3333108,-1.7688379287719727,1.0146944522857666,-9.755945205688477,-0.2677710820882076,-0.26623066025951325,-10.648467371845276,1.1856672454357085,4.967393010072625,0.8398605987327228
1730865971.3833656,-1.7688379287719727,1.0146944522857666,-9.755945205688477,-0.26787391877930583,-0.2650330926503243,-10.648494645446968,1.1874588076442543,4.954743730469329,0.8476775318494237
1730865971.3833656,-1.8208271265029907,1.02140212059021,-9.763900756835938,-0.2679634102761277,-0.26385803642350747,-10.648532162996485,1.1874579899290718,4.954699721467223,0.8474412488730487
1730865971.433279,-1.8217395544052124,1.0340009927749634,-9.765320777893066,-0.2680338218924082,-0.26270487496199596,-10.648578775817041,1.1869795659608675,4.946548726924508,0.7922002435431533
1730865971.48329,-1.782911777496338,1.0537012815475464,-9.80487060546875,-0.2680813640736307,-0.2615730776968882,-10.648632025255559,1.189700033040153,4.937894860662975,0.8496505925607558
1730865971.5332751,-1.7525897026062012,1.0612386465072632,-9.85537052154541,-0.2681039814289826,-0.26046236692230434,-10.648688590024728,1.189389517417673,4.928516221473969,0.7948606645240797
1730865971.5832372,-1.7406247854232788,1.1116029024124146,-9.87990665435791,-0.26810085020119023,-0.25937291638710247,-10.648744883393759,1.1884091658925806,4.918491321197322,0.7134802522810519
1730865971.633259,-1.770524501800537,1.115897536277771,-9.90289306640625,-0.26807189847612284,-0.25830559169719647,-10.648797660745343,1.1867548237721162,4.9077964633819535,0.6052381431399189
1730865971.683197,-1.7900440692901611,1.1545110940933228,-9.899785995483398,-0.26801762530262724,-0.25726220390051757,-10.648844437544394,1.1919113968023323,4.925692526492793,0.838407877225283
1730865971.7331789,-1.8505797386169434,1.163799524307251,-9.896068572998047,-0.26793923920347174,-0.2562457034205537,-10.648883650166272,1.1933968489442661,4.914562473017503,0.8464772290958543
1730865971.783353,-1.8505797386169434,1.163799524307251,-9.896068572998047,-0.2678389707568958,-0.2552602728682617,-10.648914613797155,1.1928071868614636,4.906839903846575,0.7894959720965842
1730865971.783353,-1.8653908967971802,1.1624170541763306,-9.862640380859375,-0.26772034162194447,-0.2543112771957589,-10.64893736142988,1.1928019869860784,4.906794854868216,0.7891014523806875
1730865971.8332534,-1.84821355342865,1.119704008102417,-9.858514785766602,-0.26758821159655477,-0.25340503666624425,-10.648952399223841,1.1915526851037173,4.8985265973598615,0.706260668092151
1730865971.8832345,-1.8270213603973389,1.114829421043396,-9.805334091186523,-0.26744858023706997,-0.2525484365888333,-10.648960386828684,1.1896286253630433,4.889568259608144,0.5963171794586137
1730865971.9334147,-1.8270213603973389,1.114829421043396,-9.805334091186523,-0.2673082323055351,-0.2517484888166108,-10.648961776625054,1.1959874919301872,4.899709649180741,0.8417448806362817
1730865971.9334147,-1.793975830078125,1.0453251600265503,-9.822367668151855,-0.26717434660947836,-0.2510119624858135,-10.64895652720396,1.1959852144051242,4.899683216863771,0.8415118679333712
1730865971.9832606,-1.7209333181381226,1.0137131214141846,-9.828447341918945,-0.2670540713938042,-0.2503449781460203,-10.648944054443787,1.1952183011158413,4.894289938224092,0.7835750951429036
1730865972.0332992,-1.6012029647827148,0.9719731211662292,-9.870986938476562,-0.2669538687578403,-0.24975247056353225,-10.648923429296314,1.199019013782415,4.8835546973297,0.8502540744154136
1730865972.0832047,-1.5673483610153198,0.9927900433540344,-9.874567985534668,-0.26687855664475224,-0.24923772198397318,-10.648893696442782,1.198893488425837,4.874954302029201,0.7959222315612066
1730865972.133241,-1.5673483610153198,0.9927900433540344,-9.874567985534668,-0.26683042661836587,-0.24880220835407096,-10.648854174955023,1.2014583717409937,4.86831625101046,0.8453916436201614
1730865972.133241,-1.5617990493774414,1.0194441080093384,-9.915316581726074,-0.26680890007632413,-0.24844577276657703,-10.648804645544738,1.2014593742320947,4.868268759665146,0.845150082367768
1730865972.1831715,-1.576568603515625,1.0584110021591187,-9.886327743530273,-0.2668107188098071,-0.24816700176388545,-10.648745461354636,1.2013117895160197,4.859235653437592,0.7875328073883197
1730865972.2332606,-1.631142258644104,1.0728533267974854,-9.91388988494873,-0.2668304184822921,-0.2479637069043121,-10.648677606934818,1.2004971609637474,4.849526879196247,0.702971269231678
1730865972.283102,-1.7173388004302979,1.079965353012085,-9.86382007598877,-0.26686105157732387,-0.2478333917330996,-10.64860264094899,1.2025987119405848,4.85580162390287,0.847718516857608
1730865972.3331964,-1.82231605052948,1.1077828407287598,-9.826631546020508,-0.26689523589522274,-0.24777358042647574,-10.648522463194873,1.2017603510259447,4.849581768822308,0.7901488201256356
1730865972.383157,-1.8533849716186523,1.1184059381484985,-9.800682067871094,-0.2669263866677122,-0.2477820392161345,-10.648438890204138,1.2068672341835192,4.8394977104017425,0.8450203123098787
1730865972.4330823,-1.8954871892929077,1.0949914455413818,-9.761144638061523,-0.2669497512360519,-0.24785693252879393,-10.648353164545856,1.207100582536049,4.830818437714708,0.786814905863846
1730865972.4830406,-1.8989217281341553,1.0262970924377441,-9.779446601867676,-0.26696297007555114,-0.24799676288583436,-10.648265584978605,1.2066696190041246,4.821581468762286,0.7025612789870772
1730865972.5331557,-1.8536771535873413,1.0082930326461792,-9.78778076171875,-0.26696615336744267,-0.2481999718679963,-10.648175381547563,1.2055577768590424,4.811585892112587,0.5901948524838443
1730865972.5831227,-1.783974289894104,1.004658818244934,-9.84261703491211,-0.26696148395774494,-0.2484644154599902,-10.64808090207962,1.2093903370144745,4.825327698646332,0.8360510527905152
1730865972.6330674,-1.783974289894104,1.004658818244934,-9.84261703491211,-0.26695243738210206,-0.24878706118750749,-10.647980041947633,1.2132163646210263,4.804823825329544,0.8459240452311994
1730865972.6330674,-1.7528783082962036,1.0574264526367188,-9.855023384094238,-0.26694298338880273,-0.24916402226621906,-10.647870696459966,1.2132240549310205,4.804740098337009,0.8456691178998521
1730865972.6830595,-1.7219197750091553,1.080628514289856,-9.910914421081543,-0.26693703256981993,-0.24959087829101903,-10.647751092299192,1.2160145418433421,4.790107904015109,0.8584928250782294
1730865972.7331333,-1.7219197750091553,1.080628514289856,-9.910914421081543,-0.2669380543893025,-0.25006313902871424,-10.647620083576573,1.2171071704132754,4.775515045132184,0.8086095018405606
1730865972.7331333,-1.704637885093689,1.1132997274398804,-9.919187545776367,-0.2669488036339843,-0.2505766202771561,-10.64747743257521,1.2171115921542772,4.7754276126656094,0.808237791148656
1730865972.7830756,-1.704637885093689,1.1132997274398804,-9.919187545776367,-0.26697118808227793,-0.2511276650753116,-10.647323925688111,1.2175259344353342,4.760401717466513,0.7325198487061505
1730865972.7830756,-1.6880874633789062,1.1303209066390991,-9.951221466064453,-0.26700623067192075,-0.25171329065999076,-10.647161340919913,1.217526398175509,4.760317671868941,0.732032829367433
1730865972.8330402,-1.6892642974853516,1.1353075504302979,-9.929433822631836,-0.2670540626713103,-0.25233127703401514,-10.646992409058958,1.2172765180759333,4.744540387812596,0.6290799887218331
1730865972.8830557,-1.6928538084030151,1.1137971878051758,-9.93874454498291,-0.2671139516821999,-0.2529801703337389,-10.646820752570134,1.216366334942306,4.728219667141906,0.5002909799407809
1730865972.9329422,-1.7044410705566406,1.0738990306854248,-9.894899368286133,-0.26718440360340967,-0.25365913198639606,-10.64665070240294,1.2174711138383516,4.781830785828775,0.8550284111792413
1730865972.9829872,-1.7288248538970947,1.0470776557922363,-9.854463577270508,-0.2672633612019468,-0.25436757816663635,-10.64648694642056,1.216747717270781,4.776756381450433,0.7992245848468571
1730865973.0330038,-1.782965898513794,1.0143132209777832,-9.822835922241211,-0.2673485209621995,-0.2551047071698624,-10.646334020932933,1.215347194999619,4.771020268072409,0.7163507346052154
1730865973.082945,-1.8363450765609741,1.0109021663665771,-9.767317771911621,-0.2674378123504392,-0.25586908667933633,-10.646195743743597,1.2189803209221568,4.769521057998464,0.8524928018289103
1730865973.132889,-1.8869452476501465,0.9894759058952332,-9.760782241821289,-0.26753001117900044,-0.25665839937953255,-10.646074709464452,1.218254937034863,4.7630412100299475,0.7939533429938644
1730865973.1829495,-1.8473352193832397,1.0347927808761597,-9.739604949951172,-0.26762527377995915,-0.2574693826796264,-10.645971943154432,1.216862182787663,4.755936463087986,0.7089448175626096
1730865973.232936,-1.816389560699463,1.0465000867843628,-9.774761199951172,-0.2677252659879812,-0.258298003335452,-10.645886808702356,1.2207348895821135,4.756545681751391,0.8512465057018885
1730865973.2828844,-1.783855676651001,1.0769073963165283,-9.79489803314209,-0.2678327859598083,-0.2591398345206525,-10.645817215964742,1.2227408520084475,4.7445411440044545,0.8618547921580466
1730865973.3328242,-1.7646828889846802,1.053520679473877,-9.82564926147461,-0.26795115493516686,-0.25999044433210106,-10.64576006580696,1.2222841064179193,4.736682868250073,0.8065475310086231
1730865973.3828576,-1.7351040840148926,1.0145779848098755,-9.854711532592773,-0.2680836720176125,-0.26084556065649056,-10.645711786582135,1.221156116542496,4.728155309445923,0.7244926783891276
1730865973.432912,-1.7351040840148926,1.0145779848098755,-9.854711532592773,-0.2682332129492246,-0.26170093764940006,-10.64566881872745,1.2193541266134618,4.718961719399958,0.6156336842653649
1730865973.432912,-1.683071255683899,0.9749651551246643,-9.900102615356445,-0.2684019429107307,-0.2625520885637331,-10.645627979707463,1.2193415112328785,4.718905590447201,0.6149129336006889
1730865973.4828544,-1.6453770399093628,0.9578630328178406,-9.910890579223633,-0.26859103984152816,-0.2633940481959619,-10.645586749777511,1.2168872311367114,4.70914084468745,0.4805195322309362
1730865973.532847,-1.649688720703125,0.9565423130989075,-9.945751190185547,-0.2688003763834865,-0.2642211876550165,-10.645543543904983,1.2137382566449524,4.698624931150846,0.3182536833024253
1730865973.5828483,-1.6442580223083496,0.9954084157943726,-9.940225601196289,-0.26902832469745186,-0.26502717553339605,-10.645497932829823,1.2245363423970124,4.7259537213280165,0.8506495471462909
1730865973.632834,-1.6689367294311523,1.0497392416000366,-9.937795639038086,-0.2692718329971052,-0.2658052461903053,-10.645450720739799,1.2234467691210922,4.720944333753679,0.7906009043214692
1730865973.682793,-1.6689367294311523,1.0497392416000366,-9.937795639038086,-0.26952670669270706,-0.266548737371865,-10.645403846786584,1.227463050311407,4.716278149839013,0.8563912367643537
1730865973.682793,-1.6859419345855713,1.0834542512893677,-9.915569305419922,-0.26978795473650874,-0.26725162654893797,-10.645360168544943,1.2274619624268834,4.7162512128554805,0.856159359539516
1730865973.7328548,-1.71327543258667,1.1262437105178833,-9.893120765686035,-0.2700501328120189,-0.2679089104816642,-10.645323173268844,1.226907940498291,4.710627029656991,0.7972301351611238
1730865973.782775,-1.7269731760025024,1.1472166776657104,-9.872698783874512,-0.27030769811144856,-0.2685169319073662,-10.645296615822598,1.22568240663855,4.704356951966081,0.7119942368304818
1730865973.8327966,-1.735066294670105,1.1401067972183228,-9.833118438720703,-0.2705553554581034,-0.2690736608992451,-10.645284117033006,1.2287740560808298,4.695853681907277,0.8611011130219991
1730865973.8827624,-1.717958927154541,1.1496965885162354,-9.815305709838867,-0.2707882873413334,-0.2695787751631868,-10.645288763040924,1.227839845630955,4.688307943631266,0.8043027343612522
1730865973.9327734,-1.6673269271850586,1.18075430393219,-9.812365531921387,-0.2710021557094659,-0.2700335660458013,-10.645312765166159,1.2306858903386628,4.683240301034895,0.8591862156871538
1730865973.9827108,-1.718985915184021,1.200554609298706,-9.816550254821777,-0.27119290365188814,-0.27044087570565556,-10.645357290496552,1.230075234516801,4.675434876075216,0.8012419063845896
1730865974.032757,-1.777178168296814,1.1863377094268799,-9.796299934387207,-0.2713566835678105,-0.27080510350356873,-10.6454224746737,1.232049820297088,4.671552574429011,0.8570540198011761
1730865974.0837018,-1.8267006874084473,1.1075407266616821,-9.833602905273438,-0.27149022031075054,-0.2711320417760448,-10.645507520191943,1.2313014921998402,4.6637292433036865,0.7969013474854143
1730865974.1328225,-1.8129234313964844,1.0744457244873047,-9.833734512329102,-0.2715913994311777,-0.2714283211480943,-10.645610871999303,1.2299113389623737,4.655498293015074,0.712603584507608
1730865974.1827915,-1.7848941087722778,1.034195899963379,-9.854951858520508,-0.2716595822976391,-0.27170060355784614,-10.645730490541595,1.2278246263670118,4.646453016054585,0.6004920606575423
1730865974.2327878,-1.7069191932678223,1.0519814491271973,-9.866008758544922,-0.27169539380688756,-0.2719549037161567,-10.645864141442882,1.233769487187008,4.657459272560221,0.8502881403531923
1730865974.2827125,-1.7330290079116821,1.0380792617797852,-9.891645431518555,-0.27170012891455786,-0.2721962656898055,-10.64600965315498,1.2327801613125715,4.651462309212589,0.7885811135070198
1730865974.333654,-1.723747968673706,1.0607243776321411,-9.90710735321045,-0.27167520553384034,-0.2724287446503174,-10.646165166787336,1.2349393440567928,4.642942769731166,0.8547154272459839
1730865974.383695,-1.6333900690078735,1.1029419898986816,-9.92292594909668,-0.27162186716278924,-0.2726555814032181,-10.646329370029246,1.2339591949563609,4.635303984558223,0.7946658842352711
1730865974.4336932,-1.7185343503952026,1.0912126302719116,-9.885492324829102,-0.27154093705694193,-0.2728795157124819,-10.646501631509102,1.2323036793873765,4.627005446092558,0.7082012520047999
1730865974.4835937,-1.7632367610931396,1.0811116695404053,-9.884361267089844,-0.271432738302132,-0.2731030726688638,-10.646681926483355,1.2366189669696208,4.628870074434885,0.85196471599997
1730865974.533778,-1.7660847902297974,1.066494345664978,-9.817702293395996,-0.2712974722461041,-0.2733286209771335,-10.646870542973485,1.2356092772833744,4.622504839025125,0.7905689556636062
1730865974.583637,-1.76335608959198,1.0730304718017578,-9.786660194396973,-0.2711357258145912,-0.2735582581594262,-10.647067629461056,1.2379685203716384,4.613485432690512,0.8551456631308841
1730865974.6336203,-1.755035638809204,1.0663394927978516,-9.755593299865723,-0.27094865899797826,-0.2737937123261676,-10.64727266991655,1.2370617832260389,4.605187844296758,0.795704417249348
1730865974.683558,-1.7797462940216064,1.05051851272583,-9.727736473083496,-0.2707379494378179,-0.27403630574091853,-10.647484038497307,1.2389902574772587,4.59790363554791,0.8556193687165862
1730865974.7336075,-1.7905184030532837,1.0506978034973145,-9.733460426330566,-0.27050575688181977,-0.2742869101767576,-10.647698746710452,1.238037257589979,4.588818568122389,0.7960834368278509
1730865974.7834837,-1.7905184030532837,1.0506978034973145,-9.733460426330566,-0.27025477940961457,-0.27454589346821756,-10.647912411856344,1.2391863088625827,4.579384267758464,0.8556404899274862
1730865974.7834837,-1.7196898460388184,1.0897799730300903,-9.776664733886719,-0.26998822950171775,-0.27481315596624156,-10.648119460530726,1.2391810022224843,4.579332625133523,0.8553703695275966
1730865974.8335426,-1.7713710069656372,1.1019127368927002,-9.835098266601562,-0.26970958287306424,-0.27508833166308444,-10.648313580771807,1.2379381219571683,4.5701873586711335,0.7959726648972254
1730865974.8835092,-1.8028919696807861,1.1387075185775757,-9.852670669555664,-0.2694223494075939,-0.2753711119136599,-10.648488379091766,1.2365844232853114,4.557735234898291,0.8634295554098709
1730865974.9336016,-1.8285831212997437,1.182466745376587,-9.922863006591797,-0.26913019495953283,-0.27566160941341455,-10.648638075657129,1.2344170563020815,4.54671214026033,0.808043063289925
1730865974.9834633,-1.8077365159988403,1.2220063209533691,-9.935257911682129,-0.268837245955842,-0.2759607542147644,-10.648758100930634,1.231591496204751,4.535056836674516,0.726452100906132
1730865975.0335941,-1.8268399238586426,1.19771409034729,-9.958266258239746,-0.26854821471591994,-0.27627064863340867,-10.64884554267856,1.2280715292086886,4.522623802331027,0.6175631497328504
1730865975.0834959,-1.7553056478500366,1.1827597618103027,-9.942646980285645,-0.26826826807342175,-0.27659465622509904,-10.648899351597453,1.2239063327220543,4.509584990267535,0.4828701485897944
1730865975.1334362,-1.7702215909957886,1.131227731704712,-9.93575382232666,-0.2680027020381461,-0.2769371074958493,-10.648920260081425,1.233445861556782,4.540587681097469,0.8512432817030556
1730865975.1834197,-1.7350672483444214,1.0756663084030151,-9.8892240524292,-0.2677565397194665,-0.2773027177196228,-10.64891046544432,1.2313007409478562,4.53419440415873,0.7895503758813933
1730865975.2334309,-1.6980245113372803,1.014807939529419,-9.849322319030762,-0.26753418479107793,-0.2776958449522786,-10.648873123757824,1.2348710382311303,4.5213055398914195,0.855359026685991
1730865975.2833824,-1.74787175655365,0.9247363805770874,-9.83838939666748,-0.26733916265947777,-0.27811967173629437,-10.648811740093391,1.233557014859503,4.510988085584924,0.796041306858457
1730865975.3333728,-1.7218077182769775,0.9190731048583984,-9.835184097290039,-0.2671740406542923,-0.2785754176436404,-10.648729657350328,1.2362809890836874,4.501465663340402,0.8549850024476119
1730865975.3833628,-1.710154414176941,0.9689270853996277,-9.809120178222656,-0.2670405267713885,-0.2790618668173699,-10.648629774423808,1.2352436774430147,4.490092467287822,0.7955054838571919
1730865975.4333987,-1.710154414176941,0.9689270853996277,-9.809120178222656,-0.2669395260487457,-0.2795754969016029,-10.64851440399856,1.2373206150127807,4.490880900008897,0.8545145629974359
1730865975.4333987,-1.6837084293365479,0.9878154993057251,-9.841340065002441,-0.2668710982068811,-0.2801110322924326,-10.648385211058036,1.237316613977778,4.490841241214801,0.8542704397495877
1730865975.483403,-1.650559425354004,1.0081390142440796,-9.836055755615234,-0.26683437679749683,-0.28066201341672925,-10.648243315190424,1.236228972642304,4.483009875492656,0.7949349526717278
