Timestamp,IMU_Linear_Acc_X,IMU_Linear_Acc_Y,IMU_Linear_Acc_Z,Filtered_X,Filtered_Y,Filtered_Z,Pose_X,Pose_Y,Pose_Z
1731474160.4202018,-0.35329899191856384,0.519231379032135,-9.9598970413208,0.0,0.0,-9.415351712002774e-06,0.0,0.0,-0.00041285512612767065
1731474160.4702244,-0.3345542550086975,0.5284436941146851,-9.966591835021973,1.6841886431372452e-08,-8.277137477915867e-09,-8.319842031048532e-05,2.087888751171021e-11,-1.0261167775033095e-11,-0.00041734868066427327
1731474160.5200076,-0.3611922562122345,0.5078816413879395,-10.020652770996094,1.2487809523391666e-07,-5.466062321435166e-08,-0.00037080168938985085,2.1839918651289497e-10,-9.896867550602057e-11,-0.00042241997603640984
1731474160.570008,-0.3498118817806244,0.5143244862556458,-10.008946418762207,4.618460625257896e-07,-1.6843575714054085e-07,-0.0011378054262361343,1.264294770877878,7.644457141218899,0.8823155833973954
1731474160.6198819,-0.33152875304222107,0.5191381573677063,-9.96742057800293,1.1985512960919005e-06,-3.277705199112232e-07,-0.002754469404494875,1.2709274132664365,7.684560865171124,0.8869372225945046
1731474160.6699362,-0.3189314603805542,0.520063042640686,-9.994635581970215,2.5910273930067576e-06,-4.5493516598498503e-07,-0.005674881099672854,1.2765141853527233,7.687556113252485,0.8872842353911198
1731474160.7198498,-0.31146132946014404,0.49782794713974,-9.991044998168945,5.131634994136544e-06,-4.3970428347162273e-07,-0.010417825900594537,1.2799417769608847,7.698305620987455,0.8884947609552105
1731474160.7696915,-0.27925825119018555,0.5191643238067627,-9.976333618164062,9.706217409347083e-06,-1.1303227872867966e-07,-0.017549524247078303,1.2765677535621074,7.689334111107529,0.887464722874073
1731474160.8196826,-0.26903486251831055,0.5131709575653076,-9.989280700683594,1.7749403713897974e-05,7.827230556415273e-07,-0.027668082057709917,1.2774815431047868,7.692200804966073,0.8877060728099017
1731474160.8696597,-0.2614664137363434,0.5186227560043335,-10.001703262329102,3.139726580712365e-05,2.5576119054768615e-06,-0.04138950740083195,1.2801555598903656,7.687148095019269,0.8871529274981187
1731474160.9207711,-0.2614664137363434,0.5186227560043335,-10.001703262329102,5.355646909872909e-05,5.517867920624522e-06,-0.05933528495165608,1.2816219260008568,7.687934761760117,0.8870248507164074
1731474160.9207711,-0.2740640342235565,0.5009732246398926,-9.956851959228516,8.784217996092906e-05,9.95087380993866e-06,-0.08212134417286236,1.2816300120061508,7.6879390995182835,0.8870237094809651
1731474160.9705622,-0.274027019739151,0.5083372592926025,-10.000702857971191,0.00013841048343132313,1.6166213112577174e-05,-0.11034821124223039,1.2754585283699114,7.685686411898074,0.8868524283793819
1731474161.02048,-0.274027019739151,0.5083372592926025,-10.000702857971191,0.00020975483524877096,2.455120577222478e-05,-0.14459240327537215,1.2783530391399351,7.685284875569013,0.8866899047245711
1731474161.02048,-0.2422710508108139,0.5382094979286194,-10.02502155303955,0.00030657076327926264,3.554994279500167e-05,-0.18539916443358262,1.278358463032312,7.685285275736054,0.886686599923879
1731474161.070523,-0.2966766655445099,0.5066756010055542,-9.966814994812012,0.00043370610635830493,4.95579833568133e-05,-0.23327632449520597,1.279135276238787,7.6853426096795365,0.8859242396300834
1731474161.1204453,-0.24885393679141998,0.5543649792671204,-9.974495887756348,0.0005960782811741173,6.682577630312122e-05,-0.2886889593958922,1.2799197247324876,7.6854005576089515,0.8845035457077499
1731474161.1704516,-0.2737577557563782,0.5325854420661926,-10.017370223999023,0.0007985515247101044,8.738626100790888e-05,-0.3520548710421978,1.280703158511237,7.68545849441527,0.8822887968641961
1731474161.2202854,-0.2737577557563782,0.5325854420661926,-10.017370223999023,0.0010458609363824568,0.00011099286827835468,-0.42374113561922144,1.2803746665043814,7.685061941093792,0.8860711096028444
1731474161.2202854,-0.2906055152416229,0.5151991844177246,-9.989680290222168,0.001342518474483697,0.000137152698412491,-0.5040616297575008,1.2803775246089588,7.685061989015684,0.8860631698308004
1731474161.2703397,-0.3137006163597107,0.5183002948760986,-9.986680030822754,0.0016926311218814622,0.0001652630664913772,-0.5932751468135802,1.2809020208006814,7.6850709535419215,0.8838738625415474
1731474161.3202085,-0.3137006163597107,0.5183002948760986,-9.986680030822754,0.0020996799711355137,0.00019473605033123572,-0.691584007629996,1.2821238195962361,7.685015125902579,0.8853838969020196
1731474161.3202085,-0.3133438229560852,0.5345419645309448,-10.003192901611328,0.002566348980608074,0.00022503334387096645,-0.7991333387697657,1.2821282218197745,7.685015139248301,0.8853706870378162
1731474161.370244,-0.3098906874656677,0.528404951095581,-10.000290870666504,0.0030944778912437125,0.0002556159763387354,-0.9160110584222911,1.2829293668329529,7.685004723685211,0.884972542466119
1731474161.4202275,-0.3098906874656677,0.528404951095581,-10.000290870666504,0.003685117898154922,0.0002858820583330518,-1.0422484279712858,1.2835546590328746,7.685006337213219,0.8807724001188063
1731474161.4202275,-0.33454248309135437,0.49304723739624023,-9.936529159545898,0.004338591111891816,0.0003151898434938079,-1.1778209651669904,1.283558212489732,7.68500634833999,0.880741324084308
1731474161.470167,-0.3619610667228699,0.5299280881881714,-10.047443389892578,0.0050544505192971585,0.00034297308832375374,-1.3226496639023615,1.284187117194441,7.685008718588442,0.8736746209806703
1731474161.5199888,-0.36124423146247864,0.5293492674827576,-9.995766639709473,0.00583132751501491,0.0003688010745506729,-1.4766027347489807,1.2848372141672113,7.685012001745039,0.8630447548933508
1731474161.570011,-0.3769206404685974,0.5511707663536072,-9.91990852355957,0.006666793398776867,0.00039227480566596685,-1.6394977770562622,1.28386285227047,7.628369905593308,0.8825571225923042
1731474161.6198852,-0.3783719837665558,0.543317973613739,-9.976374626159668,0.007557328731739808,0.000412859051008507,-1.811103939958492,1.284220608695355,7.616837258770336,0.8743843138352799
1731474161.6698837,-0.24439649283885956,0.7247949242591858,-9.980547904968262,0.008498494888379997,0.00042962733438558435,-1.991144224195988,1.284599266902562,7.6052757513247276,0.8614602552115462
1731474161.7198694,0.5133981704711914,1.6614665985107422,-9.919093132019043,0.009486182899824754,0.00043980503533281326,-2.179298269028567,1.2838832718277715,7.57118803359382,0.8796339070888674
1731474161.769799,0.2999531030654907,1.1952157020568848,-10.016883850097656,0.010519806691590229,0.0004351695042459806,-2.3752053925584677,1.2840621333855413,7.5535399694627055,0.8680748858270311
1731474161.8197489,0.4892212450504303,1.505788803100586,-9.938413619995117,0.011605703368957077,0.00039868555719860276,-2.5784677508631484,1.2842690129075238,7.535853989149373,0.850305868448357
1731474161.8706505,-0.516516387462616,-0.022402653470635414,-9.965340614318848,0.012757431515033526,0.0003053068628633187,-2.788653632759032,1.2839729878069466,7.5001966070879025,0.8763960091700393
1731474161.9206002,-0.9550522565841675,-0.21024510264396667,-10.16689682006836,0.01399138358455945,0.00012834842250344464,-3.005300917624212,1.2839079207541302,7.4303399925329785,0.8768972056544637
1731474161.9705899,-0.7593311667442322,-0.04050649330019951,-10.03207015991211,0.015319758517297857,-0.0001518265260094032,-3.227920958342807,1.284007539959486,7.395615699689517,0.8613010537184902
1731474162.0203743,-0.5015047788619995,0.2697582244873047,-10.028075218200684,0.016746101083237822,-0.0005432344053707334,-3.456002467652239,1.283632017525509,7.3444657380255345,0.8739272606285966
1731474162.0706327,-0.6376875638961792,0.10086476802825928,-9.939265251159668,0.018265871503622827,-0.0010436935768944953,-3.6890146132281223,1.2836398761174663,7.3039558280952575,0.8551312506698862
1731474162.1203902,-0.4812456965446472,0.29825708270072937,-9.977543830871582,0.01986899898315698,-0.0016440086696253436,-3.92640958255843,1.2836955393974343,7.263828821116397,0.826952545568929
1731474162.1703827,-0.5795964598655701,0.24074093997478485,-9.958183288574219,0.02154161206021942,-0.002330092287995401,-4.167625337631808,1.283802674753773,7.223781043523254,0.7887493896775255
1731474162.2203078,-0.5795964598655701,0.24074093997478485,-9.958183288574219,0.023266950035934826,-0.0030843460972560344,-4.412088706049378,1.283199470407523,7.323077717524642,0.8688791874093886
1731474162.2203078,-0.508014976978302,0.46040502190589905,-9.957934379577637,0.025025922327156475,-0.0038868004128829094,-4.6592185659177545,1.2831994201301116,7.322998631444991,0.8687745465431974
1731474162.2702415,-0.508804440498352,0.4490143060684204,-9.982624053955078,0.026797691673849662,-0.00471642583411903,-4.90842897841568,1.2832237618712516,7.309023443235917,0.84420558273189
1731474162.320172,-0.48865872621536255,0.4541880786418915,-9.978496551513672,0.02856047132792426,-0.005552617325470029,-5.15913229645311,1.283316591696543,7.2950116628689115,0.8071468553132873
1731474162.370213,-0.5410983562469482,0.4174778163433075,-9.919493675231934,0.030292191373938678,-0.006376077759262942,-5.410742142654433,1.2828027387763934,7.306525599104095,0.8689504091164569
1731474162.4201007,-0.47556886076927185,0.47924375534057617,-9.938119888305664,0.03197084309864726,-0.00716895743692723,-5.662676056526205,1.2828492697052065,7.296923745202511,0.8408359739413018
1731474162.47022,-0.47460830211639404,0.529241681098938,-10.030539512634277,0.03357476894019619,-0.007914935254291731,-5.91435799660571,1.2829780280644538,7.28728621909931,0.798163358821274
1731474162.5199964,-0.4850676357746124,0.5224998593330383,-9.974165916442871,0.035083069559223086,-0.008599581180825796,-6.165221052325211,1.2819124310201142,7.281588874943457,0.8629751586885639
1731474162.5699408,-0.48955443501472473,0.4771479666233063,-9.996931076049805,0.03647592862308269,-0.009210664433674028,-6.414710140705626,1.281830182271182,7.271438977741339,0.8293065114062966
1731474162.6199024,-0.4665283262729645,0.4885329604148865,-9.979948997497559,0.03773474703976613,-0.009738049010892813,-6.662284276219012,1.2812461706619684,7.253964334686139,0.8606762907400108
1731474162.669962,-0.46965348720550537,0.5105751752853394,-9.998185157775879,0.03884226339425479,-0.01017337759365132,-6.907418515912946,1.2798251146323443,7.225908865043368,0.8621709165205229
1731474162.7198188,-0.4509274959564209,0.5246589779853821,-10.004263877868652,0.03978273733040473,-0.010509935209863618,-7.149605808700159,1.2792699890042658,7.207055822485965,0.8258819068832953
1731474162.7698064,-0.4414564073085785,0.5083518624305725,-9.974061965942383,0.0405421317720734,-0.010742689718593611,-7.388358727459646,1.278815704537824,7.188189449465836,0.7714378380031364
1731474162.8197534,-0.41812509298324585,0.5166147947311401,-9.975350379943848,0.04110828539659111,-0.01086826940164482,-7.623210957641814,1.2788804568262895,7.151094584810955,0.8538547855926516
1731474162.8696876,-0.38708367943763733,0.5227304100990295,-9.974908828735352,0.04147110798496648,-0.010884830823103339,-7.853718536342162,1.278719767865684,7.130335962356291,0.8113833522789811
1731474162.9196005,-0.36882284283638,0.5231413841247559,-9.979649543762207,0.041622807185118536,-0.01079193403936412,-8.079460980847093,1.2758910896236049,7.066031225150287,0.8533971703671239
1731474162.970591,-0.3273898661136627,0.5379171371459961,-10.020581245422363,0.04155811858319182,-0.010590463335711425,-8.300042397552874,1.274963388443283,7.030689565279479,0.8080208570496241
1731474163.0204976,-0.3707225024700165,0.505232036113739,-9.976547241210938,0.041274454825056886,-0.010282537533882186,-8.515092533472851,1.2741574710550414,6.995982558785609,0.7422962589755506
1731474163.070438,-0.3476724922657013,0.5362069010734558,-9.949875831604004,0.04077184524602105,-0.00987136083285851,-8.724267575306026,1.2734563777179526,6.961376087769717,0.655397453249974
1731474163.1203568,-0.3835640251636505,0.5246970653533936,-9.991329193115234,0.040052656475184675,-0.009361063947208549,-8.927250592002434,1.2737867922446091,6.997765452137045,0.8458086402171165
1731474163.1703653,-0.3614824414253235,0.5287243723869324,-9.99287223815918,0.03912124302341613,-0.008756603871037905,-9.123751887763909,1.2733974369686112,6.977866371291612,0.7950636352212636
1731474163.2202575,-0.377625972032547,0.5039097666740417,-9.963214874267578,0.03798364585333943,-0.008063654300806232,-9.31350941515245,1.2707317090364212,6.9225062631368095,0.8476403355676311
1731474163.2702463,-0.3766827881336212,0.5053097605705261,-10.006082534790039,0.036647353890809545,-0.007288410086573837,-9.496289038298416,1.2697073373647683,6.88976180422992,0.7962929253585229
1731474163.3201778,-0.37935033440589905,0.516689121723175,-9.970401763916016,0.035121090064403795,-0.0064373779079607354,-9.671884594139032,1.2679521131261513,6.831449944658107,0.8458403146890426
1731474163.3702471,-0.40080633759498596,0.4964871406555176,-10.002296447753906,0.03341458938316168,-0.005517251276045758,-9.840117849929054,1.2666335141932772,6.784055870027373,0.7925165705405338
1731474163.4201424,-0.38300633430480957,0.5083088278770447,-10.015450477600098,0.031538370601470384,-0.004534836656551934,-10.00083837331056,1.265396321655078,6.736664358808613,0.7144713323669156
1731474163.470025,-0.443865567445755,0.4779611825942993,-10.014248847961426,0.02950350075719827,-0.003496952705059668,-10.153923347419637,1.2662128582159873,6.812287049813524,0.8407310089159513
1731474163.5200374,-0.3783123791217804,0.5307408571243286,-9.943964958190918,0.027321356282069324,-0.0024103326707720757,-10.299277217943548,1.265545236629297,6.793830594299429,0.783452549620641
1731474163.569949,-0.4149475693702698,0.529784619808197,-9.995633125305176,0.025003474679628372,-0.0012816492484787711,-10.436831007003345,1.2649859142544289,6.785060381083257,0.8419988746025229
1731474163.6199312,-0.4006003737449646,0.5575022101402283,-9.984058380126953,0.02256153453338413,-0.00011769110421011846,-10.5665415014839,1.263880168428211,6.7711124635335525,0.8465769474790893
1731474163.6698508,-0.4396592080593109,0.5405032634735107,-9.956144332885742,0.020007299801415197,0.0010744581371267105,-10.688390543933252,1.2632116508727407,6.755723136489695,0.7904144754455638
1731474163.719805,-0.4295702874660492,0.5543187260627747,-9.9859037399292,0.01735243964625415,0.0022873721953863523,-10.802384278840428,1.2625925363090331,6.740404166921387,0.707732991111283
1731474163.7697442,-0.42668965458869934,0.5741111636161804,-9.961564064025879,0.014608345003801903,0.003513320029234237,-10.9085522804168,1.2620109304295652,6.725032289206988,0.5975906946635297
1731474163.8196783,-0.4360142648220062,0.5671287775039673,-9.956544876098633,0.011786052893560803,0.004744277414841207,-11.00694664174977,1.2624751848629583,6.724173789840038,0.8340837605345346
1731474163.8696399,-0.4315682351589203,0.557338535785675,-9.982433319091797,0.008896239470035868,0.005971940897308613,-11.09764100820589,1.2620982893397652,6.710841690545983,0.7705481693632767
1731474163.9195507,-0.42473089694976807,0.5397765636444092,-10.009066581726074,0.005949217342390502,0.007187860155559262,-11.18072963676034,1.2617429615900055,6.697633033070934,0.6797192218962922
1731474163.9695463,-0.42673540115356445,0.5290296673774719,-9.97465991973877,0.0029549570626861434,0.008383685003033953,-11.256326537350407,1.261065496437861,6.6745756335309565,0.8344490727313402
1731474164.0205133,-0.41879597306251526,0.5388911366462708,-9.974834442138672,-7.68670534086538e-05,0.009551411961781003,-11.324564489955788,1.2605428794268234,6.656556067034774,0.7687617331045523
1731474164.070491,-0.38974595069885254,0.5596628785133362,-10.005626678466797,-0.003136811547232447,0.010683504206662005,-11.38559386432109,1.2600286654818795,6.638990022532841,0.6759696254304176
1731474164.1204576,-0.38453778624534607,0.5208667516708374,-9.979079246520996,-0.00621553221517832,0.01177287829326401,-11.439581447167976,1.2592402736329265,6.626990824142401,0.8326513992082556
1731474164.1704335,-0.3518224358558655,0.524154782295227,-9.996140480041504,-0.00930359578578482,0.012812929407572825,-11.486709319382337,1.2583564609401456,6.5810910698277745,0.8420501340926273
1731474164.2203336,-0.34355854988098145,0.5191760063171387,-10.006608963012695,-0.012391293400683363,0.013797671123956207,-11.527173692888427,1.2577212195844516,6.556764584842768,0.7805456437999823
1731474164.270315,-0.3270731568336487,0.5440074801445007,-9.949302673339844,-0.015468490274938386,0.01472183111693849,-11.561183705500358,1.2567283022206386,6.524073775649172,0.8365949949889628
1731474164.3202639,-0.3096349239349365,0.5479848384857178,-10.00139331817627,-0.018524533330056766,0.01558078609945299,-11.588960136634723,1.255942161013351,6.4985895367281925,0.772557555270833
1731474164.3701947,-0.3083556592464447,0.5252760648727417,-10.021833419799805,-0.021548215556932815,0.016370432493312433,-11.610734151955377,1.255111422080831,6.473307166412663,0.6802030125663383
1731474164.4201214,-0.32990550994873047,0.5256478190422058,-9.975671768188477,-0.02452782536990079,0.0170871616553221,-11.62674623022608,1.2542146338706077,6.447813892536268,0.5578132790089693
1731474164.4701505,-0.3092363774776459,0.5399481058120728,-9.969268798828125,-0.027451322487018488,0.017727932565919466,-11.637245040257085,1.2560045934539155,6.481338878738628,0.829256459191931
1731474164.520042,-0.2887982428073883,0.5596032738685608,-9.972800254821777,-0.03030652775519921,0.018290264839248692,-11.642486100084536,1.2555555305956092,6.466678282099328,0.7617932450074217
1731474164.5699935,-0.3595009446144104,0.7189980745315552,-9.982955932617188,-0.033081245683390416,0.018771949704359484,-11.642730470839114,1.2545249766487374,6.435606025666372,0.8349936182494693
1731474164.6199439,-0.6427477598190308,1.415651559829712,-9.925313949584961,-0.0357637654351206,0.01916971930927154,-11.638243600217706,1.2537185452148465,6.413953938439258,0.7699939294101689
1731474164.6699345,-0.6165494918823242,0.5551245808601379,-9.866538047790527,-0.038344228294268874,0.019476816655700196,-11.62929406351873,1.2528187640719246,6.392339280742195,0.6757816096371054
1731474164.719879,-1.4786083698272705,0.4926488995552063,-10.089213371276855,-0.04081693231133399,0.019682457168069427,-11.616152280932988,1.2536200696524524,6.403008941835264,0.8314753037395759
1731474164.7698503,-0.5003513693809509,0.51936936378479,-9.853687286376953,-0.04318295878327533,0.019774818324324005,-11.599089665249316,1.2530568750681472,6.390595197371388,0.7648223580089096
1731474164.8198128,0.04512631148099899,0.05102386325597763,-10.057523727416992,-0.04544996178479718,0.019744533359384014,-11.57837798494116,1.252086255773047,6.362939451617624,0.8350553808778793
1731474164.869673,0.020476045086979866,0.24266284704208374,-10.213884353637695,-0.047626967748549145,0.01958686965648089,-11.554288790092611,1.251212301082819,6.344957445898229,0.7706320608566107
1731474164.9197352,-0.06659018248319626,0.2546806335449219,-9.995284080505371,-0.04971856425472758,0.019302946295744708,-11.527093285245979,1.250885458803831,6.316926764297914,0.8353108889338853
1731474164.9696233,-0.22866807878017426,0.2495405673980713,-9.991610527038574,-0.051723288416508376,0.01889949951870615,-11.497061869097767,1.2499585152050583,6.2933778839770085,0.7713914891470884
1731474165.0195842,-0.17199070751667023,0.28089892864227295,-9.977840423583984,-0.05363518221891263,0.01838768340521192,-11.464462602841495,1.24889134700233,6.2696656090308425,0.6781464417137959
1731474165.0705101,-0.17834487557411194,0.4154818058013916,-9.964560508728027,-0.05544558305106579,0.01778191477078961,-11.42955955194581,1.2500612400476454,6.278691328228623,0.8308218517013749
1731474165.1204085,-0.16542883217334747,0.4964807629585266,-9.969206809997559,-0.05714403799336519,0.017098549805335754,-11.392611705603702,1.2493921370594396,6.264020679189336,0.76517572299213
1731474165.1703877,-0.23587629199028015,0.5165247917175293,-9.943984985351562,-0.058718735714610094,0.016354304284584675,-11.353872196794548,1.2495648355562763,6.232354248765285,0.83534900668409
1731474165.220306,-0.22092512249946594,0.4952094256877899,-9.973434448242188,-0.060157047084417874,0.015565041112530972,-11.313587620723963,1.2489142222571201,6.211152177319328,0.7720809557144218
1731474165.2703137,-0.2323492467403412,0.5198451280593872,-9.967941284179688,-0.06144615672510176,0.01474527901701111,-11.271997483114449,1.2481070616763181,6.189843640642465,0.6801303209850016
1731474165.3203123,-0.25136658549308777,0.5174309611320496,-9.953958511352539,-0.06257353432528429,0.013908133265032912,-11.229333767408713,1.2471453636828929,6.168593994419848,0.5600824684884412
1731474165.37022,-0.22930991649627686,0.5732638835906982,-9.989588737487793,-0.06352724130644899,0.013065275557671029,-11.18582053424224,1.2460248793634323,6.1473630166059,0.4118457957832361
1731474165.4201612,-0.27895158529281616,0.5520592331886292,-10.02342414855957,-0.06429616912629832,0.012226788506290557,-11.141673613682375,1.2490208844444017,6.179226045523603,0.8287352694469162
1731474165.4701998,-0.257144570350647,0.5125899314880371,-9.987648010253906,-0.06487026360292636,0.011401090686902196,-11.097100463708172,1.2490024467628174,6.129287604272886,0.8418719954472271
1731474165.520094,-0.27159884572029114,0.5109673142433167,-10.002777099609375,-0.06524073266177735,0.010595150047205432,-11.052299993375952,1.248523848783556,6.104709789811173,0.7818500513095181
1731474165.5700138,-0.2805241048336029,0.5076335072517395,-10.030702590942383,-0.06540017631827003,0.009814866762482473,-11.007462261034942,1.247888296363253,6.0804265016064365,0.6950968734839409
1731474165.6199641,-0.29612553119659424,0.549163281917572,-9.971040725708008,-0.06534267668193376,0.00906530392648783,-10.962768205230507,1.24708664769353,6.056037665204055,0.580539267851693
1731474165.6699429,-0.11691132932901382,0.7504041194915771,-9.982314109802246,-0.06506374819228028,0.008350474947882817,-10.918389357741429,1.2461223464672275,6.031672375898962,0.438688374797894
1731474165.7198658,0.6160908341407776,1.6543776988983154,-9.985828399658203,-0.06455913478523945,0.007671697940452506,-10.874487477136501,1.248549228750727,6.038445081015314,0.8299673078862528
1731474165.7698388,0.2742922902107239,1.1484307050704956,-9.935419082641602,-0.06382173636554267,0.007023951268089419,-10.831214257975676,1.2480790887034052,6.019544352195654,0.7660132041412071
1731474165.8198068,0.2742922902107239,1.1484307050704956,-9.935419082641602,-0.06283891883033685,0.0063930703366934846,-10.788711094540014,1.2481426595190936,5.975527926612698,0.8375765587137932
1731474165.8198068,0.5598775744438171,1.5156831741333008,-9.900559425354004,-0.06159245335352881,0.0057562712316082025,-10.74710880676653,1.248139891639168,5.975358219072889,0.8372963359275049
1731474165.8697546,-0.5117053389549255,-0.020943261682987213,-10.053956031799316,-0.060060262782758916,0.0050848119910389305,-10.706527561570587,1.2476040858424555,5.9470515614424855,0.7773505874383694
1731474165.9196506,-0.9748305082321167,-0.22038394212722778,-10.095508575439453,-0.058220495849575116,0.00434945001033995,-10.667077371447528,1.2474966189019894,5.913847617596199,0.8472235848430585
1731474165.9696872,-0.8960928916931152,-0.2285120189189911,-10.036360740661621,-0.056058308074291394,0.0035286085236518223,-10.628859002777828,1.246886417755008,5.882537916282532,0.7918170281734225
1731474166.0196366,-0.5056830048561096,0.34094709157943726,-10.030682563781738,-0.053570657415282566,0.00261332441340983,-10.591964510719837,1.2469337149840274,5.856717630296759,0.8435014145458138
1731474166.069539,-0.6234802007675171,0.0900634303689003,-9.969280242919922,-0.05076568488314388,0.0016058349883420356,-10.556477092476149,1.2463901869912888,5.83062279081295,0.7859241590004138
1731474166.120549,-0.49311283230781555,0.2666221857070923,-9.95162296295166,-0.0476594822693762,0.0005158043947466116,-10.522470666379814,1.2450090295100693,5.785593682385851,0.8401780230563043
1731474166.1704626,-0.5917204022407532,0.2500773072242737,-9.959190368652344,-0.044273694416293606,-0.0006421610553712658,-10.490009544062723,1.2435341394132218,5.756551863199281,0.8459864455513363
1731474166.2203753,-0.5344301462173462,0.44564783573150635,-9.94918155670166,-0.04063430008009662,-0.0018500603461839378,-10.45914836756215,1.242346396274493,5.727785345940057,0.7897644212787934
1731474166.2703657,-0.5411988496780396,0.44175106287002563,-10.002894401550293,-0.0367708097148987,-0.003088203080047414,-10.429932355616929,1.2410716809190065,5.699239866685552,0.7079891310410795
1731474166.3203707,-0.4982243478298187,0.440775603055954,-9.996415138244629,-0.032715472955580756,-0.00433680738052976,-10.40239778710635,1.2396972758016027,5.670409020786975,0.5992238022791458
1731474166.3701982,-0.5401157140731812,0.4218352735042572,-9.947385787963867,-0.0285024450909956,-0.00557687617725606,-10.376572522863247,1.2420665992826676,5.668723303081917,0.8354027494941411
1731474166.4201555,-0.5067511796951294,0.471881628036499,-9.999462127685547,-0.02416709837059785,-0.006790429340290268,-10.352476336420857,1.2413725407109402,5.642697073952506,0.7753949027508011
1731474166.4702005,-0.4705067574977875,0.552297055721283,-9.99241828918457,-0.01974546720360533,-0.00796070884374032,-10.330121178192172,1.2403238541650852,5.579215856664334,0.8403148790354649
1731474166.520082,-0.46714261174201965,0.5296739935874939,-9.957019805908203,-0.015273623370611365,-0.00907267495577611,-10.309511562654764,1.2393985715887934,5.540839488828472,0.7826956589843762
1731474166.5699782,-0.5027879476547241,0.7166739106178284,-10.007081985473633,-0.010787068562650218,-0.010113629586011114,-10.29064494069631,1.238438837432714,5.5023586405664755,0.6992530157014935
1731474166.619982,-0.7795722484588623,1.4734464883804321,-9.913012504577637,-0.0063206614827630864,-0.011074606210370066,-10.273511980852096,1.237459095647429,5.463904293422716,0.5902935350050615
1731474166.6698933,-0.6510591506958008,0.6669668555259705,-9.871582984924316,-0.001909371531152352,-0.011952940608406928,-10.258096705742613,1.2386999160066623,5.5105769710505195,0.8352542777300511
1731474166.7198677,-0.7435884475708008,0.8559263348579407,-9.995081901550293,0.0024108924963412133,-0.01275338709372626,-10.244376515142394,1.2381808128664704,5.489518283268662,0.7758077981043536
1731474166.7698317,-1.0246074199676514,0.7830585241317749,-10.052181243896484,0.006602932328534957,-0.013486125053860562,-10.232322650369625,1.2373302144258898,5.432538653270734,0.8407849409645607
1731474166.819787,-0.6633448600769043,-0.09543535858392715,-9.869963645935059,0.010627950337637766,-0.014163591786083582,-10.221901151027206,1.2358809595276492,5.352214762090474,0.8467293238862199
1731474166.869679,0.09758414328098297,0.14885461330413818,-10.152352333068848,0.01444655205098646,-0.01479663606003112,-10.213073565740949,1.23498173720871,5.302151441560016,0.7922840875622165
1731474166.9196308,-0.10657283663749695,0.15302258729934692,-10.094240188598633,0.01802278575018827,-0.015390697592869804,-10.205797592509624,1.2341242855895587,5.252126553318565,0.7125096534777383
1731474166.9695954,-0.24901315569877625,0.22527316212654114,-9.930318832397461,0.02132843350553109,-0.015944748531161238,-10.200027937259668,1.233311812814873,5.201809181628851,0.6067621158463848
1731474167.0195537,-0.2635975480079651,0.19347549974918365,-10.03125,0.02434372632099175,-0.016452642983836835,-10.195716560273315,1.2340682940996455,5.307547421401337,0.8361584469098751
1731474167.0694854,-0.25550612807273865,0.27125734090805054,-9.987833023071289,0.027055567390832126,-0.016904565881270855,-10.192812371129873,1.2333806683831114,5.274881336149411,0.846307595827019
1731474167.1204903,-0.23449304699897766,0.3860339820384979,-9.952412605285645,0.029456092538992455,-0.017288208545864686,-10.191261246427441,1.2329330967910812,5.250105965739635,0.7902040611012724
1731474167.1704047,-0.27211546897888184,0.46041738986968994,-9.987509727478027,0.03154202520623055,-0.017590179271370673,-10.1910062644649,1.232572468852188,5.225827843448476,0.7095328752949088
1731474167.220449,-0.22294831275939941,0.4955655038356781,-9.976760864257812,0.0333142131722724,-0.01779754175337176,-10.191987927443513,1.232291878606704,5.201389561354244,0.6027857297554626
1731474167.2703028,-0.29952070116996765,0.47761327028274536,-9.947431564331055,0.034777139070943736,-0.017898948851242002,-10.194144495936637,1.2320990299309809,5.177183676019008,0.4719262731589565
1731474167.3202782,-0.2390664666891098,0.5071632862091064,-9.96912670135498,0.03593840273326519,-0.017885121904189033,-10.197412311562596,1.232505731216588,5.2288614814789565,0.8342982573172447
1731474167.3702247,-0.2619829773902893,0.5499357581138611,-9.986207962036133,0.03680824295087527,-0.01774895846906754,-10.201726092889139,1.2322714992978534,5.185603070543481,0.8460154189959289
1731474167.4201815,-0.29614388942718506,0.557115912437439,-10.006966590881348,0.0373991529093303,-0.017485648770124075,-10.207019383080917,1.232213959309907,5.162845625537474,0.7912344909807837
1731474167.4701643,-0.2842969596385956,0.5422245264053345,-9.993300437927246,0.03772545420391679,-0.017092797873988232,-10.213225092795518,1.231843907210762,5.122433758702538,0.8419501005495071
1731474167.5200758,-0.3237045407295227,0.5025440454483032,-10.022774696350098,0.037802790801845176,-0.016570300051588216,-10.220275958679398,1.231774072140615,5.091384721829643,0.7853107673324654
1731474167.570104,-0.304080992937088,0.5387887954711914,-10.006502151489258,0.03764767958866857,-0.015919950422911704,-10.228104899054838,1.2317985365365007,5.060165369290166,0.7027991417474678
1731474167.6199863,-0.31559836864471436,0.5186578035354614,-10.001282691955566,0.03727717521087484,-0.015145070423327366,-10.236645299148867,1.2320020691821634,5.0817459675693595,0.8381422667265405
1731474167.6699455,-0.3472784459590912,0.548546552658081,-10.006768226623535,0.03670861762869964,-0.01425031404090597,-10.245831202929361,1.2321562678717266,5.0635931575646085,0.7797137024021762
1731474167.719859,-0.3457614779472351,0.5572443008422852,-9.950666427612305,0.035959362760056096,-0.013241593648826634,-10.255597414162812,1.2325994119525394,5.033919228965055,0.8411401783502505
1731474167.7698534,-0.38967204093933105,0.5511984825134277,-9.947484970092773,0.03504645711387711,-0.012126045844488684,-10.26587948517371,1.2329477455578794,5.009876564787507,0.783992506504255
1731474167.8198857,-0.4002406895160675,0.520408034324646,-9.988666534423828,0.03398630307398903,-0.01091192463792336,-10.276613674845212,1.23310723995162,5.015207865793967,0.8412865386041534
1731474167.8697584,-0.4084441363811493,0.5258782505989075,-9.968122482299805,0.03279435348847085,-0.009608326811624074,-10.287737112633403,1.2334927640687057,4.9998344225335245,0.784090203236918
1731474167.9197118,-0.4301626682281494,0.5229345560073853,-9.957510948181152,0.03148489957690993,-0.008224861963324911,-10.299188119357575,1.2334967454463925,4.971204049993976,0.8413195627361489
1731474167.969659,-0.41579771041870117,0.5198242664337158,-9.984099388122559,0.03007097401633621,-0.006771424751472761,-10.310906439572245,1.234749700099949,4.912223683095394,0.8466790968742828
1731474168.0196166,-0.41738006472587585,0.5069164037704468,-9.992772102355957,0.028564358826245733,-0.005258046734186906,-10.322833441942496,1.2355587937264714,4.877217271955137,0.7915494783280232
1731474168.06953,-0.42933446168899536,0.48471972346305847,-9.986830711364746,0.02697568313625117,-0.0036947218802555063,-10.334912404029238,1.2364296969009976,4.842510108839113,0.7112541627433802
1731474168.1195025,-0.4029156267642975,0.4935304522514343,-9.959948539733887,0.025314543884412198,-0.0020911873498195063,-10.347088736386556,1.235868852333975,4.888429020094388,0.8379940467106971
1731474168.1705012,-0.3817252516746521,0.5115475058555603,-10.00704574584961,0.023589668609172047,-0.0004567697624287376,-10.359310058745766,1.2364703539272115,4.872976823696712,0.7776222777391049
1731474168.2204661,-0.36732563376426697,0.506420373916626,-9.940675735473633,0.021809190330828943,0.001199608004237972,-10.371526250185022,1.237119050444457,4.857791954345694,0.6920140343754801
1731474168.2703533,-0.3569742441177368,0.48454442620277405,-9.957109451293945,0.019980956435381673,0.00286936653975886,-10.383689470627612,1.2362931458395057,4.845189517183457,0.8373476666985809
1731474168.320453,-0.32014575600624084,0.5220609307289124,-10.007949829101562,0.018112778673228955,0.004544290052073632,-10.395754143954674,1.236677869900458,4.8281262593075125,0.7774784130596715
1731474168.3703187,-0.32703259587287903,0.5110530853271484,-10.006678581237793,0.016212646699661735,0.006216539117093661,-10.407677126105357,1.23776549778193,4.794234415508539,0.8406023065026884
1731474168.4203556,-0.2884915769100189,0.5135928392410278,-9.9750337600708,0.014288908707576372,0.007878584573056686,-10.419418011964858,1.2384536372733914,4.771490491262111,0.7823319506672436
1731474168.4702427,-0.2992408573627472,0.52889484167099,-10.00160026550293,0.012350390657010425,0.009523155230428798,-10.430939248996676,1.2393374905501053,4.772310694767515,0.8408494288643253
1731474168.5202298,-0.24781231582164764,0.5297985672950745,-9.992883682250977,0.010406477011648109,0.011143209929825282,-10.44220608151154,1.2401383470688054,4.75669463342482,0.7825012725448572
1731474168.5700824,-0.21631523966789246,0.5367860794067383,-10.009201049804688,0.008467230898816139,0.012731887889587984,-10.453186546890455,1.240399960152899,4.735600413053878,0.8407690771092073
1731474168.6200504,-0.2374487668275833,0.5250668525695801,-9.978850364685059,0.006543561845643734,0.014282483361154613,-10.463851501002642,1.240994746419655,4.7195170828092285,0.7826900507483694
1731474168.6699843,-0.24436978995800018,0.5449917912483215,-9.986490249633789,0.004647246602286121,0.015788472982553925,-10.474174553977738,1.241635066399149,4.690394076774528,0.840443733642806
1731474168.7199814,-0.26492181420326233,0.5421296954154968,-10.024519920349121,0.002790668364915402,0.017243539887665305,-10.484131973123006,1.2422722622397575,4.67032883253558,0.7823666859434516
1731474168.769875,-0.24497844278812408,0.5146592259407043,-9.960634231567383,0.0009864372938252325,0.018641591254958775,-10.49370266462779,1.2429163886487695,4.65023824575107,0.6979337677708892
1731474168.819899,-0.26854559779167175,0.523851752281189,-10.006988525390625,-0.0007529056079152608,0.019976856277228047,-10.50286813509053,1.2435600957294561,4.630218005641121,0.5874155966174593
1731474168.869745,-0.274250328540802,0.5105048418045044,-10.02233600616455,-0.0024151054162712734,0.021244044267995497,-10.511612406207922,1.2442003605817709,4.610233300563995,0.4505921028140809
1731474168.9196699,-0.3091917932033539,0.5198943614959717,-9.959775924682617,-0.003988445485882688,0.022438448908116228,-10.519922001129633,1.2431252980017875,4.652810634507061,0.8330093798987801
1731474168.9696105,-0.3320220708847046,0.510865330696106,-9.982586860656738,-0.005462080925058262,0.023555980095474823,-10.527785850820784,1.2437339347485692,4.616126378126726,0.8447252340676997
1731474169.0195947,-0.36096951365470886,0.5243552327156067,-10.011935234069824,-0.006826413229492182,0.024593158442091152,-10.53519507856796,1.244135675550502,4.597772437906915,0.7884978541895359
1731474169.0695426,-0.3873808979988098,0.5039497017860413,-9.998730659484863,-0.008073443669775818,0.025547093733181273,-10.54214293987028,1.2453233300998068,4.5686079366160515,0.8405762614321908
1731474169.1195629,-0.3768446445465088,0.5270870327949524,-9.98342227935791,-0.009197033510377053,0.026415469447552235,-10.548624873369986,1.2459445651566419,4.547861353000737,0.7818352931066268
1731474169.1693566,-0.40214788913726807,0.529925525188446,-9.958992958068848,-0.010193004453297825,0.027196505335085632,-10.5546383819855,1.2465382164438363,4.527295946364716,0.6971208419999627
1731474169.2205336,-0.3875490427017212,0.5355784893035889,-10.005823135375977,-0.011059094510213679,0.027888858722730978,-10.56018278803622,1.2463289184797188,4.519450207554621,0.8352605956629326
1731474169.2704382,-0.3973613977432251,0.5048602819442749,-9.982096672058105,-0.01179483716252044,0.028491543473390012,-10.56525910826093,1.2467081828581543,4.501262047241976,0.774703174898332
1731474169.3202848,-0.4208195209503174,0.5127977132797241,-9.961091041564941,-0.01240141967621083,0.029003973398573503,-10.569870031693528,1.2478064316675104,4.470393167153922,0.8394412086805833
1731474169.3702781,-0.3880281150341034,0.5406675338745117,-10.021201133728027,-0.012881562870209503,0.029426043245326612,-10.574019835924217,1.2487515377414313,4.451388251931958,0.8451911458740619
1731474169.4202564,-0.40732821822166443,0.511802613735199,-9.964009284973145,-0.013239370807452279,0.029758092080828993,-10.5777143121507,1.2493982177573355,4.431897973730029,0.7889519170101442
1731474169.4702406,-0.39098721742630005,0.5393107533454895,-9.937568664550781,-0.013480108761186806,0.030000807477700214,-10.580960676108665,1.250016267083083,4.4123350363030065,0.7057360623480575
1731474169.5202496,-0.3430268168449402,0.5632885694503784,-10.020954132080078,-0.01360993375204547,0.030155140919807123,-10.58376734824115,1.249660438999426,4.405667523511545,0.8366042862531679
1731474169.570042,-0.35746142268180847,0.5226518511772156,-9.970314979553223,-0.0136355400363546,0.030222186366042503,-10.586143845324342,1.2499780404321115,4.390134262347351,0.7766431871603233
1731474169.620104,-0.3644109070301056,0.5411407947540283,-9.935940742492676,-0.013563815131094129,0.030203122595868933,-10.58810080596144,1.2504096303276522,4.353064699713144,0.8394835026991824
1731474169.6699798,-0.32590430974960327,0.5505774617195129,-10.00048828125,-0.013401665930829715,0.030099269815425253,-10.58964984558826,1.2507636912947433,4.329642783229573,0.7803292053113396
1731474169.7200387,-0.31107252836227417,0.5735057592391968,-9.995644569396973,-0.013155881581975979,0.029912073486716838,-10.590803418529797,1.2511860727406887,4.331425038575841,0.8398361011921375
1731474169.769812,-0.28647172451019287,0.557266116142273,-9.9751558303833,-0.012832876213347185,0.029642970505722135,-10.591574897059768,1.2515344969326445,4.316000311080563,0.7808790942016649
1731474169.8198006,-0.3067576587200165,0.5384560823440552,-9.999095916748047,-0.012438435305185163,0.02929332584467792,-10.591978604784638,1.251850935677972,4.300671206213955,0.695615899529065
1731474169.8697455,-0.30355140566825867,0.5481085181236267,-10.006450653076172,-0.011977637541948003,0.028864534484791923,-10.592029730285013,1.2514699614928075,4.283707321151669,0.8364262392428122
1731474169.9197433,-0.25701940059661865,0.528659462928772,-9.968534469604492,-0.011454899852568968,0.028358174228737636,-10.591744260205619,1.2516102156171955,4.26605343480896,0.7757396453812968
1731474169.969654,-0.3092585504055023,0.5482136011123657,-10.02397346496582,-0.010873980905443042,0.027776093883458225,-10.591138885694196,1.2520548693767186,4.231526671514613,0.8396003189867334
1731474170.0196478,-0.28313058614730835,0.5053752660751343,-10.031719207763672,-0.010237997605856876,0.027120457594394916,-10.59023093824666,1.2526766903233253,4.211071540361735,0.8454867604779169
1731474170.0695612,-0.2960771322250366,0.49699968099594116,-9.990872383117676,-0.009549554965009652,0.02639384045852429,-10.58903843233956,1.2530285839386994,4.190529600492547,0.7890739764112595
1731474170.1195238,-0.3306671380996704,0.48303064703941345,-9.955171585083008,-0.008810915204321496,0.025599407682760505,-10.587579954614824,1.2533580125039747,4.17002108103557,0.7060353897332505
1731474170.1195238,-0.3306671380996704,0.48303064703941345,-9.955171585083008,-0.008024209262600397,0.024741069535846268,-10.58587425697085,1.2534584508454165,4.1634988329511335,0.6739928135522278
1731474170.1195238,-0.3306671380996704,0.48303064703941345,-9.955171585083008,-0.0071916796959298965,0.02382351458329472,-10.583939840446194,1.2534606338606782,4.163355657013891,0.6732588070179274
1731474170.501167,-0.33358314633369446,0.5432917475700378,-9.975793838500977,-0.006315813829703441,0.022852086251199912,-10.58179478348509,1.2530240883378583,4.01567905977547,0.1333995960466483
1731474170.551062,-0.33446788787841797,0.5545161366462708,-9.994386672973633,-0.00539935673466658,0.0218324501015189,-10.579456799043427,1.2529871940226902,3.999064325478561,-0.07912416670541728
1731474170.6009803,-0.3757934272289276,0.5390514731407166,-9.997224807739258,-0.004445331769520146,0.020770167777790526,-10.576943401722698,1.2529917767772507,4.005039215583224,0.5928819736249942
1731474170.651021,-0.3854354918003082,0.5245512127876282,-9.94626235961914,-0.0034571698169972515,0.019670476934231053,-10.574272002518683,1.2527472007324043,3.9690894437086497,0.7435658736987889
1731474170.70092,-0.35533973574638367,0.5358597040176392,-10.005644798278809,-0.0024388762531880118,0.018538345221874336,-10.571459814683466,1.2526335623543448,3.939240212758129,0.6694534998703215
1731474170.7508857,-0.3560776114463806,0.5129831433296204,-10.032893180847168,-0.0013950213589806822,0.017378589681770466,-10.56852378744867,1.252514602363474,3.9092995997072664,0.5685060821634267
1731474170.800842,-0.3606487512588501,0.514492928981781,-9.950714111328125,-0.00033054553342103674,0.01619595980071649,-10.565480718424277,1.2525221146239949,3.9284152805201202,0.8073140720251649
1731474170.850841,-0.35033825039863586,0.5238370299339294,-9.981739044189453,0.0007494177250885263,0.014995202351601504,-10.562347225993928,1.2524493240660572,3.911069415270768,0.7433798317045152
1731474170.9007235,-0.3239135444164276,0.5347714424133301,-9.992368698120117,0.0018396693306261971,0.013781052559424098,-10.55913950193673,1.2523797376756516,3.893755721004863,0.6531706776742888
1731474170.9507124,-0.31538882851600647,0.5356155037879944,-9.987292289733887,0.002935137067416519,0.012558128363743494,-10.555873199025253,1.2523158110908121,3.8763948704676063,0.5361051580288193
1731474171.0006285,-0.31598329544067383,0.5300633907318115,-9.955608367919922,0.004031104630275999,0.011330822920830479,-10.552563452125009,1.2521103754047125,3.887312630746917,0.8275923471836548
1731474171.050641,-0.33977842330932617,0.5462741255760193,-10.025431632995605,0.0051233255717690425,0.010103258689012396,-10.54922483349799,1.2520255000367595,3.8737414500850633,0.7657828011819519
1731474171.1005151,-0.31442055106163025,0.5665611624717712,-9.986868858337402,0.006207978590364231,0.008879236790471375,-10.545871362833534,1.2517183069323947,3.843997986285847,0.8377839455189422
1731474171.150495,-0.2875569760799408,0.5533846616744995,-9.96694278717041,0.007281630845953401,0.0076621258208135375,-10.54251657919066,1.251608959719306,3.827160448210847,0.7787124793126532
1731474171.2004042,-0.3200339078903198,0.5294452905654907,-9.991798400878906,0.008341329777612233,0.0064548061750332045,-10.539173463817644,1.2510025644350402,3.7893532815742685,0.8392794403438258
1731474171.2504544,-0.30452707409858704,0.5296197533607483,-10.019668579101562,0.009384670882882955,0.005259790118043242,-10.535854339477863,1.2507643039785514,3.765777329846423,0.7806036336100837
1731474171.3013082,-0.3109103739261627,0.517314076423645,-9.977126121520996,0.010409732678508006,0.00407942567018376,-10.532570944058241,1.2505137334119198,3.7301898083414504,0.8389456962542885
1731474171.351328,-0.32668018341064453,0.5018835663795471,-9.97868824005127,0.011414976691470402,0.002916056440557744,-10.529334473273149,1.2502812513289099,3.6989124624490537,0.7796749924800834
1731474171.4012053,-0.3284973204135895,0.48210498690605164,-10.024526596069336,0.012399139059274875,0.0017721611197903774,-10.526155486046243,1.2500793219594322,3.6677687782228214,0.6944709041786699
1731474171.4511728,-0.3639207184314728,0.47808367013931274,-9.991728782653809,0.013361070044509137,0.0006505099844874508,-10.523043900848624,1.2502302349021155,3.6922315548081843,0.8362025049564646
1731474171.501115,-0.35544782876968384,0.48331549763679504,-9.979578018188477,0.014299537935834938,-0.0004457268341682846,-10.520009063478797,1.2501464250372594,3.674336212142107,0.7758040687857566
1731474171.5511136,-0.3231160044670105,0.5238932371139526,-10.002732276916504,0.01521310443800281,-0.0015130260691530943,-10.517059685729159,1.2500998763109636,3.6565699475989417,0.6897251759844032
1731474171.6010053,-0.3322836458683014,0.5168244242668152,-9.963459014892578,0.016100199496154495,-0.002547744545184875,-10.514203733991277,1.2500921253074277,3.638717696767704,0.5770553868562895
1731474171.6510303,-0.3373267948627472,0.529000997543335,-9.964813232421875,0.016959298430029628,-0.003546405146149736,-10.511448343804574,1.2503672127889942,3.651286846395525,0.8338112945912775
1731474171.7009454,-0.33359724283218384,0.5422881245613098,-10.018502235412598,0.017788997156631188,-0.004505888657432048,-10.5087997537476,1.2504344278614545,3.637366910808374,0.7724867320039487
1731474171.7509274,-0.37106969952583313,0.5370707511901855,-9.986614227294922,0.018587964833453714,-0.005423546229439812,-10.506263392627332,1.2504373979648744,3.6063966229567073,0.8393246255828716
1731474171.8008492,-0.3345521092414856,0.5538851022720337,-9.982426643371582,0.019354847233769214,-0.0062972768837727755,-10.503844047893459,1.2505311387159552,3.588515808561047,0.7806380305527957
1731474171.8508618,-0.3580484986305237,0.5556872487068176,-10.00033950805664,0.020088211402235035,-0.007125575710637274,-10.501545894517772,1.2507202108717284,3.550706029435204,0.8394535171038936
1731474171.9007573,-0.342354416847229,0.5448465943336487,-9.99096965789795,0.020786579168760172,-0.007907557018472431,-10.499372466461876,1.2509575330074765,3.4995243365237045,0.8445763164843235
1731474171.9506936,-0.3339128792285919,0.512994647026062,-9.977628707885742,0.021448497199191726,-0.008642884956676049,-10.497326676573945,1.25119558869158,3.4666166962682134,0.7886370441803314
1731474172.0006766,-0.3599240779876709,0.5272412896156311,-10.009675979614258,0.022072602551785184,-0.009331572431986911,-10.495410821220261,1.2514879832636336,3.4336380340963917,0.7065744627991895
1731474172.0506036,-0.3535090684890747,0.5264111161231995,-9.988394737243652,0.02265763168948936,-0.009973786842893552,-10.493626604091904,1.2518355327160087,3.400668058099808,0.5985765230357052
1731474172.1005116,-0.33102959394454956,0.5007005929946899,-9.949559211730957,0.02320238260680803,-0.010569769031400899,-10.491975159177775,1.251434186520124,3.451916844697907,0.8334868831767682
1731474172.1504858,-0.3360428214073181,0.4967174530029297,-9.988577842712402,0.02370576072838132,-0.011119759764846224,-10.490456953527325,1.251573645349644,3.4143074026270996,0.8438299901085905
1731474172.2004585,-0.3113560974597931,0.5115785002708435,-10.033350944519043,0.02416691784894548,-0.011623885997289475,-10.4890717501044,1.2518098913380826,3.3918770330937713,0.7876609982906749
1731474172.250459,-0.3177403509616852,0.5325407981872559,-9.935579299926758,0.024585385625798865,-0.01208215369455216,-10.487818784343416,1.2521088356674146,3.369279745146797,0.7047932421082995
1731474172.3013842,-0.33469057083129883,0.5253778100013733,-9.965188980102539,0.024961139708400974,-0.012494597846742277,-10.486696816118068,1.252475096808007,3.3463706523480194,0.5939713183684086
1731474172.351369,-0.2919037938117981,0.5581555962562561,-9.996562957763672,0.02529457963379376,-0.012861464992041712,-10.485703960021603,1.2528979958777242,3.323838966996314,0.45876124389896733
1731474172.401268,-0.35043859481811523,0.5507156252861023,-9.980219841003418,0.025586488711853587,-0.013183360690644004,-10.484837691465033,1.2515860568715949,3.3640765004477133,0.831782771695883
1731474172.4513953,-0.31938889622688293,0.5434258580207825,-9.980039596557617,0.02583796796271986,-0.0134613459151177,-10.484095041527311,1.251751405353138,3.351078830516734,0.769826995370199
1731474172.5011845,-0.31938889622688293,0.5434258580207825,-9.980039596557617,0.026050329189156042,-0.013696921883729797,-10.483472689444943,1.2515336794098644,3.3143230051092343,0.8389830504244058
1731474172.5011845,-0.3111056983470917,0.5467879772186279,-10.006731033325195,0.02622506980501359,-0.013891932958681075,-10.482966987426044,1.2515343098618572,3.3142030549229573,0.838735579750512
1731474172.5512621,-0.3343198299407959,0.5141294598579407,-9.985079765319824,0.026363913899962003,-0.014048463016341613,-10.482574054804367,1.2500963707085386,3.2574558432272265,0.8511998714342738
1731474172.6011057,-0.31788721680641174,0.5207598209381104,-9.9788818359375,0.026468779821336635,-0.014168694246502155,-10.48228986060696,1.2496199900316756,3.2224418042979335,0.7998680597081911
1731474172.6510568,-0.3102407455444336,0.5062844753265381,-10.040383338928223,0.02654171634423996,-0.014254732079393847,-10.482110248072606,1.2492092326757898,3.1873561890725703,0.7223364463077624
1731474172.7009473,-0.3471413254737854,0.5116963982582092,-10.012944221496582,0.026584882562968787,-0.014308484204635697,-10.482031054849118,1.24889063884357,3.213327432736128,0.8407336561145637
1731474172.750927,-0.3339446187019348,0.48835524916648865,-9.949984550476074,0.026600480392861277,-0.014331600360950698,-10.482048241542426,1.2486367855625053,3.194746448927011,0.7824049371844412
1731474172.8008482,-0.3242812752723694,0.5035021901130676,-9.997200012207031,0.026590636654613954,-0.014325421754597686,-10.482157749329582,1.2468628430308366,3.1650407466998494,0.8406836008052471
1731474172.8508923,-0.32210493087768555,0.5187715888023376,-10.013509750366211,0.026557385703257733,-0.014290977459461712,-10.482355298297431,1.2462077007190098,3.141192041179085,0.7824437454183548
1731474172.9008107,-0.3306938111782074,0.5117029547691345,-9.95168685913086,0.0265027393532161,-0.014229087342715278,-10.482636425334576,1.2450749760440618,3.143983639181558,0.83993196181833
1731474172.9507923,-0.3473673462867737,0.5250505805015564,-9.999794960021973,0.026428691618833274,-0.014140503069647377,-10.482996535314925,1.244356639351958,3.127716853938851,0.7817369593436871
1731474173.000714,-0.3676806092262268,0.5250909328460693,-9.974912643432617,0.026337101625719065,-0.014026004544084834,-10.483430843892304,1.2435558986605606,3.0972535217071364,0.8394405993463419
1731474173.050638,-0.34077829122543335,0.531715452671051,-9.974777221679688,0.026229535400067817,-0.013886469299408948,-10.483934376945676,1.2429445643336068,3.0767923563663224,0.7812427325922002
1731474173.1005018,-0.34993913769721985,0.5187354683876038,-9.980379104614258,0.026107213428597648,-0.013722917659100659,-10.484501999810536,1.2418584643892299,3.042821222102413,0.8395144580373566
1731474173.1506681,-0.32163166999816895,0.5147727131843567,-9.986950874328613,0.025971108098874412,-0.0135364927328236,-10.48512843745236,1.240273635014105,3.022460885403078,0.8446134776430803
1731474173.2004526,-0.3347085118293762,0.5146628618240356,-10.003704071044922,0.025822098506194043,-0.013328383503965629,-10.485808362440423,1.2393529355953778,3.0015788004502126,0.7882352275314094
1731474173.250501,-0.3325687646865845,0.49045324325561523,-9.950163841247559,0.02566108236159153,-0.013099734889954683,-10.486536494089533,1.238506578407662,2.980901394127324,0.7064794005970244
1731474173.3003907,-0.3291608393192291,0.5291914939880371,-10.009807586669922,0.025489005359593774,-0.012851577093768177,-10.487307596998791,1.2377231953694539,2.9601886466120355,0.5988324352630521
1731474173.3504434,-0.32038629055023193,0.5339276790618896,-10.032880783081055,0.025306861466421422,-0.012584854435980708,-10.488116514134028,1.2394023821046667,2.9748976045997244,0.8332748544889884
1731474173.4012403,-0.3011559844017029,0.5633037090301514,-9.956317901611328,0.025115745166501342,-0.012300606710724603,-10.488958342142226,1.2391376827766662,2.9600703961125396,0.771401835125773
1731474173.4512477,-0.29631367325782776,0.5713852643966675,-9.99892807006836,0.02491696587823651,-0.01200021226042277,-10.489828474884083,1.237022193656548,2.922359405076166,0.8385279119793014
1731474173.5012107,-0.30637404322624207,0.5323708057403564,-10.016594886779785,0.024712153474216757,-0.011685537900235146,-10.490722478069632,1.236153941120291,2.898483680784771,0.7796937761695903
1731474173.551203,-0.33612486720085144,0.5199670791625977,-9.949371337890625,0.02450323665279984,-0.01135885718319806,-10.491636068627427,1.2353505175384771,2.8746765208138716,0.6949685183578631
1731474173.6010675,-0.31001725792884827,0.5187898278236389,-9.991975784301758,0.024292276660794875,-0.011022572396214,-10.492565095480018,1.2345888527551765,2.8502087648249668,0.5808683671790374
1731474173.6510518,-0.3414152264595032,0.49947530031204224,-10.026073455810547,0.024081299864428016,-0.010678954947210903,-10.493505470694751,1.2348999542984367,2.876269011768826,0.8341940849576006
1731474173.7009594,-0.3331548273563385,0.4966123700141907,-9.923690795898438,0.023872200850433862,-0.010329988878066326,-10.494453223889131,1.2326117700599521,2.831378462984706,0.8443587891888197
1731474173.7510405,-0.3020355701446533,0.4983261525630951,-9.987607955932617,0.023666696789707516,-0.00997727020109669,-10.495404480679401,1.2315960444508125,2.807456918795027,0.7882700502209916
1731474173.800867,-0.29968076944351196,0.5145800113677979,-10.004847526550293,0.02346640343167669,-0.009621988415462924,-10.49635533352291,1.2297431969781656,2.7733068520557143,0.8396325662808998
1731474173.8508976,-0.29968076944351196,0.5145800113677979,-10.004847526550293,0.0232730084015204,-0.009265020253023356,-10.4973019499244,1.2286005687654855,2.7471269744859494,0.7816467827931691
1731474173.8508976,-0.29352277517318726,0.5195324420928955,-9.949438095092773,0.023088376085961336,-0.008907068183066849,-10.498240777309944,1.2285944975801808,2.7469841979033176,0.7812595967508635
1731474173.9007802,-0.2986915707588196,0.5589570999145508,-9.996010780334473,0.022914549697145657,-0.008548797176734822,-10.499168496877344,1.2275015915070824,2.7205922613969244,0.6964860055911987
1731474173.9509592,-0.309118390083313,0.5325948596000671,-10.002687454223633,0.022753702964782678,-0.00819099696034201,-10.50008191176209,1.2264707606705603,2.694305999738855,0.5859843872673302
1731474174.0006123,-0.31772881746292114,0.5268689393997192,-9.995322227478027,0.02260803779504939,-0.00783468885414634,-10.500978031879495,1.2256262176237407,2.726892629570209,0.8410087602411692
1731474174.0505881,-0.31280437111854553,0.520305871963501,-9.999022483825684,0.022479650752309475,-0.0074810601068496674,-10.501854206535695,1.2231945665839117,2.6838074403608396,0.8474900165661932
1731474174.1005266,-0.3103979825973511,0.5200849771499634,-10.015802383422852,0.022370446667296342,-0.007131313907258012,-10.502708158738042,1.2219279608969666,2.660804083465508,0.7924712083549038
1731474174.1505926,-0.3114646375179291,0.5333259105682373,-10.011154174804688,0.02228212886710182,-0.006786586592604498,-10.503538012518888,1.2207135681103523,2.637708737816629,0.7107832066184644
1731474174.200469,-0.3114646375179291,0.5333259105682373,-10.011154174804688,0.022216217213156253,-0.006447963678471259,-10.504342337524996,1.2195706398523052,2.614908691449034,0.604196375187207
1731474174.200469,-0.3188832998275757,0.5083135962486267,-9.963606834411621,0.022174045980946216,-0.006116517909191932,-10.505120098066225,1.2195199157602388,2.6138705055176628,0.5987302506805359
1731474174.2504795,-0.31904882192611694,0.5196725130081177,-9.988273620605469,0.02215673405340049,-0.005793266456609169,-10.505870459877622,1.2189324883882986,2.6313070563623735,0.8377974130551488
1731474174.3004224,-0.3305782973766327,0.5206477642059326,-10.022955894470215,0.02216513780825246,-0.005479085619338783,-10.506592634243967,1.2179062128668179,2.6161522343733203,0.7787804471034615
1731474174.3504846,-0.3131643533706665,0.4947442412376404,-9.967418670654297,0.022199812017066493,-0.00517467232404795,-10.507285923571747,1.215851869608174,2.57624077154717,0.842169494075888
1731474174.4001963,-0.2911624312400818,0.5042598247528076,-9.952506065368652,0.02226104590690517,-0.004880500574722246,-10.50794974283847,1.214477322780649,2.5511562952659084,0.7861154755343663
1731474174.4511578,-0.28843218088150024,0.4874705672264099,-10.005365371704102,0.02234901731254727,-0.004596740897644579,-10.508583458600171,1.2071197927203519,2.5223781094338498,0.8399245802283479
1731474174.5011187,-0.32307344675064087,0.5312836170196533,-9.986968994140625,0.02246394005166031,-0.004323240342073038,-10.509186337075093,1.2038112908674758,2.4953458545251275,0.7812219707483524
1731474174.5512211,-0.30916738510131836,0.5539597868919373,-9.949182510375977,0.022606035942310414,-0.004059669523133814,-10.509757658962158,1.2005656030870169,2.468354220909256,0.696255251435305
1731474174.60102,-0.3088642954826355,0.5896655321121216,-9.986434936523438,0.022775406089662487,-0.003805849315524996,-10.510296711238555,1.2017630554570422,2.4805038087909326,0.836055004410545
1731474174.6509938,-0.3002871870994568,0.5622224807739258,-9.99889087677002,0.022971991312938884,-0.0035620965215539258,-10.510802728682233,1.1999080711276675,2.4640506828613886,0.7760760857320594
1731474174.700985,-0.33200007677078247,0.540206253528595,-9.96786117553711,0.02319560125595774,-0.003329337492892042,-10.511274988435918,1.1980756871231448,2.447261423153906,0.6878142276094968
1731474174.750962,-0.3359427750110626,0.5398454666137695,-9.985214233398438,0.02344585988954413,-0.003108922818363216,-10.511712896417324,1.1932788139793493,2.430805709654782,0.8361947604496064
1731474174.80096,-0.3597176671028137,0.5054976344108582,-10.026241302490234,0.02372204365607738,-0.002902325264453468,-10.512115998953485,1.1904614702327856,2.411691356043493,0.7758827163944093
1731474174.8508987,-0.3597176671028137,0.5054976344108582,-10.026241302490234,0.024022910818391818,-0.002710869142419659,-10.512484122198543,1.1877484037601655,2.3928765161300936,0.6905088189742131
1731474174.8508987,-0.34073111414909363,0.4791993796825409,-9.978652954101562,0.024346622504803045,-0.002535500770784487,-10.512817559878592,1.1877337005926423,2.39277340563005,0.6899699072122307
1731474174.9008243,-0.33845821022987366,0.46689125895500183,-9.9503812789917,0.02469081876393716,-0.0023765980340813243,-10.513116980964709,1.1866030445347486,2.382590590263073,0.8387539276093171
1731474174.9508212,-0.3105090856552124,0.513755202293396,-10.000347137451172,0.025052823489167427,-0.0022338698029972584,-10.513383103869721,1.177680977871882,2.337485799750412,0.8465231279105884
1731474175.0006595,-0.2943839728832245,0.5581911206245422,-10.002796173095703,0.025429904600631617,-0.0021065008868278506,-10.513616554176274,1.1734405853372616,2.312733658833919,0.7902606929597519
1731474175.050742,-0.30043867230415344,0.6249035596847534,-9.956212997436523,0.02581952986675473,-0.0019936385785608657,-10.513817978752236,1.1718783704119797,2.2784335371685227,0.8416112146148285
1731474175.1005836,-0.2995325028896332,1.7792822122573853,-10.035893440246582,0.026219522916047556,-0.001896075715032757,-10.513988122013783,1.1688930079249047,2.251609161648081,0.7836978796753481
1731474175.1506393,-0.3395894765853882,1.1382966041564941,-9.736099243164062,0.026628041642246792,-0.0018201186324432047,-10.514127637496513,1.1660083777519283,2.225095393829575,0.7003416877530689
1731474175.2005467,-0.3395894765853882,1.1382966041564941,-9.736099243164062,0.027043392736354987,-0.0017808633342398191,-10.514236296439213,1.1675681706203052,2.2283011537148023,0.8366569516837036
1731474175.2005467,-0.27004683017730713,0.7287166118621826,-10.011829376220703,0.0274638640963317,-0.001801045559318709,-10.514312016701515,1.1675573329250704,2.2281887318824567,0.836401319435704
1731474175.2504516,-0.27004683017730713,0.7287166118621826,-10.011829376220703,0.027887846198518883,-0.001906834500608709,-10.514351171940781,1.1656173163280452,2.207699341351605,0.7766302045652529
1731474175.2504516,-0.3361915349960327,1.030275583267212,-10.148770332336426,0.028314107425738998,-0.0021244308866334408,-10.514350230352402,1.1656038938487627,2.2075549565891737,0.7761160031540485
1731474175.3004844,-0.3361915349960327,1.030275583267212,-10.148770332336426,0.028741756533316884,-0.002479287750536541,-10.514307289722398,1.1585732149915338,2.1769531037077585,0.8501123442471994
1731474175.3004844,-0.3389971852302551,0.5860317945480347,-9.910191535949707,0.029169898339295584,-0.0029966882125636455,-10.514222650447644,1.15855010575151,2.176798393485004,0.8498851736686008
1731474175.350462,-0.30547669529914856,0.8550637364387512,-10.006457328796387,0.029597421053434016,-0.0037010911275566455,-10.514098225071503,1.1508503184667445,2.160789078747572,0.8558484795260394
1731474175.4003296,-0.38556063175201416,0.4898340702056885,-10.093388557434082,0.030023010746831655,-0.004614354752741573,-10.513936556887087,1.1463750041348113,2.1426710654108625,0.8048020976870855
1731474175.451341,-0.38556063175201416,0.4898340702056885,-10.093388557434082,0.030445075721174192,-0.005754271559073376,-10.51374069155272,1.1421156439938873,2.1251082743465934,0.7290596420040816
1731474175.451341,-0.2386288344860077,0.6780558824539185,-9.97010612487793,0.030861622115724668,-0.0071335874339756526,-10.513514576308165,1.1420922204727,2.12501078963764,0.7285672055340504
1731474175.5011187,-0.4404727518558502,0.41833406686782837,-9.97369384765625,0.03127042524555365,-0.00875982405042061,-10.51326285551281,1.1423769558511951,2.1114733286495833,0.8449486840904908
1731474175.551193,-0.2766844630241394,0.6592596173286438,-10.009418487548828,0.03166923207835841,-0.010635780952483166,-10.512990185769956,1.1394090527498177,2.0945676630168544,0.7904034189990826
1731474175.6011581,-0.38765424489974976,0.5689914226531982,-9.991920471191406,0.032055721842948956,-0.012760105184276335,-10.512700882655992,1.1333484822362696,2.0560670953529945,0.8430551751527323
1731474175.6510236,-0.2770300507545471,0.9635754823684692,-9.972393989562988,0.03242753621824895,-0.01512832577159192,-10.512398948152136,1.1292055204176108,2.0310180798074082,0.7858545439599767
1731474175.7010112,-0.2770300507545471,0.9635754823684692,-9.972393989562988,0.03278252348851107,-0.017734767863086583,-10.512088048398333,1.1244672346499913,2.033977570227489,0.840702261248754
1731474175.7010112,-0.3519153296947479,0.7359294295310974,-9.921117782592773,0.03311901549728885,-0.020574442159077402,-10.511771347647425,1.1244463309833106,2.0338989689248153,0.8404893760721701
1731474175.7509859,-0.3949187397956848,1.459450125694275,-10.02377700805664,0.03343577070658965,-0.023643993689544847,-10.511451375873563,1.120073246766699,2.0172694884332425,0.7824420139091421
1731474175.8008795,-0.44197165966033936,0.9048823118209839,-9.821752548217773,0.03373143047605804,-0.026942546123352104,-10.511129994107476,1.1157177182573803,2.00031868501812,0.6968385376451568
1731474175.8508518,-0.4295503497123718,1.041643500328064,-9.993631362915039,0.0340039024296703,-0.03047236811374569,-10.510808276116567,1.1191493366059202,1.9863677431669884,0.8457909778157574
1731474175.900828,-0.4389559030532837,0.8733617067337036,-10.080601692199707,0.03425006726759688,-0.0342379302805071,-10.510486549072613,1.1138623453285466,1.9414575450471145,0.8487219563116166
1731474175.9507453,-0.3784397840499878,0.8643853068351746,-9.936895370483398,0.034465863728224966,-0.03824410724801635,-10.510164983486032,1.110735833922359,1.917120817438221,0.7944414890187445
1731474176.000648,-0.43786507844924927,0.8023789525032043,-10.073698997497559,0.03464661088809684,-0.0424948574497723,-10.509844130891294,1.1048844583679849,1.9079159242267545,0.8414782188226292
1731474176.0506773,-0.417011022567749,0.7329180836677551,-9.982450485229492,0.03478728540518933,-0.04699229451923393,-10.509524965615663,1.1003534959980579,1.8868340818675222,0.7836907608466565
1731474176.10059,-0.3829857409000397,0.7080736756324768,-9.979751586914062,0.03488264987905566,-0.05173594279023702,-10.509208781331537,1.0958742288862506,1.8654608486906084,0.6990085411802828
1731474176.15058,-0.4390067160129547,0.6949734091758728,-10.05864429473877,0.03492739904659012,-0.05672221696212518,-10.508897061621957,1.099693022782592,1.8681580842223604,0.8364928573966467
1731474176.2004855,-0.3793528974056244,0.6941644549369812,-9.954267501831055,0.034916320552666,-0.0619442362355748,-10.50859140527624,1.0973607949597195,1.8526680715966968,0.7764780851211771
1731474176.2504969,-0.4250757098197937,0.6204016208648682,-9.982953071594238,0.03484438917275903,-0.06739190279381661,-10.508293474570197,1.0951293904214392,1.8371096018695512,0.6906473704548972
1731474176.3004034,-0.4461899399757385,0.5952256321907043,-10.015108108520508,0.03470680350055186,-0.07305194009486762,-10.508004815669711,1.092667125894075,1.8189791844540166,0.5595027041248413
1731474176.3504372,-0.36761024594306946,0.542597770690918,-9.970968246459961,0.03449896287071387,-0.07890778001391867,-10.507726782502509,1.0907698789956286,1.8254907381710324,0.839614007315934
1731474176.4002957,-0.4046315848827362,0.5672928094863892,-9.9992036819458,0.03421656134036139,-0.0849394954548842,-10.507460596634775,1.0882804830731945,1.8118302769304726,0.7811232402648595
1731474176.4502802,-0.3943370282649994,0.5363613367080688,-9.969598770141602,0.033855825698400635,-0.0911239820105837,-10.507207327671242,1.0846862155481338,1.784520481638382,0.8415115723592652
1731474176.5011716,-0.3880375921726227,0.5222116112709045,-9.993152618408203,0.03341363796380752,-0.09743533893688425,-10.506967836631922,1.0822022037315486,1.7676187278352167,0.7822763483880297
1731474176.551226,-0.4290367364883423,0.49233752489089966,-10.006980895996094,0.03288750670278843,-0.10384523917783241,-10.506742791796261,1.073903576175861,1.7365596556847906,0.8400019888050084
1731474176.6010063,-0.40291744470596313,0.44281744956970215,-9.997652053833008,0.03227547271196968,-0.11032317375709463,-10.506532771856904,1.0671577417586275,1.6891966217262318,0.8453441398609025
1731474176.6511025,-0.4269281029701233,0.5036402940750122,-9.978708267211914,0.03157599425619305,-0.11683665654779962,-10.50633834877169,1.0623092020754608,1.657886615002295,0.7894382245963752
