Timestamp,IMU_Linear_Acc_X,IMU_Linear_Acc_Y,IMU_Linear_Acc_Z,Filtered_X,Filtered_Y,Filtered_Z,Pose_X,Pose_Y,Pose_Z
1730865947.4836771,-1.7980672121047974,1.2204742431640625,-9.816902160644531,-0.11995807957750546,-0.4867073133399926,-11.83201065739037,0.8710900359656967,-0.11225807900289861,0.8259699061009488
1730865947.5337312,-1.6201061010360718,1.2407430410385132,-9.861479759216309,-0.11800883574545036,-0.5180217001954524,-11.735956174822494,0.8672900813952052,-0.5767716362763738,0.7514603283398147
1730865947.5837328,-1.6417081356048584,1.2559638023376465,-9.932706832885742,-0.11895310485041577,-0.5436031138861112,-11.591682625227309,0.8755905648853075,0.8184652154320989,0.8711171238843967
1730865947.6336718,-1.4783844947814941,1.2720919847488403,-9.962823867797852,-0.12314001938054746,-0.5627742252874954,-11.416078341509575,0.8746800667922845,0.8174607557733553,0.827745477024442
1730865947.6836586,-1.4127205610275269,1.249739170074463,-9.95790958404541,-0.130185305954297,-0.5753004630978427,-11.224954545351881,0.8734465600712554,0.815020707650574,0.7556980646630043
1730865947.7336457,-1.4345476627349854,1.2176520824432373,-9.960887908935547,-0.13905947290598397,-0.5813592257223932,-11.032374016468603,0.8713445241678318,0.8234645693080823,0.871566324685413
1730865947.7836764,-1.6071974039077759,1.2252144813537598,-9.856568336486816,-0.14833633565920346,-0.5814408942625049,-10.850109773436184,0.8695134852621158,0.8228794873648009,0.8301483853374421
1730865947.8337014,-1.532752275466919,1.1856809854507446,-9.923158645629883,-0.15659626123382514,-0.5762403502085554,-10.687279300565649,0.8673055268307298,0.82084312619118,0.7618278564753018
1730865947.8835726,-1.49844229221344,1.2116985321044922,-9.878271102905273,-0.16274432114802467,-0.5665743926399291,-10.550218523637032,0.8680589716767231,0.8277743128667827,0.871817353804394
1730865947.9345996,-1.521494746208191,1.106750726699829,-9.946966171264648,-0.1660703667262687,-0.5533120796816792,-10.442611974128507,0.8662605393778079,0.8271336301261842,0.831369541011355
1730865947.9846032,-1.521235466003418,1.066617727279663,-9.89339542388916,-0.1661879352558215,-0.5372822116376648,-10.365792641027689,0.8701357708026172,0.8332669775586491,0.8712980153122496
1730865948.034629,-1.6524330377578735,0.9745575785636902,-9.893824577331543,-0.16302575175786702,-0.5191553784354783,-10.319101702890777,0.8707226806458815,0.8375461887627802,0.8719927211616028
1730865948.0845356,-1.714928388595581,0.9513433575630188,-9.833707809448242,-0.15688894142137988,-0.4993571746762176,-10.300248562074318,0.870446752511353,0.8380240194666806,0.8334843738611837
1730865948.1347377,-1.6118273735046387,0.9223973155021667,-9.884674072265625,-0.14849190369489748,-0.4780643516553551,-10.305678458825218,0.8697857845236512,0.8372762275943221,0.7688941731933253
1730865948.1846237,-1.3661701679229736,0.9260615110397339,-9.857068061828613,-0.13878699405458497,-0.45528348303958754,-10.330982304314489,0.8687686711410995,0.8353647067944929,0.6788039232585695
1730865948.2345996,-1.2212275266647339,0.8862243294715881,-9.932165145874023,-0.12855118361411444,-0.43096587985930285,-10.371334694973385,0.8683948473934989,0.8429325675421732,0.8721152014766617
1730865948.2835228,-1.0323896408081055,0.8774198889732361,-9.941996574401855,-0.11796846112376641,-0.40509752122247145,-10.42190859919652,0.8674979822497132,0.8430309271035741,0.8341166749345947
1730865948.3344536,-1.2495695352554321,0.9381879568099976,-9.924843788146973,-0.10650481466384358,-0.37775569925295405,-10.478211362347368,0.8691523425962323,0.8500354662387628,0.8714460185964032
1730865948.3844686,-1.4342632293701172,1.0002256631851196,-9.9284086227417,-0.09322403953926389,-0.3491825954850616,-10.53629097093244,0.8688534445198581,0.8513231836636351,0.8315416316182727
1730865948.4344435,-1.6491162776947021,1.1198151111602783,-9.88106918334961,-0.07741750425011654,-0.31989237495392,-10.592818626340886,0.8683436594234166,0.8517711805985692,0.7655467349969484
1730865948.4846096,-1.8150001764297485,1.2128596305847168,-9.911548614501953,-0.05917325094125995,-0.29076603521017774,-10.645106881878506,0.8676585736796625,0.8514559350488005,0.6723821891617945
1730865948.5345068,-1.8747748136520386,1.2866096496582031,-9.855307579040527,-0.03959565787682459,-0.2630770089787493,-10.691107230002311,0.8665587898633075,0.8536943109145277,0.8716789889085609
1730865948.5845046,-1.8972151279449463,1.2438414096832275,-9.890105247497559,-0.020644066480065344,-0.2383935342592749,-10.729395184328958,0.8603166376678374,0.8597834604805691,0.8715519344922862
1730865948.6345894,-1.8699368238449097,1.2726092338562012,-9.829380989074707,-0.00471006196872604,-0.21834451310166259,-10.759135328626304,0.8577934744065633,0.8616025218548881,0.8311704370571495
1730865948.6844258,-1.9649289846420288,1.1705948114395142,-9.842905044555664,0.005863777490509225,-0.20432508451800194,-10.780021122206746,0.8584800380054036,0.8645610017795369,0.871545191931854
1730865948.7343395,-1.755480170249939,1.117276906967163,-9.814167976379395,0.009166704877645121,-0.19723295094167922,-10.792195205361114,0.8569744119989555,0.8664280099183711,0.831070627263336
1730865948.7843802,-1.648979902267456,1.0715574026107788,-9.870731353759766,0.00403383082510853,-0.19728736597538693,-10.79617721645576,0.8591297377163216,0.8721459241924273,0.8714837326039893
1730865948.8343627,-1.619248390197754,1.0923936367034912,-9.766934394836426,-0.009688145525159226,-0.2039921374659073,-10.792804135108362,0.8588549569716898,0.8745796507682806,0.8313356181119896
1730865948.8843756,-1.5719029903411865,1.1600306034088135,-9.814069747924805,-0.031082007399317567,-0.21628055494188575,-10.783141076282103,0.8608941066981373,0.8796661118652797,0.8713997685975612
1730865948.9342463,-1.4718180894851685,1.2043366432189941,-9.855443000793457,-0.058354144100934424,-0.23279038069042765,-10.768381491013349,0.8612734082111845,0.8825433120963456,0.8312223592815606
1730865948.9843962,-1.5622344017028809,1.2559999227523804,-9.844598770141602,-0.08913532679716715,-0.25215145878303014,-10.749805984763611,0.8656832125599313,0.8836409442582756,0.8713725690160756
1730865949.0343103,-1.6065484285354614,1.3037285804748535,-9.91126537322998,-0.12083774285641322,-0.2731889613563856,-10.728772479657575,0.8674873333555626,0.885801065882402,0.8310797684209662
1730865949.084335,-1.6464300155639648,1.3352413177490234,-9.848318099975586,-0.15105865130091375,-0.29502329963495455,-10.706671186787666,0.8689659768996321,0.8872657844667894,0.7633886922728014
1730865949.1342292,-1.7890230417251587,1.2793657779693604,-9.847938537597656,-0.17791973717915058,-0.3170740003450754,-10.68482909086222,0.867428748927643,0.8892633973708862,0.8757100225742847
1730865949.1843033,-1.9112098217010498,1.1769911050796509,-9.826825141906738,-0.20029268707719294,-0.33895073637064976,-10.664384884116089,0.8675861541413736,0.8899103814709679,0.8366329857548396
1730865949.2342906,-1.7468112707138062,1.169215440750122,-9.872337341308594,-0.21788645330763617,-0.36026554108313236,-10.646202362592453,0.8672228284593578,0.8896864730414012,0.7710437663625388
1730865949.2843397,-1.7610691785812378,1.1731765270233154,-9.90518856048584,-0.23108341348894912,-0.38050256703298324,-10.63087641594082,0.8687361895760227,0.8970627202278998,0.8792611960765333
1730865949.3341703,-1.772855281829834,1.1963719129562378,-9.869773864746094,-0.24059699352363925,-0.39904388687265374,-10.618793926790886,0.8684835875928337,0.8983417306048,0.8407891911724158
1730865949.3842542,-1.7723252773284912,1.1582468748092651,-9.856871604919434,-0.2472180081052396,-0.4152876944087932,-10.610162212534615,0.8676185094679597,0.8986097039199918,0.7754799130521953
1730865949.4341888,-1.5951693058013916,1.1924304962158203,-9.84045124053955,-0.25168950943687596,-0.4287439615626819,-10.604982586491875,0.8702457292717296,0.9050610522242312,0.8827846478646751
1730865949.4842129,-1.4303251504898071,1.1096744537353516,-9.871488571166992,-0.2545336776151782,-0.4390714755479958,-10.603035863315455,0.8698553647876348,0.9062524720731928,0.8438729340800462
1730865949.5342839,-1.4494115114212036,1.127644419670105,-9.831385612487793,-0.25583482851885253,-0.446067279013937,-10.603922104073106,0.8659438021632891,0.9146901095732656,0.8867318198022655
1730865949.5842733,-1.374488115310669,1.0864741802215576,-9.847817420959473,-0.25518710561343133,-0.4496344434890074,-10.607120028309406,0.8636559385445931,0.9174468960354628,0.8488527171835296
1730865949.634126,-1.4525998830795288,1.0719263553619385,-9.802490234375,-0.251876549224441,-0.44976205385732926,-10.612029396182365,0.863655938253928,0.9223587150071013,0.8902769479643521
1730865949.684152,-1.5784028768539429,1.0320987701416016,-9.840079307556152,-0.2451863232423273,-0.44651442423132204,-10.618004618220379,0.8614689371736914,0.9248425202958002,0.8522181406081941
1730865949.734146,-1.5448294878005981,0.9901504516601562,-9.828018188476562,-0.2347121465299029,-0.4400091613033196,-10.624403579819564,0.8643505150791807,0.9279939800015532,0.8886827852852708
1730865949.7841535,-1.495914340019226,0.9905200004577637,-9.897010803222656,-0.2205309995766501,-0.4303921837036223,-10.630660005194049,0.8633320204358964,0.9291130874027973,0.8489960033743239
1730865949.8341901,-1.5989469289779663,0.96947181224823,-9.889765739440918,-0.2031439187646838,-0.4178354604662034,-10.636362915425877,0.8639239566092447,0.9361389331322373,0.8887520223325741
1730865949.8841543,-1.5671354532241821,0.9694827198982239,-9.91878890991211,-0.18334817502006714,-0.40256179043617024,-10.641306173554927,0.8634582799840094,0.9347822527964487,0.883233135299519
1730865949.9341342,-1.4966825246810913,0.9941743016242981,-9.964380264282227,-0.16213417083404436,-0.3848771364339962,-10.645490097208603,0.8624922382171066,0.9343787548983234,0.8411717722101999
1730865949.984129,-1.4800490140914917,0.969645619392395,-9.981051445007324,-0.14052970954269567,-0.36519698735193834,-10.6491011112862,0.8611284643315614,0.933019959987165,0.7715119620147043
1730865950.0342054,-1.459653377532959,1.016774296760559,-9.992463111877441,-0.11941916633408055,-0.34405415891414054,-10.652480093053171,0.8594534963334347,0.9307863644006502,0.6759002468724786
1730865950.0840492,-1.5144121646881104,1.049118995666504,-9.973414421081543,-0.09945980945077218,-0.3220930957909105,-10.656055757784543,0.8659493311749191,0.9431301635925536,0.8819467038521288
1730865950.1340241,-1.6105612516403198,1.0086636543273926,-9.94045639038086,-0.08113231111475022,-0.30005820898138713,-10.660241284175529,0.8660771167680275,0.9440992775997097,0.8412539855791296
1730865950.1840804,-1.5536221265792847,1.06661057472229,-9.94149398803711,-0.06485910899285122,-0.2787476082610995,-10.665327171971585,0.8679472503259823,0.9519796358717918,0.8782601766702988
1730865950.2339597,-1.603241205215454,1.065562129020691,-9.964529037475586,-0.051064853491290293,-0.25894384901697176,-10.67142310943613,0.8685419498004674,0.9546528387402982,0.8371206726036251
1730865950.2839465,-1.879683494567871,1.0326447486877441,-9.866992950439453,-0.04018612973451975,-0.24135826147690498,-10.678461098638845,0.869029337011679,0.9567307597743004,0.7688219397568423
1730865950.3339956,-2.0737950801849365,0.9914940595626831,-9.809025764465332,-0.03280573019856221,-0.22655889843374297,-10.68618914373058,0.8714631422711347,0.9609760376914126,0.8761761401736345
1730865950.3840535,-2.0737950801849365,0.9914940595626831,-9.809025764465332,-0.029865020814755075,-0.21487651133712238,-10.694133289985354,0.8722459750999354,0.9627933847298055,0.8352169330995448
1730865950.3840535,-1.8243703842163086,0.9407444000244141,-9.798154830932617,-0.03260511653562395,-0.20635046388951747,-10.701619554715347,0.8722496133184263,0.9628009379668836,0.8349513404669388
1730865950.4339852,-1.6435387134552002,1.0102969408035278,-9.805895805358887,-0.04207900294268238,-0.20074763150213465,-10.707892093480703,0.8757889137726269,0.9737668604547335,0.8729357396493211
1730865950.4839067,-1.5730770826339722,1.1460793018341064,-9.76155948638916,-0.05854523762522765,-0.19767501459564013,-10.712247652122848,0.8774743203226484,0.978500811001938,0.8313835775382433
1730865950.5338778,-1.402429223060608,1.2469379901885986,-9.80485725402832,-0.08115964451140151,-0.19679680549716008,-10.714123163025924,0.8789774821822465,0.9827200982131432,0.7633422252664636
1730865950.5837739,-1.2801685333251953,1.27745521068573,-9.844583511352539,-0.10802656915067235,-0.1980470013565949,-10.713160086066136,0.8802415715459017,0.9864365263236319,0.6690494496004518
1730865950.6338754,-1.3144124746322632,1.2810062170028687,-9.876189231872559,-0.13645150033295522,-0.201677718066176,-10.709279535110559,0.8812138310864619,0.9896967107585849,0.5466477240278285
1730865950.6837897,-1.3720238208770752,1.2254197597503662,-9.91110610961914,-0.1633580185801221,-0.20811673440106604,-10.702734689529976,0.8818036639578087,0.992418309663765,0.3984843740119244
1730865950.7338083,-1.4993278980255127,1.1518988609313965,-9.931300163269043,-0.18584341242859062,-0.2177269683347644,-10.694097117777552,0.8794639287342522,0.9842303805703072,0.8741712719017086
1730865950.78379,-1.6006672382354736,1.0863429307937622,-9.86929702758789,-0.20171246727614522,-0.23057101379194866,-10.684170248046778,0.8796417551500981,0.9859018370726386,0.8338367748204333
1730865950.8337855,-1.81550133228302,1.01986563205719,-9.81452465057373,-0.20984856176476918,-0.24626138772911715,-10.673826818112396,0.8840900647340267,0.9922409209594066,0.8743769147733372
1730865950.8837059,-1.9375649690628052,0.9927679896354675,-9.77560806274414,-0.2103948088942871,-0.2639382030411628,-10.663807987211378,0.8848654252659784,0.9942635964443134,0.8344863864793548
1730865950.9336746,-2.0457820892333984,0.9714118242263794,-9.726194381713867,-0.20473636853238575,-0.2823681117175421,-10.65457444724092,0.8851216927140629,0.9956011231860913,0.7681031314538151
1730865950.9836621,-2.0869340896606445,1.0083929300308228,-9.737180709838867,-0.19525893951929782,-0.30013148396027167,-10.646262941414506,0.8879103991217967,1.0082340317812433,0.8742099744364025
1730865951.0336392,-2.0562994480133057,1.051559329032898,-9.758321762084961,-0.1849186299810966,-0.31585702799483123,-10.638745558664109,0.8885426927304956,1.0118850507703894,0.8343391651203956
1730865951.083622,-1.9736506938934326,1.1039338111877441,-9.822582244873047,-0.17671425078972886,-0.328454104096264,-10.63176897643259,0.8887491223626387,1.0188650448417669,0.8742202804667384
1730865951.133597,-1.9302725791931152,1.1401413679122925,-9.887577056884766,-0.17317321885468065,-0.3372824555557752,-10.625128042526438,0.888499998045681,1.0230958830556443,0.8341735179011216
1730865951.1835477,-1.8705997467041016,1.1601102352142334,-9.892549514770508,-0.17598052191879218,-0.34221561789338123,-10.61880552829861,0.8879273578033874,1.029169890327329,0.8744163814441276
1730865951.233644,-1.852792739868164,1.1702474355697632,-9.919771194458008,-0.18582798376989973,-0.3435955854277088,-10.613014117087051,0.8868047691873162,1.0337340686977896,0.8344078174995996
1730865951.2836158,-1.850260853767395,1.1229956150054932,-9.914119720458984,-0.20246700711370164,-0.3421033150704692,-10.608136625820274,0.9120472051167858,1.040648795381344,0.8747286232643461
1730865951.3335752,-1.8229795694351196,1.0839333534240723,-9.910886764526367,-0.22489789178599873,-0.3385735075299555,-10.60461942712255,0.9141748440479432,1.0446701586480172,0.8352365959317692
1730865951.3836124,-1.7985893487930298,1.0479875802993774,-9.888747215270996,-0.2516076023267779,-0.3337989866920149,-10.602862755701047,0.9217492243138086,1.053916345047565,0.8747658547516524
1730865951.4335694,-1.7535266876220703,0.9978740811347961,-9.872357368469238,-0.2807837499921835,-0.3283843750047946,-10.603126762140233,0.9312805494123559,1.0566369274570706,0.8747518081367559
1730865951.4836032,-1.7225205898284912,0.9698752164840698,-9.863229751586914,-0.3104856900764812,-0.32267446662192023,-10.605471461595258,0.9360490320471057,1.0592725386692874,0.8348482024267067
1730865951.533507,-1.668954610824585,0.9353963732719421,-9.8529052734375,-0.3387833026111925,-0.3167472412634821,-10.609743786178134,0.9399822568267037,1.0610964467582253,0.7686937765495877
1730865951.583536,-1.6359572410583496,0.9215210676193237,-9.852986335754395,-0.36387102888714473,-0.31045790242311805,-10.61560783635648,0.9430519953092864,1.062142757185647,0.6757006715339834
1730865951.6334298,-1.6144894361495972,0.9229671359062195,-9.850465774536133,-0.38416475472868006,-0.30351974621037253,-10.622601520306105,0.9258334910704231,1.0697463732858228,0.8748113618435481
1730865951.6834772,-1.6067534685134888,0.9610587358474731,-9.857247352600098,-0.3983938548697541,-0.2956118660490561,-10.630203275309212,0.9244767700515671,1.0721714050487339,0.8348033075706237
1730865951.7344527,-1.5976148843765259,1.0084751844406128,-9.867647171020508,-0.4056859933625122,-0.2865056560513659,-10.637898137927753,0.9210024335353882,1.0871168944573342,0.8742922671027821
1730865951.7843916,-1.6114647388458252,1.0301212072372437,-9.874835968017578,-0.4056258438608924,-0.27618024909686456,-10.645235824042627,0.9177986141905998,1.0934541810869638,0.8337878810025947
1730865951.8344188,-1.5975745916366577,1.018343448638916,-9.889068603515625,-0.3982739454589442,-0.26487203258580233,-10.651873374863307,0.9135944445107264,1.0990959268391929,0.7666660104901875
1730865951.8845086,-1.6075562238693237,0.9683912396430969,-9.893061637878418,-0.3841389745232979,-0.25301942053273396,-10.657597264490398,0.9188949462795493,1.0982838389616014,0.8746120218313111
1730865951.934418,-1.626556634902954,0.905511736869812,-9.897462844848633,-0.364111355398251,-0.24111901094822474,-10.662323881979482,0.916670954607519,1.101330048375213,0.8348783496879967
1730865951.9844997,-1.6508206129074097,0.8503293991088867,-9.890620231628418,-0.3393848803274945,-0.22955674740943377,-10.666078989002989,0.9138714666011225,1.116979857432525,0.8745383272664689
1730865952.034278,-1.668717384338379,0.7852784395217896,-9.882685661315918,-0.3113785087840975,-0.21848284792013417,-10.668960795315323,0.9105471409788896,1.1241550941265945,0.834578500964996
1730865952.0843859,-1.666137456893921,0.7490000128746033,-9.847501754760742,-0.2816441641743049,-0.2077642323275864,-10.671092321820367,0.9101587520773158,1.1315462760008719,0.8744946081895318
1730865952.134316,-1.6244356632232666,0.7482098340988159,-9.854060173034668,-0.2517429650584865,-0.19701933847150352,-10.672571932793929,0.9070832150499677,1.1387035788651128,0.8346683518697162
1730865952.1843207,-1.5937052965164185,0.7874472141265869,-9.882034301757812,-0.22309074056308892,-0.18573470462143832,-10.673451506188183,0.9033715509840948,1.14547084970513,0.7674895994887323
1730865952.2342668,-1.5707736015319824,0.8576775789260864,-9.910017013549805,-0.1968115173357768,-0.17344451822346382,-10.673769559787697,0.9087472256263328,1.136633084703853,0.8747861424467566
1730865952.2842512,-1.587791085243225,0.9232023358345032,-9.935588836669922,-0.17365868339735552,-0.15992205788987152,-10.673615616361705,0.9110148292556236,1.1475434246170437,0.8744522928841045
1730865952.3342435,-1.5839658975601196,0.9715844392776489,-9.951668739318848,-0.15402877329081668,-0.14531450470623672,-10.673174141808198,0.9108228083858394,1.1520413627600823,0.8347033628717052
1730865952.3842833,-1.6285433769226074,0.9795622229576111,-9.949352264404297,-0.13803961864801084,-0.13016591280889211,-10.672722298105592,0.9076325930194791,1.1470999058034392,0.8742330222570351
1730865952.4342704,-1.6731714010238647,0.9589577913284302,-9.931402206420898,-0.12563663033586703,-0.11531493625215049,-10.67258274582344,0.9059390000179198,1.148485397899336,0.8340480736714115
1730865952.4843504,-1.7608195543289185,0.9085907340049744,-9.892904281616211,-0.11671287565704108,-0.10170096459047162,-10.673044193223783,0.90389924259942,1.1496202451071234,0.7655889477636122
1730865952.5342863,-1.8198007345199585,0.8613375425338745,-9.845653533935547,-0.1112259086086756,-0.09014263380217245,-10.674270334947753,0.9070472334995873,1.1616512875850702,0.8746859685084345
1730865952.5842535,-1.8743910789489746,0.8098325729370117,-9.812735557556152,-0.1092736433766578,-0.08115690742527709,-10.67622521275487,0.9062107743078567,1.1651678716715657,0.8350878859092593
1730865952.634168,-1.8814746141433716,0.8248398900032043,-9.78154468536377,-0.11109199425653758,-0.0748719948874133,-10.678645141841569,0.9074609133086564,1.1771343992644276,0.8742811239342431
1730865952.6841817,-1.8178749084472656,0.9012826681137085,-9.799697875976562,-0.11695825177201577,-0.07107233625363243,-10.681075408288518,0.9070365692822325,1.1835125097056682,0.8342150065104774
1730865952.7341259,-1.7743693590164185,0.9895063042640686,-9.821540832519531,-0.12701695447254369,-0.06937630048372552,-10.682971171136366,0.9055727258598106,1.1857805197603082,0.8742371404980588
1730865952.7841399,-1.7426655292510986,1.0704177618026733,-9.879551887512207,-0.14110337699952602,-0.06946907691251587,-10.683840151252378,0.9044082386920534,1.1909962121354896,0.8341392807004571
1730865952.834016,-1.7173658609390259,1.144403100013733,-9.899643898010254,-0.1586606043563724,-0.07127735556795647,-10.683380846059109,0.9044346237234089,1.2041751717647524,0.8743039325606788
1730865952.884022,-1.7238008975982666,1.201750636100769,-9.902915954589844,-0.17877811975395208,-0.07502856750618045,-10.681559117977978,0.9032441244160349,1.2116052872987961,0.8342611668062647
1730865952.9340377,-1.7238008975982666,1.201750636100769,-9.902915954589844,-0.2003153186972823,-0.08119883595320143,-10.678591041960418,0.9089154465045504,1.2212230638234756,0.8751577909344559
1730865952.9340377,-1.7645459175109863,1.1820310354232788,-9.86949348449707,-0.22206441791617804,-0.0903681966568376,-10.674852826844498,0.9089201354595923,1.2212681354930721,0.8750146997650353
1730865952.9839852,-1.83077871799469,1.1543887853622437,-9.82955265045166,-0.2429233752540526,-0.10302258866744532,-10.670759329538964,0.9118187016748989,1.2233126547599285,0.8759291471743363
1730865953.0339887,-1.8594506978988647,1.0799541473388672,-9.79504680633545,-0.2620557992493639,-0.11936658456532867,-10.666643028373521,0.9126123672428007,1.2271572517463303,0.8364448551813322
1730865953.0839276,-1.8404059410095215,1.018115758895874,-9.759230613708496,-0.2789832848138598,-0.139188431067117,-10.66266714829749,0.912730361665628,1.2306887315492747,0.7701247653167705
1730865953.1339393,-1.7897979021072388,0.9865586757659912,-9.764646530151367,-0.2935516868182389,-0.16180038513432343,-10.658800261274548,0.9121349329133522,1.233827487538851,0.6775958111271828
1730865953.1840162,-1.698754072189331,1.0258070230484009,-9.786855697631836,-0.30578210583228316,-0.1860952878120434,-10.654861986523704,0.9115439076742498,1.2393241900224254,0.8759175837691544
1730865953.2339149,-1.6195176839828491,1.096706748008728,-9.849236488342285,-0.3156789144773659,-0.21074197105264347,-10.650631908916864,0.9107096702546442,1.2429475999361606,0.8360025514557858
1730865953.2839737,-1.5690386295318604,1.1863417625427246,-9.894932746887207,-0.32308017421867463,-0.23447024034799632,-10.645987310868744,0.909073398905037,1.2460185249660403,0.7693286197394249
1730865953.3338645,-1.5596836805343628,1.2637195587158203,-9.941064834594727,-0.32761844629081294,-0.25634240452639256,-10.641013878133665,0.911472290634551,1.257111530714208,0.8765726429182211
1730865953.384044,-1.59630286693573,1.3051685094833374,-9.960204124450684,-0.3288110446349082,-0.2759170419943894,-10.636042600096907,0.9103150075161932,1.2624264366598976,0.8366330853566942
1730865953.4338489,-1.6284863948822021,1.3273265361785889,-9.94701862335205,-0.3262375384428429,-0.29326244926100364,-10.631599291373067,0.908357829603337,1.2669694704901515,0.7707525410459879
1730865953.4840422,-1.6553434133529663,1.316172480583191,-9.920696258544922,-0.3197202344054467,-0.30883794372774626,-10.628282694760083,0.9116625609125433,1.2679489718231485,0.8766663352858457
1730865953.5338588,-1.6599690914154053,1.2806527614593506,-9.860176086425781,-0.3094267444526207,-0.32329851500424134,-10.6266067942912,0.9147708943564055,1.2838063303561011,0.8767604991773681
1730865953.583919,-1.6765570640563965,1.1801283359527588,-9.819402694702148,-0.29586861428871214,-0.3372715656468913,-10.626852892060564,0.9147906229619809,1.2900283356484499,0.8368839358510268
1730865953.6338382,-1.6720153093338013,1.0732054710388184,-9.787087440490723,-0.2798266057646467,-0.35113370844531877,-10.628977516836287,0.9167396657039757,1.2961329989823087,0.8767228423887056
1730865953.6838663,-1.6663193702697754,0.9791675806045532,-9.763050079345703,-0.2622427629686773,-0.3648290921889358,-10.632606622322136,0.9168038201535528,1.3017868178929746,0.8368466598810992
1730865953.7339408,-1.6707918643951416,0.9239218235015869,-9.750232696533203,-0.24410530942735112,-0.3777963736397545,-10.63710713013951,0.9162334499462998,1.3065147588304544,0.7702797333046418
1730865953.7837968,-1.6994575262069702,0.9047927856445312,-9.781537055969238,-0.2263553779137521,-0.38904623309158404,-10.641706426624271,0.9209465914162426,1.3023284113062745,0.8767808261881894
1730865953.8338177,-1.7137017250061035,0.9450106620788574,-9.824131965637207,-0.20983893229244086,-0.39737196534339847,-10.645643789154477,0.921556850361776,1.3044973541091451,0.8366773132451473
1730865953.8838098,-1.7199853658676147,1.0237822532653809,-9.900525093078613,-0.1952894811546606,-0.40163987135902074,-10.648336279854398,0.9269841909037835,1.3135557464807175,0.8767725019912437
1730865953.933771,-1.7121604681015015,1.109671950340271,-9.941783905029297,-0.183306028521751,-0.4010894637073763,-10.649519444200745,0.9332500672885826,1.3192304907038501,0.876662559517663
1730865953.9838536,-1.7125602960586548,1.1412822008132935,-9.991416931152344,-0.17431597839166324,-0.39555272433911837,-10.649315081295928,0.9362668703113657,1.3222774784125728,0.8365423020943247
1730865954.033785,-1.7383090257644653,1.1559922695159912,-9.991555213928223,-0.16854804141480406,-0.3855091808731289,-10.648200773426435,0.9388411846200357,1.3243343965628676,0.770003808137097
1730865954.0837812,-1.7700742483139038,1.0934906005859375,-9.966474533081055,-0.16604632023828814,-0.3719577225287507,-10.646888087266337,0.9324684528710532,1.333541012584643,0.876682778946832
1730865954.1337168,-1.7931220531463623,1.0574482679367065,-9.924484252929688,-0.16672448075391832,-0.3561617679991385,-10.646138681841048,0.9325202185598249,1.3365743908802372,0.8368345077717739
1730865954.1838078,-1.8051255941390991,0.9757516384124756,-9.861323356628418,-0.17042262115779255,-0.33936431249013643,-10.646567538711682,0.9351971494484825,1.3515012518082041,0.8766287536836087
1730865954.233678,-1.8243852853775024,0.909440279006958,-9.807530403137207,-0.176936626443867,-0.32255558306150595,-10.648485863433777,0.9357584820137846,1.3581513636738396,0.8368154606807331
1730865954.2837088,-1.831785798072815,0.8526820540428162,-9.77783489227295,-0.1860243058826878,-0.3063310433816203,-10.651821787617866,0.9351793849424452,1.3557366930932762,0.8766424716970379
1730865954.3335953,-1.7967559099197388,0.8678164482116699,-9.767488479614258,-0.1973965447123971,-0.2908619967101954,-10.656141304242773,0.9348807873915965,1.3587155754684688,0.8368325639855745
1730865954.3836603,-1.7605763673782349,0.9291214346885681,-9.799591064453125,-0.2106828417310968,-0.2760003920653455,-10.66076478496171,0.935903066261519,1.374152606940219,0.8765326244586151
1730865954.433618,-1.710945725440979,1.0032237768173218,-9.818702697753906,-0.22537632955363646,-0.2614945680641686,-10.66494226269828,0.9354582545164584,1.3802227316194773,0.8362999700495983
1730865954.4836576,-1.7012803554534912,1.053971767425537,-9.838756561279297,-0.24079899392553816,-0.2472234335966317,-10.668026951891846,0.9367400100324579,1.3856546114374995,0.8765631388992521
1730865954.5335536,-1.6881037950515747,1.0379717350006104,-9.849413871765137,-0.2561272702031201,-0.23333310843290728,-10.669589535582727,0.9362647670781157,1.390434691438641,0.8369106640196922
1730865954.5836434,-1.7113316059112549,0.9963055849075317,-9.854170799255371,-0.27048176654174483,-0.22021087494407718,-10.669455476308704,0.9375847343445661,1.3947041868043017,0.8765403643183207
1730865954.6335702,-1.745736837387085,0.9328804016113281,-9.85682487487793,-0.2830547032372368,-0.20832464651787327,-10.667683263689346,0.9370752252625079,1.398426489952154,0.8363641806857555
1730865954.683587,-1.7479357719421387,0.8603179454803467,-9.831171989440918,-0.2932357033585721,-0.19802144082701573,-10.664505528905675,0.9358463402007704,1.4016349787338112,0.7695931757359077
1730865954.733575,-1.7491909265518188,0.843873918056488,-9.839099884033203,-0.3006861755241967,-0.18937788633595198,-10.660250876989611,0.938042622009025,1.404352953867804,0.876714557374636
1730865954.7836032,-1.719849944114685,0.8954249024391174,-9.856204986572266,-0.30533244414975386,-0.1821734277792938,-10.655277192673257,0.9371272736328985,1.4066176954840084,0.8367453815915993
1730865954.8335345,-1.69038987159729,1.013269066810608,-9.893735885620117,-0.3072938345428262,-0.17602245236113323,-10.649949307789194,0.9418595447128842,1.4084450419684926,0.8764595236277548
1730865954.8834958,-1.6407148838043213,1.1782209873199463,-9.94733715057373,-0.30678212029505997,-0.1706305312664408,-10.64466129004464,0.9459769827095844,2.9648598561068136,0.8769384277472061
1730865954.9335127,-1.5968351364135742,1.3148117065429688,-9.980710983276367,-0.3040037224759404,-0.1660707102267753,-10.639873619903776,0.9478298926840254,3.280400329296063,0.8370774065542708
1730865954.9834745,-1.5788203477859497,1.3853707313537598,-9.986942291259766,-0.2990924804995815,-0.1629471957490939,-10.636123677035176,0.9489179403423842,3.593314728742969,0.7709733249055452
1730865955.0333755,-1.59587824344635,1.345052719116211,-9.986001014709473,-0.29210208305865915,-0.16234008164283464,-10.633978468116062,0.9458567134501649,3.0017067537536297,0.8767195254711643
1730865955.0834413,-1.6471034288406372,1.241713523864746,-9.92891788482666,-0.2830731303688739,-0.16551360498923454,-10.633934359969542,0.9453942750496329,3.077839095459412,0.8368463825640645
1730865955.1334794,-1.7504501342773438,1.1041513681411743,-9.85863208770752,-0.27215991716819377,-0.17348603045098243,-10.63628697073245,0.9442284648130759,3.153989570135201,0.769896674748264
1730865955.1834555,-1.8304283618927002,0.9711137413978577,-9.74976921081543,-0.25977581737871547,-0.1866272375948173,-10.640995180220484,0.9509481160931371,3.2919704627285475,0.8767106232394295
1730865955.2333221,-1.9156988859176636,0.9128645658493042,-9.670672416687012,-0.2466937982708748,-0.20443337005268597,-10.647577711369259,0.9514658386751214,3.38628010375237,0.8370852554280548
1730865955.2834413,-1.9563443660736084,0.903839647769928,-9.61693286895752,-0.23404493878262422,-0.22555865783231582,-10.655093882864115,0.9513854840284554,3.4808305066821155,0.7704374697032902
1730865955.3332965,-1.9563443660736084,0.903839647769928,-9.61693286895752,-0.22319965956464066,-0.24808097666599002,-10.662246380446804,0.9507345730125885,3.5743058349664594,0.6775130624911755
1730865955.3332965,-1.9662718772888184,0.9583784937858582,-9.625625610351562,-0.21556130245597258,-0.26988225713530095,-10.667595326711611,0.9507302490009484,3.574738937262508,0.6770190588585342
1730865955.3834836,-1.923431158065796,1.0500279664993286,-9.705564498901367,-0.21233619579302393,-0.28902937773261633,-10.669826239527332,0.9576690151474789,3.540879812943617,0.8766695792022898
1730865955.4342368,-1.8367159366607666,1.1513241529464722,-9.823517799377441,-0.2143294891444186,-0.3041015211524874,-10.668019069486151,0.9586181044894615,3.614407624709343,0.8358802213213845
1730865955.4842105,-1.7143102884292603,1.2665013074874878,-9.948857307434082,-0.22176965995366363,-0.3144234603411504,-10.661883119684465,0.9624196039465258,3.882605422968259,0.8767379051997377
1730865955.5342638,-1.5934988260269165,1.3747628927230835,-10.055098533630371,-0.23417360936550505,-0.3201675306007327,-10.651902222265257,0.9638870707857815,4.029767111306381,0.8364725012019476
1730865955.5842412,-1.4835880994796753,1.4298890829086304,-10.111140251159668,-0.25030156334870685,-0.32231144976281917,-10.6393258796165,0.9653716900907345,4.152978835123369,0.8768064167310383
1730865955.6342456,-1.443881630897522,1.4316983222961426,-10.103753089904785,-0.2682489086169314,-0.3224490733501076,-10.625981717766129,0.9663079050702884,4.3017922545588485,0.8368164949199909
1730865955.6842623,-1.4952565431594849,1.3775787353515625,-10.049909591674805,-0.28569864362699937,-0.3224694460022617,-10.613939815546562,0.968079772909903,4.368262763423244,0.8707958538809228
1730865955.7341847,-1.6399167776107788,1.2702287435531616,-9.953142166137695,-0.3003268882622887,-0.3241621781379246,-10.605106968493267,0.9682322483221584,4.464226974965034,0.8295586285914219
1730865955.7842758,-1.8158236742019653,1.1555479764938354,-9.814238548278809,-0.31029284320087397,-0.32883521831045714,-10.600844591375377,0.9692027377749266,4.727506640223034,0.8647095470027703
1730865955.8341494,-1.987913966178894,1.0372942686080933,-9.684324264526367,-0.31467681223815325,-0.33703304585775734,-10.601683895950938,0.9695377370873347,8.026024156603683,0.8606966340598611
1730865955.8841746,-2.1046435832977295,0.9711049795150757,-9.589987754821777,-0.3137196995938654,-0.3484240884306242,-10.607196158918446,0.9688884419042489,9.4226061667418,0.8178878173409965
1730865955.9341092,-2.1483964920043945,0.9394667744636536,-9.553539276123047,-0.30878054204025873,-0.3618854729472147,-10.61606241194555,0.9674684602399388,10.808396949475577,0.7489509662193156
1730865955.9841945,-2.121264934539795,0.9565346837043762,-9.586009979248047,-0.302021960532682,-0.3757600579850169,-10.626342838048098,0.9652765206766714,12.20083894963352,0.6530593645433087
1730865956.0340698,-2.039263963699341,0.9619608521461487,-9.645097732543945,-0.2959153249852803,-0.38820652953983714,-10.635884401453026,0.970054056001457,6.63268688626847,0.8581555967676754
1730865956.0840585,-1.9312196969985962,0.9948458671569824,-9.719782829284668,-0.29270195758392004,-0.3975377647212742,-10.642756553879108,0.9691675004176835,6.629706099767365,0.8168832293943684
1730865956.1340225,-1.8107657432556152,1.0069457292556763,-9.799466133117676,-0.2939415527340646,-0.4024709414801374,-10.64560052727016,0.9675518677326724,6.6257406227468,0.7492027002720995
1730865956.184022,-1.7375962734222412,1.0039891004562378,-9.883305549621582,-0.30024128110358095,-0.40225966822139647,-10.643829137879955,0.9652049851970372,6.620791289083158,0.6553571246570061
1730865956.2339506,-1.6901278495788574,0.9899908900260925,-9.963652610778809,-0.311212262201073,-0.39670616593219754,-10.637675199002402,0.9621798199373153,6.624918972627519,0.8542582439501829
1730865956.2840056,-1.6511867046356201,1.0167818069458008,-10.022025108337402,-0.3256349346795958,-0.3860864748493533,-10.628113913737362,0.9582629396280957,6.621637223949942,0.8130949728633822
1730865956.3338845,-1.626352071762085,1.0566904544830322,-10.058816909790039,-0.34174613736680864,-0.37105723991810957,-10.616685609389208,0.9830853246905694,6.6314167549157785,0.8559910124800802
1730865956.3839247,-1.6089198589324951,1.1275053024291992,-10.08283519744873,-0.3575502108814411,-0.3525943334563125,-10.605249685947673,0.9839113135351365,6.631337682974595,0.8162749720966734
1730865956.433835,-1.548673152923584,1.161179542541504,-10.08017635345459,-0.37108876393249984,-0.3319539474839276,-10.59571338319434,0.9917902855370081,6.63545859134216,0.8564684678218464
1730865956.4838657,-1.5168516635894775,1.1840696334838867,-10.051786422729492,-0.38062822169118926,-0.3106070535766649,-10.589775177981249,0.9978476633661854,6.639857903853109,0.8641241297998008
1730865956.533793,-1.4813148975372314,1.1318827867507935,-9.987784385681152,-0.38476549681340966,-0.2901051124802016,-10.588702989512607,1.0009183214876947,6.641553720500851,0.8281369565603972
1730865956.5838237,-1.4938756227493286,1.0512200593948364,-9.905617713928223,-0.38249533886382425,-0.27187043332531297,-10.593158308323625,1.0030445366734917,6.6425549432121755,0.7654439879125109
1730865956.6337664,-1.5253958702087402,0.9455553293228149,-9.82075309753418,-0.3732776307354484,-0.2569487225365431,-10.603085185958285,1.0042221500864261,6.64289241403221,0.6761444006401622
1730865956.683823,-1.6069215536117554,0.8572342395782471,-9.72569751739502,-0.3571130531489412,-0.24580035613034057,-10.617687442430423,1.000301813830264,6.6442968587409466,0.8659141499596762
1730865956.7337284,-1.7038275003433228,0.803158164024353,-9.66273307800293,-0.33461386977314866,-0.23820982705781707,-10.635504262580358,1.0005384680739775,6.644989760055074,0.8272239859214077
1730865956.7837372,-1.8090814352035522,0.8006678223609924,-9.635173797607422,-0.30704097959981824,-0.23335478502284113,-10.654582821782729,1.0051847986766327,6.65119753526045,0.870855395236222
1730865956.8336544,-1.8927173614501953,0.8072279691696167,-9.634767532348633,-0.27626939383095134,-0.23001779351391616,-10.67273701045745,1.0095937343554355,6.646447746158792,0.8747724287811508
1730865956.883653,-1.9440635442733765,0.8602471947669983,-9.668485641479492,-0.2446529960533576,-0.22687100426860551,-10.687853734588762,1.0109268737129757,6.644931389861578,0.8371039596043311
1730865956.9336395,-1.9826576709747314,0.9154075980186462,-9.733817100524902,-0.21479176946408224,-0.222755677396979,-10.698191091686759,1.0116965876761144,6.642833525063379,0.7721411346383462
1730865956.9837236,-1.9989776611328125,0.9727869033813477,-9.810914993286133,-0.18924599031367856,-0.2169015408060792,-10.702623344387668,1.0131577949171386,6.644094357220334,0.8781499065291827
1730865957.033659,-1.9968469142913818,1.0430967807769775,-9.891023635864258,-0.17025779378322567,-0.20905158655862055,-10.700797323081991,1.014066656820455,6.642460967002364,0.8397233130658269
1730865957.083661,-1.9078164100646973,1.1033395528793335,-9.982389450073242,-0.1595099577191189,-0.19948739398750467,-10.69317680242504,1.014568992166318,6.640295213974784,0.7739053113096737
1730865957.1336153,-1.811535358428955,1.1505705118179321,-10.037453651428223,-0.15791552389125493,-0.18897153096927752,-10.680974606170977,1.0171934024813207,6.64203826858531,0.8767757951244691
1730865957.1835968,-1.684177279472351,1.158101201057434,-10.068291664123535,-0.16545149479718274,-0.1786174718023829,-10.665981717551567,1.0179936879544464,6.640606477754248,0.836672606466573
1730865957.2335598,-1.607757568359375,1.1402833461761475,-10.083259582519531,-0.18109542102329673,-0.1696952090680326,-10.650311797353442,1.0183568063076474,6.638744975641372,0.7700658703696902
1730865957.2836456,-1.5794684886932373,1.0847864151000977,-10.054425239562988,-0.20292583201268333,-0.16339726582991695,-10.636104993362874,1.0182400383557626,6.636465388992654,0.6767856544007826
1730865957.3335211,-1.6266781091690063,1.0333889722824097,-10.00820255279541,-0.2284058931889632,-0.16060969509929673,-10.625238946977012,1.0231176243376816,6.616016436552044,0.8769022875678486
1730865957.3835816,-1.7076492309570312,0.985153317451477,-9.948284149169922,-0.2548065271097589,-0.16174337692538537,-10.619082969497041,1.0280100283294829,6.58914786503825,0.876636866471948
1730865957.4335127,-1.7534598112106323,0.9991579055786133,-9.872818946838379,-0.2796566828607956,-0.16667684691675008,-10.618329594702807,1.0293488138136166,6.576913169541413,0.8368297915453958
1730865957.4836228,-1.761965274810791,1.019677996635437,-9.80775260925293,-0.30107511349683846,-0.17483497368154827,-10.622925436600871,1.0299653635672308,6.564186462229051,0.7701494274860482
1730865957.5335631,-1.7332777976989746,1.0601274967193604,-9.740081787109375,-0.3178898245700323,-0.18537212890585536,-10.632103391149819,1.0298056958245199,6.551075051217113,0.6772621322679179
1730865957.5835302,-1.7360866069793701,1.0578792095184326,-9.706241607666016,-0.3295705426923952,-0.19737617303818092,-10.644506986063083,1.0288352997514438,6.537445653242098,0.5574730200252054
1730865957.633568,-1.7078824043273926,1.0534155368804932,-9.675688743591309,-0.3360798305088203,-0.2100102286972755,-10.658388190177028,1.0307343129887194,6.56907518787538,0.8766631975944286
1730865957.683474,-1.7233083248138428,1.0290294885635376,-9.678693771362305,-0.3377287935901816,-0.2225633450170678,-10.671848245337777,1.0304269874794323,6.5624115657859905,0.836701181262117
1730865957.733404,-1.7296462059020996,1.0342074632644653,-9.693284034729004,-0.3350697033067709,-0.2344423567317493,-10.68308506782658,1.036263923651164,6.536637213972863,0.8766938069659101
1730865957.7834828,-1.7782323360443115,1.0552161931991577,-9.738544464111328,-0.3288330660370943,-0.24516225761982552,-10.690616916875381,1.037310308007963,6.522142581959653,0.8363797336679188
1730865957.833414,-1.8271551132202148,1.1032934188842773,-9.756502151489258,-0.3199041260144992,-0.2543730275132751,-10.693454663173126,1.0375384445548614,6.507187773453978,0.7699261787552963
1730865957.8834038,-1.8970963954925537,1.1459044218063354,-9.80887222290039,-0.3093211337882509,-0.2619178842515035,-10.691194278399681,1.0369787746889496,6.4914270694430956,0.6759150613998234
1730865957.933347,-1.9201931953430176,1.1988476514816284,-9.833016395568848,-0.29826447677468654,-0.26788668866091636,-10.684022344293405,1.0391284234163152,6.514623791708177,0.8769940065741154
1730865957.983341,-1.93211030960083,1.2210768461227417,-9.855461120605469,-0.2879974233367181,-0.27262905679053817,-10.672648214236283,1.0389286601340615,6.507340835761015,0.8371021670049742
1730865958.0332818,-1.8952357769012451,1.1917591094970703,-9.863088607788086,-0.2797402321311182,-0.2767017764482276,-10.658175840203318,1.044449412500898,6.506598306056324,0.8772743946579893
1730865958.0833924,-1.8420480489730835,1.143674373626709,-9.883455276489258,-0.27449844936344214,-0.2807374537735437,-10.641939259517397,1.0456240783987647,6.5004274013893735,0.837127764459955
1730865958.1332362,-1.7618697881698608,1.129366159439087,-9.8805570602417,-0.2728883001181345,-0.285271149551509,-10.625338675793785,1.0465309430538818,6.497625364193967,0.876653930745708
1730865958.1833367,-1.694387674331665,1.115341305732727,-9.905627250671387,-0.2750059031558423,-0.2906116616920556,-10.60970178749939,1.0469879890947316,6.491644405786922,0.8363233379006801
1730865958.2332082,-1.6100733280181885,1.094612956047058,-9.931663513183594,-0.28037708409401957,-0.2968067447084243,-10.596185690395012,1.046748398652176,6.485028439318873,0.7703012952139553
1730865958.2832747,-1.5418109893798828,1.0807050466537476,-9.972339630126953,-0.2879963544793831,-0.30367371077300603,-10.585731110952416,1.0506021501785818,6.488785049830926,0.8761370497926646
1730865958.3331993,-1.499990701675415,1.0729589462280273,-10.015694618225098,-0.2964426953745266,-0.31085487438963844,-10.579061823817993,1.0530633664974283,6.477413092003161,0.8757712845317447
1730865958.383289,-1.4388550519943237,1.0682786703109741,-10.016959190368652,-0.30405351473670394,-0.31788622819404855,-10.576700242650105,1.053379932309065,6.470764908139039,0.8354653168601118
1730865958.4332135,-1.4234479665756226,1.0768064260482788,-10.036955833435059,-0.309123681101054,-0.3242744612331032,-10.578965913431517,1.0561844191388263,6.47331391580997,0.875090957449017
1730865958.4831707,-1.4432932138442993,1.1116139888763428,-10.005428314208984,-0.3101043160147645,-0.3295775419510597,-10.585947827265429,1.0570131816221797,6.467945665078467,0.834809580757788
1730865958.5341525,-1.5085569620132446,1.1484904289245605,-9.962830543518066,-0.3058053979167181,-0.333488672787688,-10.597461299220114,1.057060470533654,6.461696989351428,0.7672203735057973
1730865958.5831633,-1.5824558734893799,1.1850098371505737,-9.87814998626709,-0.29559249453599007,-0.33591058478116215,-10.612994747588052,1.0570887595833842,6.46058955345068,0.875025164337412
1730865958.6341417,-1.7026240825653076,1.1562330722808838,-9.797066688537598,-0.27953645248925196,-0.336982967339681,-10.631658917099955,1.056655471478093,6.45535248066169,0.8344483260756024
1730865958.6841717,-1.8434793949127197,1.0966352224349976,-9.701960563659668,-0.25848839372686566,-0.33702072044517806,-10.652168334956507,1.0555462350092433,6.449344992675352,0.767520279162644
1730865958.7341104,-1.9647480249404907,1.0394996404647827,-9.635427474975586,-0.2340737271200611,-0.33636614588363406,-10.672883194725978,1.053835667374216,6.442556988138539,0.6747385027670498
1730865958.7841659,-2.0362460613250732,0.9632866978645325,-9.589738845825195,-0.20858136129422197,-0.33522408004320237,-10.691925760635021,1.0593386148101551,6.447819177656709,0.8747618762734737
1730865958.8331368,-2.0580220222473145,0.9396564364433289,-9.595098495483398,-0.18471822580780187,-0.33355707129976786,-10.70736966978486,1.0591919100586495,6.443124543911838,0.8357076745333476
1730865958.8841126,-2.0260348320007324,0.9472898840904236,-9.640368461608887,-0.1652464349098523,-0.3310838433050596,-10.717484146526674,1.0604674197511037,6.431462302518176,0.8745300019061739
1730865958.9341154,-1.9630955457687378,1.0134309530258179,-9.721592903137207,-0.15257406341154436,-0.32739281567233375,-10.72099727433179,1.060329115382885,6.424609472794016,0.8339093421458154
1730865958.984118,-1.895137906074524,1.0919886827468872,-9.815616607666016,-0.14839112050208877,-0.3221384862096617,-10.717325840652542,1.0618392323358363,6.415599005513917,0.8752812040677685
1730865959.0339692,-1.8222602605819702,1.1473636627197266,-9.905097961425781,-0.15343105169713595,-0.3152417767412484,-10.706714947948736,1.061902232942106,6.407026252581688,0.8353711040504562
1730865959.0840662,-1.7455374002456665,1.1361726522445679,-9.956357955932617,-0.16739471142962553,-0.3069953605765492,-10.690243862517562,1.0649426230504344,6.398781341772014,0.87546853221166
1730865959.1339521,-1.700907826423645,1.1482601165771484,-10.000899314880371,-0.18902567226416583,-0.2980179492604852,-10.669685402567431,1.0658350963574204,6.387651838727852,0.8355330716387843
1730865959.1839936,-1.7207727432250977,1.1174755096435547,-10.020934104919434,-0.21631777639796168,-0.28909933708511826,-10.64725383116297,1.0662235091896715,6.375679749102294,0.7683089333497003
1730865959.233999,-1.7523990869522095,1.134559988975525,-9.988039016723633,-0.24683810525568822,-0.2810290320012261,-10.625301057908803,1.064859693144745,6.39060478840629,0.8793059690344579
1730865959.2839696,-1.8286563158035278,1.1376848220825195,-9.950651168823242,-0.2781106852110532,-0.27447469922167045,-10.606004296600274,1.0642603783363536,6.385261327012298,0.8402284846373422
1730865959.3339097,-1.8731988668441772,1.1633003950119019,-9.883402824401855,-0.3079709596904262,-0.26993151944470617,-10.59108389409209,1.0674773903121209,6.3734686462669945,0.8825251010723988
1730865959.3839538,-1.87714421749115,1.2097761631011963,-9.829784393310547,-0.33480427443386673,-0.2677306520239632,-10.5816000009064,1.0692025683498019,6.3692137230355925,0.8847512831934792
1730865959.43391,-1.8527741432189941,1.2444229125976562,-9.779115676879883,-0.35761318781413143,-0.26808477636146444,-10.577862435167788,1.0689368353726707,6.364050680624568,0.846718664999024
1730865959.483997,-1.7791498899459839,1.2536530494689941,-9.761033058166504,-0.3759223962552493,-0.2711375583938027,-10.57946362948779,1.0677471988689164,6.3581373776225085,0.7816074446842416
1730865959.5338774,-1.7433054447174072,1.2289862632751465,-9.7857084274292,-0.3895933829571686,-0.2769713328659871,-10.585427070520804,1.070590825543501,6.335006854090833,0.8872776260327144
1730865959.583923,-1.7001326084136963,1.2023404836654663,-9.813427925109863,-0.39864536122966554,-0.28555690099963893,-10.594443390334252,1.0697923072374258,6.323356376897457,0.8483496702141176
1730865959.6338441,-1.658395528793335,1.1724835634231567,-9.855494499206543,-0.40314689352725924,-0.2966808442288122,-10.60513567396124,1.0723771756892573,6.30210247817902,0.8902971925757532
1730865959.6838272,-1.589672565460205,1.1396898031234741,-9.88569164276123,-0.4031687296020705,-0.30989972689589634,-10.616284023404589,1.0742503697813217,6.281884361605429,0.8886198759120597
1730865959.733828,-1.5081108808517456,1.1046420335769653,-9.922158241271973,-0.398751523051373,-0.32454090769642535,-10.626968891008307,1.0738980086322496,6.265843264114125,0.8487994755400888
1730865959.7838185,-1.4295170307159424,1.1049782037734985,-9.95274543762207,-0.3898683299699253,-0.3397470206021328,-10.636631378058048,1.0725592883673756,6.248933573642897,0.7823108334269817
1730865959.833836,-1.4276865720748901,1.1359474658966064,-9.951932907104492,-0.3764109695356158,-0.3545694646267704,-10.645063927277647,1.0702547546693213,6.231108725655546,0.6889235784995991
1730865959.8838398,-1.4848183393478394,1.1582427024841309,-9.916403770446777,-0.3582603592571514,-0.36810827855633826,-10.652335086049877,1.0741970313192937,6.260619629452744,0.8883484626420824
1730865959.9337692,-1.5948827266693115,1.1681678295135498,-9.850994110107422,-0.335466204739978,-0.3796518838472378,-10.658650474340927,1.076440040605035,6.22676076557113,0.8882894637805706
1730865959.9839382,-1.7093874216079712,1.1369863748550415,-9.79179573059082,-0.30847700724384586,-0.3887508272211101,-10.664182088875577,1.0760791193479204,6.210384878316915,0.8481219722169201
1730865960.0338023,-1.8193243741989136,1.1080282926559448,-9.737626075744629,-0.2783136750028846,-0.3951982237112951,-10.668927263536998,1.0780944018686625,6.230798751661598,0.8879066940350563
1730865960.083812,-1.884267807006836,1.1029753684997559,-9.714607238769531,-0.2466034274567933,-0.3989528798977126,-10.672649756099581,1.077934163346232,6.225633761185838,0.8479231938294495
1730865960.1337838,-1.9105286598205566,1.1115912199020386,-9.716594696044922,-0.21544693027853618,-0.4000752684463418,-10.674919102674757,1.0771936679111966,6.219433746549163,0.7809159575860339
1730865960.1837988,-1.9257912635803223,1.116139531135559,-9.744019508361816,-0.1871522560785997,-0.39871253206545776,-10.675229861069473,1.0795943021532242,6.211402380181147,0.8878526463723175
1730865960.2337227,-1.9447674751281738,1.1083884239196777,-9.78177261352539,-0.1639227178606466,-0.3951069269805282,-10.673158606004225,1.079552529533501,6.203381566687096,0.847818751635989
1730865960.28374,-1.942165493965149,1.0875669717788696,-9.824285507202148,-0.1475911894324381,-0.3895855842276037,-10.66850778565833,1.0815011817814293,6.19212067379065,0.8875402890360885
1730865960.3336928,-1.9253342151641846,1.0885087251663208,-9.844911575317383,-0.13943877830504228,-0.3825222191142804,-10.661393414157768,1.0818447015565649,6.181472025733387,0.847458306002905
1730865960.383695,-1.8715403079986572,1.0781447887420654,-9.8873929977417,-0.14008375403218806,-0.37429572067565825,-10.652256565095595,1.0818383091346613,6.169820936288818,0.7803804032879377
1730865960.4336674,-1.8378441333770752,1.0401469469070435,-9.917705535888672,-0.14942531967577463,-0.3652598892491023,-10.641814230277578,1.081472647378103,6.157370732227261,0.6875533818446509
1730865960.48365,-1.7672381401062012,1.032460331916809,-9.951805114746094,-0.16664927247181635,-0.3557116209022734,-10.630981108267353,1.0854417239333851,6.1802540995251345,0.8835971124424308
1730865960.5337403,-1.7021394968032837,1.0370874404907227,-9.975760459899902,-0.19029824388274746,-0.34586640837449867,-10.62077834541078,1.085638988345998,6.175215072495504,0.8429145595229562
1730865960.5838394,-1.65043306350708,1.073177456855774,-10.0149564743042,-0.2183935620841554,-0.33587553746105847,-10.612237984048589,1.090654662035879,6.169279154347864,0.8788483122554477
1730865960.6337297,-1.6014059782028198,1.14634108543396,-10.020565032958984,-0.24860370482704025,-0.3258958977717995,-10.606315084129015,1.0919012604644251,6.16261578643976,0.8374024684656399
1730865960.6836996,-1.5850491523742676,1.22859787940979,-9.987622261047363,-0.2784540620201131,-0.3161932558749937,-10.603800681410373,1.0946276357152456,6.155111758026663,0.8756860356795708
1730865960.733647,-1.6096011400222778,1.2526041269302368,-9.945744514465332,-0.30556297694450035,-0.3072307775990003,-10.60521645940511,1.0957293480440888,6.1468034930337225,0.8339588222560332
1730865960.7837098,-1.665219783782959,1.2559261322021484,-9.857342720031738,-0.3278912867818843,-0.2996712004309491,-10.610699917315937,1.0960358131185082,6.1377194766212675,0.7654811206099532
1730865960.8336103,-1.7471556663513184,1.2027697563171387,-9.769553184509277,-0.343980461078609,-0.2942599849322955,-10.619910855935021,1.0954999972304769,6.127924856004129,0.6706710550514878
1730865960.8836133,-1.8258168697357178,1.1118991374969482,-9.667461395263672,-0.3531334110142769,-0.2916249298444642,-10.631985497005138,1.096457993961961,6.11746396600375,0.873024969921076
1730865960.9335773,-1.8815194368362427,1.0185134410858154,-9.608986854553223,-0.355489362225468,-0.2920572059683587,-10.645564658590645,1.0960326770695499,6.106178590544083,0.8321093710020692
1730865960.9835758,-1.8734042644500732,0.954424262046814,-9.58102798461914,-0.3519561367267968,-0.29535079948749593,-10.658920360401687,1.1007889069820813,6.094223817108156,0.8689606767093948
1730865961.033538,-1.8734042644500732,0.954424262046814,-9.58102798461914,-0.34399876959840575,-0.3007773288528933,-10.670177839401983,1.1009140705184577,6.081525337707832,0.8278091821171258
1730865961.033538,-1.824157476425171,0.9195178747177124,-9.613903045654297,-0.33334279786103044,-0.3072164179030398,-10.677588230120179,1.1009124179157224,6.081454464544896,0.8275137952427509
1730865961.0836797,-1.7324042320251465,0.9404146075248718,-9.695297241210938,-0.3216665545293246,-0.31337403125285956,-10.679796042131922,1.1002029263592388,6.067958591916471,0.7594953270348821
1730865961.133535,-1.6441199779510498,0.9858413338661194,-9.814929962158203,-0.3103226900833995,-0.31800957475970393,-10.676070378183041,1.1013017241505716,5.032958639323532,0.8743039047275913
1730865961.1836119,-1.5686087608337402,1.074684739112854,-9.920032501220703,-0.3001309409361719,-0.3201511711845024,-10.66647399111403,1.1006353819207584,4.947481105015408,0.8350685025025819
1730865961.2334654,-1.542607307434082,1.151999592781067,-10.003628730773926,-0.2913019963889546,-0.31928699912419933,-10.651920171076313,1.1014596286720058,4.74701537232852,0.8780330227180663
1730865961.283573,-1.5542049407958984,1.2301385402679443,-10.041191101074219,-0.2835198768901601,-0.31548566670170525,-10.634072300771344,1.1006007089664962,4.613521318280282,0.8398270088061192
1730865961.3333614,-1.6225168704986572,1.2406723499298096,-10.066964149475098,-0.2761568369196131,-0.3093965049396573,-10.61509590122369,1.0990529134853688,4.4801060198342935,0.7755033780687433
1730865961.3834236,-1.7253564596176147,1.2138913869857788,-10.027120590209961,-0.26856136315903634,-0.30210790301106466,-10.597324284849094,1.0968130341846685,4.344962290917261,0.6841981027805994
1730865961.4334004,-1.8377536535263062,1.1672279834747314,-9.96264362335205,-0.26034561638236303,-0.29488975963261677,-10.582901864922292,1.1017655454986284,4.587199263905585,0.8801112003576168
1730865961.4834306,-1.8791604042053223,1.118408203125,-9.90227222442627,-0.2515854663892272,-0.2889037339280064,-10.573460966610469,1.1008911706832036,4.53271038610378,0.8411637052708312
1730865961.5334456,-1.8703622817993164,1.049418330192566,-9.87574577331543,-0.24284750692987067,-0.28497141870118503,-10.569904718988031,1.1032467742674001,4.271087578130373,0.8843414262633644
1730865961.5833516,-1.7904411554336548,0.9940613508224487,-9.860814094543457,-0.23501613610675637,-0.283439645592413,-10.57235558413452,1.1034439352042655,3.9667037424594365,0.8884736067658862
1730865961.6333067,-1.6464136838912964,0.9628157019615173,-9.86606502532959,-0.22897863489030096,-0.28414781759446384,-10.580260412451288,1.102904702594595,3.765159707184416,0.8512982985294753
1730865961.683353,-1.5627888441085815,0.9482263922691345,-9.848698616027832,-0.2252815093942174,-0.2864975554651914,-10.592583141572616,1.1018054391475685,3.564773139581322,0.788132858528143
1730865961.7333167,-1.562458872795105,0.9341247081756592,-9.841981887817383,-0.22391028105541505,-0.2896018992927173,-10.608007795308467,1.1001304883409837,3.361634533670093,0.6976818962545057
1730865961.783527,-1.5797141790390015,0.9555282592773438,-9.840194702148438,-0.2243098443449399,-0.2924658070578407,-10.625109988251857,1.1033711389264218,3.8620282763143607,0.885181144012554
1730865961.8334281,-1.656130313873291,1.0449622869491577,-9.828990936279297,-0.2256145240759928,-0.2941731305247677,-10.642494830346799,1.102587808149728,3.7944056633452017,0.8454052464326487
1730865961.883437,-1.7408385276794434,1.130565881729126,-9.812065124511719,-0.22695645320102434,-0.2940845881393047,-10.658901540706601,1.1012269956671434,3.7251908024081093,0.7784123543190702
1730865961.933372,-1.8037424087524414,1.1793253421783447,-9.80042552947998,-0.22773743396482415,-0.29200860004263085,-10.673267713718367,1.0993160592285252,3.6559870816790574,0.6856436288577532
1730865961.9834905,-1.8700915575027466,1.1633671522140503,-9.820185661315918,-0.22778853284873085,-0.2882518496771519,-10.684766171086787,1.1038260481976985,3.627759815532892,0.8851528019754593
1730865962.0333447,-1.9134926795959473,1.100498914718628,-9.80792236328125,-0.22739314720682446,-0.2834942970252512,-10.69283652984901,1.1030856912296672,3.560949209526295,0.8451140286906157
1730865962.083408,-1.9817607402801514,0.9967160820960999,-9.799867630004883,-0.2272097249384879,-0.27852839290734066,-10.697202089283206,1.1040162647704865,0.5626326853913852,0.884737777994702
1730865962.1332574,-2.009242534637451,0.8998187184333801,-9.762540817260742,-0.22814736302643346,-0.27396354063371475,-10.69784433919051,1.1032709741147522,-0.49694320110928714,0.8447566230599515
1730865962.1833553,-2.0146119594573975,0.8520634174346924,-9.732019424438477,-0.23121861025707793,-0.2700085528866334,-10.694933982605018,1.1033064630668616,1.6340214135816862,0.8844980742313507
1730865962.2332752,-1.9653370380401611,0.8578269481658936,-9.763777732849121,-0.23736382757984129,-0.26641903899224256,-10.68875676295729,1.1035048716111364,1.6360624464749167,0.8845946119511326
1730865962.2832632,-1.8760980367660522,0.9307280778884888,-9.811843872070312,-0.24724751938800837,-0.2626318905435303,-10.679692488808833,1.1026067132096826,1.6354691362782086,0.8445910922728923
1730865962.3331802,-1.7786275148391724,1.0387083292007446,-9.875558853149414,-0.2610572514950325,-0.2580338402107474,-10.66826493895059,1.1010771303031328,1.6342287560940294,0.7780704341523138
1730865962.3832405,-1.7020138502120972,1.1243410110473633,-9.926508903503418,-0.2783656574550085,-0.25225902089303354,-10.655208828559026,1.0988624177896265,1.632341500237108,0.6844344880340272
1730865962.4332123,-1.6601722240447998,1.1989141702651978,-9.964488983154297,-0.29811978325349087,-0.24539635212859987,-10.641487805272838,1.1036812224193113,1.635947433830061,0.8846506264832181
1730865962.4832904,-1.6342209577560425,1.2611186504364014,-9.975395202636719,-0.3187769709102646,-0.23803933893534002,-10.628236486635384,1.102594550523343,1.635092949044301,0.8448332096426683
1730865962.5331616,-1.622498869895935,1.2675787210464478,-9.962905883789062,-0.3385416965725162,-0.2311908909874708,-10.616634878281598,1.1044075407017102,1.6361886680546511,0.8850766620303756
1730865962.5832772,-1.639206886291504,1.2061913013458252,-9.937066078186035,-0.35563065725861615,-0.22605730287276593,-10.607745266027006,1.103342962155292,1.635402244351294,0.8452283824794329
1730865962.6331246,-1.6860491037368774,1.1449236869812012,-9.880510330200195,-0.36851847124466713,-0.22376451457444074,-10.602350062268636,1.1013839646248302,1.634061103481987,0.7792447486614152
1730865962.6834114,-1.7109571695327759,1.0855287313461304,-9.83228588104248,-0.37613922022835555,-0.22507604684544463,-10.600822706674613,1.1052078338730522,1.6366568057351711,0.8850071368101642
1730865962.7330935,-1.709753394126892,1.0741137266159058,-9.788422584533691,-0.3780033762083478,-0.23021988027809517,-10.603058665917574,1.1040533401344044,1.6359325539841256,0.8445204910268364
1730865962.7832174,-1.6724727153778076,1.0828081369400024,-9.795247077941895,-0.37418726043895656,-0.23888122769638498,-10.608494558178117,1.1067633510157768,1.6346472318696557,0.8902859349042601
1730865962.8330767,-1.6206578016281128,1.0981696844100952,-9.837224006652832,-0.3652002494022403,-0.2503363468189724,-10.616232064253886,1.1060050352018918,1.632726300919087,0.8522200907755235
1730865962.8830912,-1.5427521467208862,1.13316011428833,-9.84755802154541,-0.35178444695316435,-0.26365085797079063,-10.625239769409701,1.107406974812991,1.6301945482868019,0.8934488426139907
1730865962.933006,-1.5629488229751587,1.1618047952651978,-9.863628387451172,-0.3347258471474863,-0.2778724222960466,-10.634550589590681,1.1065664428598085,1.6269870350741615,0.8558281247664066
1730865962.9830446,-1.629149079322815,1.215698003768921,-9.845447540283203,-0.31477006048559875,-0.2921841561490294,-10.643379108566553,1.10490778732194,1.6230430512267886,0.791327492264069
1730865963.0340078,-1.6967530250549316,1.2590280771255493,-9.838217735290527,-0.29268207106021893,-0.3060104736022488,-10.651149034580321,1.1024366964243675,1.6182571006062345,0.6982234085711886
1730865963.084012,-1.7413307428359985,1.2730633020401,-9.82457160949707,-0.2693658424925983,-0.319068050881837,-10.657466844108791,1.1080749851607905,1.6127701080623664,0.8911475620325389
1730865963.1339903,-1.7646113634109497,1.2583575248718262,-9.81188678741455,-0.24591777413763707,-0.3313424812264517,-10.66208164323961,1.10730559676912,1.6064729341119537,0.8510438126558016
1730865963.1839724,-1.7786732912063599,1.2127102613449097,-9.802888870239258,-0.22357005392707113,-0.342984618663821,-10.664851865928924,1.109096400253507,1.5993108803972742,0.89056939613766
1730865963.233917,-1.8130278587341309,1.14822256565094,-9.807696342468262,-0.20356806180288556,-0.35415686136206104,-10.665724598934212,1.1086621894963846,1.5913441669209207,0.8505829526297725
1730865963.2838762,-1.809478998184204,1.100132703781128,-9.810400009155273,-0.18704557594723906,-0.3648826103497006,-10.664731151953863,1.1077392256058551,1.582441314815332,0.783821596914381
1730865963.333905,-1.797210454940796,1.1131501197814941,-9.829365730285645,-0.1749197878545814,-0.3749635945372246,-10.661995180321286,1.1103295842564551,2.789999005740381,0.8902716168480213
1730865963.383851,-1.7991148233413696,1.125964879989624,-9.836786270141602,-0.16780097932425123,-0.3840134330672159,-10.657742469128802,1.1100313756863036,2.8515955797952706,0.8501959376445695
1730865963.4338167,-1.7826963663101196,1.1695894002914429,-9.845488548278809,-0.16593379627839516,-0.39158829001508055,-10.652300006707911,1.1112373469230863,3.0640603721869635,0.8852481816174707
1730865963.4838102,-1.7767739295959473,1.2048052549362183,-9.856528282165527,-0.16918786970720323,-0.3973416655509098,-10.646076522248357,1.1110568921527337,3.183565293310159,0.8433885256463779
1730865963.5337822,-1.8129676580429077,1.1983704566955566,-9.851751327514648,-0.1770978639571777,-0.4011346550151762,-10.63952775498454,1.1120208758402437,3.282287734324376,0.8813910934850556
1730865963.5838563,-1.865580439567566,1.1427628993988037,-9.82577133178711,-0.18896181297587916,-0.40305012129195755,-10.63310796737455,1.1117844602907354,3.39933404314081,0.8399370501504654
1730865963.633715,-1.881205439567566,1.0834192037582397,-9.824111938476562,-0.20398403697494857,-0.4032964784148911,-10.62720833461888,1.111026987147196,3.5204145398604756,0.7690694184479672
1730865963.68373,-1.863053321838379,1.0553536415100098,-9.826824188232422,-0.2213912397269001,-0.40206282362804086,-10.62210727262637,1.1130623943229372,3.4341875900686105,0.8846855624379681
1730865963.7337158,-1.8265241384506226,1.0528087615966797,-9.850543975830078,-0.2404590570752993,-0.3994260862516336,-10.617964606650286,1.112539574460522,3.4938877798311583,0.8444894098136888
1730865963.7837036,-1.7715882062911987,1.0776413679122925,-9.877630233764648,-0.2604619784913461,-0.3953619094912035,-10.614859979219814,1.1114301412337317,3.549938954886357,0.7802139432625039
1730865963.8336518,-1.7354477643966675,1.0973707437515259,-9.941924095153809,-0.2806067877331422,-0.3898323481650689,-10.612855905188685,1.1140370980418897,3.6742441989276435,0.8843053193186656
1730865963.8837056,-1.689695954322815,1.1317925453186035,-9.966397285461426,-0.3000014249822417,-0.38288771554080503,-10.61206521535281,1.1133446949658918,3.7566003983528993,0.8443987388616674
1730865963.9335935,-1.6389662027359009,1.1293141841888428,-9.971222877502441,-0.3176734206616212,-0.3747316440713673,-10.612686628603381,1.1118881512032295,3.8372827935707194,0.7783737440208299
1730865963.9836588,-1.6623183488845825,1.1505361795425415,-9.938908576965332,-0.3326292640222926,-0.36572734151565595,-10.614968744115219,1.1143863404388192,3.876922314666241,0.8886824450902437
1730865964.0335605,-1.685981035232544,1.114296793937683,-9.907242774963379,-0.343962838341561,-0.3563499471643513,-10.619108313823345,1.1132833644320683,3.949531938884488,0.84850059285725
1730865964.0836053,-1.7127622365951538,1.098321795463562,-9.828071594238281,-0.3510037817120291,-0.3471012381976658,-10.625129079641736,1.114798065612797,7.06273841380116,0.8934578374780114
1730865964.1335196,-1.7381293773651123,1.0863145589828491,-9.812661170959473,-0.35344282261885684,-0.3384140025908492,-10.63278751228711,1.1137139602699253,8.232681822322338,0.855929221645712
1730865964.1835907,-1.7394286394119263,1.1070185899734497,-9.751754760742188,-0.35137902407328614,-0.3305925942380179,-10.641543498543927,1.115174899905993,5.915998046613955,0.792910054601297
1730865964.2335656,-1.7783422470092773,1.099996566772461,-9.74980354309082,-0.3452887874129918,-0.32381447139554054,-10.650608519623047,1.1140786705883645,5.9088526373561265,0.7024846676236215
1730865964.2834716,-1.775434136390686,1.1180026531219482,-9.734968185424805,-0.3359497005107064,-0.3181656959483824,-10.65905108673485,1.112126349556665,5.900896168844943,0.585240447621548
1730865964.3334875,-1.775434136390686,1.1180026531219482,-9.734968185424805,-0.32434162291879154,-0.3136754149950275,-10.66593085963227,1.1149977480692566,5.907719346358858,0.9066559353494521
1730865964.3334875,-1.7961090803146362,1.0978853702545166,-9.74190616607666,-0.31153222187041696,-0.3103345794706969,-10.670428846424649,1.1149924599954584,5.90769526183349,0.9064944109389513
1730865964.3834748,-1.8024729490280151,1.096219539642334,-9.761283874511719,-0.2985730946492533,-0.3080918053492448,-10.671949523992378,1.1138151667713734,5.903642814408909,0.868605444788025
1730865964.4334664,-1.8024729490280151,1.096219539642334,-9.761283874511719,-0.2864257833980732,-0.30683993222556427,-10.670186932504716,1.1156204748515581,5.895571648654999,0.9142097396775166
1730865964.4334664,-1.8615046739578247,1.0873790979385376,-9.789366722106934,-0.2759139436224226,-0.3064184281248569,-10.665147595785403,1.1156168230271135,5.895534963228126,0.9140485730963441
1730865964.4834557,-1.8906596899032593,1.113863468170166,-9.796687126159668,-0.2677136580648103,-0.3066345875575404,-10.657133523081548,1.1147441111183924,5.889748721663381,0.8769842344869848
1730865964.533443,-1.8906596899032593,1.113863468170166,-9.796687126159668,-0.2623728669901813,-0.3072969319242379,-10.646694973778112,1.1132110038535104,5.883192782032718,0.8133768940894761
1730865964.533443,-1.8843986988067627,1.1354656219482422,-9.818350791931152,-0.26030530177459643,-0.3082520846090308,-10.6345571930356,1.113200761615329,5.883154593812636,0.8129535948975514
1730865964.5834439,-1.8520234823226929,1.1645499467849731,-9.829914093017578,-0.26173826554823165,-0.3094133821781022,-10.621539941449221,1.1110118546966616,5.875827294577179,0.7227332670594822
1730865964.6334517,-1.8085271120071411,1.176212191581726,-9.861815452575684,-0.26664534607882495,-0.31078039779448147,-10.608493479031239,1.115994275939689,5.884214541532998,0.915917463581354
1730865964.6834452,-1.7181299924850464,1.1627516746520996,-9.876137733459473,-0.27468664072061805,-0.3124384617405707,-10.596252743660648,1.115107555437418,5.879208188102036,0.877123482216162
1730865964.7333987,-1.6924563646316528,1.1392431259155273,-9.905946731567383,-0.2851704744197785,-0.31451618180275737,-10.585599845341818,1.116747168997305,5.869399294469945,0.9164976701572564
1730865964.7834475,-1.6710063219070435,1.1597439050674438,-9.915834426879883,-0.2970780748588148,-0.31711763297740003,-10.57722853690494,1.1159789235952404,5.862005045031799,0.8778822857759878
1730865964.8333828,-1.6623401641845703,1.1732234954833984,-9.910504341125488,-0.3091807986771642,-0.3202844700097929,-10.571705003814916,1.1144035097622087,5.8535174704614565,0.8106800369696259
1730865964.8834436,-1.664509892463684,1.188157320022583,-9.918722152709961,-0.32021197988036737,-0.3240108965690004,-10.569422053936485,1.1121286554140157,5.844616669217821,0.7206030482215499
1730865964.933397,-1.6572636365890503,1.1673773527145386,-9.908549308776855,-0.32903023480935545,-0.3282724801189729,-10.57056002479642,1.1171275279350446,5.853715231572265,0.9135753105831195
1730865964.9834638,-1.6591688394546509,1.130024790763855,-9.90406608581543,-0.3347387794244058,-0.3330204445391232,-10.575070371976802,1.1160202490158717,5.848363221255169,0.8733195722460886
1730865965.0333724,-1.6591688394546509,1.130024790763855,-9.90406608581543,-0.33675164982193123,-0.33814096721195036,-10.582683363608844,1.1182154961438695,5.836457738383305,0.9102823728358026
1730865965.0333724,-1.6374982595443726,1.1253414154052734,-9.897210121154785,-0.3348105010164435,-0.34342855269697203,-10.592938724973868,1.1182127703815892,5.836401537577907,0.9100958917308681
1730865965.0834715,-1.6542800664901733,1.1127800941467285,-9.890379905700684,-0.3289601291791254,-0.3486055305131296,-10.60523339859284,1.1188069012692112,5.8206344564665855,0.9079361229117908
1730865965.1333466,-1.6624219417572021,1.1077226400375366,-9.87459659576416,-0.31950599027868265,-0.35336323516008894,-10.618871945048118,1.1180095486274753,5.80977813216844,0.8669207052606072
1730865965.183495,-1.6803877353668213,1.1172305345535278,-9.872438430786133,-0.30697747210446025,-0.3573996655846664,-10.633112513147916,1.1164205171026027,5.797953753313163,0.7989495559404897
1730865965.2333581,-1.6642932891845703,1.1443051099777222,-9.851571083068848,-0.2920867169664474,-0.3604622759039991,-10.64721074065149,1.1192150868013049,5.810035562769962,0.9062995840263229
1730865965.2835011,-1.676072597503662,1.1518168449401855,-9.866317749023438,-0.2756621711523274,-0.3623996529493768,-10.660463854838678,1.1183235412481087,5.804002328858503,0.865725947608137
1730865965.3333554,-1.688549518585205,1.173169493675232,-9.839729309082031,-0.2585701040308655,-0.3631995766840992,-10.672254261693698,1.1200034752945534,5.790950322705763,0.9067368836237844
1730865965.3832452,-1.7406500577926636,1.1670211553573608,-9.839791297912598,-0.24166159966401107,-0.36299243413608356,-10.682082865555971,1.1193837520365246,5.781197855262178,0.8666723069428228
1730865965.4331973,-1.7592371702194214,1.1434805393218994,-9.807424545288086,-0.22575904022443968,-0.3620150952478204,-10.689579974246204,1.1209589107628943,5.784488010823943,0.9066698482955734
1730865965.4832108,-1.7919294834136963,1.1425443887710571,-9.786770820617676,-0.21165398408733882,-0.3605436720302072,-10.694494250854314,1.1205709790252736,5.777802726394499,0.8663401587995618
1730865965.5332005,-1.8289555311203003,1.1339582204818726,-9.734051704406738,-0.20008825264992017,-0.35882723454706805,-10.696664797637027,1.119675171773642,5.77029378873386,0.799842342507118
1730865965.5832748,-1.906752586364746,1.1017496585845947,-9.722082138061523,-0.1917330258730938,-0.35704831373012424,-10.69598535301404,1.1213806228468992,5.764783159467139,0.9061925146037852
1730865965.6332035,-1.9440362453460693,1.0649313926696777,-9.711519241333008,-0.187190452644465,-0.35529469986339884,-10.692386059730879,1.1208894122802942,5.756739133817297,0.8660656038871333
1730865965.6832056,-1.954621434211731,1.0486096143722534,-9.747272491455078,-0.18699291351091654,-0.3535305664951265,-10.685858685071196,1.1183702507125142,5.74328432733994,0.9060759081903854
1730865965.733109,-1.9300211668014526,1.0519165992736816,-9.785317420959473,-0.19155035669315756,-0.3515945431121496,-10.67652430818347,1.116625174765201,5.731635858354032,0.8646967437210876
1730865965.7832572,-1.8917458057403564,1.0662336349487305,-9.863221168518066,-0.20104303356899123,-0.3492492062080689,-10.66471812847395,1.114460487211556,5.719552704604516,0.7985221302524721
1730865965.8331983,-1.8261340856552124,1.0515388250350952,-9.917787551879883,-0.21530497673960738,-0.34626003990966525,-10.651059007041443,1.1117516514359356,5.706444473178504,0.7051083467762421
1730865965.8832433,-1.7325536012649536,1.0188775062561035,-9.973783493041992,-0.23373702426799392,-0.3424495133884453,-10.636469991773437,1.1171246836782363,5.732269952582072,0.9060414999699509
1730865965.9331484,-1.6438817977905273,1.0134690999984741,-9.997303009033203,-0.2552644673295832,-0.33769842357124896,-10.62212508501484,1.1158447112082932,5.727312063977619,0.8663332884498116
1730865965.9832146,-1.6068297624588013,1.0392526388168335,-10.010113716125488,-0.27836281959501685,-0.3319319757800825,-10.60932468669546,1.1149649558686816,5.708961587116733,0.9057314810596061
1730865966.0331244,-1.5930547714233398,1.1113393306732178,-9.983500480651855,-0.30118848505303775,-0.32515021207186323,-10.599325639648821,1.1130084580399844,5.698124408571142,0.8657907177367752
1730865966.0831685,-1.6152253150939941,1.2080261707305908,-9.939994812011719,-0.321811808776754,-0.3175182927121851,-10.593156395298493,1.1130547628689489,5.692087287926643,0.9053404409049397
1730865966.1329873,-1.6628810167312622,1.2549554109573364,-9.904179573059082,-0.3384943127463689,-0.3094695063115617,-10.591452197291503,1.1108895818258848,5.681806842514176,0.8655401803767548
1730865966.183079,-1.7237470149993896,1.2498868703842163,-9.840123176574707,-0.3499432017672234,-0.30173139350023326,-10.594349439218465,1.1078452049831693,5.67069092684748,0.7988617208168486
1730865966.232996,-1.7540323734283447,1.1959750652313232,-9.810408592224121,-0.35548849404054594,-0.29521047969681824,-10.601459588765515,1.111728465359363,5.675853691534837,0.9053928155447285
1730865966.282932,-1.7761001586914062,1.1373709440231323,-9.77637004852295,-0.35513796197048053,-0.2907652585084557,-10.611922701167488,1.1129750342868245,5.654817726157978,0.9050352226926122
1730865966.3329697,-1.7739691734313965,1.080772876739502,-9.734260559082031,-0.34950106470360265,-0.28897059278070425,-10.62452627205025,1.1118690437239447,5.64366559457484,0.8650648945139134
1730865966.3838212,-1.7863746881484985,1.0190056562423706,-9.72805404663086,-0.3396242113089259,-0.2899652918828486,-10.637856305443982,1.1134801168924005,5.6479058516052945,0.9039138479403737
1730865966.4338863,-1.7863746881484985,1.0190056562423706,-9.72805404663086,-0.3268010987476789,-0.29341857056359,-10.650458797537485,1.1124968274648195,5.639238819396309,0.8622178901473941
1730865966.4338863,-1.763444423675537,0.9958710074424744,-9.702902793884277,-0.3123984055262504,-0.2986119449201161,-10.660999459309618,1.1124788085281085,5.6391233357281045,0.8615074409827678
1730865966.4838243,-1.7485802173614502,0.980993390083313,-9.72205638885498,-0.2977023469816017,-0.30459441050376446,-10.668390609961747,1.110767375754968,5.630088862453263,0.7953274362029061
1730865966.5338418,-1.7739217281341553,0.9647471904754639,-9.749009132385254,-0.28379996665237434,-0.31034100611932713,-10.67187627662349,1.1142732207611334,5.631673647093674,0.9040013598635207
1730865966.5839176,-1.776928424835205,1.0090956687927246,-9.792386054992676,-0.27152793997381963,-0.3148857621351298,-10.671097932726962,1.1134599192848753,5.6252377258092015,0.864116554970315
1730865966.6337254,-1.7719019651412964,1.0469619035720825,-9.85647201538086,-0.2614799314151234,-0.3174514091346984,-10.666142842592894,1.1152888764285482,5.609082507308618,0.9040366728791621
1730865966.6840096,-1.742720127105713,1.0767850875854492,-9.918389320373535,-0.2540190840114266,-0.3175726496519121,-10.65755976524149,1.1147264930393441,5.598211288498821,0.8634715062238556
1730865966.733826,-1.7308605909347534,1.0838773250579834,-9.983128547668457,-0.24927040591436606,-0.3151612180141223,-10.646331444119685,1.1164379886580502,5.60464139446497,0.9037376652941788
1730865966.7839155,-1.7244657278060913,1.1198302507400513,-10.016728401184082,-0.2471181582088215,-0.310484521484946,-10.633793304955311,1.1160580407755345,5.598526895846745,0.8638608966748376
1730865966.8337839,-1.7244657278060913,1.1198302507400513,-10.016728401184082,-0.24723827205128376,-0.30408858895885854,-10.621489599958611,1.1172820998896664,5.582084625049571,0.9036504942308672
1730865966.8337839,-1.6922295093536377,1.1217204332351685,-10.01152515411377,-0.24915828297923187,-0.29669838954720523,-10.610975404811317,1.1172808396158591,5.58203749204085,0.9035027703187454
1730865966.8839517,-1.6949405670166016,1.091368556022644,-10.003122329711914,-0.2523138466526536,-0.2891000179932594,-10.603607938969356,1.1167400424251412,5.573202311428914,0.8637354438480151
1730865966.9338105,-1.6541407108306885,1.079060673713684,-9.937772750854492,-0.2560912250924897,-0.2820146782544478,-10.600376032634953,1.1183971136032729,5.559792375922756,0.9043293537604266
1730865966.9837117,-1.6971153020858765,1.0559735298156738,-9.882655143737793,-0.2598700293272279,-0.2759945227283669,-10.601775826432366,1.1179536232026055,5.548551400876144,0.8650497535065059
1730865967.0336804,-1.7184339761734009,1.0200108289718628,-9.829143524169922,-0.263089403192837,-0.2713615643008877,-10.607734887449384,1.1207131987958383,5.550877080633944,0.9048951656193654
1730865967.0837424,-1.7796587944030762,0.9819168448448181,-9.78043270111084,-0.26534370715726496,-0.2681821040542664,-10.61761369792223,1.1209695326919022,5.541366798150075,0.8649807638587987
1730865967.1336548,-1.7767276763916016,0.9837790727615356,-9.749464988708496,-0.2664676013268228,-0.2662710093672245,-10.630295621170786,1.1205593809134005,5.531325347970546,0.7991493731527542
1730865967.1838517,-1.7815088033676147,1.03798508644104,-9.75819206237793,-0.2665528893479614,-0.265252958121729,-10.644347327139194,1.1215405352220686,5.533022814499234,0.904543547340838
1730865967.2337184,-1.7815088033676147,1.03798508644104,-9.75819206237793,-0.26588531669296217,-0.2646907540091771,-10.658226488208769,1.1210182419776016,5.526072749637723,0.8648356388926327
1730865967.2337184,-1.7619465589523315,1.1153185367584229,-9.77953052520752,-0.2648442170005162,-0.2642270672021494,-10.670496525931604,1.1210127153599974,5.526025550293281,0.8644923701132158
1730865967.283684,-1.7306779623031616,1.2181533575057983,-9.794438362121582,-0.2638026197127405,-0.2637003071855401,-10.680000295729517,1.1198265181740488,5.518385229818285,0.7979578748343531
1730865967.3336196,-1.73723566532135,1.2622041702270508,-9.825244903564453,-0.26304289648721946,-0.2632403939902023,-10.685970741055979,1.1179762093605106,5.510054395257097,0.7044155065184494
1730865967.3837023,-1.7728885412216187,1.2536513805389404,-9.841352462768555,-0.2627214376123135,-0.2632956150303014,-10.688079143624613,1.1231174499826693,5.513284208607496,0.9050220572734713
1730865967.4336104,-1.7957485914230347,1.2329119443893433,-9.852080345153809,-0.2629065527850361,-0.264523531786787,-10.686423440201184,1.122582260766647,5.5066890524895955,0.8652326749755616
1730865967.4835632,-1.8130037784576416,1.187165379524231,-9.869086265563965,-0.2636505866807398,-0.2675842417858214,-10.68146313468889,1.124896264362872,5.489635149741226,0.9048006114728461
1730865967.5335834,-1.8130037784576416,1.187165379524231,-9.869086265563965,-0.26503350964327244,-0.27294291704771784,-10.673921073287335,1.1245332456853923,5.480408200298623,0.8648048346484539
1730865967.5335834,-1.8403993844985962,1.1168467998504639,-9.861696243286133,-0.2671619196520592,-0.28075145024093673,-10.664671454544486,1.1245301672370869,5.480365800839356,0.8645684139757673
1730865967.5836523,-1.8365612030029297,1.1099493503570557,-9.855596542358398,-0.27014997166191473,-0.2908095873061465,-10.654623643993405,1.128803384493065,5.4660628303539305,0.9043600791094345
1730865967.6335382,-1.8015090227127075,1.1125519275665283,-9.858222961425781,-0.27409192640539726,-0.30259199641279605,-10.644619522987085,1.1304284893271348,5.439854967166978,0.9038363557433307
1730865967.683565,-1.7416749000549316,1.0947171449661255,-9.853496551513672,-0.27900441976785295,-0.31534344272912596,-10.63536514457485,1.1307706847034675,5.422685880581279,0.8637156455272463
1730865967.7336876,-1.707353949546814,1.0896289348602295,-9.870576858520508,-0.28474364453310586,-0.3282060731499472,-10.627400461776306,1.1303982641893138,5.404439825152934,0.7958554508094265
1730865967.7836096,-1.6856294870376587,1.0882185697555542,-9.87708854675293,-0.29095350787374075,-0.3403278550615933,-10.621100461042944,1.1293212260644083,5.385806043745581,0.703292448976346
1730865967.833548,-1.6856732368469238,1.1131680011749268,-9.89499282836914,-0.29709145017061467,-0.35095029749170115,-10.616697654836898,1.1313621149472313,5.430597473747851,0.9035696652123326
1730865967.8835711,-1.6620116233825684,1.1451038122177124,-9.884458541870117,-0.3025181375207031,-0.3594929167869171,-10.614308083280878,1.1307713059323676,5.423489965489901,0.8634395732989308
1730865967.9334772,-1.6606212854385376,1.1801331043243408,-9.870457649230957,-0.3065987786037134,-0.3656299906135998,-10.613940998587069,1.1339039631745282,5.406420989767041,0.903194284011331
1730865967.9834714,-1.653437852859497,1.1797866821289062,-9.851520538330078,-0.3087825419656008,-0.3693321327973462,-10.615487087722853,1.1338442301995313,5.394471048114912,0.8632531262081973
1730865968.0334425,-1.6758476495742798,1.1824043989181519,-9.821070671081543,-0.3086632476774761,-0.37084360239128866,-10.618700386293682,1.13301472059651,5.381621271742212,0.7969122730842665
1730865968.0835173,-1.7237505912780762,1.1566532850265503,-9.81063461303711,-0.3060372567205322,-0.3705971450630405,-10.623193019107664,1.1314060947386027,5.36775156477883,0.7033926068931735
1730865968.1334534,-1.7996176481246948,1.1426687240600586,-9.782665252685547,-0.3009694083938462,-0.369099548237126,-10.628453542857038,1.1352777094001796,5.395603016401736,0.9028772989186432
1730865968.1835039,-1.8628112077713013,1.1092867851257324,-9.77823543548584,-0.29385676958819423,-0.36682374072386165,-10.633888490910362,1.1346090236482573,5.390250988716688,0.8627560243216006
1730865968.2334023,-1.8774480819702148,1.0935637950897217,-9.79169750213623,-0.2854452138421087,-0.36412990619174196,-10.63888296898125,1.1363885414277395,5.3726761268664545,0.9023164492356873
1730865968.2834685,-1.8534674644470215,1.108945369720459,-9.822172164916992,-0.27674559213337874,-0.3612320783359342,-10.642882618659353,1.1383190185415457,5.351508335916551,0.9017956101624125
1730865968.3333826,-1.7973651885986328,1.1064001321792603,-9.855999946594238,-0.2688439238395179,-0.3582203489285105,-10.645488148095854,1.1383587665164139,5.3368762482119285,0.8615508953674083
1730865968.3833833,-1.749116063117981,1.0848197937011719,-9.900351524353027,-0.2626673526420458,-0.35511227986449145,-10.646534778009123,1.1377361684918008,5.321402924264515,0.7949093264972473
1730865968.4334073,-1.749116063117981,1.0848197937011719,-9.900351524353027,-0.2588014845983656,-0.3518863580510464,-10.646127538426153,1.1364572602026206,5.304969381761138,0.7012704093223728
1730865968.4334073,-1.6887575387954712,1.0780417919158936,-9.944061279296875,-0.25742226767459275,-0.3484932031469034,-10.644617122466414,1.1364485631560337,5.304877964158042,0.7006904103718052
1730865968.4834383,-1.660573959350586,1.0784896612167358,-9.943114280700684,-0.25831875089750395,-0.34486962223240647,-10.642532109338633,1.139093040458718,5.338891919051671,0.9020061734802213
1730865968.5333052,-1.6808581352233887,1.0688133239746094,-9.9386625289917,-0.2609603223132726,-0.3409577612657454,-10.640492216363743,1.139884957558518,5.314536172872758,0.9016455348545566
1730865968.5834394,-1.6925055980682373,1.0484857559204102,-9.91047477722168,-0.2646161107676492,-0.3367144635349886,-10.639104678840985,1.1393123764533966,5.302942659463072,0.8615498263903894
1730865968.6333168,-1.7340891361236572,1.0040960311889648,-9.874168395996094,-0.2685209028361752,-0.3320985011003991,-10.638850667114927,1.1419335029561721,5.308730884573224,0.9017243843225234
1730865968.6832635,-1.7513102293014526,0.9668171405792236,-9.831408500671387,-0.27203134397203516,-0.3270344023165974,-10.639987252543929,1.1417946810576027,5.301839862898652,0.8619451766404096
1730865968.7332773,-1.7555934190750122,0.9132131338119507,-9.825553894042969,-0.2747228255725472,-0.3213702690040342,-10.642493569069506,1.1409699032118692,5.294108724563164,0.7953290855665526
1730865968.783267,-1.7511773109436035,0.8991687297821045,-9.808719635009766,-0.27640738476236026,-0.314856560072676,-10.646084657655217,1.142723714141,5.284925693446914,0.9016897992602574
1730865968.833155,-1.7669599056243896,0.9138646125793457,-9.811017036437988,-0.2770912608927644,-0.3071727674264602,-10.650286842497817,1.1421569234231248,5.275469932750774,0.8618147406911942
1730865968.8833268,-1.7647291421890259,0.9623916149139404,-9.817171096801758,-0.2769173709197788,-0.2980176268174807,-10.65454001511208,1.1408948636222518,5.265233418324606,0.7951590517606221
1730865968.9331322,-1.774051547050476,0.9942019581794739,-9.836055755615234,-0.27611704588208796,-0.28723822507941815,-10.65830038984227,1.1443743164653468,5.265161049609446,0.9016906070536421
1730865968.9830694,-1.7563841342926025,1.0308074951171875,-9.850176811218262,-0.27496539896769645,-0.2749352850623783,-10.661130210569421,1.1438659723542959,5.257253095391848,0.862042356296347
1730865969.0331802,-1.7418923377990723,1.052126407623291,-9.863423347473145,-0.2737310465322106,-0.261496412702106,-10.66275933410991,1.1426602824186005,5.248570827367877,0.7950441998194461
1730865969.0830772,-1.7634446620941162,1.1164103746414185,-9.859697341918945,-0.27262962303502003,-0.24756335832112306,-10.663105650782688,1.1407883478167202,5.2393557621408435,0.7022733655556908
1730865969.1331055,-1.7613576650619507,1.1499154567718506,-9.857751846313477,-0.2718079824441582,-0.23397329977494416,-10.662252443142558,1.1459084183939565,5.242627230391972,0.9013178281506911
1730865969.1830616,-1.7668864727020264,1.152148723602295,-9.854114532470703,-0.271360135206906,-0.22168647890593562,-10.660397220849605,1.1491791403191378,5.213462189777804,0.9010806409255465
1730865969.2330203,-1.7597706317901611,1.146106243133545,-9.849930763244629,-0.271343393527977,-0.21167590407636117,-10.657795728208562,1.1494800626390171,5.200004463168398,0.8609937533364612
1730865969.2830868,-1.7832831144332886,1.1196283102035522,-9.831854820251465,-0.2717837811287654,-0.20478254806448268,-10.654713859045119,1.1503314810181038,5.190598526069548,0.9008953896889946
1730865969.3329446,-1.7911642789840698,1.0579688549041748,-9.824539184570312,-0.27268763692469056,-0.20157330991660147,-10.65138652443897,1.1501821909928922,5.177338803166429,0.8608928241465258
1730865969.3830001,-1.793712854385376,1.0126854181289673,-9.833224296569824,-0.2740612562839838,-0.2022273928973585,-10.647990182439633,1.1547279697588253,5.175896802069847,0.8966365692358619
1730865969.432937,-1.7517714500427246,1.0202561616897583,-9.849518775939941,-0.2759114522332865,-0.20648434327391607,-10.644645524062282,1.1553668975231413,5.166535063574012,0.8555134653710406
1730865969.4829564,-1.7155946493148804,1.0792349576950073,-9.881749153137207,-0.2782047163490715,-0.21370787418964104,-10.641452096337568,1.1573943771746478,5.155659246114475,0.8932738680060243
1730865969.532836,-1.6973638534545898,1.1483683586120605,-9.885079383850098,-0.2808068761425442,-0.22307409169276754,-10.638532490581403,1.157881519370465,5.1447189394547586,0.8520414492750567
1730865969.5827827,-1.6990910768508911,1.1914793252944946,-9.90003490447998,-0.2834583149348227,-0.23380414080503417,-10.636054889167866,1.157671053689836,5.13312509289905,0.7840413439018435
1730865969.6338701,-1.7048535346984863,1.1952179670333862,-9.894710540771484,-0.2858133189649806,-0.24532619059110938,-10.634220397311847,1.1567139106179811,5.120580828182807,0.6864489446481007
1730865969.6838133,-1.7279154062271118,1.140415906906128,-9.889106750488281,-0.28752102493714254,-0.25729765610931465,-10.633226270556602,1.1550502763828603,5.107697478544322,0.5641345458686394
1730865969.7338028,-1.727390170097351,1.0967813730239868,-9.850716590881348,-0.28830756433952154,-0.26950011405837115,-10.633216633718082,1.1591972993742197,5.149566848287893,0.8887308902923287
1730865969.7837937,-1.7448590993881226,1.0502889156341553,-9.854978561401367,-0.28802881699326033,-0.2816892751384973,-10.63423075728551,1.1586807270568267,5.1458547169007955,0.8481327730455211
1730865969.8337355,-1.7205950021743774,1.0371060371398926,-9.837763786315918,-0.28668045379050056,-0.2934950431119292,-10.636174982364764,1.162591644211495,5.131566447721411,0.8814671909656442
1730865969.8838043,-1.7044275999069214,1.004769206047058,-9.838481903076172,-0.2843654821823747,-0.30441081185951524,-10.63883567087851,1.162870033733843,5.123301342983018,0.8382306648529814
1730865969.9337204,-1.6762114763259888,1.0011883974075317,-9.852025985717773,-0.28123186794174354,-0.3138475336398763,-10.641921805466698,1.1624422387666975,5.114415613376668,0.7693725724016865
1730865969.9836867,-1.6579885482788086,0.9812003374099731,-9.872231483459473,-0.27740869926974066,-0.3212117684645321,-10.64512490861279,1.1613184612035772,5.104683709262381,0.6736496410161164
1730865970.0337353,-1.6788157224655151,1.0039273500442505,-9.869159698486328,-0.2729733241016292,-0.3259859916605471,-10.64818247654841,1.1654495850300153,5.112939109224237,0.8775429755193741
1730865970.0836577,-1.7302862405776978,0.9892690777778625,-9.866273880004883,-0.26797553481360525,-0.3278025858284511,-10.650914868528934,1.1652234019938712,5.106890721304003,0.8364451294378518
1730865970.1336935,-1.7561147212982178,1.0005706548690796,-9.84821891784668,-0.26251455711113286,-0.3264955655357935,-10.653219551346698,1.1668425743718376,5.095433675761667,0.8747261870891032
1730865970.1836424,-1.7367112636566162,1.0267400741577148,-9.844929695129395,-0.25680532478990986,-0.3221208445716841,-10.655039223797365,1.162642859808369,5.075870429201657,0.8713709461329493
1730865970.2335315,-1.7292639017105103,1.0034098625183105,-9.847564697265625,-0.2511654621670878,-0.31495300108193036,-10.65633346387041,1.1600311897512623,5.061432473959033,0.8288934059457937
1730865970.283596,-1.7082710266113281,1.0320013761520386,-9.856908798217773,-0.24593408574603376,-0.3054554937065022,-10.657073769626312,1.1568285466434627,5.046367815287664,0.7603895871372514
1730865970.3336132,-1.7297741174697876,1.0265306234359741,-9.872505187988281,-0.24139175729488238,-0.2942269451131956,-10.657260410426346,1.1529609345046834,5.0303135788269975,0.6639023666620995
1730865970.3835676,-1.73284912109375,1.026072382926941,-9.879054069519043,-0.23772962979348464,-0.2819430478555618,-10.656944684052933,1.1620059202668438,5.069872781178674,0.8738925938963599
1730865970.4335475,-1.7507237195968628,1.0402652025222778,-9.899032592773438,-0.2350640700324534,-0.2692989218787106,-10.656241584869942,1.1606144294230423,5.064613726946899,0.8340755774086679
1730865970.4835615,-1.7441734075546265,1.067531943321228,-9.886956214904785,-0.23346250257533263,-0.2569621331610706,-10.655325615534258,1.1586390160325273,5.058704620723303,0.7676610583386779
1730865970.5335526,-1.7646288871765137,1.0706843137741089,-9.89332103729248,-0.23295694179171728,-0.24555090587769524,-10.654406545351465,1.1660742855018011,5.0549368771325085,0.8733395236564118
1730865970.583584,-1.8092890977859497,1.0768513679504395,-9.85693645477295,-0.23355665219107755,-0.23561921933533855,-10.653686849308343,1.1659630293778844,5.049982506138089,0.8337042696435484
1730865970.6335008,-1.8451093435287476,1.0780317783355713,-9.835271835327148,-0.23528276688501126,-0.22762773124825408,-10.653307680993079,1.165262232747015,5.044358534875367,0.7666550635987983
1730865970.6835158,-1.8778879642486572,1.068177342414856,-9.794242858886719,-0.23821322706369197,-0.22190812676646943,-10.653294969510537,1.1680574162248663,5.038747724612651,0.8737484071911236
1730865970.7335863,-1.8792659044265747,1.0619271993637085,-9.761591911315918,-0.24249790296454418,-0.2186336631406884,-10.653522942382942,1.1679147001845556,5.0322861115378545,0.8335847558756279
1730865970.7835293,-1.8781741857528687,1.0342954397201538,-9.767451286315918,-0.24832271959333044,-0.21779936829304025,-10.653713738713776,1.172066858407325,5.019097389902237,0.8741825471088048
1730865970.8334446,-1.8452465534210205,1.0448501110076904,-9.792409896850586,-0.25583478300258733,-0.2192172046793996,-10.653492364886336,1.1800747525573314,5.004852862861441,0.8741078472666695
1730865970.8834481,-1.7909832000732422,1.0523160696029663,-9.833215713500977,-0.2650510457410811,-0.22254169167565913,-10.652496334038393,1.1830791824614562,4.994228914549638,0.8344573343869407
1730865970.9334626,-1.7380390167236328,1.0403714179992676,-9.891928672790527,-0.2757701511116821,-0.2273282023284374,-10.650503094703819,1.1854350332091812,4.982928188154206,0.7676089922719338
1730865970.9834626,-1.6841381788253784,1.027842402458191,-9.939653396606445,-0.28751479049129214,-0.23309059000032767,-10.647531541237257,1.1870698845132683,4.9711322096121044,0.6746066658303551
1730865971.0333781,-1.598343849182129,1.0370818376541138,-9.97574520111084,-0.2995246314798322,-0.23933514866203182,-10.643886787599431,1.1836662510170057,4.997127592619593,0.874356401276907
1730865971.083417,-1.5712602138519287,1.0332560539245605,-9.993497848510742,-0.3107952417177867,-0.2455892061558535,-10.640130957633051,1.1841709712709696,4.992455810961806,0.8346159819011727
1730865971.133399,-1.550557255744934,1.039259433746338,-9.944525718688965,-0.32016796277406145,-0.25143654648027414,-10.636978674993962,1.1847951857372403,4.979443214615539,0.8745253577348356
1730865971.1834455,-1.5575945377349854,1.0153611898422241,-9.915091514587402,-0.32647979150307616,-0.25654299883443743,-10.635131497440447,1.1845792424563757,4.9708527612547915,0.8346079677731203
1730865971.233443,-1.6128383874893188,0.9890211224555969,-9.859123229980469,-0.3287480927350148,-0.2606534826466856,-10.635098364764849,1.1835390496385216,4.961593184872693,0.7678612774622372
1730865971.283348,-1.6128383874893188,0.9890211224555969,-9.859123229980469,-0.32634413223173897,-0.26356588816062004,-10.637073182091378,1.1816953790546532,4.951768682685789,0.6753296838282458
1730865971.283348,-1.700724482536316,0.9786924719810486,-9.800239562988281,-0.31911015195623327,-0.2651135412703189,-10.640906376936162,1.1816825301091756,4.95171068495851,0.67472555198821
1730865971.3333108,-1.7688379287719727,1.0146944522857666,-9.755945205688477,-0.30741011443998434,-0.26517976254794995,-10.646140865595747,1.1860576107770595,4.970168618503083,0.8746531496964111
1730865971.3833656,-1.8208271265029907,1.02140212059021,-9.763900756835938,-0.2921306356010185,-0.2637386603481916,-10.652073712144873,1.1885488442301704,4.951448163053996,0.8741405448938506
1730865971.433279,-1.8217395544052124,1.0340009927749634,-9.765320777893066,-0.27460667926641613,-0.2608942330409155,-10.657857152548994,1.1885907076283955,4.941989540370889,0.8338642669923662
1730865971.48329,-1.782911777496338,1.0537012815475464,-9.80487060546875,-0.2564366982542186,-0.256889133642645,-10.662648389381173,1.190383452187349,4.937954934368459,0.8740381031160712
1730865971.5332751,-1.7525897026062012,1.0612386465072632,-9.85537052154541,-0.23921896200163437,-0.2520838145659335,-10.665770360568814,1.190552194378652,4.928586510023342,0.8337594007797583
1730865971.5832372,-1.7406247854232788,1.1116029024124146,-9.87990665435791,-0.22430109095397877,-0.24692741686442146,-10.666841078310735,1.1901433433569408,4.918701385152857,0.7674312676880515
1730865971.633259,-1.770524501800537,1.115897536277771,-9.90289306640625,-0.21263473138232292,-0.24193415240406443,-10.665834137037155,1.1891790628680952,4.908072032034462,0.6733769903755177
1730865971.683197,-1.7900440692901611,1.1545110940933228,-9.899785995483398,-0.2047643542395578,-0.23765922924685856,-10.663049987113986,1.1926430838747546,4.929324200996548,0.8742946868464707
1730865971.7331789,-1.8505797386169434,1.163799524307251,-9.896068572998047,-0.2009090440230345,-0.2346627621939547,-10.65901809037169,1.1944283650845513,4.9121218402483775,0.8739458551286785
1730865971.783353,-1.8653908967971802,1.1624170541763306,-9.862640380859375,-0.20107446302526819,-0.23346161876220234,-10.654366610498094,1.194551947252184,4.903842712863472,0.8336673360889871
1730865971.8332534,-1.84821355342865,1.119704008102417,-9.858514785766602,-0.20513544894653102,-0.23446362566637485,-10.649692410055923,1.1941656117636477,4.8949967232685365,0.7667593818202714
1730865971.8832345,-1.8270213603973389,1.114829421043396,-9.805334091186523,-0.2128478286813795,-0.23788554138449108,-10.645458465899164,1.1932620972822656,4.885613306768666,0.6737652882504701
1730865971.9334147,-1.793975830078125,1.0453251600265503,-9.822367668151855,-0.2238068200015014,-0.243685049130369,-10.641933605967427,1.1967912773436935,4.901603901425707,0.8741684817170263
1730865971.9832606,-1.7209333181381226,1.0137131214141846,-9.828447341918945,-0.2374011553748089,-0.25152695428110416,-10.639189333401223,1.1966050121290461,4.897035173457437,0.8344138084710809
1730865972.0332992,-1.6012029647827148,0.9719731211662292,-9.870986938476562,-0.25277141200075015,-0.260786039106057,-10.63716284072186,1.1998737985625287,4.8828397807577755,0.874542937552829
1730865972.0832047,-1.5673483610153198,0.9927900433540344,-9.874567985534668,-0.2687738424961425,-0.27060562448461645,-10.63575411310233,1.2002940214748798,4.873663361184953,0.8349234296481598
1730865972.133241,-1.5617990493774414,1.0194441080093384,-9.915316581726074,-0.2840148351868166,-0.28002813617151423,-10.634904227203574,1.2021783096953007,4.868930346996518,0.8746460955426667
1730865972.1831715,-1.576568603515625,1.0584110021591187,-9.886327743530273,-0.29701217881326847,-0.2881718632327188,-10.634627516701732,1.2024244659590442,4.860035052019009,0.8349718815595187
1730865972.2332606,-1.631142258644104,1.0728533267974854,-9.91388988494873,-0.30643481679519735,-0.2943898523434574,-10.63499655437509,1.2019116606121516,4.850285084881521,0.7679035288245083
1730865972.283102,-1.7173388004302979,1.079965353012085,-9.86382007598877,-0.31133778136788254,-0.29835203218783246,-10.636095768447758,1.202863171161163,4.857662348748044,0.8749376189650923
1730865972.3331964,-1.7173388004302979,1.079965353012085,-9.86382007598877,-0.3113341687106719,-0.30003772764656145,-10.637963962009891,1.2021438876801687,4.852291005163059,0.8348840826621747
1730865972.3331964,-1.82231605052948,1.1077828407287598,-9.826631546020508,-0.30665351257153395,-0.29967387625096825,-10.640542789847597,1.202138805075739,4.852264806964704,0.834639946366162
1730865972.383157,-1.8533849716186523,1.1184059381484985,-9.800682067871094,-0.2980933817325551,-0.29766769820680483,-10.643647375733613,1.2082868137117266,4.838727442278967,0.8749207963851785
1730865972.4330823,-1.8954871892929077,1.0949914455413818,-9.761144638061523,-0.28691096109291103,-0.2945451491324508,-10.646960051759255,1.2092644768525196,4.829418487487499,0.8351527542580088
1730865972.4830406,-1.8989217281341553,1.0262970924377441,-9.779446601867676,-0.27465993353105256,-0.2908613984365109,-10.650048322493218,1.2095383041087533,4.819446481985035,0.7692198818176897
1730865972.5331557,-1.8536771535873413,1.0082930326461792,-9.78778076171875,-0.26297177292550783,-0.2870739486146029,-10.652426629995581,1.2091331810403398,4.8085476987183355,0.6749074131078426
1730865972.5831227,-1.783974289894104,1.004658818244934,-9.84261703491211,-0.2533058689059463,-0.28344302112069786,-10.653662635655188,1.2098445056957068,4.828316608898328,0.8749368249415652
1730865972.6330674,-1.783974289894104,1.004658818244934,-9.84261703491211,-0.24672107268092233,-0.28002443496905416,-10.653488456595795,1.2149474653059251,4.7993416864851675,0.874517905181477
1730865972.6330674,-1.7528783082962036,1.0574264526367188,-9.855023384094238,-0.24375304278060494,-0.27674418727603006,-10.651862267242258,1.2149657010497672,4.799210085166314,0.8743310987843708
1730865972.6830595,-1.7219197750091553,1.080628514289856,-9.910914421081543,-0.24442308069045654,-0.27350932345724605,-10.648964469983136,1.216644432566856,4.789915297234271,0.8807310381903695
1730865972.7331333,-1.704637885093689,1.1132997274398804,-9.919187545776367,-0.24831706476502163,-0.2703108045327237,-10.645168524438816,1.2181154650696695,4.775441550995934,0.8434543286664644
1730865972.7830756,-1.6880874633789062,1.1303209066390991,-9.951221466064453,-0.2546891861753036,-0.26727613740545964,-10.641006747483637,1.218940803741211,4.760463557158294,0.7800043386101847
1730865972.8330402,-1.6892642974853516,1.1353075504302979,-9.929433822631836,-0.26258681717203763,-0.2646605278208673,-10.637107977697582,1.2191227476485125,4.7447552978416185,0.6896666633580859
1730865972.8830557,-1.6928538084030151,1.1137971878051758,-9.93874454498291,-0.27098730104982816,-0.2627900642125106,-10.634102976179527,1.21863843359892,4.728437000825614,0.5730661006653016
1730865972.9329422,-1.7044410705566406,1.0738990306854248,-9.894899368286133,-0.2789280673508081,-0.2619698015746904,-10.63252153088391,1.2173299717619748,4.786965918285515,0.8812438122992713
1730865972.9829872,-1.7288248538970947,1.0470776557922363,-9.854463577270508,-0.28561472453060666,-0.2623801553062177,-10.632698893217253,1.21675913781156,4.783502705066527,0.8422179632149758
1730865973.0330038,-1.782965898513794,1.0143132209777832,-9.822835922241211,-0.2905047530386837,-0.26400113500826944,-10.634702142039412,1.2154571668603975,4.779337225262567,0.7759943876467623
1730865973.082945,-1.8363450765609741,1.0109021663665771,-9.767317771911621,-0.29337408793411324,-0.2665947066547473,-10.638296671747,1.2196222128841374,4.770534720698087,0.8850275022646775
1730865973.132889,-1.8869452476501465,0.9894759058952332,-9.760782241821289,-0.2943583496486292,-0.26974545857179166,-10.642966324436397,1.2193142318124197,4.764144659970997,0.8463559004387322
1730865973.1829495,-1.8473352193832397,1.0347927808761597,-9.739604949951172,-0.2939308891733772,-0.2729424689753403,-10.647986006255092,1.218275789757889,4.757116629756906,0.7814096809456997
1730865973.232936,-1.816389560699463,1.0465000867843628,-9.774761199951172,-0.29277893035413655,-0.2756882397976765,-10.652540741173253,1.2215196661551253,4.757846945908663,0.8873770452099985
1730865973.2828844,-1.783855676651001,1.0769073963165283,-9.79489803314209,-0.2916060110238064,-0.27760872567185535,-10.655872266579955,1.223947969722443,4.741603131590379,0.8908543549261987
1730865973.3328242,-1.7646828889846802,1.053520679473877,-9.82564926147461,-0.29095673591016397,-0.2785174657244591,-10.657417878513971,1.2239716030069168,4.733081310489003,0.8524551559147174
1730865973.3828576,-1.7351040840148926,1.0145779848098755,-9.854711532592773,-0.29112743348219944,-0.27839972674741953,-10.656902822667607,1.2232675651038882,4.723869610816275,0.7874397309414018
1730865973.432912,-1.683071255683899,0.9749651551246643,-9.900102615356445,-0.2921466512430721,-0.27732585970989915,-10.65437346064206,1.2218207461316508,4.7138842489688555,0.6949817600106448
1730865973.4828544,-1.6453770399093628,0.9578630328178406,-9.910890579223633,-0.29378433763154377,-0.27534950292459864,-10.650182740255765,1.2196640880040452,4.703342890952911,0.5772384560410181
1730865973.532847,-1.649688720703125,0.9565423130989075,-9.945751190185547,-0.29558587624754784,-0.27245503828917117,-10.64493360258044,1.216750075624781,4.69202146630691,0.4317756337478748
1730865973.5828483,-1.6442580223083496,0.9954084157943726,-9.940225601196289,-0.29695634570383495,-0.268579313848037,-10.639387340428534,1.2251909986809852,4.728522650937581,0.8890937982678607
1730865973.632834,-1.6689367294311523,1.0497392416000366,-9.937795639038086,-0.29728725960916125,-0.26369431058984,-10.634351982930298,1.2244414468994087,4.724380765317951,0.8492763209970333
1730865973.682793,-1.6859419345855713,1.0834542512893677,-9.915569305419922,-0.29608321272196003,-0.2579109207443796,-10.630563468450243,1.228732496505912,4.716351263933013,0.8888885501877197
1730865973.7328548,-1.71327543258667,1.1262437105178833,-9.893120765686035,-0.2930571466349661,-0.25154678453645307,-10.628577553480305,1.2287318699036451,4.711019445939108,0.8487426395102218
1730865973.782775,-1.7269731760025024,1.1472166776657104,-9.872698783874512,-0.28817949537269416,-0.24512564334472964,-10.628694235522,1.2280024065423099,4.705090071958252,0.782131906481438
1730865973.8327966,-1.735066294670105,1.1401067972183228,-9.833118438720703,-0.2816744878979238,-0.23931382003254864,-10.630925046487295,1.2292708943368476,4.6955484896095845,0.8891625843570856
1730865973.8827624,-1.717958927154541,1.1496965885162354,-9.815305709838867,-0.27396577045171944,-0.23481302741485777,-10.634998988529272,1.2286513365042424,4.688129462696981,0.8495695558360109
1730865973.9327734,-1.6673269271850586,1.18075430393219,-9.812365531921387,-0.26557708582932466,-0.23225098868497623,-10.640405740495908,1.231664493292939,4.684072374444324,0.8896622475085502
1730865973.9827108,-1.718985915184021,1.200554609298706,-9.816550254821777,-0.2570178714205361,-0.23211959433555251,-10.646481464826184,1.2316755322213746,4.67676601557118,0.8499023119676553
1730865974.032757,-1.777178168296814,1.1863377094268799,-9.796299934387207,-0.24873058435931214,-0.23475676026791117,-10.652517396164765,1.2328295699695673,4.672753236977914,0.8896982950883768
1730865974.0837018,-1.8267006874084473,1.1075407266616821,-9.833602905273438,-0.24113929026895464,-0.24031418146251018,-10.657855522383475,1.2326362777641109,4.665588677613887,0.8487740018892391
1730865974.1328225,-1.8129234313964844,1.0744457244873047,-9.833734512329102,-0.23471810430168605,-0.24868042298531623,-10.661965765857065,1.231862468108682,4.658059266101446,0.7829185719699975
1730865974.1827915,-1.7848941087722778,1.034195899963379,-9.854951858520508,-0.22997286719027998,-0.2594118166006771,-10.66450719718464,1.23050817853985,4.649824365890591,0.6901003054954944
1730865974.2327878,-1.7069191932678223,1.0519814491271973,-9.866008758544922,-0.22732323634403626,-0.27174887317863033,-10.665356696878009,1.2346620512860393,4.66002549944886,0.8899663185609089
1730865974.2827125,-1.7330290079116821,1.0380792617797852,-9.891645431518555,-0.2269618196073716,-0.2847299196637166,-10.664603294355455,1.2343575120600505,4.654939174735382,0.8500302301758361
1730865974.333654,-1.723747968673706,1.0607243776321411,-9.90710735321045,-0.22879376160707568,-0.2973478600265683,-10.662523745035354,1.2358532516370186,4.64242347939612,0.8896238857030654
1730865974.383695,-1.6333900690078735,1.1029419898986816,-9.92292594909668,-0.23247265386075736,-0.3086993887416411,-10.659544897160583,1.2355194833837442,4.634600147721503,0.8491406084137162
1730865974.4336932,-1.7185343503952026,1.0912126302719116,-9.885492324829102,-0.23745889918199614,-0.3181051236195259,-10.656183803954294,1.234593912837975,4.6259703627455115,0.7817552672389826
1730865974.4835937,-1.7632367610931396,1.0811116695404053,-9.884361267089844,-0.24311047172915323,-0.325167602761979,-10.652957865742867,1.2376473538322312,4.630414636991728,0.8899766141019694
1730865974.533778,-1.7660847902297974,1.066494345664978,-9.817702293395996,-0.24884162895177012,-0.3297447580586238,-10.650282164520245,1.2372768840431845,4.62471540285032,0.8495687009581873
1730865974.583637,-1.76335608959198,1.0730304718017578,-9.786660194396973,-0.25424788544994603,-0.33188036420178946,-10.648380299972683,1.2389033043355908,4.6129826201210955,0.8897352792352734
1730865974.6336203,-1.755035638809204,1.0663394927978516,-9.755593299865723,-0.25911351142401595,-0.3317467854548871,-10.647229429991276,1.2385667920247085,4.604242011581911,0.849635048870583
1730865974.683558,-1.7797462940216064,1.05051851272583,-9.727736473083496,-0.26335778465901843,-0.3296069529767459,-10.646562392506134,1.2398156867822516,4.598220767529098,0.8898889895867423
1730865974.7336075,-1.7905184030532837,1.0506978034973145,-9.733460426330566,-0.2669953274840958,-0.3257772016415425,-10.64592872495672,1.2393679885257596,4.589086001793798,0.8498006019315946
1730865974.7834837,-1.7196898460388184,1.0897799730300903,-9.776664733886719,-0.27010889779119784,-0.32059951851279644,-10.64480150596875,1.239822872120498,4.579018180829275,0.8898351862163899
1730865974.8335426,-1.7713710069656372,1.1019127368927002,-9.835098266601562,-0.27279796978437587,-0.3144475810294754,-10.642722593968799,1.2389645025798675,4.570160185844031,0.8499086044731636
1730865974.8835092,-1.8028919696807861,1.1387075185775757,-9.852670669555664,-0.2751408630168816,-0.3077529761999518,-10.639448006831355,1.2366133984439058,4.557094341838671,0.8893746366427927
1730865974.9336016,-1.8285831212997437,1.182466745376587,-9.922863006591797,-0.2772283784192497,-0.30102072915524314,-10.635031847703615,1.2345323069488754,4.545806482690278,0.8493082818121357
1730865974.9834633,-1.8077365159988403,1.2220063209533691,-9.935257911682129,-0.2792146145315226,-0.2948316777761505,-10.629832019969419,1.2317517450236364,4.533762881161625,0.7825405518471289
1730865975.0335941,-1.8268399238586426,1.19771409034729,-9.958266258239746,-0.28130788860407263,-0.2898223615891786,-10.62445536931451,1.2282711854743102,4.520997012328094,0.6891964885223243
1730865975.0834959,-1.7553056478500366,1.1827597618103027,-9.942646980285645,-0.28371030858148677,-0.2866105154645471,-10.619650329307449,1.2241174587520716,4.507614470374529,0.5702560642056398
1730865975.1334362,-1.7702215909957886,1.131227731704712,-9.93575382232666,-0.28654251914422274,-0.28567198120251247,-10.616166455831458,1.2344814438205562,4.544869339169259,0.8893178436646696
1730865975.1834197,-1.7350672483444214,1.0756663084030151,-9.8892240524292,-0.2897884892361885,-0.2872178367346211,-10.614615347273672,1.2328346282580323,4.53979736503523,0.849325510883397
1730865975.2334309,-1.6980245113372803,1.014807939529419,-9.849322319030762,-0.2932836030214818,-0.29110932687859653,-10.61535476689663,1.2362736029932118,4.520285959679256,0.8890125681484158
1730865975.2833824,-1.74787175655365,0.9247363805770874,-9.83838939666748,-0.29673815403964543,-0.29682312347212125,-10.618416126197895,1.2356103357582902,4.509011146284487,0.8490488142071563
1730865975.3333728,-1.7218077182769775,0.9190731048583984,-9.835184097290039,-0.29979906814496055,-0.3034750063197048,-10.62350655454907,1.2373778267035005,4.501813565700586,0.8887403509800712
1730865975.3833628,-1.710154414176941,0.9689270853996277,-9.809120178222656,-0.30213049318785323,-0.30993459102430587,-10.630085057469593,1.2368049300696105,4.490496756340556,0.848835101385044
1730865975.4333987,-1.6837084293365479,0.9878154993057251,-9.841340065002441,-0.30345315852383875,-0.3150456932831318,-10.6374694260909,1.2381999462479678,4.493801565318332,0.8886390709814954
1730865975.483403,-1.650559425354004,1.0081390142440796,-9.836055755615234,-0.30353425731459205,-0.31786618225785396,-10.644947138566932,1.2374388024670508,4.487585000041756,0.8485274322398462
1730865975.5333564,-1.6746716499328613,1.0141290426254272,-9.857386589050293,-0.302172209939618,-0.31781377418189205,-10.651879843402554,1.2483561091448494,4.478342707004727,0.8886058371362633
1730865975.5833364,-1.6851810216903687,1.004333734512329,-9.852632522583008,-0.299215307266936,-0.31469351133501405,-10.657776969095675,1.2566231846917881,4.473256179068265,0.8887860205127942
1730865975.6333683,-1.5812643766403198,1.044628381729126,-9.859695434570312,-0.2945951620443953,-0.30865126041408814,-10.66232534833086,1.2607428888255843,4.4666922497554475,0.8488473625695852
1730865975.683324,-1.7228114604949951,1.0327458381652832,-9.875347137451172,-0.28832704128388953,-0.30010600752217875,-10.66538671975027,1.2641115888940964,4.459415527830378,0.7826869132939185
1730865975.7333395,-1.8088876008987427,1.0366780757904053,-9.752493858337402,-0.2805432626897133,-0.28967764591605716,-10.666961258017796,1.2668071688080085,4.451296759802883,0.6887049717242344
1730865975.7832942,-1.8492463827133179,1.0879586935043335,-9.823813438415527,-0.27161840672428955,-0.27810744201974413,-10.667105153115063,1.2566496888415915,4.45870085381937,0.8885250627433027
1730865975.8332365,-1.8476037979125977,1.0733569860458374,-9.768607139587402,-0.26224713691719687,-0.26619352212775427,-10.665859372518426,1.2568362887795437,4.453073987197173,0.8484016699876519
1730865975.8832293,-1.7965223789215088,1.0459142923355103,-9.815152168273926,-0.2533457788687893,-0.25473265799358213,-10.663253104918557,1.2616766058136302,4.439449003857493,0.8882647209812841
1730865975.933179,-1.7969716787338257,1.0425485372543335,-9.871280670166016,-0.2458384061201563,-0.24443165483520587,-10.659359688514908,1.265558296843747,4.435147155004949,0.8879488858218607
1730865975.9832678,-1.7303887605667114,1.079399585723877,-9.879664421081543,-0.24045351969486706,-0.23582556632293378,-10.654370004168761,1.2667132043182296,4.4298846476496685,0.8478003318301496
1730865976.0331671,-1.6776671409606934,1.154143214225769,-9.950304985046387,-0.23758865743956536,-0.22927795034295909,-10.648647993323063,1.2672686028303273,4.424049419748867,0.7810875341139464
1730865976.0831647,-1.6643404960632324,1.210000991821289,-9.945380210876465,-0.23724254273025608,-0.22506648327257844,-10.642733136733256,1.2665714416010765,4.416373251214579,0.8877815788265053
1730865976.1330926,-1.6949403285980225,1.204162359237671,-9.977410316467285,-0.23903904808873616,-0.2234725110930201,-10.637291929953644,1.2665477728371564,4.409002118134687,0.8478966311860705
1730865976.1830785,-1.715383529663086,1.1504161357879639,-9.959513664245605,-0.24236084097408406,-0.22477706390881086,-10.633030577838564,1.2691737236403815,4.396672717690166,0.8875240910350061
1730865976.2331274,-1.7309974431991577,1.0735752582550049,-9.935346603393555,-0.24653000435141603,-0.22913934250760307,-10.630584663843866,1.271425336279358,4.391782224734433,0.8824570184712204
1730865976.2831085,-1.751832365989685,1.0295008420944214,-9.867960929870605,-0.2509499929922685,-0.23643453001170295,-10.630400056103579,1.2720120128267842,4.3847239322587255,0.8407554952490852
1730865976.333172,-1.7894331216812134,1.0231446027755737,-9.804779052734375,-0.2551857321189065,-0.24616557970557768,-10.632616979431777,1.2719733594889246,4.376940256826289,0.7716612234550038
1730865976.3830342,-1.7807178497314453,0.9962002635002136,-9.770801544189453,-0.25899896472762696,-0.25750568899423804,-10.636992759710946,1.2724690952092204,4.3784128836263205,0.881445792436242
1730865976.4331918,-1.7807178497314453,0.9962002635002136,-9.770801544189453,-0.262336940453002,-0.26942980080663886,-10.642913889346987,1.2720864108233763,4.372895994173771,0.840556833288546
1730865976.4331918,-1.7861945629119873,0.9779112339019775,-9.746031761169434,-0.2652758256873332,-0.2808609520822929,-10.649508710592833,1.2720812796996257,4.37285406540256,0.8401672102955273
1730865976.4830334,-1.7849152088165283,0.9251965284347534,-9.751386642456055,-0.2679553602793655,-0.2907849827780554,-10.655805771888616,1.271052753324198,4.366766444596621,0.7738916172796706
1730865976.5330846,-1.784656286239624,0.8895010352134705,-9.759675979614258,-0.2705320841773976,-0.2983083064509764,-10.660880093101024,1.2693336769999348,4.359829182335839,0.6797960033928986
1730865976.583109,-1.7826882600784302,0.8732828497886658,-9.80506706237793,-0.2731474199334365,-0.30267340360659223,-10.663978335736386,1.2756756766141637,4.363471073938045,0.8786985543249662
1730865976.6331296,-1.7952266931533813,0.8966658711433411,-9.827330589294434,-0.2759079332901963,-0.3032868835435859,-10.66462568402085,1.2754610832450939,4.358157419196723,0.8376315198424136
1730865976.6830444,-1.813761830329895,0.8992002606391907,-9.887080192565918,-0.2788851976529525,-0.29978530650280494,-10.662697601033134,1.2745628932812674,4.352172842780321,0.7707512091884003
1730865976.7331476,-1.7603381872177124,1.0126773118972778,-9.927574157714844,-0.28212369614201566,-0.29211892108169846,-10.65844345090613,1.276796429806459,4.347824534603988,0.8756977960214495
1730865976.7829556,-1.7341268062591553,1.0816811323165894,-9.964619636535645,-0.2856186196356672,-0.28064077469437243,-10.65246217364441,1.2814940768816134,4.331523869709913,0.8729593471919481
1730865976.8330567,-1.752147912979126,1.1004984378814697,-9.94594955444336,-0.2892701286039051,-0.26616527213446034,-10.645620794392627,1.2822833419114215,4.322686300159692,0.8315115051992295
1730865976.882986,-1.7777737379074097,1.0999888181686401,-9.936602592468262,-0.29288562173702104,-0.2499117443938017,-10.638908720422409,1.284773570566337,4.314969957356639,0.8747008815953226
1730865976.9328961,-1.7552416324615479,1.0999363660812378,-9.89273738861084,-0.29624649937234815,-0.23331774569810299,-10.633257317285233,1.2858201596609404,4.303874427064512,0.8349081695501416
1730865976.9829338,-1.7443795204162598,1.0299259424209595,-9.859451293945312,-0.2991646905415086,-0.21780273904321068,-10.62937627290827,1.2861195373956036,4.29227322849471,0.7688244110723224
1730865977.0329692,-1.738450288772583,0.9913241267204285,-9.821126937866211,-0.3014868956906423,-0.20454432991695387,-10.627643516822982,1.2865412061550974,4.306326105413853,0.874703237627256
1730865977.0829315,-1.72636079788208,1.0042277574539185,-9.780694961547852,-0.3030805569678074,-0.19431395264729726,-10.62806287529283,1.2863266027377351,4.30117574883063,0.8349751490160132
1730865977.1329029,-1.7019740343093872,1.0301756858825684,-9.777835845947266,-0.3038275171929985,-0.18743996067663599,-10.630288594531237,1.2890247935775123,4.288465063594178,0.8746246576082889
1730865977.1829247,-1.7100615501403809,1.0236696004867554,-9.772236824035645,-0.3036202821047004,-0.183896287282545,-10.633711461669023,1.2890889211918959,4.27988655466149,0.8347313831489899
1730865977.2328663,-1.6848812103271484,1.0475960969924927,-9.79813289642334,-0.30236444300944354,-0.18342588312519328,-10.637591837841262,1.2883729461831652,4.27064318916133,0.7665152932049825
1730865977.282879,-1.6928070783615112,1.0816024541854858,-9.839337348937988,-0.299990025667759,-0.18564261707858123,-10.641211167122842,1.2869527485275125,4.261349626517794,0.6752824841086406
1730865977.3328586,-1.6839771270751953,1.121504783630371,-9.875795364379883,-0.2964645413611136,-0.19012413960260474,-10.644013551868458,1.2905386723197825,4.278620230308198,0.8746525501578547
1730865977.382834,-1.7058701515197754,1.1514695882797241,-9.901827812194824,-0.291808967477573,-0.19649788879029811,-10.645705416602514,1.2899424765577692,4.274562639203277,0.8347346191657061
1730865977.4328403,-1.718064785003662,1.188222885131836,-9.899704933166504,-0.2861200346476702,-0.20449622532178202,-10.646281357600323,1.290660892336343,4.259658855771554,0.8746557991813537
1730865977.4828014,-1.7559535503387451,1.210862636566162,-9.879318237304688,-0.27959482734175567,-0.21397132184749046,-10.645968101426478,1.2898131935449888,4.250979125778357,0.8346378374891068
1730865977.5329611,-1.7530285120010376,1.21330988407135,-9.857230186462402,-0.27254549964044605,-0.2248746233632084,-10.645110950014898,1.2911389714758876,4.242899952136265,0.8745334268352137
1730865977.5827668,-1.771667242050171,1.2144695520401,-9.824956893920898,-0.26538526720338707,-0.23720470992568712,-10.644048455822794,1.2904108844673738,4.23193688387751,0.8347852349091208
1730865977.6327608,-1.7904527187347412,1.173574447631836,-9.815088272094727,-0.2585858092225844,-0.25093303092791974,-10.643017547637642,1.2890286501466925,4.220322319693388,0.7684191268948783
