Timestamp,IMU_Linear_Acc_X,IMU_Linear_Acc_Y,IMU_Linear_Acc_Z,Filtered_X,Filtered_Y,Filtered_Z,Pose_X,Pose_Y,Pose_Z
1730865946.8840554,-1.6525182723999023,1.072100281715393,-9.886634826660156,-0.0006987746357280546,-0.0006320540722909102,-0.08426360942584357,0.8886852172572209,3.8299187311251837,0.8989994504622946
1730865946.9339588,-1.6460669040679932,1.1705397367477417,-9.888028144836426,-0.000971494971192513,-0.0009685262443995407,-0.11318848295563975,0.8944900524985023,3.8307738177538138,0.898998799867569
1730865946.9839773,-1.5448205471038818,1.3515266180038452,-9.916738510131836,-0.0013136595318992313,-0.0014218965147704784,-0.14826660156377136,0.8942465413289933,3.8309790826553414,0.8989985928666806
1730865947.0338826,-1.4505513906478882,1.3764179944992065,-9.885746955871582,-0.0017341578932200043,-0.0020133629091888317,-0.1900523698644632,0.8884707524789854,3.831606532287834,0.8989977670380159
1730865947.083904,-1.4505513906478882,1.3764179944992065,-9.885746955871582,-0.0022403858414703067,-0.0027661378892042884,-0.23906139955515765,0.8753130904775374,3.8379802653137123,0.8989688928395739
1730865947.083904,-1.483825922012329,1.3574954271316528,-9.83907413482666,-0.002837476613246572,-0.003705612821503856,-0.29576510609231005,0.8751018905214861,3.8380825681301944,0.8989681172222753
1730865947.1338828,-1.5220105648040771,1.4168083667755127,-9.791072845458984,-0.003528243808867749,-0.004858834876999762,-0.3605860824140336,0.8341257387701929,3.8631022560155324,0.8983334397225793
1730865947.1838188,-1.466209888458252,1.5062932968139648,-9.781386375427246,-0.004313615756445549,-0.006254000776716829,-0.4338942382272286,0.7880491824897188,3.8883758501618395,0.8966987131368186
1730865947.2339377,-1.6475468873977661,1.4503509998321533,-9.745635986328125,-0.005193131109439698,-0.00792030249619837,-0.5160037926182254,0.742044978869321,3.9135854700968977,0.8938770424675571
1730865947.2838902,-1.7597566843032837,1.3032793998718262,-9.741059303283691,-0.006165706191433308,-0.009887585627545475,-0.607171182163639,0.7338573876798632,3.938834693984734,0.8896371510178932
1730865947.3337905,-1.6816997528076172,1.2365984916687012,-9.753911018371582,-0.007230818607824674,-0.012185169274526519,-0.7075938308086785,0.7280825094184842,3.9638127020294496,0.8838087839722656
1730865947.3838024,-1.757475733757019,1.2633165121078491,-9.788309097290039,-0.00838935333595926,-0.01484021522352403,-0.817409764621071,0.6914439575745639,3.9889976382965524,0.8760151533765386
1730865947.4338114,-1.9410609006881714,1.2342725992202759,-9.715015411376953,-0.009643890390913405,-0.017876610056392916,-0.9366979532528874,0.6934638163277776,4.014035954138148,0.8660618899482819
1730865947.4836771,-1.7980672121047974,1.2204742431640625,-9.816902160644531,-0.010999102891656481,-0.02131456072237176,-1.0654791111334903,0.660395603999459,4.039010020549609,0.8536208574199727
1730865947.5337312,-1.6201061010360718,1.2407430410385132,-9.861479759216309,-0.012461823255425426,-0.025170471135988033,-1.2037170262082353,0.6272395085581726,4.0639702766205605,0.838323876695677
1730865947.5837328,-1.6417081356048584,1.2559638023376465,-9.932706832885742,-0.014039886389441727,-0.029456951627620756,-1.3513206579808033,0.6432803899809374,4.088895218459002,0.8198058808641693
1730865947.6336718,-1.4783844947814941,1.2720919847488403,-9.962823867797852,-0.015740415401047085,-0.03418303046060376,-1.5081467842260834,0.6133781805750798,4.113696991997038,0.7977469099635129
1730865947.6836586,-1.4127205610275269,1.249739170074463,-9.95790958404541,-0.01756844951141987,-0.03935444279638087,-1.6740027468192862,0.5834024682367982,4.138433186629481,0.7716840150861385
1730865947.7336457,-1.4345476627349854,1.2176520824432373,-9.960887908935547,-0.019525918749727256,-0.044973776418389406,-1.8486490679431842,0.6073603887004995,4.162978555144262,0.7413249375809177
1730865947.7836764,-1.6071974039077759,1.2252144813537598,-9.856568336486816,-0.02161129977774936,-0.05104041754254294,-2.031801870765638,0.580211248783471,4.187481719138054,0.70602486265208
1730865947.8337014,-1.532752275466919,1.1856809854507446,-9.923158645629883,-0.02382034131068784,-0.05755044782905619,-2.223135163151218,0.5529911170492655,4.211861707967334,0.6653805230800193
1730865947.8835726,-1.49844229221344,1.2116985321044922,-9.878271102905273,-0.026147076748736696,-0.06449662682084718,-2.422283291581554,0.5828066391524019,4.236000370607298,0.6190990211053704
1730865947.9345996,-1.521494746208191,1.106750726699829,-9.946966171264648,-0.0285841904242481,-0.07186841307961882,-2.6288438498267848,0.5576540886526077,4.260508552385357,0.5652799785576278
1730865947.9846032,-1.521235466003418,1.066617727279663,-9.89339542388916,-0.031122996475557527,-0.07965182949920092,-2.842380936417181,0.5873411393555367,4.284421632791801,0.5054088977560376
1730865948.034629,-1.6524330377578735,0.9745575785636902,-9.893824577331543,-0.03375370694847796,-0.08782906646945582,-3.0624284534817785,0.6108215215446693,4.308025017420772,0.43841192132709494
1730865948.0845356,-1.714928388595581,0.9513433575630188,-9.833707809448242,-0.03646620432235457,-0.096378009224032,-3.288493239244847,0.5902743313866293,4.331533133630433,0.363044380836793
1730865948.1347377,-1.6118273735046387,0.9223973155021667,-9.884674072265625,-0.03925098649930571,-0.10527197417186233,-3.5200580915981723,0.5697613317324024,4.354642038629565,0.2796442802298119
1730865948.1846237,-1.3661701679229736,0.9260615110397339,-9.857068061828613,-0.04209932362367447,-0.11447980265149,-3.7565849345167046,0.549051025729424,4.3775826767553685,0.18673085972868456
1730865948.2345996,-1.2212275266647339,0.8862243294715881,-9.932165145874023,-0.045001942596716825,-0.12396625643171275,-3.9975182403796214,0.5804432186310082,4.400019899372007,0.08503750634740294
1730865948.2835228,-1.0323896408081055,0.8774198889732361,-9.941996574401855,-0.04794681917595695,-0.13369250795900037,-4.242288638152104,0.5618137546613869,4.421953332801111,-0.025828512008714048
1730865948.3344536,-1.2495695352554321,0.9381879568099976,-9.924843788146973,-0.05091743309620432,-0.14361667068634576,-4.490316532324131,0.5908802797819988,4.4441397356556305,-0.1508003013505921
1730865948.3844686,-1.4342632293701172,1.0002256631851196,-9.9284086227417,-0.053892778516810784,-0.1536945992222942,-4.741015457391752,0.5733519510226757,4.4658476673553125,-0.2869445330277965
1730865948.4344435,-1.6491162776947021,1.1198151111602783,-9.88106918334961,-0.05684947137985549,-0.16388112302459393,-4.993795052331923,0.5560253744958216,4.486745158103077,-0.4324628517597628
1730865948.4846096,-1.8150001764297485,1.2128596305847168,-9.911548614501953,-0.059764889412803224,-0.17413159823757418,-5.2480637893623925,0.5381384378715417,4.507712723547543,-0.594409027141883
1730865948.5345068,-1.8747748136520386,1.2866096496582031,-9.855307579040527,-0.06261998044726305,-0.18440350783725845,-5.503231604788439,0.5729943947739137,4.52782086001317,-0.766532368650218
1730865948.5845046,-1.8972151279449463,1.2438414096832275,-9.890105247497559,-0.06540101441875376,-0.194657708975571,-5.758712470232957,0.5981601512516725,4.54762856341389,-0.9541642104822121
1730865948.6345894,-1.8699368238449097,1.2726092338562012,-9.829380989074707,-0.06810011476831038,-0.2048589713777797,-6.0139268706422175,0.5830287810584855,4.566961194906308,-1.156775247666896
1730865948.6844258,-1.8699368238449097,1.2726092338562012,-9.829380989074707,-0.07071486332759128,-0.21497591795879847,-6.268304130144324,0.6069139796056753,4.585682203629925,-1.3737917636177899
1730865948.6844258,-1.9649289846420288,1.1705948114395142,-9.842905044555664,-0.07324758728119864,-0.22498070169785633,-6.521284588049813,0.6068552053413638,4.585759194412052,-1.3747297514438637
1730865948.7343395,-1.755480170249939,1.117276906967163,-9.814167976379395,-0.07570469904697465,-0.23484838091541757,-6.772321734687575,0.592782449196877,4.603783142352614,-1.606157739119007
1730865948.7843802,-1.648979902267456,1.0715574026107788,-9.870731353759766,-0.07809564772274387,-0.2445559632029511,-7.020884341019692,0.616094412789992,4.6214673071388015,-1.858223609606822
1730865948.8343627,-1.619248390197754,1.0923936367034912,-9.766934394836426,-0.08043115158301876,-0.25408154335166655,-7.266458463606031,0.6027349275967305,4.638400132423606,-2.1261913428361026
1730865948.8843756,-1.5719029903411865,1.1600306034088135,-9.814069747924805,-0.08272148366890356,-0.26340397960367845,-7.50854915835302,0.6252047034029882,4.654803968661948,-2.414661515430784
1730865948.9342463,-1.4718180894851685,1.2043366432189941,-9.855443000793457,-0.08497541669441515,-0.2725032020171972,-7.74668198436071,0.6126038074884245,4.6703887119726915,-2.7193035129109875
1730865948.9843962,-1.5622344017028809,1.2559999227523804,-9.844598770141602,-0.08719959641499846,-0.28136089712718715,-7.980404611254765,0.6351574184893295,4.685457548894379,-3.047327881297881
1730865949.0343103,-1.6065484285354614,1.3037285804748535,-9.91126537322998,-0.08939839683936472,-0.2899612068916716,-8.209288491355442,0.623236574822094,4.699664593371336,-3.392164577339148
1730865949.084335,-1.6464300155639648,1.3352413177490234,-9.848318099975586,-0.09157447468067825,-0.2982912740973174,-8.43293030510617,0.6109916863262677,4.7132494085088865,-3.760683710468692
1730865949.1342292,-1.7890230417251587,1.2793657779693604,-9.847938537597656,-0.09372972453835127,-0.30634152761434824,-8.650953007532,0.6341211147647803,4.7260480462485885,-4.150062493015652
1730865949.1843033,-1.9112098217010498,1.1769911050796509,-9.826825141906738,-0.09586643024735203,-0.31410544339084434,-8.863006437296802,0.6225582033621783,4.7380097569584665,-4.559160706939943
1730865949.2342906,-1.7468112707138062,1.169215440750122,-9.872337341308594,-0.09798840159922956,-0.32157869755866964,-9.06876772387337,0.6107408446219313,4.74919444053283,-4.991036141179036
1730865949.2843397,-1.7610691785812378,1.1731765270233154,-9.90518856048584,-0.10010130408592767,-0.32875819902023806,-9.267941805430244,0.6346879948081234,4.759653388961199,-5.44988836037533
1730865949.3341703,-1.772855281829834,1.1963719129562378,-9.869773864746094,-0.1022120268654599,-0.3356415834191636,-9.460262031732201,0.6234804175548829,4.7691394689916935,-5.925164424167533
1730865949.3842542,-1.7723252773284912,1.1582468748092651,-9.856871604919434,-0.1043280224779909,-0.34222715607275356,-9.645490512539814,0.6118952934077163,4.777879594497509,-6.429380610971067
1730865949.4341888,-1.5951693058013916,1.1924304962158203,-9.84045124053955,-0.10645690360344065,-0.3485139161455856,-9.823418029110062,0.6366533129210823,4.785694696378782,-6.9542938182840235
1730865949.4842129,-1.4303251504898071,1.1096744537353516,-9.871488571166992,-0.10860555583881018,-0.3545014775269555,-9.99386373286927,0.625504137899349,4.792724940622076,-7.510708917631573
1730865949.5342839,-1.4494115114212036,1.127644419670105,-9.831385612487793,-0.110778600207778,-0.3601898556948457,-10.156674865806309,0.6462309857883045,4.798780672502141,-8.08630641996634
1730865949.5842733,-1.374488115310669,1.0864741802215576,-9.847817420959473,-0.11297711003524691,-0.3655791695104378,-10.311726439796553,0.6354206583809948,4.803978008633486,-8.69220936484182
1730865949.634126,-1.4525998830795288,1.0719263553619385,-9.802490234375,-0.11519824093506745,-0.37066939022212764,-10.458920743601404,0.6543297442505343,4.808186590205894,-9.31537717088692
1730865949.684152,-1.5784028768539429,1.0320987701416016,-9.840079307556152,-0.11743572384966595,-0.37546014566985864,-10.598186707815941,0.6437929579055635,4.811513364840405,-9.970828769687943
1730865949.734146,-1.5448294878005981,0.9901504516601562,-9.828018188476562,-0.11968100898941764,-0.37995049154418026,-10.729479257896198,0.6619257555375072,4.813887334440077,-10.652858060944322
1730865949.7841535,-1.495914340019226,0.9905200004577637,-9.897010803222656,-0.12192440513447225,-0.3841386657599141,-10.852778760910482,0.6515626365155174,4.815314828645521,-11.363731757586645
1730865949.8341901,-1.5989469289779663,0.96947181224823,-9.889765739440918,-0.12415559702523273,-0.38802194979977644,-10.968090571408636,0.6683721053256908,4.815763859686913,-12.097823880280195
1730865949.8841543,-1.5671354532241821,0.9694827198982239,-9.91878890991211,-0.12636391045096215,-0.39159670837355254,-11.07544454621056,0.6820567599446374,4.815240120906975,-12.861604700009064
1730865949.9341342,-1.4966825246810913,0.9941743016242981,-9.964380264282227,-0.1285386495644067,-0.39485857333175206,-11.174894413314908,0.6721953336703006,4.813739404727178,-13.65371672229721
1730865949.984129,-1.4800490140914917,0.969645619392395,-9.981051445007324,-0.13066910495125125,-0.39780273471725663,-11.266517056958438,0.6620093188894811,4.811246098292063,-14.473930607021906
1730865950.0342054,-1.459653377532959,1.016774296760559,-9.992463111877441,-0.13274420115734148,-0.40042427745359166,-11.35041174017695,0.6515151843897553,4.807761356947476,-15.3207106926886
1730865950.0840492,-1.5144121646881104,1.049118995666504,-9.973414421081543,-0.13475229340264758,-0.40271856235335796,-11.426699116737359,0.6691759507253672,4.803244829235471,-16.199623488500446
1730865950.1340241,-1.6105612516403198,1.0086636543273926,-9.94045639038086,-0.13668145545820304,-0.40468166652515086,-11.495519932785776,0.658824845782516,4.797764019559436,-17.100931669173278
1730865950.1840804,-1.5536221265792847,1.06661057472229,-9.94149398803711,-0.13852018662505797,-0.4063107158254686,-11.55703347804577,0.67557775132035,4.7911853400497595,-18.04193210520362
1730865950.2339597,-1.603241205215454,1.065562129020691,-9.964529037475586,-0.14025804989387514,-0.4076040801544829,-11.611416011481786,0.6653808156750446,4.783738108144208,-18.993520787024305
1730865950.2839465,-1.879683494567871,1.0326447486877441,-9.866992950439453,-0.1418861858472002,-0.40856154475433937,-11.658859295839694,0.6546903251046777,4.775169631766457,-19.987352244060343
1730865950.3339956,-2.0737950801849365,0.9914940595626831,-9.809025764465332,-0.14339853900043018,-0.40918429161805026,-11.699568984413087,0.6728865195428676,4.765601142940411,-21.00664592249507
1730865950.3840535,-1.8243703842163086,0.9407444000244141,-9.798154830932617,-0.14479364339648768,-0.40947453725941446,-11.733762704572417,0.6622113158487666,4.754906554544332,-22.06631551510056
1730865950.4339852,-1.6435387134552002,1.0102969408035278,-9.805895805358887,-0.14607501931802036,-0.40943507794086464,-11.761668238717341,0.6801557205497877,4.743384111613203,-23.135522647467333
1730865950.4839067,-1.5730770826339722,1.1460793018341064,-9.76155948638916,-0.14724931152829743,-0.409069281743474,-11.783522122903674,0.6696292533455741,4.730705447707726,-24.247615295788403
1730865950.5338778,-1.402429223060608,1.2469379901885986,-9.80485725402832,-0.14832367762856535,-0.4083818909182422,-11.799568497242069,0.6588395357702393,4.717138068084994,-25.378051751050958
1730865950.5837739,-1.2801685333251953,1.27745521068573,-9.844583511352539,-0.1493036893878049,-0.40738027997036674,-11.810058119422356,0.6475523635482725,4.702391500419861,-26.551109094905133
1730865950.6338754,-1.3144124746322632,1.2810062170028687,-9.876189231872559,-0.15019180196654525,-0.4060753723066602,-11.815247662814297,0.6360019198831129,4.686776190481597,-27.742204676880352
1730865950.6837897,-1.3720238208770752,1.2254197597503662,-9.91110610961914,-0.1509866760873525,-0.40448177773118543,-11.815399198265064,0.6240106492679741,4.670061710687639,-28.969493282957156
1730865950.7338083,-1.4993278980255127,1.1518988609313965,-9.931300163269043,-0.15168372520462492,-0.4026172018148898,-11.810779629244061,0.6499239119382206,1.9909605553123946,-3.3400436548564088
1730865950.78379,-1.6006672382354736,1.0863429307937622,-9.86929702758789,-0.15227658234762093,-0.40050136450019946,-11.801659925491332,0.6381279609643484,1.9394941240221601,-4.238726614721207
1730865950.8337855,-1.81550133228302,1.01986563205719,-9.81452465057373,-0.15275898059589627,-0.3981547444950839,-11.788313966344203,0.6621774802217649,1.5954701164658582,-1.0240388870987158
1730865950.8837059,-1.9375649690628052,0.9927679896354675,-9.77560806274414,-0.15312680883183438,-0.3955974534071609,-11.771016972111282,0.6505832691523423,1.5407940770786481,-1.8940548532027133
1730865950.9336746,-2.0457820892333984,0.9714118242263794,-9.726194381713867,-0.15338006934110343,-0.3928484303664822,-11.750043830891068,0.6386532833684406,1.485357625823764,-2.789919938844695
1730865950.9836621,-2.0869340896606445,1.0083929300308228,-9.737180709838867,-0.15352426511130637,-0.38992505373959263,-11.72566762947224,0.6629916413427612,1.3701987039658028,-1.1842013601692152
1730865951.0336392,-2.0562994480133057,1.051559329032898,-9.758321762084961,-0.15357089704028284,-0.3868432098237643,-11.698158551294814,0.6513501000277591,1.3149867501815562,-2.0659085089768454
1730865951.083622,-1.9736506938934326,1.1039338111877441,-9.822582244873047,-0.15353700837766887,-0.3836177632633301,-11.6677832413419,0.6761233540562299,1.2565583318839582,-1.2008449282406661
1730865951.133597,-1.9302725791931152,1.1401413679122925,-9.887577056884766,-0.15344393001330509,-0.3802632287451015,-11.634804613829877,0.6647359001848391,1.2017505182338828,-2.0861060000686087
1730865951.1835477,-1.8705997467041016,1.1601102352142334,-9.892549514770508,-0.15331568000956658,-0.3767943901963302,-11.59948189028021,0.688172430615738,1.1695582037205043,-1.5106663474534998
1730865951.233644,-1.852792739868164,1.1702474355697632,-9.919771194458008,-0.15317749873098951,-0.3732267002635198,-11.562070531446327,0.6769185738961858,1.1149817824118091,-2.410363781481953
1730865951.2836158,-1.850260853767395,1.1229956150054932,-9.914119720458984,-0.15305474715677336,-0.36957637931778214,-11.522821874424919,0.6976810126901005,1.096855732912802,-1.9798262318424589
1730865951.3335752,-1.8229795694351196,1.0839333534240723,-9.910886764526367,-0.1529721906368114,-0.36586015709510056,-11.481982543477649,0.6866722139951678,1.0436267682163443,-2.878718274451312
1730865951.3836124,-1.7985893487930298,1.0479875802993774,-9.888747215270996,-0.15295351514103725,-0.3620947114012636,-11.439793726791823,0.7076095232755587,1.0364040176746727,-2.5155062981952607
1730865951.4335694,-1.7535266876220703,0.9978740811347961,-9.872357368469238,-0.15302086603958537,-0.35829601096464825,-11.396490359540856,0.7265077450564825,1.0242143098005805,-2.3471088160916116
1730865951.4836032,-1.7225205898284912,0.9698752164840698,-9.863229751586914,-0.1531943399655189,-0.35447872119849955,-11.352300289936771,0.7159832273335872,0.9725163128090184,-3.255337535887003
1730865951.533507,-1.668954610824585,0.9353963732719421,-9.8529052734375,-0.1534914721994058,-0.350655723320874,-11.307443527650314,0.7052499761868617,0.920785718387254,-4.176864521810662
1730865951.583536,-1.6359572410583496,0.9215210676193237,-9.852986335754395,-0.15392676223804266,-0.3468377868401793,-11.26213163028289,0.693881951869406,0.8669924474507283,-5.148029416953818
1730865951.6334298,-1.6144894361495972,0.9229671359062195,-9.850465774536133,-0.15451129220945245,-0.3430334305373086,-11.216567228314457,0.7124739923730454,0.8817488095448248,-4.607643071287642
1730865951.6834772,-1.6067534685134888,0.9610587358474731,-9.857247352600098,-0.15525253213793452,-0.33924902228714426,-11.17094367306737,0.7012488989541706,0.8296554518367333,-5.5715497383987245
1730865951.7344527,-1.5976148843765259,1.0084751844406128,-9.867647171020508,-0.1561543758141393,-0.33548917676029316,-11.125444797612412,0.7166801813543872,0.8479225303632035,-5.106812704786062
1730865951.7843916,-1.6114647388458252,1.0301212072372437,-9.874835968017578,-0.15721735960070451,-0.33175739260944825,-11.08024478060885,0.7053993697154091,0.797241822352741,-6.071903023628516
1730865951.8344188,-1.5975745916366577,1.018343448638916,-9.889068603515625,-0.15843899605103806,-0.3280566773431616,-11.035508087392468,0.6936992254180357,0.7456251979798537,-7.066755715794669
1730865951.8845086,-1.6075562238693237,0.9683912396430969,-9.893061637878418,-0.15981414583906348,-0.3243898544140788,-10.991389455407337,0.7107451662605165,0.7738689043583576,-6.434583895238382
1730865951.934418,-1.626556634902954,0.905511736869812,-9.897462844848633,-0.16133539204002123,-0.3207594106635359,-10.948033893975667,0.6990288542864912,0.7236466411930851,-7.427222083722591
1730865951.9844997,-1.6508206129074097,0.8503293991088867,-9.890620231628418,-0.1629934743801404,-0.31716698036316215,-10.90557666517114,0.7136736438408282,0.7550936269602246,-6.839324855774372
1730865952.034278,-1.668717384338379,0.7852784395217896,-9.882685661315918,-0.1647778062066348,-0.3136126981183105,-10.864143224374747,0.7019521380001602,0.7067925402924934,-7.822004892815014
1730865952.0843859,-1.668717384338379,0.7852784395217896,-9.882685661315918,-0.16667697689218203,-0.3100946510542658,-10.823849135776058,0.7154634833402023,0.7390444125460647,-7.253174869199878
1730865952.0843859,-1.666137456893921,0.7490000128746033,-9.847501754760742,-0.1686791192124319,-0.30660860344321766,-10.78479998786533,0.7153987491342022,0.738786213197572,-7.258552965291629
1730865952.134316,-1.6244356632232666,0.7482098340988159,-9.854060173034668,-0.17077207301136949,-0.3031480168640656,-10.747091303073198,0.7033981935171375,0.6913930795640341,-8.251256148010185
1730865952.1843207,-1.5937052965164185,0.7874472141265869,-9.882034301757812,-0.17294331872903396,-0.2997042915508236,-10.71080851535839,0.6909198140146531,0.6430565426332755,-9.27476290967244
1730865952.2342668,-1.5707736015319824,0.8576775789260864,-9.910017013549805,-0.17517974171669506,-0.2962672920565065,-10.676027185942555,0.7066804285895694,0.6822676355929149,-8.52666540994314
1730865952.2842512,-1.587791085243225,0.9232023358345032,-9.935588836669922,-0.1774674263260017,-0.29282623564733545,-10.642813472219586,0.7202665609219452,0.7132674745698862,-7.983747068965934
1730865952.3342435,-1.5839658975601196,0.9715844392776489,-9.951668739318848,-0.17979166945109945,-0.2893707708652987,-10.61122467594548,0.7080249284441558,0.6684942573248305,-8.972156267728929
1730865952.3842833,-1.6285433769226074,0.9795622229576111,-9.949352264404297,-0.18213723145484373,-0.2858919178327601,-10.581309714701158,0.7199696945312314,0.6979171057184845,-8.420186351917993
1730865952.4342704,-1.6731714010238647,0.9589577913284302,-9.931402206420898,-0.18448877640917344,-0.2823826027155658,-10.553109431092704,0.7075469308125897,0.6543770278271179,-9.404909085936765
1730865952.4843504,-1.7608195543289185,0.9085907340049744,-9.892904281616211,-0.18683151644728097,-0.2788376795652283,-10.526656694522327,0.6945109515964909,0.6096186738925278,-10.427732625517693
1730865952.5342863,-1.8198007345199585,0.8613375425338745,-9.845653533935547,-0.18915204499262928,-0.2752535101110487,-10.501976299353165,0.7086694352584642,0.6496172663825949,-9.696291262829499
1730865952.5842535,-1.8743910789489746,0.8098325729370117,-9.812735557556152,-0.19143920379707197,-0.27162729948173414,-10.479084734461312,0.6954897161141412,0.6063133565781256,-10.712081564118508
1730865952.634168,-1.8814746141433716,0.8248398900032043,-9.78154468536377,-0.19368474003262862,-0.2679564531502011,-10.45798997110533,0.7093584079945331,0.6482492494026113,-9.989922102243195
1730865952.6841817,-1.8178749084472656,0.9012826681137085,-9.799697875976562,-0.19588351174219668,-0.26423828675872685,-10.438691433673661,0.6959766714808748,0.6063205550456554,-11.002686049840499
1730865952.7341259,-1.7743693590164185,0.9895063042640686,-9.821540832519531,-0.19803309448419376,-0.26047036068519563,-10.421180286685647,0.7088283822515683,0.6473132507907763,-10.286434892669732
1730865952.7841399,-1.7426655292510986,1.0704177618026733,-9.879551887512207,-0.20013294379035743,-0.25665136529498034,-10.405440088853794,0.6952463362618432,0.6068337167598282,-11.292637374980357
1730865952.834016,-1.7173658609390259,1.144403100013733,-9.899643898010254,-0.2021835224663768,-0.2527821714779772,-10.391447719202517,0.7077245520893366,0.6498030928740473,-10.57598044456663
1730865952.884022,-1.7238008975982666,1.201750636100769,-9.902915954589844,-0.20418567213577873,-0.24886671412432648,-10.379174333518677,0.6938827429772805,0.6107027442910758,-11.579101144974592
1730865952.9340377,-1.7645459175109863,1.1820310354232788,-9.86949348449707,-0.2061403154420564,-0.2449125209261803,-10.368586072968817,0.7075204597169215,0.654766308969745,-10.858216933703348
1730865952.9839852,-1.83077871799469,1.1543887853622437,-9.82955265045166,-0.20804855341989664,-0.24093070842246864,-10.359644389574763,0.7190147233713411,0.689063408744164,-10.29141459639346
1730865953.0339887,-1.8594506978988647,1.0799541473388672,-9.79504680633545,-0.20991210860349532,-0.2369353770159356,-10.352306067224365,0.705359957616072,0.6533361259625896,-11.257635510237444
1730865953.0839276,-1.8404059410095215,1.018115758895874,-9.759230613708496,-0.21173380448539267,-0.23294256189228313,-10.34652313452151,0.6911522243073094,0.6169494079981065,-12.25162532837876
1730865953.1339393,-1.7897979021072388,0.9865586757659912,-9.764646530151367,-0.2135176780522389,-0.22896903245881883,-10.342242859391833,0.6763798354099266,0.5798998880173772,-13.273800795026473
1730865953.1840162,-1.698754072189331,1.0258070230484009,-9.786855697631836,-0.21526853964783496,-0.22503131969857876,-10.339407981309451,0.6917264249151762,0.6289947995757709,-12.362339611088588
1730865953.2339149,-1.6195176839828491,1.096706748008728,-9.849236488342285,-0.2169910776685979,-0.22114533294212008,-10.337957294819123,0.6767957441803623,0.5934316767679073,-13.3743161402928
1730865953.2839737,-1.5690386295318604,1.1863417625427246,-9.894932746887207,-0.21868879197735364,-0.21732666463548797,-10.337826575276408,0.6612325459460375,0.5571151092845615,-14.41803640639386
1730865953.3338645,-1.5596836805343628,1.2637195587158203,-9.941064834594727,-0.22036313185227696,-0.21359135136341637,-10.338949673898808,0.678621355200974,0.6141650730656588,-13.340896163865105
1730865953.384044,-1.59630286693573,1.3051685094833374,-9.960204124450684,-0.22201313909580636,-0.20995670571704006,-10.341259537715286,0.6628897956999917,0.5794444543291611,-14.373807686529435
1730865953.4338489,-1.6284863948822021,1.3273265361785889,-9.94701862335205,-0.2236356722115014,-0.20644187838840597,-10.34468896049835,0.646775529681887,0.5445841669680045,-15.421188961048218
1730865953.4840422,-1.6553434133529663,1.316172480583191,-9.920696258544922,-0.22522602609881173,-0.20306797977596402,-10.349170958021382,0.6660139964325138,0.6050422027852324,-14.21008195929718
1730865953.5338588,-1.6599690914154053,1.2806527614593506,-9.860176086425781,-0.22677861922469728,-0.19985775930822475,-10.354638758913907,0.6825745925899391,0.6583748644829969,-13.225355812756687
1730865953.583919,-1.6765570640563965,1.1801283359527588,-9.819402694702148,-0.22828751865995756,-0.1968348706536708,-10.361025502686887,0.6666533230596959,0.626951793404943,-14.22974828825632
1730865953.6338382,-1.6720153093338013,1.0732054710388184,-9.787087440490723,-0.2297467749853968,-0.1940227129690493,-10.368263828315298,0.682795276533131,0.6785493876739411,-13.269490691329768
1730865953.6838663,-1.6663193702697754,0.9791675806045532,-9.763050079345703,-0.23115061369015721,-0.191442954690415,-10.376285567830733,0.666725332845245,0.6486054321398457,-14.26426362029221
1730865953.7339408,-1.6707918643951416,0.9239218235015869,-9.750232696533203,-0.232493513723559,-0.1891140770584952,-10.385021650279505,0.6500142540868,0.6180727229652804,-15.288772437356435
1730865953.7837968,-1.6994575262069702,0.9047927856445312,-9.781537055969238,-0.2337702620408404,-0.1870503224286505,-10.394402233934086,0.6690489617337926,0.6721951708724428,-14.172351803697408
1730865953.8338177,-1.7137017250061035,0.9450106620788574,-9.824131965637207,-0.23497610581883513,-0.18526127397146902,-10.404357125858594,0.652246901179544,0.6430719795633354,-15.184730691582544
1730865953.8838098,-1.7199853658676147,1.0237822532653809,-9.900525093078613,-0.23610698677611616,-0.1837521396404982,-10.414816531445522,0.6716653836835405,0.6959899806448818,-14.109803960685449
1730865953.933771,-1.7121604681015015,1.109671950340271,-9.941783905029297,-0.2371597120789628,-0.1825246687018977,-10.425712038485258,0.6886948621804615,0.7406540088014343,-13.229459494334558
1730865953.9838536,-1.7125602960586548,1.1412822008132935,-9.991416931152344,-0.23813197552737866,-0.18157839674768883,-10.436977612744794,0.6722540326510873,0.7144113014874586,-14.203005598656823
1730865954.033785,-1.7383090257644653,1.1559922695159912,-9.991555213928223,-0.2390223019868002,-0.1809117452391806,-10.448550374951902,0.6553078487510267,0.687858545011864,-15.197307843144637
1730865954.0837812,-1.7700742483139038,1.0934906005859375,-9.966474533081055,-0.2398300751798571,-0.18052260244372717,-10.460371002793844,0.6730956872654944,0.7373200325545198,-14.160293083949352
1730865954.1337168,-1.7931220531463623,1.0574482679367065,-9.924484252929688,-0.24055571972232512,-0.18040828659296365,-10.47238368579783,0.6559109388558281,0.7118288527734499,-15.150866389132448
1730865954.1838078,-1.8051255941390991,0.9757516384124756,-9.861323356628418,-0.24120093356861189,-0.18056504747398772,-10.484535688125483,0.6737532471377539,0.762251437776854,-14.136456920582804
1730865954.233678,-1.8243852853775024,0.909440279006958,-9.807530403137207,-0.2417688342022456,-0.18098735446058,-10.49677667510063,0.6564781563191119,0.7380708640787063,-15.11647357478029
1730865954.2837088,-1.831785798072815,0.8526820540428162,-9.77783489227295,-0.2422639947168594,-0.18166715685615176,-10.509057998437877,0.6734716074761974,0.7843068656227845,-14.122348724943528
1730865954.3335953,-1.7967559099197388,0.8678164482116699,-9.767488479614258,-0.24269236599851576,-0.18259332938608624,-10.521332160267821,0.656010566319864,0.7611183843340246,-15.096309957216068
1730865954.3836603,-1.7605763673782349,0.9291214346885681,-9.799591064453125,-0.24306099016334992,-0.18375160755370762,-10.53355262441646,0.6726660509198082,0.8081852388709656,-14.122423769189783
1730865954.433618,-1.710945725440979,1.0032237768173218,-9.818702697753906,-0.2433774598470584,-0.18512518901435074,-10.545674012732254,0.6549634888842057,0.7859560476837777,-15.093972359485434
1730865954.4836576,-1.7012803554534912,1.053971767425537,-9.838756561279297,-0.24364926724359107,-0.18669582224451345,-10.557652559711801,0.6715616996239707,0.7632252166136906,-14.129802844495153
1730865954.5335536,-1.6881037950515747,1.0379717350006104,-9.849413871765137,-0.24388327492802625,-0.18844491134671962,-10.569446601146119,0.6536705193625977,0.7400691302580977,-15.096894600062443
1730865954.5836434,-1.7113316059112549,0.9963055849075317,-9.854170799255371,-0.24408545716340663,-0.19035416462406515,-10.581016947683613,0.670146914713002,0.7163250016889392,-14.146849950059872
1730865954.6335702,-1.745736837387085,0.9328804016113281,-9.85682487487793,-0.24426094163235804,-0.19240560554654976,-10.592327115830468,0.6520855473329679,0.6922419346663771,-15.109382274589304
1730865954.683587,-1.7479357719421387,0.8603179454803467,-9.831171989440918,-0.24441428328915604,-0.19458110102786885,-10.603343418435559,0.6333575610396982,0.6676005256089002,-16.101385861079418
1730865954.733575,-1.7491909265518188,0.843873918056488,-9.839099884033203,-0.2445497726901835,-0.19686171990190957,-10.614034918872573,0.6526264427617486,0.6424934572753876,-14.992682568222914
1730865954.7836032,-1.719849944114685,0.8954249024391174,-9.856204986572266,-0.24467156696769626,-0.19922732002787147,-10.62437334497785,0.6338032518663331,0.6168866706438869,-15.976445796476701
1730865954.8335345,-1.69038987159729,1.013269066810608,-9.893735885620117,-0.24478357949865723,-0.20165677722020814,-10.634333134004335,0.6535675445036053,0.5907569472761264,-14.898727932633628
1730865954.8834958,-1.6407148838043213,1.1782209873199463,-9.94733715057373,-0.24488917123706172,-0.2041290434392194,-10.64389169082462,0.6710850553344093,0.5641980538307287,-14.001926495690451
1730865954.9335127,-1.5968351364135742,1.3148117065429688,-9.980710983276367,-0.24499071473125927,-0.20662485145664627,-10.653029802823042,0.6526841928191248,0.5370537525354485,-14.952141899086191
1730865954.9834745,-1.5788203477859497,1.3853707313537598,-9.986942291259766,-0.2450891420065649,-0.20912854269736753,-10.661732039371945,0.6337016113905164,0.5094346206905982,-15.927415111022267
1730865955.0333755,-1.59587824344635,1.345052719116211,-9.986001014709473,-0.24518366084994958,-0.21162932254039662,-10.669986923261138,0.6528994599967102,0.48126469775343145,-14.87551020289289
1730865955.0834413,-1.6471034288406372,1.241713523864746,-9.92891788482666,-0.24527183434871644,-0.21412140215331846,-10.677786760524299,0.6337937875100449,0.4525489450986607,-15.846889808512538
1730865955.1334794,-1.7504501342773438,1.1041513681411743,-9.85863208770752,-0.24535012671488687,-0.21660294384556986,-10.685127093142711,0.6140368408150109,0.42323883745345525,-16.846891336541802
1730865955.1834555,-1.8304283618927002,0.9711137413978577,-9.74976921081543,-0.24541488179186882,-0.21907420294008906,-10.692005769647107,0.6369960295762144,0.393348989801941,-15.64940187508421
1730865955.2333221,-1.9156988859176636,0.9128645658493042,-9.670672416687012,-0.24546351322031779,-0.2215354985002141,-10.698421745088906,0.6174227430713088,0.363186057175253,-16.632485864782588
1730865955.2834413,-1.9563443660736084,0.903839647769928,-9.61693286895752,-0.24549557408973652,-0.22398564834673132,-10.70437388048728,0.5970508067530473,0.3321818990531053,-17.651605313854937
1730865955.3332965,-1.9563443660736084,0.903839647769928,-9.61693286895752,-0.24551343361564168,-0.22642123385463736,-10.709860081943031,0.5762148178747604,0.3008409618502031,-18.69002048258553
1730865955.3332965,-1.9662718772888184,0.9583784937858582,-9.625625610351562,-0.24552243628897408,-0.22883662508190372,-10.7148769995966,0.5760972478556735,0.3006651067699332,-18.695869306579745
1730865955.3834836,-1.923431158065796,1.0500279664993286,-9.705564498901367,-0.245530611360903,-0.23122455460753802,-10.719420298952969,0.6067649988074991,0.26863705040536373,-17.147639798244068
1730865955.4342368,-1.8367159366607666,1.1513241529464722,-9.823517799377441,-0.24554802735828496,-0.2335771416841139,-10.72348546539145,0.5857751823379277,0.23552808022101704,-18.187678524987547
1730865955.4842105,-1.7143102884292603,1.2665013074874878,-9.948857307434082,-0.24558573854643764,-0.23588722515511945,-10.727069105395238,0.6153911720748146,0.2024641732423998,-16.73252455853118
1730865955.5342638,-1.5934988260269165,1.3747628927230835,-10.055098533630371,-0.2456543281570767,-0.23814976862194182,-10.73017052420087,0.5948606345431388,0.16855408837367566,-17.745509557170216
1730865955.5842412,-1.4835880994796753,1.4298890829086304,-10.111140251159668,-0.245762289358838,-0.24036310089739882,-10.73279316582839,0.6226503387165292,0.1340373246288068,-16.38172498276993
1730865955.6342456,-1.443881630897522,1.4316983222961426,-10.103753089904785,-0.2459146144165409,-0.242529711856323,-10.734945510026074,0.6024176344750953,0.09915816387914958,-17.375402716922544
1730865955.6842623,-1.4952565431594849,1.3775787353515625,-10.049909591674805,-0.24611200301232555,-0.24465633579315085,-10.736641171772154,0.628637560716948,0.06338578697600246,-16.083929630103412
1730865955.7341847,-1.6399167776107788,1.2702287435531616,-9.953142166137695,-0.24635107171812654,-0.24675323386726083,-10.737898176984771,0.6085424348607139,0.027349225507010168,-17.06552503492811
1730865955.7842758,-1.8158236742019653,1.1555479764938354,-9.814238548278809,-0.2466256991121505,-0.24883279810797937,-10.738737574565134,0.6334645878042906,-0.009790270967587071,-15.837334551251676
1730865955.8341494,-1.987913966178894,1.0372942686080933,-9.684324264526367,-0.2469292056464857,-0.25090776857517155,-10.739181616977568,0.6541701761943362,-0.04692840759786203,-14.80678132362622
1730865955.8841746,-2.1046435832977295,0.9711049795150757,-9.589987754821777,-0.2472567357278414,-0.2529894617924988,-10.73925183558486,0.6344752267891899,-0.0852407870497434,-15.760383751955082
1730865955.9341092,-2.1483964920043945,0.9394667744636536,-9.553539276123047,-0.24760717041132926,-0.25508640277335504,-10.7389674473613,0.6143845272110644,-0.12375820417380527,-16.73006364719052
1730865955.9841945,-2.121264934539795,0.9565346837043762,-9.586009979248047,-0.24798409536600832,-0.25720362207901837,-10.738344481082404,0.593423860196867,-0.16339255346860806,-17.73865903062639
1730865956.0340698,-2.039263963699341,0.9619608521461487,-9.645097732543945,-0.24839566283747705,-0.2593426332602299,-10.73739578966497,0.6205549964298132,-0.20317532428509513,-16.387034371287857
1730865956.0840585,-1.9312196969985962,0.9948458671569824,-9.719782829284668,-0.24885349911240517,-0.26150187154615845,-10.736131817579993,0.5997465037082367,-0.24401974303318322,-17.381689354062846
1730865956.1340225,-1.8107657432556152,1.0069457292556763,-9.799466133117676,-0.2493710069764763,-0.26367732740859473,-10.73456178344717,0.5785069045667116,-0.2851475069193077,-18.39403684548424
1730865956.184022,-1.7375962734222412,1.0039891004562378,-9.883305549621582,-0.24996149162643272,-0.26586317766560486,-10.732694960792749,0.5564658745454356,-0.32727918887737545,-19.441660540653043
1730865956.2339506,-1.6901278495788574,0.9899908900260925,-9.963652610778809,-0.2506365460081306,-0.26805225840193714,-10.730541881750371,0.5917490759725446,-0.36968960625062774,-17.769096290822578
1730865956.2840056,-1.6511867046356201,1.0167818069458008,-10.022025108337402,-0.2514049804190792,-0.2702363524356425,-10.728115363257315,0.5699455174377305,-0.41334570803981857,-18.801389905516345
1730865956.3338845,-1.626352071762085,1.0566904544830322,-10.058816909790039,-0.2522722821571709,-0.2724064769618056,-10.725431248808516,0.6036717632975872,-0.45696359763721756,-17.246041595770073
1730865956.3839247,-1.6089198589324951,1.1275053024291992,-10.08283519744873,-0.25324043086896275,-0.27455338395712947,-10.72250877930059,0.5822400753373724,-0.5018066588504574,-18.25784148667376
1730865956.433835,-1.548673152923584,1.161179542541504,-10.08017635345459,-0.2543078997367121,-0.27666827884186806,-10.719370590367802,0.615433514851502,-0.5469824283292959,-16.8083807340911
1730865956.4838657,-1.5168516635894775,1.1840696334838867,-10.051786422729492,-0.25546966842383567,-0.2787435376282328,-10.716042373671769,0.6434682360277113,-0.5931907834371504,-15.624758055895759
1730865956.533793,-1.4813148975372314,1.1318827867507935,-9.987784385681152,-0.2567171853082455,-0.28077312270146654,-10.71255220656989,0.6232435015474067,-0.6398274348046157,-16.583549266574078
1730865956.5838237,-1.4938756227493286,1.0512200593948364,-9.905617713928223,-0.2580384179134942,-0.28275246130813647,-10.708929549931192,0.6022838679548677,-0.687378826266733,-17.573450084318345
1730865956.6337664,-1.5253958702087402,0.9455553293228149,-9.82075309753418,-0.2594181774499994,-0.2846777263972707,-10.705203989527236,0.5807449581700594,-0.7354876378005404,-18.586935477180706
1730865956.683823,-1.6069215536117554,0.8572342395782471,-9.72569751739502,-0.2608388250650201,-0.28654471304037354,-10.70140388285458,0.613933984890475,-0.7846010576681955,-17.08751587564247
1730865956.7337284,-1.7038275003433228,0.803158164024353,-9.66273307800293,-0.26228137582892974,-0.2883476814068541,-10.697555090704416,0.5926578133150023,-0.8340144129715924,-18.083681618264816
1730865956.7837372,-1.8090814352035522,0.8006678223609924,-9.635173797607422,-0.2637269063260804,-0.29007854533577015,-10.693679982924813,0.624608628533111,-0.8843121447758224,-16.671478993934183
1730865956.8336544,-1.8927173614501953,0.8072279691696167,-9.634767532348633,-0.26515804956749756,-0.29172663602243365,-10.689796910030623,0.6514090456418316,-0.9352232296335171,-15.509047183001828
1730865956.883653,-1.9440635442733765,0.8602471947669983,-9.668485641479492,-0.2665602934638106,-0.2932790312628972,-10.685920218301503,0.6308984591577776,-0.9870451794373405,-16.464892940755664
1730865956.9336395,-1.9826576709747314,0.9154075980186462,-9.733817100524902,-0.2679228566699795,-0.2947213049401527,-10.682060756218439,0.60969307071285,-1.0396670817086533,-17.448681203735728
1730865956.9837236,-1.9989776611328125,0.9727869033813477,-9.810914993286133,-0.269239083275664,-0.2960385302716675,-10.678226777613636,0.6389674722178313,-1.0930716205559778,-16.15934106132271
1730865957.033659,-1.9968469142913818,1.0430967807769775,-9.891023635864258,-0.27050643137161795,-0.2972163539386452,-10.67442509679891,0.6179330291958205,-1.1469166779008693,-17.129176131335143
1730865957.083661,-1.9078164100646973,1.1033395528793335,-9.982389450073242,-0.27172607630950213,-0.29824200979014315,-10.670662310426717,0.5960886689053655,-1.201841457561132,-18.13177129773913
1730865957.1336153,-1.811535358428955,1.1505705118179321,-10.037453651428223,-0.2729020191417208,-0.2991052011396269,-10.666945927305415,0.6282123322958949,-1.2572573175744224,-16.71709620005842
1730865957.1835968,-1.684177279472351,1.158101201057434,-10.068291664123535,-0.27403968531987327,-0.29979873958380415,-10.663285240842832,0.6065808854533805,-1.3134595868211605,-17.703334659386954
1730865957.2335598,-1.607757568359375,1.1402833461761475,-10.083259582519531,-0.27514428181612577,-0.30031879583182136,-10.659691787626905,0.5842475872360621,-1.370452816385249,-18.71693158227085
1730865957.2836456,-1.5794684886932373,1.0847864151000977,-10.054425239562988,-0.2762193577820225,-0.3006646817349654,-10.656179354300267,0.5612150608809604,-1.428222668549276,-19.757627396153413
1730865957.3335211,-1.6266781091690063,1.0333889722824097,-10.00820255279541,-0.27726599886923403,-0.3008382073645365,-10.652763568603246,0.6008733233812921,-1.4864925966792537,-18.02757828692981
1730865957.3835816,-1.7076492309570312,0.985153317451477,-9.948284149169922,-0.27828288951821306,-0.30084279424604427,-10.64946112977254,0.6337997218783004,-1.545800734532458,-16.62946513691028
1730865957.4335127,-1.7534598112106323,0.9991579055786133,-9.872818946838379,-0.2792671116411899,-0.30068263496364267,-10.646288802509698,0.611916519662245,-1.6058083843457704,-17.61125185652456
1730865957.4836228,-1.761965274810791,1.019677996635437,-9.80775260925293,-0.2802151806694382,-0.300362198071364,-10.643262328651335,0.5892767318014511,-1.6667200553650805,-18.62220093591797
1730865957.5335631,-1.7332777976989746,1.0601274967193604,-9.740081787109375,-0.2811237662567593,-0.29988619623313784,-10.640395391168038,0.5660250792099687,-1.728141609452942,-19.655749358292187
1730865957.5835302,-1.7360866069793701,1.0578792095184326,-9.706241607666016,-0.2819899019658402,-0.2992598506286934,-10.637698758680056,0.542001109255688,-1.7904913698091471,-20.718930640975728
1730865957.633568,-1.7078824043273926,1.0534155368804932,-9.675688743591309,-0.282810880287544,-0.29848913959500134,-10.635179720063324,0.5861341614624588,-1.8534639790006822,-18.79127414879393
1730865957.683474,-1.7233083248138428,1.0290294885635376,-9.678693771362305,-0.28358409299423454,-0.2975808204513221,-10.632841864422076,0.5625560923422632,-1.9171451794493946,-19.826957389190667
1730865957.733404,-1.7296462059020996,1.0342074632644653,-9.693284034729004,-0.2843069579028941,-0.2965422440772197,-10.630685202554998,0.6040481690165359,-1.9814626033632714,-18.07155256079432
1730865957.7834828,-1.7782323360443115,1.0552161931991577,-9.738544464111328,-0.2849770159873761,-0.2953811547047958,-10.628706603141753,0.5807553449970989,-2.0467640757568444,-19.089198200983947
1730865957.833414,-1.8271551132202148,1.1032934188842773,-9.756502151489258,-0.2855922465698122,-0.29410567950501265,-10.626900471970623,0.5568150651623684,-2.112620745979494,-20.130550325225055
1730865957.8834038,-1.8970963954925537,1.1459044218063354,-9.80887222290039,-0.28615158581732375,-0.29272457807387847,-10.62525952888952,0.5320905938945293,-2.179401171628636,-21.201487563801024
1730865957.933347,-1.9201931953430176,1.1988476514816284,-9.833016395568848,-0.28665553546779804,-0.291247661891115,-10.623775561184242,0.5794786440760865,-2.246720797713351,-19.15748168093318
1730865957.983341,-1.93211030960083,1.2210768461227417,-9.855461120605469,-0.28710663495378114,-0.2896862247221366,-10.622440088687801,0.5551689088876509,-2.315045381252333,-20.202735295878497
1730865958.0332818,-1.8952357769012451,1.1917591094970703,-9.863088607788086,-0.28750957587095727,-0.2880532881581374,-10.621244861780445,0.5993192322603466,-2.3835096155928395,-18.35443563195576
1730865958.0833924,-1.8952357769012451,1.1917591094970703,-9.863088607788086,-0.28787091899142014,-0.28636349016966556,-10.620182144178916,0.5752934119210175,-2.453570123005582,-19.382090687540643
1730865958.0833924,-1.8420480489730835,1.143674373626709,-9.883455276489258,-0.2881985676629451,-0.2846326463824035,-10.619244828818077,0.5751598548503499,-2.453955725497063,-19.387791511585704
1730865958.1332362,-1.7618697881698608,1.129366159439087,-9.8805570602417,-0.2885010985278408,-0.2828771576020023,-10.618426487286698,0.6156756594186054,-2.523475994874878,-17.678466067721228
1730865958.1833367,-1.694387674331665,1.115341305732727,-9.905627250671387,-0.28878689715039657,-0.28111341223034003,-10.617721416167605,0.5920130476417707,-2.594734851998901,-18.684143626681596
1730865958.2332082,-1.6100733280181885,1.094612956047058,-9.931663513183594,-0.2890631491953884,-0.2793573005015188,-10.617124711571527,0.5677800228157913,-2.6662408786615397,-19.70992025404006
1730865958.2832747,-1.5418109893798828,1.0807050466537476,-9.972339630126953,-0.28933487247182343,-0.27762386070061007,-10.616632426072853,0.6099402965015479,-2.738742417969156,-17.946816484016587
1730865958.3331993,-1.499990701675415,1.0729589462280273,-10.015694618225098,-0.2896041310934656,-0.2759270054758448,-10.616241830918819,0.6442086984128219,2.5579869131917397,-16.519966366908708
1730865958.383289,-1.4388550519943237,1.0682786703109741,-10.016959190368652,-0.28986951844291,-0.27427933244587,-10.61595170320613,0.6210076716831615,2.547968703648024,-17.494090026025752
1730865958.4332135,-1.4234479665756226,1.0768064260482788,-10.036955833435059,-0.2901259182049355,-0.2726920459818059,-10.615762484049593,0.6537472391359247,3.9868067210382923,-16.15320972907945
1730865958.4831707,-1.4432932138442993,1.1116139888763428,-10.005428314208984,-0.29036455105835646,-0.2711750162170933,-10.615676207803702,0.6307058351629232,3.9916848558605142,-17.115587297097633
1730865958.5341525,-1.5085569620132446,1.1484904289245605,-9.962830543518066,-0.29057343247673345,-0.26973702260650717,-10.615696177004136,0.6065819956031987,3.995941043332364,-18.119287099494503
1730865958.5831633,-1.5824558734893799,1.1850098371505737,-9.87814998626709,-0.29073831552817064,-0.2683861665857127,-10.615826341842336,0.6415946109242541,4.681062675528781,-16.65151123770179
1730865958.6341417,-1.7026240825653076,1.1562330722808838,-9.797066688537598,-0.2908440125212115,-0.2671302815016767,-10.616070385834352,0.6175374473339623,4.691251048480763,-17.645531627976023
1730865958.6841717,-1.8434793949127197,1.0966352224349976,-9.701960563659668,-0.29087596395243676,-0.2659770445393293,-10.616430636794062,0.5932190223046617,4.700566737605833,-18.646810266697553
1730865958.7341104,-1.9647480249404907,1.0394996404647827,-9.635427474975586,-0.29082194980353815,-0.2649336076510057,-10.616906989631111,0.5682218125514804,4.709203673248834,-19.672652602942662
1730865958.7841659,-2.0362460613250732,0.9632866978645325,-9.589738845825195,-0.290673692110757,-0.2640058755646996,-10.617496041134764,0.6101266307333401,5.113773853287235,-17.92534604757644
1730865958.8331368,-2.0580220222473145,0.9396564364433289,-9.595098495483398,-0.2904279599732182,-0.263197725677068,-10.618190623819597,0.5859698014939053,5.124819884971575,-18.91058647538596
1730865958.8841126,-2.0260348320007324,0.9472898840904236,-9.640368461608887,-0.29008690214601573,-0.2625104620870539,-10.61897988048719,0.6239073673312046,5.3792963209036335,-17.32915250949771
1730865958.9341154,-1.9630955457687378,1.0134309530258179,-9.721592903137207,-0.2896575785603915,-0.26194276308209674,-10.619849928757834,0.5995646164146373,5.391330193189037,-18.31593890959363
1730865958.984118,-1.895137906074524,1.0919886827468872,-9.815616607666016,-0.2891508713586688,-0.2614912292956581,-10.62078502666763,0.6354512990974887,5.56418961366514,-16.829552118004358
1730865959.0339692,-1.8222602605819702,1.1473636627197266,-9.905097961425781,-0.28858008202441965,-0.26115137318017734,-10.621769017599888,0.6113522736496945,5.576046142604049,-17.80119911642724
1730865959.0840662,-1.7455374002456665,1.1361726522445679,-9.956357955932617,-0.2879594970417449,-0.26091863501930296,-10.622786753553275,0.6456881756957219,5.698773038630136,-16.41259051261467
1730865959.1339521,-1.700907826423645,1.1482601165771484,-10.000899314880371,-0.28730309385536734,-0.26078900096428076,-10.62382520939297,0.6217334226255891,5.709895959830848,-17.375072294236222
1730865959.1839936,-1.7207727432250977,1.1174755096435547,-10.020934104919434,-0.28662356928513705,-0.2607591358371878,-10.624874152860288,0.5967607182686893,5.720497953163921,-18.376171087908194
1730865959.233999,-1.7523990869522095,1.134559988975525,-9.988039016723633,-0.2859319206744419,-0.26082624245724295,-10.625926371747441,0.6333266704445752,5.815979920351455,-16.86955087694232
1730865959.2839696,-1.8286563158035278,1.1376848220825195,-9.950651168823242,-0.2852376467912509,-0.26098788821091856,-10.626977449321917,0.6088091402894603,5.825726301298145,-17.847974985216755
1730865959.3339097,-1.8731988668441772,1.1633003950119019,-9.883402824401855,-0.28454938691845155,-0.2612419484548618,-10.6280251200089,0.6435187132090184,5.896136934898805,-16.444564339143195
1730865959.3839538,-1.87714421749115,1.2097761631011963,-9.829784393310547,-0.28387565882184157,-0.2615867125010121,-10.629068366386061,0.6717531309165982,5.953420232407197,-15.306369528173265
1730865959.43391,-1.87714421749115,1.2097761631011963,-9.829784393310547,-0.2832253318025624,-0.26202111552017127,-10.630106510928227,0.6485068637176974,5.96147027083632,-16.230417064732165
1730865959.43391,-1.8527741432189941,1.2444229125976562,-9.779115676879883,-0.2826076895213257,-0.2625449716633877,-10.631138550947101,0.6484055858278981,5.9615034567073835,-16.234439607869927
1730865959.483997,-1.7791498899459839,1.2536530494689941,-9.761033058166504,-0.2820321448886473,-0.2631591063495059,-10.63216275725417,0.6240043499540046,5.9690484884278465,-17.20288315081306
1730865959.5338774,-1.7433054447174072,1.2289862632751465,-9.7857084274292,-0.28150766536471084,-0.2638653711569722,-10.633176430866627,0.6563299848518547,5.9758350440009025,-15.899885990984636
1730865959.583923,-1.7001326084136963,1.2023404836654663,-9.813427925109863,-0.2810420572731641,-0.2646664637457789,-10.634175908199522,0.632013996466058,5.982079853314826,-16.862617649655753
1730865959.6338441,-1.658395528793335,1.1724835634231567,-9.855494499206543,-0.28064134689633924,-0.2655655088997243,-10.635156905439299,0.6630451564976889,5.987559221934391,-15.622736123043738
1730865959.6838272,-1.589672565460205,1.1396898031234741,-9.88569164276123,-0.2803093053798027,-0.2665655250961673,-10.636115061310258,0.6888001722538702,5.992421027878236,-14.605578653229818
1730865959.733828,-1.5081108808517456,1.1046420335769653,-9.922158241271973,-0.28004697658710404,-0.26766890247881936,-10.637046491131175,0.6654978881467543,5.9966327926406615,-15.526608104466119
1730865959.7838185,-1.4295170307159424,1.1049782037734985,-9.95274543762207,-0.2798521175583557,-0.2688769591719535,-10.637948261391221,0.6415670547741972,6.000160032279688,-16.47141087849683
1730865959.833836,-1.4295170307159424,1.1049782037734985,-9.95274543762207,-0.2797186802981778,-0.27018967679571737,-10.638818738469645,0.6169200176183671,6.003015389946649,-17.443469853477644
1730865959.833836,-1.4276865720748901,1.1359474658966064,-9.951932907104492,-0.27963664728279336,-0.27160569738737134,-10.63965773968887,0.6168078276649994,6.003026680279546,-17.44789231643355
1730865959.8838398,-1.4848183393478394,1.1582427024841309,-9.916403770446777,-0.27959241436619486,-0.2731225631874711,-10.64046642994376,0.6503980231167835,6.00518926225117,-16.100603185471336
1730865959.9337692,-1.5948827266693115,1.1681678295135498,-9.850994110107422,-0.2795697013319638,-0.27473708868753655,-10.641246946183882,0.6784606372860938,6.006676109615115,-14.9942228505055
1730865959.9839382,-1.7093874216079712,1.1369863748550415,-9.79179573059082,-0.2795509423264421,-0.2764456684647728,-10.642001746765583,0.6545863120479841,6.007484381029901,-15.933771760189742
1730865960.0338023,-1.8193243741989136,1.1080282926559448,-9.737626075744629,-0.2795189989787458,-0.27824432847089864,-10.642732794635174,0.6821470443810332,6.007588718536641,-14.852190698839324
1730865960.083812,-1.884267807006836,1.1029753684997559,-9.714607238769531,-0.27945882938760774,-0.28012853066513305,-10.64344081038597,0.658606376263679,6.006998831503143,-15.777764278348155
1730865960.1337838,-1.9105286598205566,1.1115912199020386,-9.716594696044922,-0.279358730527105,-0.28209296682635115,-10.64412481042666,0.6344081993609176,6.005707745212627,-16.72833543506929
1730865960.1837988,-1.9257912635803223,1.116139531135559,-9.744019508361816,-0.2792109555002935,-0.2841315402763587,-10.64478204099832,0.6651549096579088,6.003707786283489,-15.521483668346713
1730865960.2337227,-1.9447674751281738,1.1083884239196777,-9.78177261352539,-0.2790117839855127,-0.28623749835702533,-10.645408297631967,0.6411102995719452,6.000995012033153,-16.465090191895552
1730865960.28374,-1.942165493965149,1.0875669717788696,-9.824285507202148,-0.27876129128846305,-0.288403548502112,-10.645998513111508,0.6709815258045503,5.9975667932505266,-15.304043786443758
1730865960.3336928,-1.9253342151641846,1.0885087251663208,-9.844911575317383,-0.2784629624135472,-0.29062187060860944,-10.646547437343205,0.6471308328308645,5.9934195186627095,-16.239672719588185
1730865960.383695,-1.8715403079986572,1.0781447887420654,-9.8873929977417,-0.2781231246563016,-0.2928840874836,-10.64705024674856,0.6225350778320949,5.988534284284924,-17.203853794552966
1730865960.4336674,-1.8378441333770752,1.0401469469070435,-9.917705535888672,-0.27775016284012727,-0.2951812446192206,-10.647503035679575,0.5972946495071675,5.982925100132225,-18.192687599616477
1730865960.48365,-1.7672381401062012,1.032460331916809,-9.951805114746094,-0.2773535933001626,-0.2975037381996225,-10.647903228377615,0.6355725882226264,5.976583505127544,-16.71657698006611
1730865960.5337403,-1.7021394968032837,1.0370874404907227,-9.975760459899902,-0.276943094181997,-0.2998412170768808,-10.648249912443308,0.6105897551179389,5.969455491632764,-17.695523049126432
1730865960.5838394,-1.65043306350708,1.073177456855774,-10.0149564743042,-0.2765275470553473,-0.3021826409381253,-10.648544076478498,0.6475544299235391,5.961556340564933,-16.316957438063824
1730865960.6337297,-1.6014059782028198,1.14634108543396,-10.020565032958984,-0.27611419385975655,-0.3045166412847693,-10.64878876143903,0.6231148545155494,5.952970988416717,-17.2770284770051
1730865960.6836996,-1.5850491523742676,1.22859787940979,-9.987622261047363,-0.2757080349729274,-0.30683222097698837,-10.64898905685951,0.6585348078587262,5.943601928834887,-15.967792636544585
1730865960.733647,-1.6096011400222778,1.2526041269302368,-9.945744514465332,-0.2753115643085866,-0.309119654353706,-10.649151788477404,0.6342807200887008,5.9334336890574555,-16.92326782090281
1730865960.7837098,-1.665219783782959,1.2559261322021484,-9.857342720031738,-0.27492494607033924,-0.3113712242821371,-10.649284839900215,0.6093918697116932,5.9225119926326615,-17.903276748283687
1730865960.8336103,-1.7471556663513184,1.2027697563171387,-9.769553184509277,-0.27454666842163866,-0.3135814551171167,-10.649396176443648,0.5838550047300308,5.9108276511733235,-18.90838158857605
1730865960.8836133,-1.8258168697357178,1.1118991374969482,-9.667461395263672,-0.2741745547543324,-0.31574673742083303,-10.64949268327139,0.6265051028051348,5.898329105826363,-17.29044526060425
1730865960.9335773,-1.8258168697357178,1.1118991374969482,-9.667461395263672,-0.27380683889006624,-0.3178645045833022,-10.649579057188316,0.6014609040881443,5.885075956314002,-18.277418963541386
1730865960.9335773,-1.8815194368362427,1.0185134410858154,-9.608986854553223,-0.2734429456223437,-0.31993234146570354,-10.649657087892468,0.6013537897296055,5.885018360543156,-18.28163951998492
1730865960.9835758,-1.8734042644500732,0.954424262046814,-9.58102798461914,-0.27308386955417807,-0.32194722261062414,-10.649725399204986,0.6420692670472634,5.870971142825309,-16.76239953977881
1730865961.033538,-1.8734042644500732,0.954424262046814,-9.58102798461914,-0.27273226944309625,-0.32390482788871056,-10.649779442465295,0.6174590790621995,5.856106664510632,-17.734639536178168
1730865961.033538,-1.824157476425171,0.9195178747177124,-9.613903045654297,-0.27239229680673466,-0.32579908376595007,-10.649811708377616,0.6173500959900446,5.856039969250956,-17.738944295842167
1730865961.0836797,-1.7324042320251465,0.9404146075248718,-9.695297241210938,-0.27206907904210464,-0.327622091340808,-10.649812316990513,0.5920119440666448,5.840331289911059,-18.739663102860877
1730865961.133535,-1.6441199779510498,0.9858413338661194,-9.814929962158203,-0.2717678224432929,-0.3293643841294243,-10.649770067167465,0.6348608254899129,5.823876460360591,-17.107954805764276
1730865961.1836119,-1.5686087608337402,1.074684739112854,-9.920032501220703,-0.2714926718480716,-0.3310155326424201,-10.649673879507255,0.6099703872905291,5.806488874967846,-18.092085898225154
1730865961.2334654,-1.542607307434082,1.151999592781067,-10.003628730773926,-0.271245665146662,-0.3325651235884105,-10.649514365013589,0.6493592439618546,5.788363701774953,-16.58359631123149
1730865961.283573,-1.5542049407958984,1.2301385402679443,-10.041191101074219,-0.27102612494558365,-0.33400392978151866,-10.64928512611345,0.6248724387652095,5.769313466055041,-17.552398924579027
1730865961.3333614,-1.6225168704986572,1.2406723499298096,-10.066964149475098,-0.27083067731606514,-0.3353249536045382,-10.64898351924556,0.599885650843013,5.749566633126421,-18.54080926241004
1730865961.3834236,-1.7253564596176147,1.2138913869857788,-10.027120590209961,-0.27065392899722096,-0.33652401669295684,-10.64861081915698,0.5740573077554584,5.728849958749557,-19.5623567552939
1730865961.4334004,-1.8377536535263062,1.1672279834747314,-9.96264362335205,-0.27048968745087426,-0.33759970647854687,-10.64817180477974,0.6208113930568228,5.707344066511239,-17.758806105056724
1730865961.4834306,-1.8791604042053223,1.118408203125,-9.90227222442627,-0.27033240358780164,-0.33855278308597503,-10.64767384116726,0.5955315388018676,5.684906577872018,-18.759259700876548
1730865961.5334456,-1.8703622817993164,1.049418330192566,-9.87574577331543,-0.27017831765936184,-0.33938532310330066,-10.647125731593311,0.6386167602305136,5.661711244735271,-17.110821374404495
1730865961.5833516,-1.7904411554336548,0.9940613508224487,-9.860814094543457,-0.27002585038012605,-0.34009980072318746,-10.646536728330622,0.6735067617765758,5.637702144685939,-15.773333326423032
1730865961.6333067,-1.6464136838912964,0.9628157019615173,-9.86606502532959,-0.26987507885075157,-0.3406982397800203,-10.645915917867011,0.6497492030769355,5.612793714552892,-16.715639517413457
1730865961.683353,-1.5627888441085815,0.9482263922691345,-9.848698616027832,-0.26972646792388694,-0.341181600844046,-10.645271936441278,0.6252855812108127,5.586999710051743,-17.685811395865247
1730865961.7333167,-1.562458872795105,0.9341247081756592,-9.841981887817383,-0.26957943430088127,-0.34154949628638676,-10.644612838583843,0.6001392116872536,5.560342919792452,-18.682937046964863
1730865961.783527,-1.5797141790390015,0.9555282592773438,-9.840194702148438,-0.2694314876071362,-0.341800189089316,-10.643945991871174,0.6421857659461401,5.53269248373665,-17.055173275810965
1730865961.8334281,-1.656130313873291,1.0449622869491577,-9.828990936279297,-0.26927825102680425,-0.3419308837893301,-10.64327799528322,0.6176097981010336,5.504454020613472,-18.030204719949335
1730865961.883437,-1.7408385276794434,1.130565881729126,-9.812065124511719,-0.2691141728292188,-0.34193843873613095,-10.642614620961563,0.5921605472987781,5.475130189769233,-19.03978955454121
1730865961.933372,-1.8037424087524414,1.1793253421783447,-9.80042552947998,-0.2689336149693909,-0.34182042620554354,-10.6419607320924,0.5662889991119803,5.445240489322093,-20.066052470274222
1730865961.9834905,-1.8700915575027466,1.1633671522140503,-9.820185661315918,-0.26873197925406794,-0.34157609170950876,-10.641320208230704,0.6156962441979913,5.41423164274647,-18.1477936222122
1730865962.0333447,-1.9134926795959473,1.100498914718628,-9.80792236328125,-0.26850661050029434,-0.34120672397413593,-10.640695974961114,0.5904410336373632,5.38262358054406,-19.150334787060224
1730865962.083408,-1.9134926795959473,1.100498914718628,-9.80792236328125,-0.26825736742253725,-0.3407153482919525,-10.64009011775897,0.6351363609380063,5.3499414362869855,-17.414243176729677
1730865962.083408,-1.9817607402801514,0.9967160820960999,-9.799867630004883,-0.2679868514244316,-0.34010605934779703,-10.63950396911935,0.6350286633683271,5.349796382906525,-17.41852147549606
1730865962.1332574,-2.009242534637451,0.8998187184333801,-9.762540817260742,-0.26770046160883154,-0.3393831867903425,-10.638938114549498,0.6103859543276511,5.316632255520882,-18.397461522103146
1730865962.1833553,-2.0146119594573975,0.8520634174346924,-9.732019424438477,-0.267406429568423,-0.3385502766411582,-10.638392278874463,0.6513620349148821,5.282187982538162,-16.794740739380053
1730865962.2332752,-1.9653370380401611,0.8578269481658936,-9.763777732849121,-0.26711566776300255,-0.33760918129955847,-10.637865144758774,0.6848455785164741,5.247140532184103,-15.491035759199518
1730865962.2832632,-1.8760980367660522,0.9307280778884888,-9.811843872070312,-0.2668411651728981,-0.3365597574690852,-10.637354374586112,0.6613202812563255,5.211158003684656,-16.426369943916058
1730865962.3331802,-1.7786275148391724,1.0387083292007446,-9.875558853149414,-0.2665968797485694,-0.33540037980827436,-10.636857049104707,0.6371954892585409,5.174437640076614,-17.3856206326895
1730865962.3832405,-1.7020138502120972,1.1243410110473633,-9.926508903503418,-0.26639633571616805,-0.3341291017259925,-10.636370410839408,0.6122694239700175,5.136675247022413,-18.37683225189602
1730865962.4332123,-1.6601722240447998,1.1989141702651978,-9.964488983154297,-0.26625129915674123,-0.3327450352536576,-10.635892635809158,0.6532103251275998,5.098210889243184,-16.778118635056018
1730865962.4832904,-1.6342209577560425,1.2611186504364014,-9.975395202636719,-0.26617085402386365,-0.33124952629977017,-10.635423409123039,0.6287336490126886,5.058804095038961,-17.75223952626296
1730865962.5331616,-1.622498869895935,1.2675787210464478,-9.962905883789062,-0.26616096931669475,-0.329646922676342,-10.634964175098355,0.6667900654763582,5.018818942474205,-16.271800975815346
1730865962.5832772,-1.639206886291504,1.2061913013458252,-9.937066078186035,-0.2662244711539453,-0.3279448005872088,-10.634518027056702,0.642622794865152,4.977674036954134,-17.234616105987055
1730865962.6331246,-1.6860491037368774,1.1449236869812012,-9.880510330200195,-0.26636134881643714,-0.3261535160229752,-10.634089281152846,0.6179944665118359,4.93605855424869,-18.21586258725134
1730865962.6834114,-1.7109571695327759,1.0855287313461304,-9.83228588104248,-0.2665693550850894,-0.3242852105065969,-10.63368281385555,0.6580074346762914,4.893084139425645,-16.65954987471221
1730865962.7330935,-1.709753394126892,1.0741137266159058,-9.788422584533691,-0.26684471820521927,-0.32235269633410557,-10.633303289072108,0.6335734176171266,4.849468735242977,-17.63403953372741
1730865962.7832174,-1.6724727153778076,1.0828081369400024,-9.795247077941895,-0.2671826550971536,-0.32036863602138355,-10.632954485534174,0.6714248368755975,4.805692676451536,-16.17187997985385
1730865962.8330767,-1.6206578016281128,1.0981696844100952,-9.837224006652832,-0.2675774857658714,-0.31834518494722047,-10.632638973748856,0.6471738170182308,4.76015461568678,-17.140352580906523
1730865962.8830912,-1.5427521467208862,1.13316011428833,-9.84755802154541,-0.26802236004430735,-0.31629401187053074,-10.632358248872936,0.6825618007548112,4.714999756777056,-15.769060258426958
1730865962.933006,-1.5629488229751587,1.1618047952651978,-9.863628387451172,-0.2685088060960346,-0.31422653200347306,-10.632113122161389,0.6589143352800526,4.668499721929917,-16.7141754505779
1730865962.9830446,-1.629149079322815,1.215698003768921,-9.845447540283203,-0.2690265399189674,-0.3121542491653576,-10.631904051581799,0.6343195069833177,4.620681955093955,-17.696875642742107
1730865963.0340078,-1.629149079322815,1.215698003768921,-9.845447540283203,-0.2695638591224384,-0.3100891230487103,-10.631731267883664,0.6089676901462936,4.571935599100224,-18.709494385689425
1730865963.0340078,-1.6967530250549316,1.2590280771255493,-9.838217735290527,-0.2701084007774016,-0.3080438444400493,-10.631594750060831,0.6088583655914876,4.571726529206896,-18.71386035729856
1730865963.084012,-1.7413307428359985,1.2730633020401,-9.82457160949707,-0.2706479184903689,-0.3060319761133086,-10.631494155395423,0.6517621383908611,4.5229677178625085,-17.038934607156474
1730865963.1339903,-1.7413307428359985,1.2730633020401,-9.82457160949707,-0.27117099264919053,-0.30406799810519625,-10.631428748475301,0.6271930821672868,4.473303007846461,-18.020301127304624
1730865963.1339903,-1.7646113634109497,1.2583575248718262,-9.81188678741455,-0.2716675500325266,-0.3021672115929248,-10.631397339057187,0.6270855164837303,4.47308689205156,-18.024596561112393
1730865963.1839724,-1.7786732912063599,1.2127102613449097,-9.802888870239258,-0.27212910770691673,-0.3003454148651273,-10.631398236797345,0.6668032072351837,4.422323902314836,-16.480019270179355
1730865963.233917,-1.8130278587341309,1.14822256565094,-9.807696342468262,-0.27254889585025477,-0.2986183278126255,-10.631429219977301,0.6429009279218661,4.371731510876649,-17.43470505014176
1730865963.2838762,-1.809478998184204,1.100132703781128,-9.810400009155273,-0.27292197853343086,-0.297000808753367,-10.631487550550023,0.6180291620394208,4.319781446720035,-18.42746242019916
1730865963.333905,-1.797210454940796,1.1131501197814941,-9.829365730285645,-0.27324529063512193,-0.2955060779305706,-10.631570077703298,0.6598571226912799,4.2670955522140535,-16.798839862762772
1730865963.383851,-1.7991148233413696,1.125964879989624,-9.836786270141602,-0.273517490680986,-0.2941452813266937,-10.631673421895806,0.6353011059944845,4.213400815506813,-17.77869490718536
1730865963.4338167,-1.7826963663101196,1.1695894002914429,-9.845488548278809,-0.2737386860507196,-0.292927535657896,-10.631794187638459,0.6740723321633879,5.34651549336564,-16.27415264649992
1730865963.4838102,-1.7767739295959473,1.2048052549362183,-9.856528282165527,-0.27391013748336646,-0.2918603202311071,-10.631929146997162,0.6499856698666427,5.30668165208379,-17.235074838709977
1730865963.5337822,-1.8129676580429077,1.1983704566955566,-9.851751327514648,-0.2740340142080063,-0.29094997542206413,-10.632075369168957,0.685548377784447,5.5786019690706175,-15.856734144703058
1730865963.5838563,-1.865580439567566,1.1427628993988037,-9.82577133178711,-0.2741133441361005,-0.2902020048716223,-10.632230259316625,0.6619747025450019,5.542343077358782,-16.796888938567662
1730865963.633715,-1.881205439567566,1.0834192037582397,-9.824111938476562,-0.27415223413311907,-0.28962092936922734,-10.63239145876985,0.636864857867842,5.504061621448333,-17.797532374764117
1730865963.68373,-1.863053321838379,1.0553536415100098,-9.826824188232422,-0.2741561280535776,-0.2892097620973661,-10.632556681046848,0.676092248850058,5.644276532850412,-16.27014876127622
1730865963.7337158,-1.8265241384506226,1.0528087615966797,-9.850543975830078,-0.2741317663517684,-0.2889694784923319,-10.632723648392732,0.6512993579621644,5.607711317972309,-17.257654358714035
1730865963.7837036,-1.7715882062911987,1.0776413679122925,-9.877630233764648,-0.27408674969856256,-0.28889881541686857,-10.63289020957449,0.627049205051861,5.572228615397295,-18.22284545473903
1730865963.8336518,-1.7354477643966675,1.0973707437515259,-9.941924095153809,-0.2740288511517574,-0.28899446664826844,-10.633054635904692,0.6678034884717519,5.659367058970612,-16.636874057339163
1730865963.8837056,-1.689695954322815,1.1317925453186035,-9.966397285461426,-0.27396528934428266,-0.28925153535976467,-10.633216063866481,0.6432117666820619,5.6238613725935815,-17.61532232080114
1730865963.9335935,-1.6389662027359009,1.1293141841888428,-9.971222877502441,-0.27390209398637494,-0.28966405137215223,-10.633374931546134,0.6182237972535033,5.588047773096882,-18.608873949877932
1730865963.9836588,-1.6623183488845825,1.1505361795425415,-9.938908576965332,-0.27384362622991887,-0.2902253984817703,-10.633533151054547,0.6605224271533201,5.652670802025495,-16.954324381023184
1730865964.0335605,-1.685981035232544,1.114296793937683,-9.907242774963379,-0.27379241133748317,-0.29092856947238066,-10.633693887349098,0.635239814496527,5.616634278668253,-17.958948559036397
1730865964.0836053,-1.7127622365951538,1.098321795463562,-9.828071594238281,-0.2737493941510356,-0.29176620934431285,-10.633861006507747,0.6750080977176307,5.6600799447525425,-16.402704399313087
1730865964.1335196,-1.7381293773651123,1.0863145589828491,-9.812661170959473,-0.27371444776234355,-0.2927304772215217,-10.634038335625972,0.6505012278863311,5.625063688914222,-17.37587987942743
1730865964.1835907,-1.7394286394119263,1.1070185899734497,-9.751754760742188,-0.27368687589217155,-0.29381290549585193,-10.634228934030252,0.6869706493855388,5.6567175589241145,-15.947091641728813
1730865964.2335656,-1.7783422470092773,1.099996566772461,-9.74980354309082,-0.2736657975563924,-0.295004426389319,-10.634434545242083,0.662920406004501,5.622221308221388,-16.901425291458274
1730865964.2834716,-1.775434136390686,1.1180026531219482,-9.734968185424805,-0.27365044171783276,-0.2962955371488223,-10.634655288180378,0.6382190362779212,5.587033251498617,-17.881035182011004
1730865964.3334875,-1.775434136390686,1.1180026531219482,-9.734968185424805,-0.2736403636630187,-0.29767649504191235,-10.634889593178588,0.6766266771157099,5.621098902220632,-16.368408146860514
1730865964.3334875,-1.7961090803146362,1.0978853702545166,-9.74190616607666,-0.2736355419638309,-0.29913747200579177,-10.635134329997502,0.6765262969479572,5.620955322981808,-16.37238622707961
1730865964.3834748,-1.8024729490280151,1.096219539642334,-9.761283874511719,-0.27363641617091855,-0.30066860374018695,-10.635385059814627,0.6522211431699442,5.586303534820853,-17.335342320641637
1730865964.4334664,-1.8024729490280151,1.096219539642334,-9.761283874511719,-0.2736439400486438,-0.30225995368457764,-10.635636373871462,0.6884478175198935,5.613083939029324,-15.912758987020947
1730865964.4334664,-1.8615046739578247,1.0873790979385376,-9.789366722106934,-0.2736596497926203,-0.30390149729344795,-10.635882256664516,0.6883443796379093,5.61293539037081,-15.916855220820212
1730865964.4834557,-1.8906596899032593,1.113863468170166,-9.796687126159668,-0.2736858319846496,-0.3055831720717967,-10.636116433832866,0.6641456052571069,5.578293991746444,-16.874892570763556
1730865964.533443,-1.8906596899032593,1.113863468170166,-9.796687126159668,-0.2737258044581108,-0.3072950038528515,-10.63633268605948,0.6395588126215391,5.54330869277812,-17.847796457912406
1730865964.533443,-1.8843986988067627,1.1354656219482422,-9.818350791931152,-0.2737840749515924,-0.3090273026482303,-10.636525083396041,0.639453065081149,5.543158652578635,-17.851979884100146
1730865964.5834439,-1.8520234823226929,1.1645499467849731,-9.829914093017578,-0.27386620093285274,-0.3107708913448158,-10.636688164323997,0.6140985591065998,5.5072812430032005,-18.854770902161377
1730865964.6334517,-1.8085271120071411,1.176212191581726,-9.861815452575684,-0.2739783851077473,-0.3125173629829303,-10.63681713941816,0.6586458408145849,5.544256003576881,-17.103217544628368
1730865964.6834452,-1.7181299924850464,1.1627516746520996,-9.876137733459473,-0.27412684872305965,-0.31425930357996895,-10.636908133426083,0.6336169356418536,5.508632529258863,-18.092425763535175
1730865964.7333987,-1.6924563646316528,1.1392431259155273,-9.905946731567383,-0.27431702556623827,-0.31599032661183396,-10.636958425942511,0.6740701765206609,5.5373492062506315,-16.50884904001284
1730865964.7834475,-1.6710063219070435,1.1597439050674438,-9.915834426879883,-0.2745528039512485,-0.3177049057922916,-10.636966650806386,0.6499782484993365,5.502751170563287,-17.460590417388104
1730865964.8333828,-1.6623401641845703,1.1732234954833984,-9.910504341125488,-0.27483609636192025,-0.3193982179469477,-10.636932903585098,0.624173668249438,5.4658888088226085,-18.47943701487278
1730865964.8834436,-1.664509892463684,1.188157320022583,-9.918722152709961,-0.2751667653663594,-0.3210661589103776,-10.636858705544203,0.5989637465252329,5.430052701219126,-19.4742670300558
1730865964.933397,-1.664509892463684,1.188157320022583,-9.918722152709961,-0.2755427642648956,-0.32270545414788915,-10.6367468570577,0.6468669288251788,5.469530268733925,-17.593966802240196
1730865964.933397,-1.6572636365890503,1.1673773527145386,-9.908549308776855,-0.27596037399088497,-0.3243136946862262,-10.636601258377317,0.6467448174561707,5.469354966913321,-17.598783018878926
1730865964.9834638,-1.6591688394546509,1.130024790763855,-9.90406608581543,-0.2764144469086359,-0.32588918779140946,-10.636426701678067,0.6215226359270072,5.433234994413522,-18.593243413892658
1730865965.0333724,-1.6591688394546509,1.130024790763855,-9.90406608581543,-0.27689862755264905,-0.32743063264066696,-10.636228633670333,0.6655516713868813,5.464805107016805,-16.876834299146267
1730865965.0333724,-1.6374982595443726,1.1253414154052734,-9.897210121154785,-0.27740555289063645,-0.3289367941989031,-10.636012940063004,0.6654451004341333,5.46465033008649,-16.881035457822396
1730865965.0834715,-1.6542800664901733,1.1127800941467285,-9.890379905700684,-0.2779270112248672,-0.33040632613709964,-10.63578576502222,0.7011789555487524,5.48498016207535,-15.490553376527433
1730865965.1333466,-1.6624219417572021,1.1077226400375366,-9.87459659576416,-0.27845410689038425,-0.3318376957651892,-10.635553327730198,0.6775778288685257,5.450187958714085,-16.420530425962664
1730865965.183495,-1.6803877353668213,1.1172305345535278,-9.872438430786133,-0.27897751889110556,-0.3332291383519733,-10.635321721855007,0.6530011901718727,5.414153967561577,-17.388076744674603
1730865965.2333581,-1.6803877353668213,1.1172305345535278,-9.872438430786133,-0.27948782232990155,-0.33457867451789597,-10.635096739920098,0.6910424616481072,5.441742890526282,-15.900470238223166
1730865965.2333581,-1.6642932891845703,1.1443051099777222,-9.851571083068848,-0.2799757455353804,-0.3358842179212112,-10.634883754757267,0.6909399315763253,5.441591300830681,-15.904502633010065
1730865965.2835011,-1.676072597503662,1.1518168449401855,-9.866317749023438,-0.2804322900125439,-0.33714375734336816,-10.634687630259286,0.6668444983061129,5.406063354676729,-16.85165622017467
1730865965.3333554,-1.688549518585205,1.173169493675232,-9.839729309082031,-0.2808487929114959,-0.3383555791225082,-10.634512647103811,0.7027744319502592,5.428920446923387,-15.451286159545104
1730865965.3832452,-1.7406500577926636,1.1670211553573608,-9.839791297912598,-0.28121709598102174,-0.3395184623105048,-10.634362438325258,0.6788625333938325,5.3933166618038815,-16.389798181921307
1730865965.4331973,-1.7592371702194214,1.1434805393218994,-9.807424545288086,-0.28152989003523626,-0.3406317538822081,-10.634239893081348,0.7126257838312728,5.416823229893095,-15.07881574541568
1730865965.4832108,-1.7919294834136963,1.1425443887710571,-9.786770820617676,-0.2817811353996932,-0.34169526847196396,-10.634147003025763,0.6890107596960794,5.38148213436667,-16.004360348445545
1730865965.5332005,-1.8289555311203003,1.1339582204818726,-9.734051704406738,-0.28196642463942784,-0.3427090926484182,-10.63408463835404,0.6647247538698685,5.345335725367084,-16.955170613668933
1730865965.5832748,-1.906752586364746,1.1017496585845947,-9.722082138061523,-0.28208331747268667,-0.3436734021197747,-10.63405226233953,0.7007365376505004,5.37138592340092,-15.550967157684731
1730865965.6332035,-1.9440362453460693,1.0649313926696777,-9.711519241333008,-0.2821317575764066,-0.34458824148256795,-10.634047693865861,0.6768156647732504,5.335544435968268,-16.48581084252762
1730865965.6832056,-1.954621434211731,1.0486096143722534,-9.747272491455078,-0.28211447681241153,-0.3454532069205578,-10.63406708837603,0.7095756622196417,5.35713922626733,-15.16952260355666
1730865965.733109,-1.9300211668014526,1.0519165992736816,-9.785317420959473,-0.28203710821055283,-0.34626715802786306,-10.634105237528132,0.6853092641930922,5.320499547466217,-16.1142187890842
1730865965.7832572,-1.8917458057403564,1.0662336349487305,-9.863221168518066,-0.2819078525786289,-0.34702813675071764,-10.634156178188611,0.6610188989990224,5.284020061326873,-17.05899615514086
1730865965.8331983,-1.8917458057403564,1.0662336349487305,-9.863221168518066,-0.28173682361723484,-0.3477335124733841,-10.63421397498005,0.6359877350140112,5.246614262324996,-18.03178346537002
1730865965.8331983,-1.8261340856552124,1.0515388250350952,-9.917787551879883,-0.2815353181497193,-0.34838019928255715,-10.634273421115125,0.6358731376908415,5.246443420008956,-18.03623531164738
1730865965.8832433,-1.7325536012649536,1.0188775062561035,-9.973783493041992,-0.28131504100918714,-0.3489647595648705,-10.63433054999689,0.6770673376082395,5.208007568748826,-16.40116506745436
1730865965.9331484,-1.6438817977905273,1.0134690999984741,-9.997303009033203,-0.28108711126130836,-0.34948333821554745,-10.634383082592148,0.652284379394369,5.1685929056224245,-17.361844889090715
1730865965.9832146,-1.6068297624588013,1.0392526388168335,-10.010113716125488,-0.2808609314888032,-0.3499315785123659,-10.634430795453003,0.6894784823507561,5.1281557239146185,-15.86636651662365
1730865966.0331244,-1.5930547714233398,1.1113393306732178,-9.983500480651855,-0.28064331705755774,-0.35030478321781433,-10.634475613441857,0.6650621205478067,5.087080331563771,-16.80975885692846
1730865966.0831685,-1.6152253150939941,1.2080261707305908,-9.939994812011719,-0.2804381712845559,-0.35059849770314294,-10.6345213312382,0.6992596373476359,5.044620766053122,-15.42801958055423
1730865966.1329873,-1.6628810167312622,1.2549554109573364,-9.904179573059082,-0.28024671017275404,-0.3508094354693877,-10.634573018110679,0.6752859837693498,5.002157096468871,-16.351358239963922
1730865966.183079,-1.7237470149993896,1.2498868703842163,-9.840123176574707,-0.28006811208672244,-0.3509363539466457,-10.634636254215598,0.6502548910342775,4.95818325217098,-17.315035595306057
1730865966.232996,-1.7540323734283447,1.1959750652313232,-9.810408592224121,-0.27990040154489343,-0.3509804058059923,-10.634716347618635,0.6873243815433,4.913534207730452,-15.828784669804435
1730865966.282932,-1.7761001586914062,1.1373709440231323,-9.77637004852295,-0.27974129197784714,-0.3509447917304571,-10.634817649609733,0.7179391186872177,4.868062356185656,-14.622366817479396
1730865966.3329697,-1.7739691734313965,1.080772876739502,-9.734260559082031,-0.27958876008207556,-0.3508339302468152,-10.634943050229523,0.6941228684788691,4.821506736620179,-15.536459871358133
1730865966.3838212,-1.7863746881484985,1.0190056562423706,-9.72805404663086,-0.27944131483850465,-0.350652492020015,-10.635093643882033,0.7228851891346108,4.773203068087376,-14.408036066368428
1730865966.4338863,-1.7863746881484985,1.0190056562423706,-9.72805404663086,-0.27929807376212734,-0.35040456261385233,-10.635268572789395,0.6992610934131609,4.725027516368068,-15.314224829755775
1730865966.4338863,-1.763444423675537,0.9958710074424744,-9.702902793884277,-0.27915873950058745,-0.3500931140471505,-10.63546507835654,0.698574935496728,4.7236363038858755,-15.340542067290134
1730865966.4838243,-1.7485802173614502,0.980993390083313,-9.72205638885498,-0.2790234614559241,-0.3497198095504227,-10.635678673773674,0.6748346346308911,4.675765707342406,-16.251008275428926
1730865966.5338418,-1.7739217281341553,0.9647471904754639,-9.749009132385254,-0.27889262277125093,-0.34928497476151,-10.63590339903115,0.7077553149563007,4.625911222064409,-14.965037350492654
1730865966.5839176,-1.776928424835205,1.0090956687927246,-9.792386054992676,-0.27876673081055114,-0.34878765659696775,-10.636132255319009,0.6835046238982205,4.5747609713931485,-15.894636884749733
1730865966.6337254,-1.7719019651412964,1.0469619035720825,-9.85647201538086,-0.2786464599948025,-0.3482259036373092,-10.636357846575931,0.7149902818898181,4.523429549076322,-14.673633825009917
1730865966.6840096,-1.742720127105713,1.0767850875854492,-9.918389320373535,-0.2785326664150038,-0.3475973168644449,-10.636573161917333,0.6909110221545903,4.4704600491097475,-15.596634997936443
1730865966.733826,-1.7308605909347534,1.0838773250579834,-9.983128547668457,-0.278426238734382,-0.34689965705330944,-10.636772411550488,0.7210151519987795,4.417230905473661,-14.436995463040809
1730865966.7839155,-1.7244657278060913,1.1198302507400513,-10.016728401184082,-0.2783278586585707,-0.34613129256246805,-10.636951784544804,0.6972055290775063,4.362746749874151,-15.349952554572981
1730865966.8337839,-1.7244657278060913,1.1198302507400513,-10.016728401184082,-0.27823782441652856,-0.34529148805540383,-10.637109954265213,0.7260302818727732,4.307777219026477,-14.239569939997043
1730865966.8337839,-1.6922295093536377,1.1217204332351685,-10.01152515411377,-0.27815596936362047,-0.34438057922867926,-10.637248193090457,0.7259288915214814,4.307534805770376,-14.243458473491334
1730865966.8839517,-1.6949405670166016,1.091368556022644,-10.003122329711914,-0.2780815837538216,-0.34339997621553353,-10.637370125682338,0.7022514615540679,4.251330148861982,-15.151502889077275
1730865966.9338105,-1.6541407108306885,1.079060673713684,-9.937772750854492,-0.27801329586956236,-0.342351960861519,-10.637481249751726,0.7306092675937579,4.194746330699453,-14.06571651252703
1730865966.9837117,-1.6971153020858765,1.0559735298156738,-9.882655143737793,-0.27794897708051003,-0.34123935960317187,-10.637588242016893,0.7071266147628159,4.136980631307744,-14.96672575208615
1730865967.0336804,-1.7184339761734009,1.0200108289718628,-9.829143524169922,-0.2778858153429018,-0.3400651913468679,-10.637698066177208,0.7350096044417616,4.078499184960051,-13.921769597779463
1730865967.0837424,-1.7796587944030762,0.9819168448448181,-9.78043270111084,-0.27782067215305806,-0.3388322950442551,-10.637817066101087,0.7114759329774547,4.018568614446419,-14.826295147555165
1730865967.1336548,-1.7767276763916016,0.9837790727615356,-9.749464988708496,-0.27775062228125,-0.33754295134233375,-10.63795022749386,0.6874865545952034,3.958400416883156,-15.748238682925397
1730865967.1838517,-1.7815088033676147,1.03798508644104,-9.75819206237793,-0.2776733998825299,-0.33619869096926436,-10.638100705026925,0.7182933338871698,3.8971197694438224,-14.576864909122627
1730865967.2337184,-1.7815088033676147,1.03798508644104,-9.75819206237793,-0.27758757199658424,-0.334800476723891,-10.638269690374935,0.6944967725069505,3.835265030817187,-15.491922859548716
1730865967.2337184,-1.7619465589523315,1.1153185367584229,-9.77953052520752,-0.2774924887252326,-0.3333491635447342,-10.638456592973549,0.6943093306664659,3.834781574117163,-15.499130280627492
1730865967.283684,-1.7306779623031616,1.2181533575057983,-9.794438362121582,-0.27738809544255305,-0.33184612312300554,-10.638659397580241,0.669903253531656,3.772310061116046,-16.437546642256954
1730865967.3336196,-1.73723566532135,1.2622041702270508,-9.825244903564453,-0.27727464259028484,-0.33029407554444473,-10.638875096424792,0.6447928414370164,3.7089725637659954,-17.40298378645118
1730865967.3837023,-1.7728885412216187,1.2536513805389404,-9.841352462768555,-0.27715246008367617,-0.3286978859165698,-10.639100147637745,0.6840607306560798,3.6443335630882636,-15.911564452347651
1730865967.4336104,-1.7957485914230347,1.2329119443893433,-9.852080345153809,-0.2770220021933466,-0.3270648563530536,-10.639330896772968,0.6593152729149713,3.5791961364847644,-16.86366327858123
1730865967.4835632,-1.8130037784576416,1.187165379524231,-9.869086265563965,-0.27688411523996037,-0.3254044022392313,-10.639563896335478,0.6961325718666006,3.5130340188837597,-15.475172734441767
1730865967.5335834,-1.8130037784576416,1.187165379524231,-9.869086265563965,-0.2767402935452984,-0.3237273904477826,-10.639796116125767,0.6717060885155012,3.4461657028636163,-16.416053903255175
1730865967.5335834,-1.8403993844985962,1.1168467998504639,-9.861696243286133,-0.27659280052263235,-0.3220454294236967,-10.640025051989664,0.6715656025626495,3.4457842045594482,-16.421465125460543
1730865967.5836523,-1.8365612030029297,1.1099493503570557,-9.855596542358398,-0.2764447065661314,-0.32037020113825626,-10.640248713876025,0.7074563523201228,3.3783020894391207,-15.100494150978037
1730865967.6335382,-1.8015090227127075,1.1125519275665283,-9.858222961425781,-0.27629984996839946,-0.31871288573968304,-10.640465527863185,0.7369262412818626,3.310097558817205,-14.020486219503034
1730865967.683565,-1.7416749000549316,1.0947171449661255,-9.853496551513672,-0.27616257228302005,-0.31708381870605823,-10.640674238862509,0.7137214231837579,3.2408347315389285,-14.919153366507963
1730865967.7336876,-1.707353949546814,1.0896289348602295,-9.870576858520508,-0.2760371629658035,-0.3154923577012412,-10.640873863243836,0.6895926075072831,3.1700994932652375,-15.853473341415244
1730865967.7836096,-1.6856294870376587,1.0882185697555542,-9.87708854675293,-0.27592721524999825,-0.31394680552371684,-10.641063707804758,0.66499453423072,3.0992286735182395,-16.80584942193691
1730865967.833548,-1.6856732368469238,1.1131680011749268,-9.89499282836914,-0.2758351709578644,-0.31245439272229036,-10.641243454114255,0.7018944052960131,3.02781453425446,-15.422716220061718
1730865967.8835711,-1.6620116233825684,1.1451038122177124,-9.884458541870117,-0.2757621408040387,-0.31102141915992687,-10.641413256050754,0.6776593704491326,2.9554052594873914,-16.362173363700236
1730865967.9334772,-1.6606212854385376,1.1801331043243408,-9.870457649230957,-0.2757078875012886,-0.30965357556335205,-10.6415737545966,0.7126910116307967,2.882140092739215,-15.068359273365221
1730865967.9834714,-1.653437852859497,1.1797866821289062,-9.851520538330078,-0.2756708642428754,-0.3083563345470308,-10.641725945486629,0.6887657387409252,2.808180036523741,-15.99779022468762
1730865968.0334425,-1.6758476495742798,1.1824043989181519,-9.821070671081543,-0.27564832409398465,-0.3071352218522054,-10.641870923391792,0.664159190158063,2.7334721597368743,-16.9535201591979
1730865968.0835173,-1.7237505912780762,1.1566532850265503,-9.81063461303711,-0.2756365855458228,-0.30599585339761726,-10.642009575094143,0.6388127144896736,2.6578447250645083,-17.937828715335968
1730865968.1334534,-1.7996176481246948,1.1426687240600586,-9.782665252685547,-0.27563154665560974,-0.30494376141068824,-10.642142294480175,0.6812265518573143,2.5813432115130883,-16.345668678162163
1730865968.1835039,-1.8628112077713013,1.1092867851257324,-9.77823543548584,-0.2756294564179085,-0.303984094218276,-10.642268766750114,0.6564335640856711,2.504411544974086,-17.309582263261166
1730865968.2334023,-1.8774480819702148,1.0935637950897217,-9.79169750213623,-0.2756277469910624,-0.3031212721213401,-10.6423878619185,0.6956698907402609,2.4264223676783963,-15.840705968392717
1730865968.2834685,-1.8534674644470215,1.108945369720459,-9.822172164916992,-0.2756255729028544,-0.30235870388968566,-10.642497716555265,0.7280656977139736,2.3477165378886724,-14.647639491338978
1730865968.3333826,-1.7973651885986328,1.1064001321792603,-9.855999946594238,-0.275623798361904,-0.3016986867729817,-10.642596042721214,0.7045839788031975,2.2685712281706705,-15.563665688612913
1730865968.3833833,-1.749116063117981,1.0848197937011719,-9.900351524353027,-0.275624462769458,-0.30114246451447635,-10.642680595440176,0.6802668019910519,2.1881850562294,-16.512008410246075
1730865968.4334073,-1.749116063117981,1.0848197937011719,-9.900351524353027,-0.2756300276863422,-0.30069026913421654,-10.642749663628498,0.6554042463240717,2.107518746710248,-17.481354695756888
1730865968.4334073,-1.6887575387954712,1.0780417919158936,-9.944061279296875,-0.2756427425823188,-0.30034129939966026,-10.642802445364234,0.6552251242470245,2.106942871376659,-17.488337421021704
1730865968.4834383,-1.660573959350586,1.0784896612167358,-9.943114280700684,-0.27566417925073766,-0.3000937280287271,-10.642839274701258,0.6956373700226649,2.0260738832095297,-15.969181436113576
1730865968.5333052,-1.6808581352233887,1.0688133239746094,-9.9386625289917,-0.2756948581685954,-0.29994476064804565,-10.64286172243683,0.7284028070768306,1.9441459917307236,-14.742564756624596
1730865968.5834394,-1.6925055980682373,1.0484857559204102,-9.91047477722168,-0.2757341100699407,-0.29989068579641615,-10.642872508481837,0.7047086555321574,1.8607070804445895,-15.668191280123866
1730865968.6333168,-1.7340891361236572,1.0040960311889648,-9.874168395996094,-0.27578029173177965,-0.2999268346843658,-10.642875179425742,0.736143560562067,1.776967189992542,-14.5051062653764
1730865968.6832635,-1.7513102293014526,0.9668171405792236,-9.831408500671387,-0.27583122399482685,-0.3000473926867554,-10.642873607295922,0.7127824384418373,1.6925433914814216,-15.419034209562355
1730865968.7332773,-1.7555934190750122,0.9132131338119507,-9.825553894042969,-0.27588464586268535,-0.30024508925869364,-10.642871435824501,0.6886645154130987,1.607126536806999,-16.36219659379514
1730865968.783267,-1.7511773109436035,0.8991687297821045,-9.808719635009766,-0.2759385162848079,-0.30051087476626015,-10.642871648703558,0.7227227105838253,1.5205850750953716,-15.086619186453941
1730865968.833155,-1.7669599056243896,0.9138646125793457,-9.811017036437988,-0.2759911252279607,-0.3008337560712836,-10.642876355653511,0.6989053307859852,1.4338477496636297,-16.018713445416523
1730865968.8833268,-1.7647291421890259,0.9623916149139404,-9.817171096801758,-0.2760411260496722,-0.3012009808552205,-10.642886760068718,0.6744440465224717,1.346516183110475,-16.97561157554717
1730865968.9331322,-1.774051547050476,0.9942019581794739,-9.836055755615234,-0.27608757102453135,-0.3015986111841552,-10.642903263910046,0.7115284801861526,1.2582853522965554,-15.58505744321931
1730865968.9830694,-1.7563841342926025,1.0308074951171875,-9.850176811218262,-0.2761299221939727,-0.3020122977337613,-10.642925687270598,0.687454780718083,1.1696758706388237,-16.527556600284836
1730865969.0331802,-1.7418923377990723,1.052126407623291,-9.863423347473145,-0.27616797751871325,-0.3024280106836907,-10.642953543542898,0.6624031459853477,1.0792634306731685,-17.507918743191826
1730865969.0830772,-1.7634446620941162,1.1164103746414185,-9.859697341918945,-0.2762017279538952,-0.3028326440332085,-10.642986281986012,0.6369255157068943,0.9890423914867413,-18.504540319729166
1730865969.1331055,-1.7613576650619507,1.1499154567718506,-9.857751846313477,-0.27623127269584974,-0.30321457155709486,-10.643023424791572,0.6815258393644984,0.8974275215529106,-16.821919178648443
1730865969.1830616,-1.7668864727020264,1.152148723602295,-9.854114532470703,-0.276256849311718,-0.30356414999488784,-10.643064588680897,0.7183893287536139,0.8054231869756087,-15.464073520150572
1730865969.2330203,-1.7597706317901611,1.146106243133545,-9.849930763244629,-0.2762788785117112,-0.30387398299424195,-10.64310944349341,0.6942791221419815,0.712374767334488,-16.410203000000955
1730865969.2830868,-1.7832831144332886,1.1196283102035522,-9.831854820251465,-0.27629797028230235,-0.30413883400470243,-10.643157644124773,0.728696057878228,0.6189010646068668,-15.133288068165838
1730865969.3329446,-1.7911642789840698,1.0579688549041748,-9.824539184570312,-0.2763149604774582,-0.30435524014851845,-10.64320872542097,0.7049343291661212,0.524740061318498,-16.066855923451133
1730865969.3830001,-1.793712854385376,1.0126854181289673,-9.833224296569824,-0.2763310042145295,-0.3045208860326609,-10.643261989349327,0.7382024188048544,0.42952566377964607,-14.861502825989021
1730865969.432937,-1.7517714500427246,1.0202561616897583,-9.849518775939941,-0.27634760590182267,-0.30463389635443455,-10.643316484390004,0.7146110363523988,0.3336161856825504,-15.790700796245083
1730865969.4829564,-1.7155946493148804,1.0792349576950073,-9.881749153137207,-0.2763664274736396,-0.30469241177351647,-10.643371145775912,0.7463904296644438,3.230354246822839,-14.64072412650435
1730865969.532836,-1.6973638534545898,1.1483683586120605,-9.885079383850098,-0.2763888865449835,-0.30469473674828085,-10.643425055988441,0.7230519913512269,3.171142575952807,-15.56200144576637
1730865969.5827827,-1.6990910768508911,1.1914793252944946,-9.90003490447998,-0.27641576632807346,-0.30463995971211244,-10.643477698774952,0.6989130407280375,3.1108918312843135,-16.514209839572068
1730865969.6338701,-1.7048535346984863,1.1952179670333862,-9.894710540771484,-0.27644704464440134,-0.30452862925894697,-10.643529102018544,0.6734738054657827,3.048396935572424,-17.517032663589838
1730865969.6838133,-1.7279154062271118,1.140415906906128,-9.889106750488281,-0.2764819658672981,-0.30436305900153177,-10.64357985235852,0.6480378222298158,2.98685495807617,-18.519084883199614
1730865969.7338028,-1.727390170097351,1.0967813730239868,-9.850716590881348,-0.2765192618426947,-0.30414706726583235,-10.643630976509344,0.6922194731354094,3.8683203845826095,-16.86582720057576
1730865969.7837937,-1.7448590993881226,1.0502889156341553,-9.854978561401367,-0.27655740336758616,-0.3038852935452657,-10.643683691153516,0.6672718725606923,3.8179905138805985,-17.849472056196042
1730865969.8337355,-1.7205950021743774,1.0371060371398926,-9.837763786315918,-0.2765947834467621,-0.3035824405553661,-10.64373912569307,0.7084763215472598,4.2012150470668574,-16.33629820595569
1730865969.8838043,-1.7044275999069214,1.004769206047058,-9.838481903076172,-0.27662975975471366,-0.30324270278894855,-10.643798138126607,0.683944298379167,4.1556722153754775,-17.30554692997234
1730865969.9337204,-1.6762114763259888,1.0011883974075317,-9.852025985717773,-0.2766605288596571,-0.30286942219336216,-10.643861245577353,0.6586805858966954,4.109295525635776,-18.30299110090002
1730865969.9836867,-1.6579885482788086,0.9812003374099731,-9.872231483459473,-0.2766848980689164,-0.3024649073634075,-10.643928679009399,0.6327497820447945,4.062205313333307,-19.326076865500355
1730865970.0337353,-1.6788157224655151,1.0039273500442505,-9.869159698486328,-0.2767000955706202,-0.30203038727966813,-10.64400055025592,0.6811953719007099,4.3132397414848995,-17.51923740706763
1730865970.0836577,-1.7302862405776978,0.9892690777778625,-9.866273880004883,-0.27670280382462625,-0.30156610247939936,-10.644077009697561,0.6558869690590967,4.269528230754038,-18.51901122044487
1730865970.1336935,-1.7561147212982178,1.0005706548690796,-9.84821891784668,-0.27668951932917174,-0.3010714808077444,-10.644158276457897,0.6997994448118371,4.424652598105025,-16.882778580025434
1730865970.1836424,-1.7367112636566162,1.0267400741577148,-9.844929695129395,-0.27665704415481013,-0.30054534107231706,-10.644244545075232,0.7339960042402223,4.517609387241174,-15.546465222717634
1730865970.2335315,-1.7292639017105103,1.0034098625183105,-9.847564697265625,-0.2766027566359581,-0.299986127312045,-10.644335862789802,0.7097843711939382,4.477159412716763,-16.501863607670753
1730865970.283596,-1.7082710266113281,1.0320013761520386,-9.856908798217773,-0.2765245582529776,-0.29939212212887295,-10.644432079672393,0.6851163726838986,4.436350874605102,-17.47460138677034
1730865970.3336132,-1.7297741174697876,1.0265306234359741,-9.872505187988281,-0.27642069213368237,-0.29876159708195743,-10.644532909819588,0.6595383433227948,4.394433914210179,-18.48257818364526
1730865970.3835676,-1.73284912109375,1.026072382926941,-9.879054069519043,-0.27628965176766096,-0.298092939423851,-10.644638070099264,0.7017116178031796,4.4893660765483565,-16.85253599167423
1730865970.4335475,-1.7507237195968628,1.0402652025222778,-9.899032592773438,-0.2761302399975784,-0.2973847494091685,-10.644747440643783,0.6766054732492521,4.448944931781767,-17.840750201711955
1730865970.4835615,-1.7441734075546265,1.067531943321228,-9.886956214904785,-0.2759416888863395,-0.29663593732384347,-10.64486119825459,0.6508339336483298,4.407821107346434,-18.854604261477952
1730865970.5335526,-1.7646288871765137,1.0706843137741089,-9.89332103729248,-0.2757237453087503,-0.2958458949913385,-10.64497987270289,0.6954078899192281,4.489141859977301,-17.17390858603185
1730865970.583584,-1.8092890977859497,1.0768513679504395,-9.85693645477295,-0.27547676166874036,-0.2950146800924835,-10.645104285039668,0.6703832027314012,4.449669909453616,-18.159347247082454
1730865970.6335008,-1.8451093435287476,1.0780317783355713,-9.835271835327148,-0.27520191589247955,-0.29414310155705603,-10.645235347017309,0.6444646065528594,4.409134301924662,-19.179497797057532
1730865970.6835158,-1.8778879642486572,1.068177342414856,-9.794242858886719,-0.2749015588967958,-0.2932326965135453,-10.645373731681126,0.6909835679992207,4.4815072559868,-17.423506459954545
1730865970.7335863,-1.8792659044265747,1.0619271993637085,-9.761591911315918,-0.27457951865415986,-0.292285627421588,-10.645519476463555,0.6655462792661117,4.442003463103683,-18.42585605366525
1730865970.7835293,-1.8781741857528687,1.0342954397201538,-9.767451286315918,-0.274241196875768,-0.2913045055033101,-10.645671628783937,0.7091345963614022,4.49722710579219,-16.82028922928929
1730865970.8334446,-1.8452465534210205,1.0448501110076904,-9.792409896850586,-0.2738934034095246,-0.2902921671936165,-10.64582810215613,0.7462605447592953,4.536395309630611,-15.524897600104135
1730865970.8834481,-1.7909832000732422,1.0523160696029663,-9.833215713500977,-0.27354393231154595,-0.289251502744746,-10.64598587219771,0.7223633369807863,4.498780814041235,-16.475691910237266
1730865970.9334626,-1.7380390167236328,1.0403714179992676,-9.891928672790527,-0.2732009014479194,-0.28818541256910835,-10.646141478016737,0.6977078887802064,4.460327336872319,-17.456076915578066
1730865970.9834626,-1.6841381788253784,1.027842402458191,-9.939653396606445,-0.27287195558025,-0.2870967998362937,-10.64629169817052,0.6722656863628125,4.420995453611482,-18.46721457474471
1730865971.0333781,-1.598343849182129,1.0370818376541138,-9.97574520111084,-0.2725634609514693,-0.2859884988149257,-10.646434244012944,0.7159559417945511,4.473360177597678,-16.867033013728907
1730865971.083417,-1.5712602138519287,1.0332560539245605,-9.993497848510742,-0.2722797518925485,-0.2848632043420712,-10.646568299239972,0.6911073764011869,4.435139248730029,-17.85755331763205
1730865971.133399,-1.550557255744934,1.039259433746338,-9.944525718688965,-0.2720225558421563,-0.2837234720254273,-10.646694748483732,0.7309602141592192,4.47774946332254,-16.38328328543099
1730865971.1834455,-1.5575945377349854,1.0153611898422241,-9.915091514587402,-0.2717907845612314,-0.28257173455631374,-10.646815977447355,0.7064927453113251,4.440195303259431,-17.360504874060524
1730865971.233443,-1.6128383874893188,0.9890211224555969,-9.859123229980469,-0.2715807511527637,-0.28141023172951946,-10.646935294087513,0.6813672422709063,4.401968353015153,-18.36349820231521
1730865971.283348,-1.6128383874893188,0.9890211224555969,-9.859123229980469,-0.27138673642603117,-0.28024082951528756,-10.647056228333282,0.655605994707515,4.363103457750563,-19.391395683194567
1730865971.283348,-1.700724482536316,0.9786924719810486,-9.800239562988281,-0.27120174298002836,-0.279064843679938,-10.647181948547612,0.6554633736735694,4.36288917467167,-19.397085153021866
1730865971.3333108,-1.7688379287719727,1.0146944522857666,-9.755945205688477,-0.2710183529989104,-0.27788300698271706,-10.647314794228663,0.7029304082357902,4.418460845729014,-17.606663502528175
1730865971.3833656,-1.7688379287719727,1.0146944522857666,-9.755945205688477,-0.2708296518394972,-0.2766956190230121,-10.647455840170569,0.7416138134239348,4.456353414722442,-16.175022388663898
1730865971.3833656,-1.8208271265029907,1.02140212059021,-9.763900756835938,-0.2706299712966414,-0.27550279150237617,-10.647604624880252,0.7414857883459325,4.45615924636591,-16.18015234480802
1730865971.433279,-1.8217395544052124,1.0340009927749634,-9.765320777893066,-0.27041529031011957,-0.27430465118189495,-10.647759199955207,0.7174060957813759,4.41980751096236,-17.144790884013894
1730865971.48329,-1.782911777496338,1.0537012815475464,-9.80487060546875,-0.27018335599850724,-0.2731014878745747,-10.647916417035155,0.7540012462418897,4.4543647803176984,-15.791304258817817
1730865971.5332751,-1.7525897026062012,1.0612386465072632,-9.85537052154541,-0.2699334815872726,-0.27189391606263463,-10.648072367685998,0.7300746884802766,4.41830821524812,-16.75193576797353
1730865971.5832372,-1.7406247854232788,1.1116029024124146,-9.87990665435791,-0.26966605256774884,-0.2706830680536842,-10.648222973425922,0.7055270128083341,4.381653246600016,-17.737045259211545
1730865971.633259,-1.770524501800537,1.115897536277771,-9.90289306640625,-0.2693820553903744,-0.26947082875902056,-10.648364586405153,0.6802103437161644,4.344181870179388,-18.752594105200014
1730865971.683197,-1.7900440692901611,1.1545110940933228,-9.899785995483398,-0.26908290486365327,-0.26826008351277897,-10.648494400778949,0.7243353839889396,4.392356223945274,-17.092365331015277
1730865971.7331789,-1.8505797386169434,1.163799524307251,-9.896068572998047,-0.2687705907402529,-0.26705490614178673,-10.648610607215794,0.7601560536388087,4.426207139033187,-15.7592732115013
1730865971.783353,-1.8505797386169434,1.163799524307251,-9.896068572998047,-0.2684479981698934,-0.2658606458570793,-10.648712344747768,0.7362633174632619,4.390899524179546,-16.721772567629678
1730865971.783353,-1.8653908967971802,1.1624170541763306,-9.862640380859375,-0.26811918439204485,-0.2646838714689383,-10.648799533980982,0.7361239838419497,4.390694577980365,-16.72738430163884
1730865971.8332534,-1.84821355342865,1.119704008102417,-9.858514785766602,-0.2677894332569696,-0.2635321384356777,-10.648872626929093,0.7118834861516553,4.355200226075844,-17.70351421303441
1730865971.8832345,-1.8270213603973389,1.114829421043396,-9.805334091186523,-0.26746506410315773,-0.2624135927280162,-10.648932282064353,0.6867515320162197,4.3187216593186015,-18.71522285821504
1730865971.9334147,-1.793975830078125,1.0453251600265503,-9.822367668151855,-0.26715305456577154,-0.26133646408929384,-10.648979013838506,0.7305084321434949,4.36566671516976,-17.064536575703826
1730865971.9832606,-1.7209333181381226,1.0137131214141846,-9.828447341918945,-0.26686050643578296,-0.2603084855983737,-10.649012950244144,0.7060038137270924,4.3303555325289,-18.053015965106585
1730865972.0332992,-1.6012029647827148,0.9719731211662292,-9.870986938476562,-0.2665938937168618,-0.25933627946875676,-10.64903385382705,0.7469914581843283,4.369540466433577,-16.529401758943578
1730865972.0832047,-1.5673483610153198,0.9927900433540344,-9.874567985534668,-0.26635807556391344,-0.25842487048096285,-10.649041389526598,0.7229500850047466,4.334936136772542,-17.50228854864916
1730865972.133241,-1.5673483610153198,0.9927900433540344,-9.874567985534668,-0.2661554079850033,-0.25757751831605313,-10.649035430564055,0.7610454798976154,4.3706244117331545,-16.088574606691303
1730865972.133241,-1.5617990493774414,1.0194441080093384,-9.915316581726074,-0.26598539449435554,-0.25679587789345815,-10.649016250659507,0.7609172901212332,4.370439438525223,-16.093778864360512
1730865972.1831715,-1.576568603515625,1.0584110021591187,-9.886327743530273,-0.26584487160467096,-0.2560803633469613,-10.648984639538739,0.7373664267001567,4.336613937798694,-17.049720796680436
1730865972.2332606,-1.631142258644104,1.0728533267974854,-9.91388988494873,-0.2657284777093859,-0.2554306180388556,-10.648941966381063,0.7128690028817399,4.301744082511755,-18.043735288813075
1730865972.283102,-1.7173388004302979,1.079965353012085,-9.86382007598877,-0.26562937188314417,-0.25484597074825927,-10.648890126760165,0.7533438099209577,4.343804765360442,-16.506981393275318
1730865972.3331964,-1.82231605052948,1.1077828407287598,-9.826631546020508,-0.2655402786589167,-0.25432575429381127,-10.648831313669813,0.7292068150401805,4.309705466488363,-17.48797366480061
1730865972.383157,-1.8533849716186523,1.1184059381484985,-9.800682067871094,-0.26545471682948774,-0.25386951768807897,-10.648767596907206,0.7681899365571317,4.345242476981328,-16.058301594871796
1730865972.4330823,-1.8954871892929077,1.0949914455413818,-9.761144638061523,-0.2653680311978977,-0.253477173746485,-10.648700435945262,0.7446261364337534,4.31195762147432,-17.020122326768277
1730865972.4830406,-1.8989217281341553,1.0262970924377441,-9.779446601867676,-0.26527795103902213,-0.2531489311821971,-10.648630313446327,0.7205171559461725,4.2782043686446105,-18.003745975512675
1730865972.5331557,-1.8536771535873413,1.0082930326461792,-9.78778076171875,-0.2651846644528977,-0.25288488847681034,-10.648556613520787,0.6953979269404785,4.243336107499712,-19.02815013562501
1730865972.5831227,-1.783974289894104,1.004658818244934,-9.84261703491211,-0.2650904194294118,-0.25268450282503935,-10.648477811190778,0.7410208813399418,4.291482356060707,-17.296085235572892
1730865972.6330674,-1.7528783082962036,1.0574264526367188,-9.855023384094238,-0.26499871434440936,-0.2525463289588967,-10.648391916084094,0.7793741263856825,4.31833190718195,-15.917685306637164
1730865972.6830595,-1.7219197750091553,1.080628514289856,-9.910914421081543,-0.2649133911319956,-0.25246820352573274,-10.64829700925559,0.8111403036650909,4.34183114434248,-14.767771817265833
1730865972.7331333,-1.7219197750091553,1.080628514289856,-9.910914421081543,-0.26483796408641824,-0.2524476847972116,-10.648191734590595,0.7886968792586375,4.309717711629723,-15.695419073359702
1730865972.7331333,-1.704637885093689,1.1132997274398804,-9.919187545776367,-0.2647752653481391,-0.2524824319589904,-10.648075640176653,0.7885705422382016,4.309537830572381,-15.70063882529132
1730865972.7830756,-1.6880874633789062,1.1303209066390991,-9.951221466064453,-0.2647272911440226,-0.25257044900185777,-10.647949325362031,0.7657396401613327,4.277184672301813,-16.643564080162832
1730865972.8330402,-1.6892642974853516,1.1353075504302979,-9.929433822631836,-0.2646951168574623,-0.2527102870104576,-10.647814472423605,0.7420462874767697,4.243914858012678,-17.621398497616248
1730865972.8830557,-1.6928538084030151,1.1137971878051758,-9.93874454498291,-0.2646788708060789,-0.2529011544241438,-10.647673801559387,0.7177574343929313,4.210105429447484,-18.623120817846655
1730865972.9329422,-1.7044410705566406,1.0738990306854248,-9.894899368286133,-0.2646778217017145,-0.25314279883422947,-10.647530885287903,0.7609059742241885,4.25717649987298,-16.965466367542128
1730865972.9829872,-1.7288248538970947,1.0470776557922363,-9.854463577270508,-0.2646905811181386,-0.25343514506683784,-10.647389786152724,0.7370572460791777,4.224277508559769,-17.9502735974042
1730865973.0330038,-1.782965898513794,1.0143132209777832,-9.822835922241211,-0.26471542432091955,-0.25377782172931995,-10.64725453796925,0.7125479604311574,4.190746542629173,-18.961648599085212
1730865973.082945,-1.8363450765609741,1.0109021663665771,-9.767317771911621,-0.26475077357985655,-0.2541697481639452,-10.647128569017557,0.7575674231881937,4.237519145384772,-17.232989604215728
1730865973.132889,-1.8869452476501465,0.9894759058952332,-9.760782241821289,-0.2647958156321114,-0.254608880228202,-10.647014187929221,0.7336558316549433,4.204943079639942,-18.221343011587336
1730865973.1829495,-1.8473352193832397,1.0347927808761597,-9.739604949951172,-0.26485103999025217,-0.2550921506326762,-10.646912228317726,0.7090464623367008,4.171681006886761,-19.23779084626167
1730865973.232936,-1.816389560699463,1.0465000867843628,-9.774761199951172,-0.2649183720799191,-0.25561564459224206,-10.646821948566012,0.7552584250195624,4.2204736364055675,-17.453353029958873
1730865973.2828844,-1.783855676651001,1.0769073963165283,-9.79489803314209,-0.26500080022026246,-0.2561749783090923,-10.646741230775142,0.7930593029985078,4.256134288855546,-16.015836326889676
1730865973.3328242,-1.7646828889846802,1.053520679473877,-9.82564926147461,-0.2651017705382921,-0.2567656892409895,-10.646667018015311,0.770006342123218,4.224911627609646,-16.971762230528352
1730865973.3828576,-1.7351040840148926,1.0145779848098755,-9.854711532592773,-0.26522464588267397,-0.2573834030505082,-10.646595843406313,0.7463172871245574,4.193082509395893,-17.95319313617312
1730865973.432912,-1.7351040840148926,1.0145779848098755,-9.854711532592773,-0.2653723086985967,-0.25802370245609935,-10.646524307699558,0.7219103643799419,4.160536342573231,-18.963501289350216
1730865973.432912,-1.683071255683899,0.9749651551246643,-9.900102615356445,-0.2655468778836805,-0.2586818626921088,-10.646449437583419,0.7217768607949308,4.1603589703342365,-18.969025277363176
1730865973.4828544,-1.6453770399093628,0.9578630328178406,-9.910890579223633,-0.2657494361084844,-0.25935261681720423,-10.64636896517709,0.6969023796618777,4.127427185995442,-19.99782473262361
1730865973.532847,-1.649688720703125,0.9565423130989075,-9.945751190185547,-0.26597971569527457,-0.2600299735479033,-10.646281594042422,0.6712238556601873,4.093660745045117,-21.059008132727623
1730865973.5828483,-1.6442580223083496,0.9954084157943726,-9.940225601196289,-0.266235907294452,-0.2607071816695285,-10.646187214686742,0.7271073996527796,4.155098857804816,-18.864319483080948
1730865973.632834,-1.6689367294311523,1.0497392416000366,-9.937795639038086,-0.2665147401944604,-0.261377001708074,-10.646086977023545,0.7022575139367055,4.122583699997741,-19.891849297054133
1730865973.682793,-1.6859419345855713,1.0834542512893677,-9.915569305419922,-0.2668117824285072,-0.26203227735516466,-10.645983167038256,0.7528183918393354,4.1754933280961755,-17.936184824689512
1730865973.7328548,-1.71327543258667,1.1262437105178833,-9.893120765686035,-0.2671218585917234,-0.26266659976728507,-10.64587890889118,0.7285059640915515,4.143750536695354,-18.943098209278876
1730865973.782775,-1.7269731760025024,1.1472166776657104,-9.872698783874512,-0.2674394991925595,-0.2632748597913388,-10.645777769290603,0.703599372833704,4.1114470481655,-19.973559541985313
1730865973.8327966,-1.735066294670105,1.1401067972183228,-9.833118438720703,-0.2677593297142196,-0.2638535892279922,-10.645683334792789,0.753824295328426,4.162114737025843,-18.001439209304102
1730865973.8827624,-1.717958927154541,1.1496965885162354,-9.815305709838867,-0.26807631663682424,-0.26440104350631927,-10.64559879373157,0.7295649202532781,4.130645588225761,-19.00523067432491
1730865973.9327734,-1.6673269271850586,1.18075430393219,-9.812365531921387,-0.26838578440975286,-0.26491711005272056,-10.645526579688653,0.7751551795967262,4.175360712586395,-17.235100508069877
1730865973.9827108,-1.718985915184021,1.200554609298706,-9.816550254821777,-0.26868323151921975,-0.2654032477894766,-10.645468186685628,0.7514583749267209,4.144600949074631,-18.216368325403124
1730865974.032757,-1.777178168296814,1.1863377094268799,-9.796299934387207,-0.26896427226317615,-0.2658624958034694,-10.645424167540071,0.7927287030236205,4.184705792227747,-16.60801450676089
1730865974.0837018,-1.8267006874084473,1.1075407266616821,-9.833602905273438,-0.26922501273780164,-0.26629931133507045,-10.645394218672346,0.7688825562131669,4.153770153980091,-17.59548470758683
1730865974.1328225,-1.8129234313964844,1.0744457244873047,-9.833734512329102,-0.26946265117388085,-0.266719017230609,-10.645377343121588,0.7452387749898006,4.1233005905380695,-18.57332765746088
1730865974.1827915,-1.7848941087722778,1.034195899963379,-9.854951858520508,-0.2696758044198498,-0.26712699701920894,-10.64537211188199,0.7205191199644897,4.091643524417357,-19.594421324969368
1730865974.2327878,-1.7069191932678223,1.0519814491271973,-9.866008758544922,-0.2698643062990791,-0.2675280183267895,-10.645376942722354,0.7686002658115808,4.141186327061006,-17.70150215387499
1730865974.2827125,-1.7330290079116821,1.0380792617797852,-9.891645431518555,-0.27002862409053335,-0.26792591130657806,-10.645390347791528,0.7443761823538437,4.110234476909986,-18.70180225605589
1730865974.333654,-1.723747968673706,1.0607243776321411,-9.90710735321045,-0.27016932069836824,-0.2683235521200804,-10.645411174190945,0.7872990953597155,4.151216693631598,-17.01404880395003
1730865974.383695,-1.6333900690078735,1.1029419898986816,-9.92292594909668,-0.27028676588969275,-0.2687230390763308,-10.645438829396259,0.7634982438117626,4.120776541607704,-17.996310006937843
1730865974.4336932,-1.7185343503952026,1.0912126302719116,-9.885492324829102,-0.270380898436211,-0.26912600743827203,-10.64547340784291,0.7390422487685775,4.0896905677579625,-19.00433075537636
1730865974.4835937,-1.7632367610931396,1.0811116695404053,-9.884361267089844,-0.2704511535340678,-0.26953391714008734,-10.645515609538592,0.783908392326265,4.134368286396356,-17.236309754086424
1730865974.533778,-1.7660847902297974,1.066494345664978,-9.817702293395996,-0.27049684798031337,-0.2699481122866292,-10.645566439791354,0.7597554953883201,4.10370493777833,-18.231299818058464
1730865974.583637,-1.76335608959198,1.0730304718017578,-9.786660194396973,-0.2705176936517787,-0.2703697074292424,-10.64562675113416,0.8006584429741826,4.141105711199776,-16.622980364780016
1730865974.6336203,-1.755035638809204,1.0663394927978516,-9.755593299865723,-0.27051399059290093,-0.2707994902674375,-10.64569671319246,0.7770495411859292,4.111047656481619,-17.59503156609461
1730865974.683558,-1.7797462940216064,1.05051851272583,-9.727736473083496,-0.2704865766624146,-0.2712378860016218,-10.645775362801427,0.8146512773375126,4.144374235810785,-16.114603722499407
1730865974.7336075,-1.7905184030532837,1.0506978034973145,-9.733460426330566,-0.2704367965283763,-0.2716849133341962,-10.645860347140163,0.7912403481842175,4.114479025434646,-17.07776352051138
1730865974.7834837,-1.7196898460388184,1.0897799730300903,-9.776664733886719,-0.27036649829634507,-0.27214016663828233,-10.645947927488852,0.8258907600860708,4.084084310026938,-15.701723240780474
1730865974.8335426,-1.7713710069656372,1.1019127368927002,-9.835098266601562,-0.27027787910838635,-0.2726029632536967,-10.646033342306495,0.8026614264115182,4.0527894155287685,-16.65602672617762
1730865974.8835092,-1.8028919696807861,1.1387075185775757,-9.852670669555664,-0.2701733107328732,-0.27307265645367806,-10.6461114741859,0.8340763008943193,4.020950791087501,-15.367705420729811
1730865974.9336016,-1.8285831212997437,1.182466745376587,-9.922863006591797,-0.27005546524998614,-0.27354900465699306,-10.646177570608984,0.8110513710757659,3.9884157521040207,-16.310342562524724
1730865974.9834633,-1.8077365159988403,1.2220063209533691,-9.935257911682129,-0.269927612220082,-0.2740325721432345,-10.646227859378634,0.7874219197880221,3.955294576107968,-17.276715299211403
1730865975.0335941,-1.8268399238586426,1.19771409034729,-9.958266258239746,-0.2697937366663556,-0.27452508831974687,-10.646260013696255,0.762981574179836,3.9212973847530255,-18.275273120054838
1730865975.0834959,-1.7553056478500366,1.1827597618103027,-9.942646980285645,-0.26965840046585277,-0.27502954072860314,-10.646273375143872,0.7380079403086759,3.8868086239122124,-19.294687641932434
1730865975.1334362,-1.7702215909957886,1.131227731704712,-9.93575382232666,-0.26952640989576526,-0.2755498844649718,-10.646268889097529,0.781763386373349,3.8516367088081362,-17.502356385384772
1730865975.1834197,-1.7350672483444214,1.0756663084030151,-9.8892240524292,-0.26940240656519543,-0.2760904633897413,-10.646248803892444,0.7571614531403066,3.8156678853156083,-18.504156990091964
1730865975.2334309,-1.6980245113372803,1.014807939529419,-9.849322319030762,-0.2692905140205753,-0.2766552712344341,-10.646216179907746,0.7976242892869736,3.778901501795452,-16.878728942878656
1730865975.2833824,-1.74787175655365,0.9247363805770874,-9.83838939666748,-0.26919407219523483,-0.27724713610256335,-10.646174294366178,0.7734969155977005,3.741685463403525,-17.860462801115457
1730865975.3333728,-1.7218077182769775,0.9190731048583984,-9.835184097290039,-0.26911555102893875,-0.2778669355247812,-10.646126144039066,0.8109755790479335,3.70369062281159,-16.36059693597475
1730865975.3833628,-1.710154414176941,0.9689270853996277,-9.809120178222656,-0.2690566427956431,-0.27851312623865127,-10.646074176619136,0.7870537867744232,3.6649180845573643,-17.333452564969775
1730865975.4333987,-1.6837084293365479,0.9878154993057251,-9.841340065002441,-0.26901828846497816,-0.2791818920642263,-10.646020190005324,0.821786868276614,3.625438820162163,-15.941357411771119
1730865975.483403,-1.650559425354004,1.0081390142440796,-9.836055755615234,-0.26900053209142594,-0.2798677652638688,-10.64596536004799,0.798133992627535,3.585313198218798,-16.90254789982484
1730865975.5333564,-1.6746716499328613,1.0141290426254272,-9.857386589050293,-0.26900233901381976,-0.2805642774943163,-10.645910399084725,0.8335040954571131,3.544475586340424,-15.59574997590147
1730865975.5833364,-1.6851810216903687,1.004333734512329,-9.852632522583008,-0.2690215722176005,-0.28126440856896034,-10.645855754641996,0.8641425370771297,3.5029810295769686,-14.524145417219067
1730865975.6333683,-1.6851810216903687,1.004333734512329,-9.852632522583008,-0.2690551996262913,-0.2819608301302766,-10.645801752574888,0.8416615326610575,3.460675479985883,-15.449334286529373
1730865975.6333683,-1.5812643766403198,1.044628381729126,-9.859695434570312,-0.26909947772270426,-0.2826460565726895,-10.645748664572707,0.8415463506075271,3.460460153198127,-15.454071802002122
1730865975.683324,-1.7228114604949951,1.0327458381652832,-9.875347137451172,-0.26914991100453556,-0.28331266067613065,-10.645696754821875,0.818651160650908,3.4179296474694603,-16.395243292987757
1730865975.7333395,-1.7228114604949951,1.0327458381652832,-9.875347137451172,-0.2692013740444726,-0.28395352187520234,-10.645646368051317,0.7947580745864435,3.374087202153521,-17.376385680818135
1730865975.7333395,-1.8088876008987427,1.0366780757904053,-9.752493858337402,-0.2692487346698665,-0.2845619563054679,-10.645597912367013,0.7946293865442486,3.3738524802858216,-17.381667357633706
1730865975.7832942,-1.8492463827133179,1.0879586935043335,-9.823813438415527,-0.2692876799232916,-0.28513179563566643,-10.64555152942171,0.8313644018510604,3.329806766507477,-15.967642307119899
1730865975.8332365,-1.8476037979125977,1.0733569860458374,-9.768607139587402,-0.2693153834531251,-0.28565757985544576,-10.645506690994313,0.8078472620525196,3.284629499415049,-16.93417001020361
1730865975.8832293,-1.7965223789215088,1.0459142923355103,-9.815152168273926,-0.26933079595101295,-0.2861347478356767,-10.645462092952453,0.843031706550817,3.238838011344537,-15.615413800233528
1730865975.933179,-1.7965223789215088,1.0459142923355103,-9.815152168273926,-0.26933442565481935,-0.2865595885245112,-10.645415804687595,0.8723360040163205,3.1925070885818623,-14.532011626406431
1730865975.933179,-1.7969716787338257,1.0425485372543335,-9.871280670166016,-0.26932785850848884,-0.28692902428080874,-10.645365556088413,0.8722235339246386,3.192267533716408,-14.536664255297284
1730865975.9832678,-1.7303887605667114,1.079399585723877,-9.879664421081543,-0.26931333848159655,-0.2872404885621096,-10.64530914646523,0.8499745271808749,3.1452352206807808,-15.456437050681513
1730865976.0331671,-1.6776671409606934,1.154143214225769,-9.950304985046387,-0.2692933153986436,-0.28749206579393244,-10.645244903146148,0.8269575436388146,3.0972828870170925,-16.406741082008015
1730865976.0831647,-1.6643404960632324,1.210000991821289,-9.945380210876465,-0.2692698287575872,-0.2876829527180873,-10.64517212367131,0.8589757285928148,3.048572882174641,-15.182042687433086
