Timestamp,IMU_Linear_Acc_X,IMU_Linear_Acc_Y,IMU_Linear_Acc_Z,Filtered_X,Filtered_Y,Filtered_Z,Pose_X,Pose_Y,Pose_Z
1730865946.9839773,-1.6460669040679932,1.1705397367477417,-9.888028144836426,-0.00569328650483804,-0.004839374609639016,-0.6082565380244452,0.8995588923852254,3.8318430401007673,0.8989941844501044
1730865947.0338826,-1.5448205471038818,1.3515266180038452,-9.916738510131836,-0.007943759703730959,-0.007631296528870108,-0.8189636094202761,0.9003710174011121,3.8318926030072995,0.8928149039778897
1730865947.083904,-1.4505513906478882,1.3764179944992065,-9.885746955871582,-0.010695608839640906,-0.011389289206443606,-1.0676707909610503,0.9059759460492712,3.8323465979123363,0.8802776334984005
1730865947.1338828,-1.483825922012329,1.3574954271316528,-9.83907413482666,-0.013948373579700976,-0.01627516231483501,-1.3543714826643667,0.9470099723882927,3.8356238007083205,0.8716144914143684
1730865947.1338828,-1.5220105648040771,1.4168083667755127,-9.791072845458984,-0.01575193204179203,-0.019193013156336033,-1.5117224805930956,0.9471827386592716,3.835637590923319,0.8715246612064381
1730865947.1838188,-1.466209888458252,1.5062932968139648,-9.781386375427246,-0.017664236211788552,-0.02245447176163041,-1.6781685441839305,0.9884511215390258,3.8389053384605623,0.8479581107017756
1730865947.2339377,-1.466209888458252,1.5062932968139648,-9.781386375427246,-0.019676590304076123,-0.026079354972414443,-1.8534673710422274,1.0297715225133393,3.8421202447680933,0.8199216662736626
1730865947.2339377,-1.6475468873977661,1.4503509998321533,-9.745635986328125,-0.021779230062089046,-0.030087363030730334,-2.0373290827014756,1.0299457319015801,3.8421336688144194,0.8197935640849243
1730865947.2838902,-1.7597566843032837,1.3032793998718262,-9.741059303283691,-0.023962106446175246,-0.03449761882235365,-2.229419098302518,0.8906473410165916,3.84522180735964,0.8762465875856758
1730865947.3337905,-1.6816997528076172,1.2365984916687012,-9.753911018371582,-0.02621623308139841,-0.039327415608071806,-2.4293611965161066,0.8833117383798359,3.848164394253298,0.8770790921206679
1730865947.3838024,-1.757475733757019,1.2633165121078491,-9.788309097290039,-0.028534604567816223,-0.044590760595868945,-2.636740855810946,0.8821315076406007,3.8511074962726304,0.8630279967367175
1730865947.4338114,-1.9410609006881714,1.2342725992202759,-9.715015411376953,-0.030912493355510447,-0.05029750571799833,-2.8511088429648703,0.8760767153684775,0.4152134580902427,0.87447392271108
1730865947.4836771,-1.7980672121047974,1.2204742431640625,-9.816902160644531,-0.033347853341214234,-0.05645317218055244,-3.071984818003327,0.8734118618038412,-0.025805307148714096,0.858293888856919
1730865947.5337312,-1.6201061010360718,1.2407430410385132,-9.861479759216309,-0.035841388157811,-0.06305903714665206,-3.298861047865545,0.8706812865864836,-0.4636264047828877,0.8343233288819673
1730865947.5837328,-1.6417081356048584,1.2559638023376465,-9.932706832885742,-0.038395393264378117,-0.07011233516683749,-3.531206494599425,0.874591648130237,0.5814667006389502,0.8710512674987152
1730865947.6336718,-1.4783844947814941,1.2720919847488403,-9.962823867797852,-0.04101203759122507,-0.07760664434955683,-3.7684710810298006,0.8734937754550779,0.4938011611165767,0.8513848699215005
1730865947.6836586,-1.4127205610275269,1.249739170074463,-9.95790958404541,-0.043691984653031014,-0.08553233342370957,-4.010089707435556,0.8722813255629496,0.40531272651616973,0.8217678636520751
1730865947.7336457,-1.4345476627349854,1.2176520824432373,-9.960887908935547,-0.046433357929198324,-0.09387684976513612,-4.255485813078065,0.8713479584975289,0.7409487396896289,0.867983996541579
1730865947.7836764,-1.6071974039077759,1.2252144813537598,-9.856568336486816,-0.049231385077803294,-0.10262479246623708,-4.504074438723732,0.8698863816583488,0.7236805199581593,0.8444388393245897
1730865947.8337014,-1.532752275466919,1.1856809854507446,-9.923158645629883,-0.052079109659061866,-0.11175792230420588,-4.755264870225805,0.8682927104137298,0.7060867219876686,0.8091782898261306
1730865947.8835726,-1.49844229221344,1.2116985321044922,-9.878271102905273,-0.05496838818674785,-0.12125524356261072,-5.008463191273617,0.8679810995054928,0.6883663157475304,0.8644226312865323
1730865947.9345996,-1.521494746208191,1.106750726699829,-9.946966171264648,-0.05789023910972026,-0.1310931116950297,-5.263075050200373,0.8664953377713273,0.6699302501784641,0.8361610913927877
1730865947.9846032,-1.521235466003418,1.066617727279663,-9.89339542388916,-0.06083480292523887,-0.1412451730153727,-5.5185085546464565,0.8692247445046326,0.6514058789462638,0.8624207038119215
1730865948.034629,-1.6524330377578735,0.9745575785636902,-9.893824577331543,-0.06379159020882912,-0.15168203078006062,-5.774177005777763,0.8701945303514687,0.8188984176448447,0.8639415366198384
1730865948.0845356,-1.6524330377578735,0.9745575785636902,-9.893824577331543,-0.06675017678313128,-0.16237084553106845,-6.029501336868224,0.870050132907152,0.8181218662662231,0.8336983239103897
1730865948.0845356,-1.714928388595581,0.9513433575630188,-9.833707809448242,-0.06970105993621328,-0.1732751986043718,-6.283912330882552,0.870049165837322,0.818117708151008,0.8335379473484151
1730865948.1347377,-1.6118273735046387,0.9223973155021667,-9.884674072265625,-0.07263619949149239,-0.18435531719950507,-6.5368526935272895,0.869727268417979,0.8168961212910196,0.7871494133995545
1730865948.1846237,-1.3661701679229736,0.9260615110397339,-9.857068061828613,-0.07554872438111826,-0.19556849448887928,-6.7877790654299135,0.8692258284558697,0.8152193905758003,0.7248430225551504
1730865948.2345996,-1.2212275266647339,0.8862243294715881,-9.932165145874023,-0.07843146596652265,-0.20686955119860279,-7.036164098703237,0.868501101458363,0.8130228659060208,0.8586152347789476
1730865948.2835228,-1.0323896408081055,0.8774198889732361,-9.941996574401855,-0.08127473672055463,-0.21821128825576436,-7.281498601005406,0.8677517870142265,0.8103639841886037,0.8222142683670273
1730865948.3344536,-1.2495695352554321,0.9381879568099976,-9.924843788146973,-0.08406457095722836,-0.2295449739143977,-7.523293587765551,0.8687420232839811,0.8471615667047804,0.8558830254230873
1730865948.3844686,-1.4342632293701172,1.0002256631851196,-9.9284086227417,-0.08678272007197613,-0.24082109567964435,-7.761081982852067,0.8682624294057959,0.8483379807839024,0.8151632409369649
1730865948.4344435,-1.6491162776947021,1.1198151111602783,-9.88106918334961,-0.08940874402728818,-0.25199054131518206,-7.9944198668878625,0.867565482303637,0.8488987727916422,0.755000544117245
1730865948.4846096,-1.8150001764297485,1.2128596305847168,-9.911548614501953,-0.09192313495938023,-0.2630060940731198,-8.222887421518632,0.8666311244360231,0.8488160029795344,0.6736313653251809
1730865948.5345068,-1.8150001764297485,1.2128596305847168,-9.911548614501953,-0.09431005500487338,-0.2738239065662127,-8.44608978124542,0.8654751571654655,0.8480642199788219,0.8473823894344394
1730865948.5345068,-1.8747748136520386,1.2866096496582031,-9.855307579040527,-0.09655889878671282,-0.2844045357138579,-8.663657854632127,0.8654693006484043,0.848059192625704,0.8472132663714852
1730865948.5845046,-1.8972151279449463,1.2438414096832275,-9.890105247497559,-0.09866470207889338,-0.2947134090088842,-8.875248954022712,0.8604421395341314,0.8465993504813244,0.8572996098234472
1730865948.6345894,-1.8699368238449097,1.2726092338562012,-9.829380989074707,-0.10062792830598341,-0.3047208699975687,-9.080547193905174,0.8577537269514799,0.844381963523675,0.814110247965703
1730865948.6844258,-1.9649289846420288,1.1705948114395142,-9.842905044555664,-0.1024540189913491,-0.31440187176300416,-9.279263763163556,0.8576911877389685,0.8636771386447487,0.8499295782735976
1730865948.7343395,-1.755480170249939,1.117276906967163,-9.814167976379395,-0.10415276808402722,-0.3237352870823488,-9.471137081271635,0.8554596973066256,0.864581021493462,0.800748451563802
1730865948.7843802,-1.648979902267456,1.0715574026107788,-9.870731353759766,-0.10573717962423364,-0.33270292203030405,-9.65593291492759,0.8577798883644465,0.8646712915159703,0.845458870553552
1730865948.8343627,-1.619248390197754,1.0923936367034912,-9.766934394836426,-0.10722164603245693,-0.3412886031248901,-9.833444499277434,0.8565505296785048,0.8639205111252773,0.792728342503477
1730865948.8843756,-1.5719029903411865,1.1600306034088135,-9.814069747924805,-0.10862020926065671,-0.3494777728472139,-10.003492466793926,0.8550444130422145,0.8623002263211185,0.8426474989095901
1730865948.9342463,-1.4718180894851685,1.2043366432189941,-9.855443000793457,-0.10994548219833596,-0.3572577180974007,-10.165924607811828,0.8532728165256671,0.8598059112943339,0.7875844995312428
1730865948.9843962,-1.5622344017028809,1.2559999227523804,-9.844598770141602,-0.11120799952548974,-0.3646181760567187,-10.32061578244965,0.8642621584546364,0.8563965866254746,0.8406839876927026
1730865949.0343103,-1.6065484285354614,1.3037285804748535,-9.91126537322998,-0.11241605143326983,-0.3715519557134762,-10.467467950989212,0.8653054979948119,0.8520751957871785,0.7836070614692845
1730865949.084335,-1.6464300155639648,1.3352413177490234,-9.848318099975586,-0.11357621764180154,-0.37805540747280514,-10.606410036248114,0.8660672523592294,0.8468112586349722,0.7001028168442568
1730865949.1342292,-1.7890230417251587,1.2793657779693604,-9.847938537597656,-0.1146943032337516,-0.3841286344662606,-10.737397450239538,0.8673678539805761,0.8405874874193274,0.5897608752198209
1730865949.1843033,-1.9112098217010498,1.1769911050796509,-9.826825141906738,-0.11577647176205,-0.3897751816569448,-10.860411250643162,0.8677394069327715,0.833429976200411,0.45306986119385717
1730865949.2342906,-1.7468112707138062,1.169215440750122,-9.872337341308594,-0.11683036485186818,-0.3950011192982065,-10.975457166006901,0.8678219920805532,0.8252864515098614,0.28902602274132344
1730865949.2843397,-1.7610691785812378,1.1731765270233154,-9.90518856048584,-0.11786541595847091,-0.3998140082815552,-11.082564805160139,0.8687831649363154,0.895787588102744,0.09663880492244428
1730865949.3341703,-1.772855281829834,1.1963719129562378,-9.869773864746094,-0.11889220348545797,-0.4042223294243491,-11.181787027504505,0.8688219970130002,0.8962074114972116,-0.1222099925829119
1730865949.3842542,-1.7723252773284912,1.1582468748092651,-9.856871604919434,-0.11992177679253815,-0.4082353644043304,-11.273199136550733,0.8685618502937038,0.8956121312736876,-0.37074863225104693
1730865949.4341888,-1.5951693058013916,1.1924304962158203,-9.84045124053955,-0.12096524037996449,-0.41186316073151596,-11.356897715722605,0.8701438785261467,0.8940011405452503,0.8379213747591503
1730865949.4842129,-1.4303251504898071,1.1096744537353516,-9.871488571166992,-0.12203285521951487,-0.41511639631421193,-11.432999331476655,0.8700472663074205,0.8913414454399603,0.771969831373274
1730865949.5342839,-1.4494115114212036,1.127644419670105,-9.831385612487793,-0.12313249093219282,-0.4180061129791103,-11.501639338843823,0.8696414899726926,0.8876284955463839,0.8493100089188594
1730865949.5842733,-1.374488115310669,1.0864741802215576,-9.847817420959473,-0.12426833342915432,-0.42054336795074115,-11.562970726765498,0.8689290084807867,0.8828899765334972,0.7870188010821227
1730865949.634126,-1.4525998830795288,1.0719263553619385,-9.802490234375,-0.1254405067443793,-0.4227389356150808,-11.617162871757248,0.864406648287399,0.8771267184423708,0.8526836215382364
1730865949.684152,-1.5784028768539429,1.0320987701416016,-9.840079307556152,-0.12664555897483598,-0.4246030675892236,-11.664400229610811,0.8627555137179094,0.870272465529624,0.7900026344351189
1730865949.734146,-1.5448294878005981,0.9901504516601562,-9.828018188476562,-0.12787760014998747,-0.42614522296855234,-11.704881094376068,0.8638455823127147,0.8623327331310339,0.8512181253112772
1730865949.7841535,-1.495914340019226,0.9905200004577637,-9.897010803222656,-0.12912943646460312,-0.4273737848149385,-11.738816529072865,0.8627770154692648,0.8533613203100756,0.7867080494983973
1730865949.8341901,-1.5989469289779663,0.96947181224823,-9.889765739440918,-0.13039308356983292,-0.4282958867322992,-11.766429472049602,0.8635037551268475,0.9342374804922278,0.8502607560275135
1730865949.8841543,-1.5671354532241821,0.9694827198982239,-9.91878890991211,-0.1316600284985291,-0.4289174208541171,-11.787953887053018,0.8632226863969742,0.9348925374814756,0.7850997951038841
1730865949.9341342,-1.4966825246810913,0.9941743016242981,-9.964380264282227,-0.13292156471721056,-0.42924319314962006,-11.803633840235278,0.8622314836305042,0.9346052368279226,0.6902630293549716
1730865949.984129,-1.4800490140914917,0.969645619392395,-9.981051445007324,-0.13416879879623492,-0.42927718888936706,-11.813722563937798,0.8609058400134384,0.933243443656511,0.5658522014184192
1730865950.0342054,-1.459653377532959,1.016774296760559,-9.992463111877441,-0.13539229736233188,-0.42902288671629735,-11.8184815262169,0.85924540656026,0.9308116019096815,0.4121021390977864
1730865950.0840492,-1.5144121646881104,1.049118995666504,-9.973414421081543,-0.13658188402240057,-0.4284836199441118,-11.818179355420865,0.8650017623664077,0.9273060957557858,0.22868363059994087
1730865950.1340241,-1.6105612516403198,1.0086636543273926,-9.94045639038086,-0.13772692819365256,-0.4276630000912653,-11.813090517449705,0.8645577650939047,0.9227395182982098,0.016135079136110654
1730865950.1840804,-1.5536221265792847,1.06661057472229,-9.94149398803711,-0.1388170537371321,-0.4265652352193483,-11.803493802684322,0.8670739707783534,0.9170718667287449,0.8289147933369755
1730865950.2339597,-1.603241205215454,1.065562129020691,-9.964529037475586,-0.13984277943057755,-0.4251953137900354,-11.789670844538039,0.8670025368555562,0.9104249083776856,0.7581122303315094
1730865950.2839465,-1.879683494567871,1.0326447486877441,-9.866992950439453,-0.1407960357995406,-0.42355916710828145,-11.771904800984343,0.8665771222283531,0.9026060514132047,0.6565699149696145
1730865950.3339956,-2.0737950801849365,0.9914940595626831,-9.809025764465332,-0.14167139495940564,-0.4216636443632347,-11.750478939273428,0.8658022381426268,0.8937998793042324,0.8327000017400316
1730865950.3840535,-1.8243703842163086,0.9407444000244141,-9.798154830932617,-0.1424678602398577,-0.41951614641575463,-11.725674965177772,0.8646637413218364,0.8838673237956374,0.7640468027459932
1730865950.4339852,-1.6435387134552002,1.0102969408035278,-9.805895805358887,-0.14318926741224774,-0.41712416932359303,-11.697771494186199,0.8631879919287786,0.8730418917937061,0.8340529467332659
1730865950.4839067,-1.5730770826339722,1.1460793018341064,-9.76155948638916,-0.14384242788791576,-0.41449529687895237,-11.66704298162854,0.8613326811404628,0.8610273389076728,0.7671331640478823
1730865950.5338778,-1.402429223060608,1.2469379901885986,-9.80485725402832,-0.14443452243253216,-0.41163800548496654,-11.633758942545706,0.8591460998550139,0.8481538738906836,0.6723151469923059
1730865950.5837739,-1.2801685333251953,1.27745521068573,-9.844583511352539,-0.14497100821025488,-0.4085629267077703,-11.598183369377765,0.8565758533055875,0.8341235124538368,0.5475402022646232
1730865950.6338754,-1.3144124746322632,1.2810062170028687,-9.876189231872559,-0.14545409403790782,-0.4052837702173789,-11.56057446565448,0.8536518596070924,0.8191243629769733,0.3942926179561128
1730865950.6837897,-1.3720238208770752,1.2254197597503662,-9.91110610961914,-0.1458820688611664,-0.4018174692841759,-11.521184591569689,0.85034223541818,0.8030114280702376,0.21100978829642603
1730865950.7338083,-1.4993278980255127,1.1518988609313965,-9.931300163269043,-0.14624985546569064,-0.39818359973768763,-11.480260187890934,0.8466651661410305,0.7858982105826887,0.8250198988879784
1730865950.78379,-1.6006672382354736,1.0863429307937622,-9.86929702758789,-0.1465504840584838,-0.39440330962920217,-11.438041520212085,0.8426408725573076,0.7678786121869828,0.756654463644952
1730865950.8337855,-1.81550133228302,1.01986563205719,-9.81452465057373,-0.1467769796411515,-0.3904980760334997,-11.394762051636402,0.8834167259431035,0.7489539360428571,0.8353532075275627
1730865950.8837059,-1.9375649690628052,0.9927679896354675,-9.77560806274414,-0.14692442478347628,-0.3864885928216498,-11.350647419242836,0.8840450120199833,0.7289807706985741,0.771486581666014
1730865950.9336746,-2.0457820892333984,0.9714118242263794,-9.726194381713867,-0.1469919243331874,-0.3823939800359517,-11.305914318796132,0.8843060995130713,0.7080864121842758,0.679519052226923
1730865950.9836621,-2.0869340896606445,1.0083929300308228,-9.737180709838867,-0.14698399987862376,-0.3782314113535099,-11.260769603488969,0.8875294295534237,0.6861597383638663,0.8328366157778619
1730865951.0336392,-2.0562994480133057,1.051559329032898,-9.758321762084961,-0.14691109414362918,-0.3740161994130807,-11.215409756941618,0.8880695672509612,0.6634348062844223,0.7686027312755773
1730865951.083622,-1.9736506938934326,1.1039338111877441,-9.822582244873047,-0.1467891226076675,-0.36976228363504393,-11.170020837676633,0.8882460038769769,0.6396838216705464,0.8369170052497917
1730865951.133597,-1.9302725791931152,1.1401413679122925,-9.887577056884766,-0.14663822593567874,-0.3654829199819334,-11.124778868391793,0.8880547696136925,0.6149628694472028,0.774249139971552
1730865951.1835477,-1.8705997467041016,1.1601102352142334,-9.892549514770508,-0.14648117658726323,-0.3611913187762558,-11.079850455182317,0.8875003498261514,0.589511703376779,0.8378275141108433
1730865951.233644,-1.852792739868164,1.1702474355697632,-9.919771194458008,-0.14634192093269868,-0.356901063250275,-11.035393297870462,0.886571060408528,0.5628567802245215,0.7755093376198146
1730865951.2836158,-1.850260853767395,1.1229956150054932,-9.914119720458984,-0.1462444844371335,-0.35262622797317467,-10.991556400577153,0.8852917748553821,0.5357219176861979,0.8386417835028034
1730865951.3335752,-1.8229795694351196,1.0839333534240723,-9.910886764526367,-0.14621226215102545,-0.3483811401672545,-10.948480048990502,0.883632706558095,0.5073875264855178,0.7772149259931255
1730865951.3836124,-1.7985893487930298,1.0479875802993774,-9.888747215270996,-0.14626754153568516,-0.34417983824999443,-10.90629564461447,0.8816169506225772,0.47837184508744934,0.8391176628113647
1730865951.4335694,-1.7535266876220703,0.9978740811347961,-9.872357368469238,-0.14643104764215553,-0.3400354345961856,-10.86512543454101,0.9296222570236286,0.4485439333086816,0.8452138361948999
1730865951.4836032,-1.7225205898284912,0.9698752164840698,-9.863229751586914,-0.14672144117756405,-0.335959541196903,-10.825082211749141,0.934179941270743,0.4176670698893076,0.7871561508489753
1730865951.533507,-1.668954610824585,0.9353963732719421,-9.8529052734375,-0.14715481188225357,-0.3319618085828468,-10.786269083747237,0.9383592672633256,0.3860257586069436,0.7021849046316568
1730865951.583536,-1.6359572410583496,0.9215210676193237,-9.852986335754395,-0.14774420986563858,-0.32804961794368687,-10.748779363812723,0.9421832230608693,0.35343886405090774,0.589832943962385
1730865951.6334298,-1.6144894361495972,0.9229671359062195,-9.850465774536133,-0.14849926955016163,-0.32422796150253785,-10.712696583952338,0.9283924072137243,0.32050092621624376,0.8342603232583528
1730865951.6834772,-1.6067534685134888,0.9610587358474731,-9.857247352600098,-0.14942602021594648,-0.3204995614209567,-10.678094612949906,0.9285315355030259,0.2862126350239038,0.7716985367031163
1730865951.7344527,-1.5976148843765259,1.0084751844406128,-9.867647171020508,-0.15052692689147945,-0.31686528621247534,-10.645037868381173,0.9282879155734465,0.250947008057537,0.8390240305863823
1730865951.7843916,-1.6114647388458252,1.0301212072372437,-9.874835968017578,-0.15180111391271542,-0.31332480621077247,-10.61358161166572,0.9276683788704319,0.21532584603455196,0.7791393858167488
1730865951.8344188,-1.5975745916366577,1.018343448638916,-9.889068603515625,-0.15324470302151438,-0.3098772362415402,-10.583772299670164,0.9266612184596654,0.17869644555458417,0.692213627797651
1730865951.8845086,-1.6075562238693237,0.9683912396430969,-9.893061637878418,-0.15485118949596083,-0.30652145997591407,-10.555647959278533,0.9252744071904607,0.14162981847761955,0.8367380738913258
1730865951.934418,-1.626556634902954,0.905511736869812,-9.897462844848633,-0.15661182034876253,-0.3032559940627078,-10.529238554360907,0.9235001327993947,0.10370264408099909,0.7763137883568685
1730865951.9844997,-1.626556634902954,0.905511736869812,-9.897462844848633,-0.15851601040811636,-0.3000785378204764,-10.504566317603835,0.9148460883316611,0.06484571029937043,0.8401366064793605
1730865951.9844997,-1.6508206129074097,0.8503293991088867,-9.890620231628418,-0.16055178472947096,-0.2969855406065448,-10.481646037709146,0.9148347348077717,0.06466721881441599,0.839927089536984
1730865952.034278,-1.668717384338379,0.7852784395217896,-9.882685661315918,-0.16270620887626255,-0.29397190175774246,-10.46048530256958,0.9121732317025417,0.02560726858050484,0.7816459204300017
1730865952.0843859,-1.666137456893921,0.7490000128746033,-9.847501754760742,-0.16496580085804458,-0.29103064388527017,-10.441084682515367,0.9101919658839084,-0.014553647325948493,0.8489203265017787
1730865952.134316,-1.6244356632232666,0.7482098340988159,-9.854060173034668,-0.16731682074277388,-0.2881526017121713,-10.423437850455283,0.9073397901021568,-0.05527115340403175,0.7949028619934388
1730865952.1843207,-1.5937052965164185,0.7874472141265869,-9.882034301757812,-0.16974528402395384,-0.2853264225865264,-10.407531758276507,0.9040496853120211,-0.09694979145647382,0.7145578073348504
1730865952.2342668,-1.5707736015319824,0.8576775789260864,-9.910017013549805,-0.17223673919668975,-0.28253905689020375,-10.393347053751242,0.9076202120492811,-0.13902575706329248,0.841927028403857
1730865952.2842512,-1.587791085243225,0.9232023358345032,-9.935588836669922,-0.1747760562765541,-0.27977667815989626,-10.380858736185182,0.9093398065965532,1.1442062141854805,0.8482923407488191
1730865952.3342435,-1.5839658975601196,0.9715844392776489,-9.951668739318848,-0.17734743488569793,-0.2770257915014709,-10.370036868824764,0.9082632408155744,1.1474812084406067,0.7932723927467422
1730865952.3842833,-1.6285433769226074,0.9795622229576111,-9.949352264404297,-0.1799346498337167,-0.27427420189645135,-10.360847192401796,0.9073710353297942,1.1474831379318469,0.8424337244512253
1730865952.4342704,-1.6731714010238647,0.9589577913284302,-9.931402206420898,-0.182521486120432,-0.2715115748455478,-10.353251554734948,0.9054753008924693,1.1485797769048613,0.7848661293078049
1730865952.4843504,-1.7608195543289185,0.9085907340049744,-9.892904281616211,-0.1850923781559792,-0.26872948260144774,-10.347208111740187,0.9031037493961787,1.149003270738631,0.7008361456464387
1730865952.5342863,-1.8198007345199585,0.8613375425338745,-9.845653533935547,-0.18763323796160286,-0.26592100659636775,-10.34267130425081,0.9060557403122116,1.148755557289436,0.8380802379846901
1730865952.5842535,-1.8743910789489746,0.8098325729370117,-9.812735557556152,-0.1901323172823032,-0.2630800940813818,-10.339591686271698,0.904473204703264,1.1478511535637104,0.7791722297936038
1730865952.634168,-1.8814746141433716,0.8248398900032043,-9.78154468536377,-0.19258085985525675,-0.26020093431132507,-10.33791575227807,0.9064093126155801,1.1462876168605587,0.8411135426837799
1730865952.6841817,-1.8178749084472656,0.9012826681137085,-9.799697875976562,-0.1949733021390865,-0.257277685974996,-10.337585928842856,0.9052068805767451,1.1440870265839689,0.7835417910079865
1730865952.7341259,-1.7743693590164185,0.9895063042640686,-9.821540832519531,-0.19730687533914276,-0.25430482777624036,-10.338540864731076,0.905105116433902,1.1412441471561416,0.8414803578877419
1730865952.7841399,-1.7426655292510986,1.0704177618026733,-9.879551887512207,-0.19958076334850852,-0.2512780581573715,-10.340716071065508,0.9034843599451028,1.1377676148993323,0.7838617647093079
1730865952.834016,-1.7173658609390259,1.144403100013733,-9.899643898010254,-0.20179522563516286,-0.2481953588132463,-10.34404481738496,0.9038094653231576,1.1336442500088644,0.8412308191744011
1730865952.884022,-1.7238008975982666,1.201750636100769,-9.902915954589844,-0.20395096447670685,-0.24505788970002884,-10.348459042721242,0.9021425089784995,1.128959895115275,0.783939207154005
1730865952.9340377,-1.7645459175109863,1.1820310354232788,-9.86949348449707,-0.20604882295880217,-0.24187052797800174,-10.35389000440081,0.9071380210134324,1.123534864433028,0.841348958931738
1730865952.9839852,-1.83077871799469,1.1543887853622437,-9.82955265045166,-0.2080898782494766,-0.23864187285868618,-10.360268530149682,0.9102431862402443,1.1177027553416685,0.8486549680858849
1730865953.0339887,-1.8594506978988647,1.0799541473388672,-9.79504680633545,-0.2100758807186829,-0.23538364813997334,-10.367524953077108,0.9105529746990088,1.1111457085482999,0.7936357575093415
1730865953.0839276,-1.8404059410095215,1.018115758895874,-9.759230613708496,-0.21200972951799646,-0.23210965941446215,-10.375588926748378,0.9103364633312537,1.1041069150608693,0.7137815354328052
1730865953.1339393,-1.7897979021072388,0.9865586757659912,-9.764646530151367,-0.21389558134834402,-0.2288345986245049,-10.384389311173308,0.9095835786578402,1.0963944601011115,0.6068342129209203
1730865953.1840162,-1.698754072189331,1.0258070230484009,-9.786855697631836,-0.21573840666758032,-0.22557307541659577,-10.39385428648572,0.9114277587410871,1.0881758005616224,0.8378636712083116
1730865953.2339149,-1.6195176839828491,1.096706748008728,-9.849236488342285,-0.21754309084449713,-0.2223392368543461,-10.403911808894993,0.9107030881520843,1.0793454678873111,0.7776985783476376
1730865953.2839737,-1.6195176839828491,1.096706748008728,-9.849236488342285,-0.21931340950126987,-0.21914699358998452,-10.414490359674327,0.9094342416681376,1.0699902108277377,0.6916798501568945
1730865953.2839737,-1.5690386295318604,1.1863417625427246,-9.894932746887207,-0.22105130017637703,-0.2160104839739657,-10.425519739402507,0.9094278407468471,1.069950284713546,0.6912690699302121
1730865953.3338645,-1.5596836805343628,1.2637195587158203,-9.941064834594727,-0.22275655471845593,-0.21294456235397877,-10.436931748177123,0.9111970458858264,1.060153032816662,0.8429548761238234
1730865953.384044,-1.5596836805343628,1.2637195587158203,-9.941064834594727,-0.22442676434370096,-0.20996533832651226,-10.44866079119716,0.9101572727881148,1.0496688771800355,0.7868025090512949
1730865953.384044,-1.59630286693573,1.3051685094833374,-9.960204124450684,-0.22605747961613415,-0.20709055996220954,-10.460644356662034,0.9101517451942248,1.0496240150826237,0.7865128480639484
1730865953.4338489,-1.6284863948822021,1.3273265361785889,-9.94701862335205,-0.22764265461846853,-0.20433965824017386,-10.472823250366497,0.9085588189708304,1.0387362884694868,0.7048472388999109
1730865953.4840422,-1.6553434133529663,1.316172480583191,-9.920696258544922,-0.22917529466129227,-0.20173358630204796,-10.485141596033117,0.9112342693941357,1.0272332479540898,0.8474050511685637
1730865953.5338588,-1.6599690914154053,1.2806527614593506,-9.860176086425781,-0.23064809922971063,-0.19929448411053244,-10.497546601063668,0.9101137509595097,1.0153840289328566,0.8525702540094163
1730865953.583919,-1.6765570640563965,1.1801283359527588,-9.819402694702148,-0.23205393548399542,-0.19704500653271964,-10.5099880749412,0.9084054603562912,1.002917425035065,0.7982538899612031
1730865953.6338382,-1.6720153093338013,1.0732054710388184,-9.787087440490723,-0.23338612417156593,-0.19500722321337294,-10.522417835703077,0.9153435538403897,1.2938433067573396,0.845436023212159
1730865953.6838663,-1.6663193702697754,0.9791675806045532,-9.763050079345703,-0.2346385845184702,-0.1932011968866544,-10.534789219784532,0.9149229004306099,1.299441934532901,0.787763914566409
1730865953.7339408,-1.6707918643951416,0.9239218235015869,-9.750232696533203,-0.2358058687066018,-0.19164357746214344,-10.547056801400323,0.9139120212048636,1.3045907395571772,0.7034268074571396
1730865953.7837968,-1.6994575262069702,0.9047927856445312,-9.781537055969238,-0.23688317472103318,-0.19034659707963858,-10.55917634012844,0.9123158808066532,1.3092444599268824,0.8402846945678656
1730865953.8338177,-1.7137017250061035,0.9450106620788574,-9.824131965637207,-0.23786645918660906,-0.18931769288276057,-10.571105016535343,0.9101079113069285,1.3134597205534784,0.7797183590162055
1730865953.8838098,-1.7199853658676147,1.0237822532653809,-9.900525093078613,-0.23875263457059126,-0.18855983053141195,-10.582801999160235,0.9256326862846767,1.3171592869808064,0.8429934851727495
1730865953.933771,-1.7121604681015015,1.109671950340271,-9.941783905029297,-0.239539705174174,-0.1880724568908146,-10.59422924808102,0.9312332630755836,1.32041417177455,0.8484524062614492
1730865953.9838536,-1.7125602960586548,1.1412822008132935,-9.991416931152344,-0.24022675554780584,-0.18785277796093527,-10.60535233265949,0.933176954808008,1.3231864325524076,0.7920596632788356
1730865954.033785,-1.7383090257644653,1.1559922695159912,-9.991555213928223,-0.24081386423596984,-0.18789688823403108,-10.616141033942696,0.9345192354752183,1.3254864399149542,0.7094162374708645
1730865954.0837812,-1.7700742483139038,1.0934906005859375,-9.966474533081055,-0.2413021029051528,-0.1882003784834496,-10.626569575869544,0.9329047505608423,1.327330234190725,0.8394253619677868
1730865954.1337168,-1.7931220531463623,1.0574482679367065,-9.924484252929688,-0.2416936916779423,-0.18875832295046627,-10.636616413648905,0.9327521365719925,1.3286937032235209,0.7789813508457113
1730865954.1838078,-1.8051255941390991,0.9757516384124756,-9.861323356628418,-0.24199220677688196,-0.1895648022777353,-10.646263634799748,0.9346124685285513,1.3295932798700378,0.8420460944215102
1730865954.233678,-1.8243852853775024,0.909440279006958,-9.807530403137207,-0.24220270375141337,-0.19061221033186082,-10.655496129090167,0.9344749459862028,1.3300089797433503,0.7829477428091364
1730865954.2837088,-1.831785798072815,0.8526820540428162,-9.77783489227295,-0.24233173237090053,-0.19189053092032402,-10.664300722719979,0.9349006849663362,1.3299507831258426,0.8423033897549889
1730865954.3335953,-1.7967559099197388,0.8678164482116699,-9.767488479614258,-0.24238723933181117,-0.19338679737195344,-10.672665497180148,0.9341771904984141,1.329412533721333,0.7830351466738004
1730865954.3836603,-1.7605763673782349,0.9291214346885681,-9.799591064453125,-0.24237826387007197,-0.19508503982450573,-10.680579461544628,0.935318952522632,1.3283833681305892,0.842171805949421
1730865954.433618,-1.710945725440979,1.0032237768173218,-9.818702697753906,-0.24231438081206075,-0.19696689650082702,-10.688032616247675,0.9344027820359249,1.3268687113815842,0.782612690550563
1730865954.4836576,-1.7012803554534912,1.053971767425537,-9.838756561279297,-0.24220503489851336,-0.19901271037508952,-10.695016281819433,0.9360237104499723,1.3249856322910811,0.8422949214791624
1730865954.5335536,-1.6881037950515747,1.0379717350006104,-9.849413871765137,-0.2420589983533225,-0.20120264019162398,-10.70152346848687,0.9351193336723237,1.3224986947155002,0.7830196829459616
1730865954.5836434,-1.7113316059112549,0.9963055849075317,-9.854170799255371,-0.24188410033416818,-0.20351731358946,-10.707549137685515,0.936874481801,1.319681023838069,0.8420436054406111
1730865954.6335702,-1.745736837387085,0.9328804016113281,-9.85682487487793,-0.24168725814322473,-0.20593784107093988,-10.71309032811751,0.936030853182548,1.3161962548801176,0.7825874197688454
1730865954.683587,-1.7479357719421387,0.8603179454803467,-9.831171989440918,-0.2414747418313831,-0.2084453458463533,-10.718146148484479,0.9345761358274225,1.3121665554607687,0.695859442324361
1730865954.733575,-1.7491909265518188,0.843873918056488,-9.839099884033203,-0.2412524744921488,-0.21102032255400996,-10.722717641157178,0.9374096930082723,1.3078118144073638,0.8386183390480889
1730865954.7836032,-1.719849944114685,0.8954249024391174,-9.856204986572266,-0.24102615634888508,-0.21364222339164796,-10.726807612858984,0.9363055517654607,1.302739733178861,0.7772590722189249
1730865954.8335345,-1.69038987159729,1.013269066810608,-9.893735885620117,-0.24080114862653895,-0.21628968495906348,-10.730420603612746,0.9346026621518,1.297500301405359,0.8418951925884051
1730865954.8834958,-1.6407148838043213,1.1782209873199463,-9.94733715057373,-0.240582160116365,-0.2189415833481146,-10.733563076145291,0.9444091241443053,8.129332830558726,0.8480610196637433
1730865954.9335127,-1.5968351364135742,1.3148117065429688,-9.980710983276367,-0.24037280739604325,-0.22157873479133453,-10.736243769124249,0.9454466474710832,9.281970285223526,0.7909536091410359
1730865954.9834745,-1.5788203477859497,1.3853707313537598,-9.986942291259766,-0.24017515982726315,-0.22418571866363585,-10.738474042032298,0.945883591712121,10.43856597607881,0.706601823769662
1730865955.0333755,-1.59587824344635,1.345052719116211,-9.986001014709473,-0.2399894538103059,-0.22675212721013083,-10.740267998934282,0.9459968213787021,11.582800545917554,0.8392065171736539
1730865955.0834413,-1.6471034288406372,1.241713523864746,-9.92891788482666,-0.23981417109132297,-0.22927270116043827,-10.741642277445655,0.945616206154195,12.738312712986897,0.777778443866187
1730865955.1334794,-1.7504501342773438,1.1041513681411743,-9.85863208770752,-0.2396465840989449,-0.23174626829747683,-10.742615467227031,0.9446394477509757,13.885717446490196,0.6899269317957195
1730865955.1834555,-1.8304283618927002,0.9711137413978577,-9.74976921081543,-0.23948373465289735,-0.23417387805920842,-10.743207152851339,0.9430590773161769,15.036991236425536,0.8383157744794765
1730865955.2333221,-1.9156988859176636,0.9128645658493042,-9.670672416687012,-0.23932362496889922,-0.23655676458547684,-10.74343669232344,0.9408843427371496,16.184854044945197,0.7768845952186624
1730865955.2834413,-1.9156988859176636,0.9128645658493042,-9.670672416687012,-0.23916625221567775,-0.2388947818251902,-10.743322049435925,0.9381115292773444,17.332467637523752,0.6886073386793728
1730865955.2834413,-1.9563443660736084,0.903839647769928,-9.61693286895752,-0.23901418359015605,-0.24118568303882604,-10.742879060288232,0.9380983649432955,17.33738297887582,0.6881714175500291
1730865955.3332965,-1.9662718772888184,0.9583784937858582,-9.625625610351562,-0.23887266836125542,-0.24342514843435467,-10.742121193863369,0.9347414335738786,18.47958145353384,0.5734885597465761
1730865955.3834836,-1.923431158065796,1.0500279664993286,-9.705564498901367,-0.2387494567944353,-0.2456073267050815,-10.741059683953967,0.9307488861299512,19.63291933771202,0.8399131916786166
1730865955.4342368,-1.8367159366607666,1.1513241529464722,-9.823517799377441,-0.2386542861695673,-0.24772582198196544,-10.739704170748215,0.9261175317838208,20.794040109597763,0.7796708790060338
1730865955.4842105,-1.7143102884292603,1.2665013074874878,-9.948857307434082,-0.23859786634909916,-0.24977501010901368,-10.738063966623763,0.9209715177377522,21.933978035810842,0.8438047705606664
1730865955.5342638,-1.5934988260269165,1.3747628927230835,-10.055098533630371,-0.23859041976489911,-0.2517514366537972,-10.736149659350543,0.9151693504626774,23.08579985846608,0.7842945767001728
1730865955.5842412,-1.4835880994796753,1.4298890829086304,-10.111140251159668,-0.23864005978779937,-0.25365505018257045,-10.733974581500734,0.9642081386677832,7.216777677362676,0.8429807432021252
1730865955.6342456,-1.443881630897522,1.4316983222961426,-10.103753089904785,-0.2387513778771524,-0.2554899909555921,-10.731555740334697,0.96463672204131,7.272038819991154,0.7832305813190913
1730865955.6842623,-1.4952565431594849,1.3775787353515625,-10.049909591674805,-0.23892465043638678,-0.2572646671943133,-10.7289139535376,0.9674366792928087,7.326357402125633,0.697094998218332
1730865955.7341847,-1.6399167776107788,1.2702287435531616,-9.953142166137695,-0.23915604731859574,-0.2589910305395837,-10.726073164188776,0.9675004310002465,7.38007288311638,0.5842418262153052
1730865955.7842758,-1.8158236742019653,1.1555479764938354,-9.814238548278809,-0.2394389764311277,-0.26068317320797185,-10.723059094819224,0.9689033560256766,7.43371427372926,0.4430585774751932
1730865955.8341494,-1.987913966178894,1.0372942686080933,-9.684324264526367,-0.23976626350434732,-0.2623555384741383,-10.719897472492088,0.9693381896715821,6.7415156715843265,0.8204229614361926
1730865955.8841746,-2.1046435832977295,0.9711049795150757,-9.589987754821777,-0.2401325344463538,-0.26402114262530313,-10.716612150857607,0.9688016321028885,6.7458183009758566,0.7552048064246657
1730865955.9341092,-2.1483964920043945,0.9394667744636536,-9.553539276123047,-0.24053612864510499,-0.2656902007338003,-10.713223565540769,0.9676588983668047,6.7494699870281565,0.662817155078005
1730865955.9841945,-2.121264934539795,0.9565346837043762,-9.586009979248047,-0.2409800678399507,-0.2673694177103547,-10.709747910700216,0.9659243991892557,6.752431422388003,0.5443983491262268
1730865956.0340698,-2.039263963699341,0.9619608521461487,-9.645097732543945,-0.2414719192528847,-0.2690619600096078,-10.706197203176375,0.9695812063958815,6.754728189850926,0.8169793168598956
1730865956.0840585,-1.9312196969985962,0.9948458671569824,-9.719782829284668,-0.24202270445116097,-0.27076788886948105,-10.70258010290097,0.9684978819936475,6.756357832944662,0.753377079136335
1730865956.1340225,-1.8107657432556152,1.0069457292556763,-9.799466133117676,-0.24264520340122162,-0.27248478872727144,-10.698903149432564,0.96681216757469,6.757306535205693,0.6632068704752242
1730865956.184022,-1.7375962734222412,1.0039891004562378,-9.883305549621582,-0.2433520821448029,-0.27420839348928416,-10.695172097362693,0.9645039339808833,6.757573481448578,0.5455290227533802
1730865956.2339506,-1.6901278495788574,0.9899908900260925,-9.963652610778809,-0.24415428004098894,-0.2759330549415095,-10.691393175142633,0.9616219030931223,6.757154537862371,0.8137062565389769
1730865956.2840056,-1.6511867046356201,1.0167818069458008,-10.022025108337402,-0.24505994138620565,-0.2776520260387579,-10.687574166661554,0.9580956699160319,6.756039761381527,0.7503725634452064
1730865956.3338845,-1.626352071762085,1.0566904544830322,-10.058816909790039,-0.2460738771690198,-0.2793577447089628,-10.683725208425644,0.9539894601863897,6.7542412732367705,0.8204475480673789
1730865956.3839247,-1.6089198589324951,1.1275053024291992,-10.08283519744873,-0.24719738258986396,-0.2810423307601742,-10.679859215666507,0.949224732014835,6.751723815196583,0.7603665311120982
1730865956.433835,-1.548673152923584,1.161179542541504,-10.08017635345459,-0.24842824046323217,-0.2826983013885964,-10.67599193458644,0.9438611587153262,6.748510245951487,0.8216157103409143
1730865956.4838657,-1.5168516635894775,1.1840696334838867,-10.051786422729492,-0.2497607364018955,-0.28431928551685137,-10.67214165801785,0.9962706098396534,6.744593085868669,0.7622851563998938
1730865956.533793,-1.4813148975372314,1.1318827867507935,-9.987784385681152,-0.2511856232939823,-0.28590043710702173,-10.66832860874737,0.9989177322612666,6.739957090327935,0.6761671707463119
1730865956.5838237,-1.4938756227493286,1.0512200593948364,-9.905617713928223,-0.2526901739657138,-0.2874383115198035,-10.664573990109199,1.00093594700103,6.734598345229691,0.5632376799320008
1730865956.6337664,-1.5253958702087402,0.9455553293228149,-9.82075309753418,-0.25425850792635624,-0.2889301445607051,-10.660898779121831,1.0023115619855656,6.728559787820707,0.42458878453952803
1730865956.683823,-1.6069215536117554,0.8572342395782471,-9.72569751739502,-0.2558722997797389,-0.29037272743327563,-10.657322423881592,1.0010078594342169,6.651077773888594,0.2579881813471505
1730865956.7337284,-1.7038275003433228,0.803158164024353,-9.66273307800293,-0.2575118853169086,-0.29176124856859925,-10.653861624396505,1.0015078597037788,6.651017936891559,0.06596189660349792
1730865956.7837372,-1.8090814352035522,0.8006678223609924,-9.635173797607422,-0.2591576711465396,-0.29308848136351395,-10.650529386184367,1.0013636941292146,6.651600912164009,0.8255863066059876
1730865956.8336544,-1.8927173614501953,0.8072279691696167,-9.634767532348633,-0.26079163156992036,-0.29434454733661886,-10.647334538179434,1.0084332129606173,6.648367276708128,0.8441974804911873
1730865956.883653,-1.9440635442733765,0.8602471947669983,-9.668485641479492,-0.26239860892971056,-0.29551724513467514,-10.64428179248808,1.0092171798387735,6.64732154964651,0.7891456291125055
1730865956.9336395,-1.9826576709747314,0.9154075980186462,-9.733817100524902,-0.26396719123598067,-0.29659280006198174,-10.641372293754499,1.0093424919299094,6.645532425326999,0.7073471386574004
1730865956.9837236,-1.9989776611328125,0.9727869033813477,-9.810914993286133,-0.2654901085364422,-0.29755686764036493,-10.638604563432267,1.0088030333739466,6.644080873051501,0.840974338210196
1730865957.033659,-1.9968469142913818,1.0430967807769775,-9.891023635864258,-0.2669642230553774,-0.29839560830754397,-10.635975694158361,1.0076023950077784,6.641846327100614,0.782020824471954
1730865957.083661,-1.9968469142913818,1.0430967807769775,-9.891023635864258,-0.26839021390647466,-0.2990966478065327,-10.633482526834253,1.0057234917455449,6.638849739875245,0.6960566974332194
1730865957.083661,-1.9078164100646973,1.1033395528793335,-9.982389450073242,-0.26977200022938913,-0.2996497645926869,-10.631122533498974,1.0057141583419962,6.63883553984422,0.6956384232617154
1730865957.1336153,-1.811535358428955,1.1505705118179321,-10.037453651428223,-0.2711158094052507,-0.30004732935643125,-10.628894443679563,1.0164172932329774,6.641166726949325,0.8428410060027148
1730865957.1835968,-1.684177279472351,1.158101201057434,-10.068291664123535,-0.2724288124371159,-0.30028465447632124,-10.626798814584259,1.016389759432445,6.638859639652079,0.7860419092945912
1730865957.2335598,-1.607757568359375,1.1402833461761475,-10.083259582519531,-0.27371752774004404,-0.3003601776318105,-10.624838449900809,1.0156826670637824,6.635808978933602,0.702892744826881
1730865957.2836456,-1.5794684886932373,1.0847864151000977,-10.054425239562988,-0.2749864238621964,-0.3002752513150368,-10.623018448965908,1.0142903280407387,6.632004237911198,0.593110824529527
1730865957.3335211,-1.6266781091690063,1.0333889722824097,-10.00820255279541,-0.2762371535786493,-0.300033507616105,-10.621345837358811,1.0122167058901455,6.627463401165333,0.8392759125136499
1730865957.3835816,-1.7076492309570312,0.985153317451477,-9.948284149169922,-0.277468653725352,-0.2996399793637107,-10.619828834116097,1.009442557304268,6.622153622398986,0.8485185273223987
1730865957.4335127,-1.7534598112106323,0.9991579055786133,-9.872818946838379,-0.2786779792614692,-0.29910026780870336,-10.618475879799934,1.005975549374462,6.616100474187906,0.7918889542153074
1730865957.4836228,-1.761965274810791,1.019677996635437,-9.80775260925293,-0.27986137259214106,-0.2984200557609191,-10.617294579578054,1.0017984356342353,6.609281343888602,0.7084638306120756
1730865957.5335631,-1.7332777976989746,1.0601274967193604,-9.740081787109375,-0.2810150155059621,-0.29760508407523273,-10.61629069597631,0.996932638814102,6.601737623397461,0.5987388306059928
1730865957.5835302,-1.7332777976989746,1.0601274967193604,-9.740081787109375,-0.28213526559270563,-0.296661426518234,-10.615467349937973,0.9913400523294036,6.5934173596066294,0.46190650406164585
1730865957.5835302,-1.7360866069793701,1.0578792095184326,-9.706241607666016,-0.28321859678577366,-0.29559575665877913,-10.614824592675749,0.9913149673215396,6.593380695875431,0.4612729705955518
1730865957.633568,-1.7078824043273926,1.0534155368804932,-9.675688743591309,-0.28426151977932207,-0.2944154142722746,-10.61435932310716,1.0295252233170424,6.584429625474068,0.8361137733430059
1730865957.683474,-1.7233083248138428,1.0290294885635376,-9.678693771362305,-0.2852605292358858,-0.29312828552343384,-10.614065355698498,1.0288920463465807,6.57466819710557,0.7770608707905033
1730865957.733404,-1.7296462059020996,1.0342074632644653,-9.693284034729004,-0.28621207917977376,-0.29174259019697424,-10.613933604520252,1.0275428988679631,6.564163388063203,0.8431494808331311
1730865957.7834828,-1.7782323360443115,1.0552161931991577,-9.738544464111328,-0.287112696929246,-0.2902666968188209,-10.613952509096855,1.0254760841127157,6.552932158216444,0.7845954697461935
1730865957.833414,-1.8271551132202148,1.1032934188842773,-9.756502151489258,-0.28795931372986483,-0.2887091273890285,-10.614108702074274,1.022696811796219,6.541005523628103,0.6996994921760109
1730865957.8834038,-1.8970963954925537,1.1459044218063354,-9.80887222290039,-0.2887497973716485,-0.287078821804214,-10.614387773442225,1.0191968350423999,6.52835430732235,0.5882841679704618
1730865957.933347,-1.9201931953430176,1.1988476514816284,-9.833016395568848,-0.28948357376979994,-0.28538557201530307,-10.614775010073632,1.0376868859816313,6.515014688978239,0.8376271826151275
1730865957.983341,-1.93211030960083,1.2210768461227417,-9.855461120605469,-0.2901621107335575,-0.2836404668658373,-10.61525604594745,1.036906808794862,6.500912473558913,0.7761986105517031
1730865958.0332818,-1.8952357769012451,1.1917591094970703,-9.863088607788086,-0.2907890429245528,-0.28185615178136647,-10.615817344279884,1.042796057988554,6.486189560254239,0.8430666873274221
1730865958.0833924,-1.8420480489730835,1.143674373626709,-9.883455276489258,-0.29136985047073016,-0.28004668795892573,-10.616446481829815,1.043051582505885,6.470556594096418,0.7833430601687013
1730865958.1332362,-1.7618697881698608,1.129366159439087,-9.8805570602417,-0.29191113314877865,-0.2782269917775377,-10.617132296442723,1.0457685037995228,6.499972512848711,0.8429838558414595
1730865958.1833367,-1.694387674331665,1.115341305732727,-9.905627250671387,-0.29241961868383715,-0.2764121477984623,-10.617864958058792,1.0457318581248711,6.493469669173463,0.7833044105176022
1730865958.2332082,-1.6100733280181885,1.094612956047058,-9.931663513183594,-0.29290109876572434,-0.27461687821832004,-10.618636026302356,1.0449684216706576,6.486371444116187,0.6980570201249404
1730865958.2832747,-1.5418109893798828,1.0807050466537476,-9.972339630126953,-0.2933594452783518,-0.27285517629063427,-10.619438582094592,1.0497393268676847,6.478525010117532,0.8385317281033302
1730865958.3331993,-1.5418109893798828,1.0807050466537476,-9.972339630126953,-0.29379584654219987,-0.2711400276991751,-10.62026742534959,1.0519927850883954,6.470057003847301,0.8470313229789826
1730865958.3331993,-1.499990701675415,1.0729589462280273,-10.015694618225098,-0.2942084366090503,-0.26948323406393265,-10.621119224819356,1.0519939525149051,6.470020447430799,0.8468507455079047
1730865958.383289,-1.4388550519943237,1.0682786703109741,-10.016959190368652,-0.294592262094003,-0.26789533820041284,-10.621992576383612,1.0519063767765762,6.460832971327986,0.7897814279636485
1730865958.4332135,-1.4388550519943237,1.0682786703109741,-10.016959190368652,-0.29493931460768297,-0.26638559840794,-10.622887977922076,1.0554996890557204,6.451015910088138,0.8497787305216158
1730865958.4332135,-1.4234479665756226,1.0768064260482788,-10.036955833435059,-0.29523861332298745,-0.26496200137996573,-10.623807690092708,1.0555031555242913,6.450967277048839,0.8495779893798241
1730865958.4831707,-1.4432932138442993,1.1116139888763428,-10.005428314208984,-0.2954765170786252,-0.2636313662401989,-10.62475550157781,1.0558578024597811,6.440447354361972,0.7941629572372307
1730865958.5341525,-1.5085569620132446,1.1484904289245605,-9.962830543518066,-0.2956373171413012,-0.2623996035296323,-10.62573637904547,1.055463377424234,6.429128566602881,0.710986748054046
1730865958.5831633,-1.5824558734893799,1.1850098371505737,-9.87814998626709,-0.29570413614428714,-0.26127212476649814,-10.626755867829036,1.056934381668465,6.41746034019557,0.8496629762870671
1730865958.6341417,-1.7026240825653076,1.1562330722808838,-9.797066688537598,-0.2956601465674651,-0.26025424469215946,-10.627819197661395,1.0562286807993118,6.404780608817342,0.7924289890066598
1730865958.6841717,-1.7026240825653076,1.1562330722808838,-9.797066688537598,-0.29548991526620494,-0.2593513394052078,-10.628930296824908,1.0547848550331265,6.391611436018893,0.7090743333036459
1730865958.6841717,-1.8434793949127197,1.0966352224349976,-9.701960563659668,-0.29518055423359807,-0.25856867345763135,-10.630091032574741,1.0547764996622802,6.391549362032285,0.7086292783541089
1730865958.7341104,-1.9647480249404907,1.0394996404647827,-9.635427474975586,-0.29472269058365846,-0.2579109578527061,-10.631300685895962,1.0526215825751786,6.377913687545332,0.6000731033446767
1730865958.7841659,-2.0362460613250732,0.9632866978645325,-9.589738845825195,-0.2941115085123699,-0.25738169232917696,-10.632555440250464,1.0585435423514817,6.363350176152186,0.842207500322066
1730865958.8331368,-2.0580220222473145,0.9396564364433289,-9.595098495483398,-0.29334765230225884,-0.256982421680445,-10.633847992770445,1.0576096487328297,6.348677786563539,0.7860328359439812
1730865958.8841126,-2.0260348320007324,0.9472898840904236,-9.640368461608887,-0.29243748899545136,-0.2567121951750061,-10.635167619282266,1.0595036875548371,6.332617423555294,0.8430549623947717
1730865958.9341154,-1.9630955457687378,1.0134309530258179,-9.721592903137207,-0.29139257469234187,-0.2565675188680533,-10.636500828382427,1.0584079191746514,6.31634223183522,0.7846637239362724
1730865958.984118,-1.895137906074524,1.0919886827468872,-9.815616607666016,-0.29022850491656726,-0.25654290803249663,-10.637832515770878,1.0607037023403982,6.2992972421861175,0.8420818867313221
1730865959.0339692,-1.8222602605819702,1.1473636627197266,-9.905097961425781,-0.2889634554790959,-0.25663188036455487,-10.6391473972165,1.0596864082047377,6.281720240689762,0.7832201283626034
1730865959.0840662,-1.7455374002456665,1.1361726522445679,-9.956357955932617,-0.2876166961270793,-0.2568279752002114,-10.64043141925929,1.0635222063596041,6.2634604016415665,0.8418199609692375
1730865959.1339521,-1.700907826423645,1.1482601165771484,-10.000899314880371,-0.28620724860052515,-0.2571253742411752,-10.641672860393529,1.0632155822534974,6.24453207149972,0.7826497834489499
1730865959.1839936,-1.7207727432250977,1.1174755096435547,-10.020934104919434,-0.2847528711014934,-0.257519036547995,-10.642862987601212,1.06218848893479,6.22487259291367,0.6964122375104959
1730865959.233999,-1.7523990869522095,1.134559988975525,-9.988039016723633,-0.2832695993063286,-0.2580045595726219,-10.643996269732186,1.0643137484458207,6.204695052429417,0.5840497907365901
1730865959.2839696,-1.8286563158035278,1.1376848220825195,-9.950651168823242,-0.28177191079076214,-0.25857800696820205,-10.64507013890072,1.063256856426097,6.183919184157034,0.4455384661869328
1730865959.3339097,-1.8731988668441772,1.1633003950119019,-9.883402824401855,-0.2802733311559277,-0.2592358527830627,-10.646084331988106,1.0664162162379678,6.162552200124781,0.8402611097038412
1730865959.3839538,-1.87714421749115,1.2097761631011963,-9.829784393310547,-0.27878714239548974,-0.2599750878070185,-10.64703997338223,1.0681550176212258,6.140080968654101,0.8541807033732102
1730865959.43391,-1.87714421749115,1.2097761631011963,-9.829784393310547,-0.2773268295631637,-0.2607934514256864,-10.647938652463894,1.067655839700946,6.117618599678751,0.7990603622828037
1730865959.43391,-1.8527741432189941,1.2444229125976562,-9.779115676879883,-0.27590612028131734,-0.26168966430219265,-10.648781744353078,1.0676519663448725,6.117513206698854,0.7987453002645392
1730865959.483997,-1.7791498899459839,1.2536530494689941,-9.761033058166504,-0.274538679239245,-0.262663559855131,-10.64956999450665,1.0664508466926539,6.093959278907735,0.7158402498245914
1730865959.5338774,-1.7433054447174072,1.2289862632751465,-9.7857084274292,-0.27323751588035733,-0.263716097991772,-10.65030326154663,1.0700687741838832,6.070017163884518,0.8562859581440111
1730865959.583923,-1.7433054447174072,1.2289862632751465,-9.7857084274292,-0.272014292529835,-0.26484920748447605,-10.650980483911376,1.0693343305534702,6.045218889846956,0.8002926162374596
1730865959.583923,-1.7001326084136963,1.2023404836654663,-9.813427925109863,-0.2708788405109459,-0.266065459938322,-10.65159990246247,1.0693298250983023,6.045113725385391,0.8000022311035773
1730865959.6338441,-1.658395528793335,1.1724835634231567,-9.855494499206543,-0.26983889564933705,-0.2673676723075972,-10.652159422137881,1.0718254585310218,6.019942905610549,0.8633615054826984
1730865959.6838272,-1.589672565460205,1.1396898031234741,-9.88569164276123,-0.2688998043124905,-0.26875846412372306,-10.652657065060872,1.0734569571269414,5.993826270871715,0.8652211868294333
1730865959.733828,-1.5081108808517456,1.1046420335769653,-9.922158241271973,-0.2680640746539156,-0.2702397778805408,-10.65309147342047,1.0731196674173233,5.967035673510813,0.8110140824070048
1730865959.7838185,-1.4295170307159424,1.1049782037734985,-9.95274543762207,-0.26733080472129933,-0.2718124502117364,-10.653462360102205,1.0721085215153237,5.939487495309151,0.7298739943052553
1730865959.833836,-1.4276865720748901,1.1359474658966064,-9.951932907104492,-0.266695152330313,-0.27347598872680967,-10.653770833851876,1.0704296037528773,5.911314733821609,0.6221784585074178
1730865959.8838398,-1.4848183393478394,1.1582427024841309,-9.916403770446777,-0.2661482089213234,-0.27522868006212187,-10.654019494640975,1.0738276573301175,5.882551355100254,0.8506386631154005
1730865959.9337692,-1.5948827266693115,1.1681678295135498,-9.850994110107422,-0.2656776181994023,-0.27706794409466323,-10.654212159452815,1.0754021804926095,5.8532752503504275,0.8600171603527282
1730865959.9839382,-1.7093874216079712,1.1369863748550415,-9.79179573059082,-0.26526893966232845,-0.2789906590223992,-10.654353206315513,1.0746739041130284,5.822892389653264,0.8027339911932603
1730865960.0338023,-1.8193243741989136,1.1080282926559448,-9.737626075744629,-0.264907416538192,-0.2809932283326111,-10.654446721834592,1.0771367584417892,5.7921052984019825,0.8546352195795607
1730865960.083812,-1.884267807006836,1.1029753684997559,-9.714607238769531,-0.2645796980551878,-0.283071399953722,-10.654495720626675,1.076467863317443,5.760550279274883,0.7954960845528494
1730865960.1337838,-1.9105286598205566,1.1115912199020386,-9.716594696044922,-0.26427513356003857,-0.2852200734745403,-10.654501651860297,1.0751410586757157,5.728306947448746,0.7098674666745927
1730865960.1837988,-1.9257912635803223,1.116139531135559,-9.744019508361816,-0.26398643988191817,-0.2874332942111788,-10.65446430360676,1.0787059259310008,5.695237851994737,0.8500096624904435
1730865960.2337227,-1.9447674751281738,1.1083884239196777,-9.78177261352539,-0.26370982025802825,-0.2897043970120262,-10.654382094555663,1.0778619468939394,5.661515068756105,0.7890329858312832
1730865960.28374,-1.942165493965149,1.0875669717788696,-9.824285507202148,-0.2634447802089338,-0.29202613268853145,-10.654252636119956,1.0804417123937091,5.627145696196119,0.8530586621005323
1730865960.3336928,-1.9253342151641846,1.0885087251663208,-9.844911575317383,-0.2631937867558036,-0.2943906898227845,-10.654073388289223,1.0798001989210537,5.592088637051422,0.7937457795095484
1730865960.383695,-1.8715403079986572,1.0781447887420654,-9.8873929977417,-0.2629617444637367,-0.29678967377326654,-10.653842246803205,1.078494137188946,5.556021189390292,0.7072643991471844
1730865960.4336674,-1.8378441333770752,1.0401469469070435,-9.917705535888672,-0.2627552524204414,-0.29921409417587175,-10.653558014097523,1.0765396280034707,5.519416609257388,0.5946934064603493
1730865960.48365,-1.7672381401062012,1.032460331916809,-9.951805114746094,-0.2625817182428921,-0.3016542998877351,-10.653220792493839,1.0739298279257035,5.482190910198296,0.4555242454708369
1730865960.5337403,-1.7021394968032837,1.0370874404907227,-9.975760459899902,-0.26244842667313995,-0.30409988715354697,-10.652832300550958,1.0706402355236428,5.443789128234925,0.28853061887063824
1730865960.5838394,-1.65043306350708,1.073177456855774,-10.0149564743042,-0.2623616177605616,-0.30653976325840193,-10.65239609518544,1.0667048618140769,5.404099738893877,0.09545165367144476
1730865960.6337297,-1.6014059782028198,1.14634108543396,-10.020565032958984,-0.26232567864840284,-0.3089625123288565,-10.651917709046472,1.0621303914188487,5.36444106503001,-0.12344772472401835
1730865960.6836996,-1.5850491523742676,1.22859787940979,-9.987622261047363,-0.26234257475961176,-0.311357099075135,-10.651404634250897,1.0933459172693447,5.323013652179927,0.8313371736060963
1730865960.733647,-1.6096011400222778,1.2526041269302368,-9.945744514465332,-0.26241161629675824,-0.31371377252349547,-10.650865998949339,1.093823368310533,5.281645739831177,0.7659639250147087
1730865960.7837098,-1.665219783782959,1.2559261322021484,-9.857342720031738,-0.2625296646938363,-0.3160248061305014,-10.650311879309834,1.0936458265109252,5.2396595787071805,0.6743506821289921
1730865960.8336103,-1.7471556663513184,1.2027697563171387,-9.769553184509277,-0.2626918142947609,-0.31828473329604007,-10.649752314988778,1.0928103684659107,5.196669936437135,0.5556338661483338
1730865960.8836133,-1.8258168697357178,1.1118991374969482,-9.667461395263672,-0.2628924299589497,-0.3204899741612237,-10.64919614016112,1.096267046583903,5.152150200408666,0.8319981838803646
1730865960.9335773,-1.8815194368362427,1.0185134410858154,-9.608986854553223,-0.2631262969973185,-0.3226379299601524,-10.648649816863934,1.095833262317313,5.107869697528617,0.7693661249178443
1730865960.9835758,-1.8815194368362427,1.0185134410858154,-9.608986854553223,-0.2633895667019449,-0.32472585495035355,-10.648116562486262,1.0997370760350718,5.061103708160415,0.8343650010491427
1730865960.9835758,-1.8734042644500732,0.954424262046814,-9.58102798461914,-0.26368022455532225,-0.32674998162367935,-10.647596016016559,1.0997381798371852,5.060847366221843,0.8340979616134455
1730865961.033538,-1.824157476425171,0.9195178747177124,-9.613903045654297,-0.2639980141957602,-0.32870505030750485,-10.647084411593578,1.099607052448548,5.015000684820424,0.7735823010117551
1730865961.0836797,-1.7324042320251465,0.9404146075248718,-9.695297241210938,-0.26434390074156544,-0.3305840750533427,-10.646575129999771,1.0988154312014848,4.967912006978311,0.6859418561239041
1730865961.133535,-1.6441199779510498,0.9858413338661194,-9.814929962158203,-0.26471914900514226,-0.332378404580852,-10.646059693819542,1.101026212086789,1.2862025760750337,0.5719009421181889
1730865961.1836119,-1.5686087608337402,1.074684739112854,-9.920032501220703,-0.26512417618891204,-0.33407827575803645,-10.64552921891297,1.1002416141624245,0.9763669097386678,0.43097686971772153
1730865961.2334654,-1.542607307434082,1.151999592781067,-10.003628730773926,-0.2655575073143929,-0.3356738084945344,-10.644976020036042,1.1010503876650979,1.4528344407649683,0.2640979323491011
1730865961.283573,-1.5542049407958984,1.2301385402679443,-10.041191101074219,-0.26601516710804324,-0.3371561903073011,-10.64439494759955,1.0999297416165166,1.3737535517722015,0.07041644967950697
1730865961.3333614,-1.6225168704986572,1.2406723499298096,-10.066964149475098,-0.26649069829841465,-0.3385187334518792,-10.643784184785511,1.0981542392833457,1.294180132282068,-0.1487957842233414
1730865961.3834236,-1.7253564596176147,1.2138913869857788,-10.027120590209961,-0.2669758377214394,-0.33975747732526723,-10.643145445157774,1.0956893247937434,1.2128944858749628,-0.3971211105045202
1730865961.4334004,-1.8377536535263062,1.1672279834747314,-9.96264362335205,-0.26746173465873574,-0.34087114681913666,-10.642483590638232,1.1009606664761,1.5685123285610112,0.8447887835670537
1730865961.4834306,-1.8791604042053223,1.118408203125,-9.90227222442627,-0.2679403912579384,-0.3418605701561267,-10.641805744329323,1.0995403872274894,1.5532153249393235,0.7831850641037845
1730865961.5334456,-1.8703622817993164,1.049418330192566,-9.87574577331543,-0.26840580555930016,-0.3427278327685836,-10.641120172287525,1.1021739445026848,1.610844267611435,0.8519881196024268
1730865961.5833516,-1.7904411554336548,0.9940613508224487,-9.860814094543457,-0.2688543592253698,-0.3434753677542828,-10.640435322768456,1.1027047889710908,1.6233273676734865,0.8603063657253899
1730865961.6333067,-1.6464136838912964,0.9628157019615173,-9.86606502532959,-0.2692842895749131,-0.34410511647123954,-10.639759238706127,1.1016490117845836,1.6202477097224837,0.80598251397765
1730865961.683353,-1.5627888441085815,0.9482263922691345,-9.848698616027832,-0.2696944165963797,-0.3446179234688383,-10.639099299314818,1.0999149239353094,1.6162997530667667,0.7248677930522518
1730865961.7333167,-1.562458872795105,0.9341247081756592,-9.841981887817383,-0.2700827022616369,-0.34501325870442545,-10.638462113506222,1.0975107887219817,1.611501164036974,0.6173803621510803
1730865961.783527,-1.5797141790390015,0.9555282592773438,-9.840194702148438,-0.2704453864210477,-0.34528922285423075,-10.637853438339928,1.1025028330668345,1.629947106201824,0.8469749073536438
1730865961.8334281,-1.656130313873291,1.0449622869491577,-9.828990936279297,-0.27077700189398757,-0.34544284413979615,-10.637278119907148,1.1010507633444004,1.6278753555841516,0.7857274929918657
1730865961.883437,-1.7408385276794434,1.130565881729126,-9.812065124511719,-0.27107108012058445,-0.34547079588583623,-10.636740056457473,1.098923731732676,1.6249428465341722,0.697977625310164
1730865961.933372,-1.8037424087524414,1.1793253421783447,-9.80042552947998,-0.271321233590306,-0.3453704613795217,-10.636242136506333,1.096125008780507,1.6211550496397336,0.5838882436705977
1730865961.9834905,-1.8700915575027466,1.1633671522140503,-9.820185661315918,-0.2715222755719313,-0.34514089740544074,-10.635786183254584,1.1027723703017294,1.6321764592035632,0.8449919761591421
1730865962.0333447,-1.9134926795959473,1.100498914718628,-9.80792236328125,-0.27167111660453547,-0.3447832079574881,-10.635373002232305,1.1013188244585883,1.6303128511188891,0.7836669570905032
1730865962.083408,-1.9817607402801514,0.9967160820960999,-9.799867630004883,-0.2717673898556727,-0.34430014761578265,-10.635002504811068,1.1030885620774162,1.6333416284947866,0.8501911962174109
1730865962.1332574,-2.009242534637451,0.8998187184333801,-9.762540817260742,-0.27181387151425423,-0.34369510571706974,-10.634673757085318,1.1016798043363814,1.6316838454617586,0.7908465588594547
1730865962.1833553,-2.0146119594573975,0.8520634174346924,-9.732019424438477,-0.2718166867062442,-0.34297085803387656,-10.63438486827328,1.1025719416471202,1.6340895254084946,0.8504105880071893
1730865962.2332752,-1.9653370380401611,0.8578269481658936,-9.763777732849121,-0.2717851609573989,-0.34212858766911836,-10.634132817123454,1.1027056941096973,1.6348930420646413,0.8563259808496364
1730865962.2832632,-1.8760980367660522,0.9307280778884888,-9.811843872070312,-0.27173117463254626,-0.3411675801318988,-10.633913493308018,1.1012115956629926,1.6334250747611778,0.7994264324045061
1730865962.3331802,-1.7786275148391724,1.0387083292007446,-9.875558853149414,-0.27166801581263533,-0.34008573386187846,-10.633722154260195,1.0990567391467292,1.6311250782734055,0.7166518922020846
1730865962.3832405,-1.7020138502120972,1.1243410110473633,-9.926508903503418,-0.271608939654557,-0.3388807176536276,-10.633554185491704,1.096205054707139,1.6279574295486194,0.6066120204686667
1730865962.4332123,-1.6601722240447998,1.1989141702651978,-9.964488983154297,-0.2715658076355173,-0.337551346943318,-10.633405887965148,1.1026450669725436,1.6347209387214154,0.8448783333485769
1730865962.4832904,-1.6342209577560425,1.2611186504364014,-9.975395202636719,-0.2715481288296614,-0.3360987552920919,-10.633275068131377,1.1010950584794708,1.6328514344995522,0.7826873916830525
1730865962.5331616,-1.622498869895935,1.2675787210464478,-9.962905883789062,-0.2715625939156343,-0.3345271584834756,-10.633161301312999,1.1034558263904173,1.6350011473472468,0.850676082947904
1730865962.5832772,-1.639206886291504,1.2061913013458252,-9.937066078186035,-0.27161301564099216,-0.3328440769514474,-10.633065833628377,1.1021087266871115,1.6332000000413736,0.7908969871552776
1730865962.6331246,-1.6860491037368774,1.1449236869812012,-9.880510330200195,-0.27170060479029046,-0.3310598830093637,-10.632991166849871,1.1001085138838325,1.6306031856074443,0.7056643896769862
1730865962.6834114,-1.7109571695327759,1.0855287313461304,-9.83228588104248,-0.27182454196152805,-0.32918680234802455,-10.632940405854956,1.1042982055212427,1.6353057069214725,0.8470523212314608
1730865962.7330935,-1.709753394126892,1.0741137266159058,-9.788422584533691,-0.2719826624583711,-0.327237794970479,-10.63291649470195,1.1029933919993749,1.6335305680540975,0.7857867469907459
1730865962.7832174,-1.6724727153778076,1.0828081369400024,-9.795247077941895,-0.27217194389338845,-0.3252257302963764,-10.632921551988137,1.1057929478963116,1.6309797000819581,0.699121559102491
1730865962.8330767,-1.6206578016281128,1.0981696844100952,-9.837224006652832,-0.2723885964289587,-0.32316302544680664,-10.632956554834895,1.1047976795717942,1.62756198131523,0.5840955889982901
1730865962.8830912,-1.5427521467208862,1.13316011428833,-9.84755802154541,-0.2726277667631516,-0.3210616614070269,-10.633021477898346,1.1066828503567177,1.623434131531459,0.44516197624669035
1730865962.933006,-1.5629488229751587,1.1618047952651978,-9.863628387451172,-0.27288306525772604,-0.31893341176714807,-10.633115690097586,1.1056444994391528,1.618469536623478,0.27884990393177483
1730865962.9830446,-1.629149079322815,1.215698003768921,-9.845447540283203,-0.273146355420105,-0.316790180582817,-10.633238289692873,1.1039070357859886,1.6126507486454678,0.0839601865403423
1730865963.0340078,-1.6967530250549316,1.2590280771255493,-9.838217735290527,-0.2734081897219446,-0.31464440433471713,-10.633388227547659,1.1014411055257491,1.605940827204046,-0.14092925962900862
1730865963.084012,-1.7413307428359985,1.2730633020401,-9.82457160949707,-0.2736587623435006,-0.3125094459946364,-10.633564254863069,1.107210716591677,1.5986131494753273,0.8459069028885472
1730865963.1339903,-1.7646113634109497,1.2583575248718262,-9.81188678741455,-0.2738888870142624,-0.3103998072092876,-10.63376480050054,1.1058831062038599,1.5904827744245231,0.782440569793284
1730865963.1839724,-1.7786732912063599,1.2127102613449097,-9.802888870239258,-0.2740906623234098,-0.30833098141397847,-10.633987852118915,1.1080937865436737,1.5816189858469536,0.855657985393221
1730865963.233917,-1.8130278587341309,1.14822256565094,-9.807696342468262,-0.2742578144970588,-0.30631890968897574,-10.634230879132152,1.1069159440572605,1.5719951853988046,0.7963307643229567
1730865963.2838762,-1.809478998184204,1.100132703781128,-9.810400009155273,-0.27438586462182485,-0.30437915408178406,-10.634490840102574,1.1050425978412843,1.5615298503467108,0.709930894780681
1730865963.333905,-1.797210454940796,1.1131501197814941,-9.829365730285645,-0.2744721650134097,-0.30252606585088004,-10.634764292331365,1.1091975730741301,1.5504231276707556,0.8526600580401162
1730865963.383851,-1.7991148233413696,1.125964879989624,-9.836786270141602,-0.27451575171371273,-0.300772297068593,-10.63504758119361,1.1079736053558107,1.5384352288369543,0.7915286512770372
1730865963.4338167,-1.7826963663101196,1.1695894002914429,-9.845488548278809,-0.27451706955102123,-0.29912879637994666,-10.635337057530514,1.1101728611108304,1.5258665539640932,0.8518458318466632
1730865963.4838102,-1.7767739295959473,1.2048052549362183,-9.856528282165527,-0.2744776766844069,-0.2976051545299181,-10.635629265114416,1.1090585967982787,1.5123900436542232,0.7909243584601265
1730865963.5337822,-1.8129676580429077,1.1983704566955566,-9.851751327514648,-0.27439999994989506,-0.2962100593461294,-10.635921073577183,1.111008833762787,1.498047732386663,0.8471247717760797
1730865963.5838563,-1.865580439567566,1.1427628993988037,-9.82577133178711,-0.2742872854348729,-0.2949515572013172,-10.636209720024908,1.109925979553739,1.4833503554372125,0.7867679982087177
1730865963.633715,-1.881205439567566,1.0834192037582397,-9.824111938476562,-0.27414381928836484,-0.29383686885001037,-10.636492711483918,1.10808357678079,1.4672198098218492,0.6961117258034635
1730865963.68373,-1.863053321838379,1.0553536415100098,-9.826824188232422,-0.2739751864411604,-0.2928718292373763,-10.636767662668117,1.1120624152404468,1.4514669281083465,0.8463725184193968
1730865963.7337158,-1.8265241384506226,1.0528087615966797,-9.850543975830078,-0.27378823103784944,-0.29206032445844965,-10.637032233799024,1.1108362494548785,1.4339737871949987,0.7843585589286107
1730865963.7837036,-1.7715882062911987,1.0776413679122925,-9.877630233764648,-0.27359062100086295,-0.2914040604850243,-10.637284249252557,1.108993518131444,1.4165104783179472,0.6989909557530043
1730865963.8336518,-1.7354477643966675,1.0973707437515259,-9.941924095153809,-0.2733901612637188,-0.2909027305844883,-10.637521994037847,1.1130923539305835,1.3981498617578685,0.8463670735817111
1730865963.8837056,-1.689695954322815,1.1317925453186035,-9.966397285461426,-0.2731940681275504,-0.2905544420282501,-10.637744656512771,1.1119123064851162,1.3788350606491862,0.7856669359438441
1730865963.9335935,-1.689695954322815,1.1317925453186035,-9.966397285461426,-0.2730083816068516,-0.2903562120125296,-10.637952760237875,1.1100605526929403,1.3589038141457963,0.6988824060040355
1730865963.9335935,-1.6389662027359009,1.1293141841888428,-9.971222877502441,-0.27283759541793323,-0.2903043608096249,-10.63814835259009,1.1100485478273536,1.358792658358385,0.6983344921536533
1730865963.9836588,-1.6623183488845825,1.1505361795425415,-9.938908576965332,-0.27268447215950387,-0.29039472891735496,-10.638334887667058,1.1136657133584134,1.3382585217578513,0.5845414713170576
1730865964.0335605,-1.685981035232544,1.114296793937683,-9.907242774963379,-0.2725500544601196,-0.2906227772050301,-10.638516877357574,1.112384299177384,1.316137022380821,0.43953385829293734
1730865964.0836053,-1.7127622365951538,1.098321795463562,-9.828071594238281,-0.27243395650317104,-0.29098357679359965,-10.638699334638671,1.1141050749460413,1.2948093203243718,0.27699367316119033
1730865964.1335196,-1.7381293773651123,1.0863145589828491,-9.812661170959473,-0.2723348609724652,-0.29147165573928513,-10.638887053081088,1.1128441656923596,1.2718160080801137,0.08274394718613451
1730865964.1835907,-1.7394286394119263,1.1070185899734497,-9.751754760742188,-0.272251010346599,-0.292080844562598,-10.639083896398141,1.1144507278502542,1.2485310173854842,-0.13656297038457446
1730865964.2335656,-1.7783422470092773,1.099996566772461,-9.74980354309082,-0.2721805810977213,-0.29280429073345493,-10.639292267525263,1.1131606933836689,1.224175335213835,-0.3831180856498596
1730865964.2834716,-1.775434136390686,1.1180026531219482,-9.734968185424805,-0.27212196847130077,-0.29363461325690365,-10.639512815770322,1.1111902439405397,1.199072927415144,-0.6563896037590157
1730865964.3334875,-1.775434136390686,1.1180026531219482,-9.734968185424805,-0.27207399356419915,-0.29456408845847976,-10.639744387661935,1.1142446896819538,1.1736744901674026,-0.9548933812927616
1730865964.3334875,-1.7961090803146362,1.0978853702545166,-9.74190616607666,-0.2720359915395364,-0.2955847967521976,-10.639984168726581,1.114237994732377,1.173524080257317,-0.9566910726076406
1730865964.3834748,-1.8024729490280151,1.096219539642334,-9.761283874511719,-0.2720078411040393,-0.2966886651131669,-10.640227948224032,1.1127388930676707,1.1470808754374346,-1.2815676917623748
1730865964.4334664,-1.8024729490280151,1.096219539642334,-9.761283874511719,-0.2719900100368545,-0.29786742562732316,-10.640470469569852,1.114913961345156,1.1201665859238579,0.8716380330336401
1730865964.4334664,-1.8615046739578247,1.0873790979385376,-9.789366722106934,-0.27198361619048184,-0.2991125954646943,-10.640705804377031,1.1149084205727762,1.1200008508260733,0.8713678095821329
1730865964.4834557,-1.8906596899032593,1.113863468170166,-9.796687126159668,-0.27199058869861104,-0.3004155236720573,-10.640927710314651,1.1136402213222252,1.0919271588639063,0.8128200333571619
1730865964.533443,-1.8906596899032593,1.113863468170166,-9.796687126159668,-0.27201394254429306,-0.30176751520151623,-10.641129954144702,1.1117030994776116,1.0632484965276097,0.7281486525903138
1730865964.533443,-1.8843986988067627,1.1354656219482422,-9.818350791931152,-0.2720579313470117,-0.3031600254408943,-10.641306554389482,1.1116905891445992,1.0630887818941925,0.727610373233345
1730865964.5834439,-1.8520234823226929,1.1645499467849731,-9.829914093017578,-0.27212790173192825,-0.3045848884570186,-10.641451967983867,1.1090645911140313,1.0335404833633821,0.6159612819817101
1730865964.6334517,-1.8085271120071411,1.176212191581726,-9.861815452575684,-0.2722298837775331,-0.3060345746245509,-10.641561300819104,1.115360610930365,1.0038779603320536,0.8891028507234942
1730865964.6834452,-1.7181299924850464,1.1627516746520996,-9.876137733459473,-0.2723699596326564,-0.3075024145439307,-10.641630556030629,1.1140661723629814,0.9726503711518915,0.8342756201771158
1730865964.7333987,-1.6924563646316528,1.1392431259155273,-9.905946731567383,-0.2725534531882723,-0.30898263530160414,-10.641656880247146,1.1159350606861822,0.94091525827114,0.8876055125722299
1730865964.7834475,-1.6710063219070435,1.1597439050674438,-9.915834426879883,-0.27278416807616196,-0.3104701956549945,-10.641638767965423,1.114731402006982,0.9086757283143058,0.8312060323313933
1730865964.8333828,-1.6623401641845703,1.1732234954833984,-9.910504341125488,-0.27306395364909974,-0.311960631882814,-10.641576173451147,1.1127859236421613,0.8745343962836123,0.7455585695525311
1730865964.8834436,-1.664509892463684,1.188157320022583,-9.918722152709961,-0.27339262753983734,-0.3134500771748015,-10.64147047859866,1.110266271028285,0.8412156288265676,0.6380060480194988
1730865964.933397,-1.664509892463684,1.188157320022583,-9.918722152709961,-0.27376811324549816,-0.3149353762096106,-10.641324349738113,1.1162715442446598,0.8070420035438871,0.8759009289198216
1730865964.933397,-1.6572636365890503,1.1673773527145386,-9.908549308776855,-0.2741866742412698,-0.31641412545415815,-10.64114156134074,1.116264283213903,0.8068040920314237,0.8755748433446588
1730865964.9834638,-1.6591688394546509,1.130024790763855,-9.90406608581543,-0.27464315525266036,-0.3178845285734394,-10.640926790570722,1.114839436146573,0.7710479092673157,0.8137178314132469
1730865965.0333724,-1.6374982595443726,1.1253414154052734,-9.897210121154785,-0.27513118124522856,-0.3193450729424719,-10.640685375843898,1.117513551956494,0.7352527591034516,0.8843545450805488
1730865965.0834715,-1.6542800664901733,1.1127800941467285,-9.890379905700684,-0.2756433155042126,-0.320794185622077,-10.640423079421293,1.1181490860812198,0.6987707374730286,0.8843388603130125
1730865965.1333466,-1.6624219417572021,1.1077226400375366,-9.87459659576416,-0.27617124036335294,-0.32223001956327624,-10.640145868318118,1.1171390101377892,0.6609086103909835,0.8284648166000799
1730865965.183495,-1.6803877353668213,1.1172305345535278,-9.872438430786133,-0.27670603443777986,-0.3236503768906411,-10.63985969943082,1.115419351615707,0.6217226316327102,0.7450501131835082
1730865965.2333581,-1.6642932891845703,1.1443051099777222,-9.851571083068848,-0.27723849544160606,-0.3250527591880478,-10.639570315835543,1.1184241630754708,0.5829784741744579,0.8706115929589147
1730865965.2835011,-1.676072597503662,1.1518168449401855,-9.866317749023438,-0.2777593820171116,-0.3264345594986703,-10.63928307928364,1.117083422301432,0.5424008283906393,0.8094204371948013
1730865965.3333554,-1.688549518585205,1.173169493675232,-9.839729309082031,-0.278259569702679,-0.3277933242989556,-10.639002860452754,1.1190799582436477,0.502494303570636,0.8729039466526973
1730865965.3832452,-1.7406500577926636,1.1670211553573608,-9.839791297912598,-0.27873026227153525,-0.32912697149196163,-10.63873396121823,1.1178398652481316,0.4604198645400059,0.813631739697444
1730865965.4331973,-1.7592371702194214,1.1434805393218994,-9.807424545288086,-0.27916335826558825,-0.3304338780831828,-10.638480007919279,1.1199475061780109,0.41875675732869744,0.8726875369125199
1730865965.4832108,-1.7919294834136963,1.1425443887710571,-9.786770820617676,-0.27955189224346016,-0.33171279205324444,-10.638243787745125,1.1187933176665454,0.3747682396841072,0.8129899120834307
1730865965.5332005,-1.8289555311203003,1.1339582204818726,-9.734051704406738,-0.2798904170755962,-0.33296264841299783,-10.638027015306154,1.1169551358249339,0.3304006806535151,0.7274398881221529
1730865965.5832748,-1.906752586364746,1.1017496585845947,-9.722082138061523,-0.2801753572212134,-0.3341823978102324,-10.63783003820367,1.1203996863082302,0.2861310332128005,0.8685258107209997
1730865965.6332035,-1.9440362453460693,1.0649313926696777,-9.711519241333008,-0.28040544272473256,-0.33537079728059505,-10.637651591100473,1.1190565694978634,0.23986990077086928,0.8074977415941654
1730865965.6832056,-1.954621434211731,1.0486096143722534,-9.747272491455078,-0.2805821294927845,-0.33652610353127366,-10.637488768707186,1.1180582019148941,0.19421295058760193,0.8715732999202903
1730865965.733109,-1.9300211668014526,1.0519165992736816,-9.785317420959473,-0.2807097272206377,-0.33764579491588614,-10.637337317968134,1.1157888402878948,0.14566845444373341,0.810985834583852
1730865965.7832572,-1.8917458057403564,1.0662336349487305,-9.863221168518066,-0.2807950798709687,-0.33872650008158667,-10.637192240070583,1.1128867780008793,0.097570267586599,0.7257564002205765
1730865965.8331983,-1.8261340856552124,1.0515388250350952,-9.917787551879883,-0.2808468646654059,-0.3397641390997097,-10.63704861551348,1.10926716526948,0.048218623561310854,0.6135612535010826
1730865965.8832433,-1.7325536012649536,1.0188775062561035,-9.973783493041992,-0.28087462287919107,-0.34075408272410973,-10.636902488248307,1.1159474584949307,-0.0005312902097097524,0.8656758994996945
1730865965.9331484,-1.6438817977905273,1.0134690999984741,-9.997303009033203,-0.28088759747571446,-0.34169115830240937,-10.63675160203406,1.1138963347293407,-0.051502871970187145,0.8041957394266178
1730865965.9832146,-1.6068297624588013,1.0392526388168335,-10.010113716125488,-0.28089354792639104,-0.3425695999027478,-10.636595839342633,1.1142543471891104,-0.10193337314360316,0.8708468783769737
1730865966.0331244,-1.5930547714233398,1.1113393306732178,-9.983500480651855,-0.2808978659081278,-0.34338322738353627,-10.63643730316776,1.1119315974281845,-0.15447928336798925,0.8116467996342659
1730865966.0831685,-1.6152253150939941,1.2080261707305908,-9.939994812011719,-0.28090323727234123,-0.34412604637618577,-10.636280028287155,1.1123008662806262,-0.20636409758599297,0.8708638937574118
1730865966.1329873,-1.6628810167312622,1.2549554109573364,-9.904179573059082,-0.2809098539520068,-0.34479318957456834,-10.636129376444313,1.1098598314560184,-0.26047141030784177,0.8118885024942093
1730865966.183079,-1.7237470149993896,1.2498868703842163,-9.840123176574707,-0.28091605118191754,-0.3453818072329655,-10.635991263693677,1.1066773677161839,-0.316253409491042,0.7253406985977566
1730865966.232996,-1.7540323734283447,1.1959750652313232,-9.810408592224121,-0.280919179209282,-0.34589143212905415,-10.635871369087933,1.1106144783587946,-0.36990363570616214,0.8675455317688925
1730865966.282932,-1.7761001586914062,1.1373709440231323,-9.77637004852295,-0.28091643434527375,-0.34632364496207885,-10.635774442258995,1.111656132737663,-0.42430212906990195,0.8761200432755659
1730865966.3329697,-1.7739691734313965,1.080772876739502,-9.734260559082031,-0.28090542198799806,-0.34668125581316683,-10.635703791792245,1.1100510224323543,-0.48224213131451493,0.8192218652032451
1730865966.3838212,-1.7863746881484985,1.0190056562423706,-9.72805404663086,-0.2808844146869742,-0.346967349096154,-10.635660944249645,1.1123636980027538,-0.5391187329392544,0.8701125292914388
1730865966.4338863,-1.7863746881484985,1.0190056562423706,-9.72805404663086,-0.28085241781606224,-0.3471844560303212,-10.635645481578031,1.1109853315068408,-0.5989777730288935,0.8101014539479721
1730865966.4338863,-1.763444423675537,0.9958710074424744,-9.702902793884277,-0.28080913597296703,-0.3473340349932129,-10.635655086950965,1.1109316881516822,-0.600834436722253,0.8078294787270313
1730865966.4838243,-1.7485802173614502,0.980993390083313,-9.72205638885498,-0.2807548247795063,-0.3474162841884409,-10.635685712352076,1.1089111982422952,-0.6594447742096373,0.7237717081031686
1730865966.5338418,-1.7739217281341553,0.9647471904754639,-9.749009132385254,-0.2806900684240428,-0.34743011989778794,-10.635731829054581,1.1133708870736347,-0.7177365040015864,0.8721501153545244
1730865966.5839176,-1.776928424835205,1.0090956687927246,-9.792386054992676,-0.28061566107351765,-0.34737324158599436,-10.63578685794917,1.1120844915374333,-0.7799546874555622,0.8147266906889158
1730865966.6337254,-1.7719019651412964,1.0469619035720825,-9.85647201538086,-0.2805326410171516,-0.34724241772861597,-10.635843807464912,1.1143152737424944,-0.8394421872633451,0.8725015715551596
1730865966.6840096,-1.742720127105713,1.0767850875854492,-9.918389320373535,-0.2804422969608246,-0.34703404123413845,-10.635896052792786,1.1131327909340072,-0.9038075783978013,0.8135745639383295
1730865966.733826,-1.7308605909347534,1.0838773250579834,-9.983128547668457,-0.2803460109824143,-0.34674474079563583,-10.635938168999722,1.1154311782245092,-0.964122514916515,0.8710970816840213
1730865966.7839155,-1.7244657278060913,1.1198302507400513,-10.016728401184082,-0.28024501142444086,-0.34637183195041177,-10.635966686381199,1.1143719921990147,-1.0301801273106854,0.8116227725531167
1730865966.8337839,-1.7244657278060913,1.1198302507400513,-10.016728401184082,-0.2801401891638863,-0.34591360841321117,-10.635980593840575,1.1163537059583635,-1.0918076924377753,0.87029895568165
1730865966.8337839,-1.6922295093536377,1.1217204332351685,-10.01152515411377,-0.28003200936724915,-0.3453695187932223,-10.635981451897196,1.1163489893643206,-1.092208806613041,0.8700235377810661
1730865966.8839517,-1.6949405670166016,1.091368556022644,-10.003122329711914,-0.2799204267739687,-0.3447401713974992,-10.6359731445699,1.1152074121611122,-1.1596324196189711,0.8105812107051736
1730865966.9338105,-1.6541407108306885,1.079060673713684,-9.937772750854492,-0.27980476069244586,-0.3440271323514212,-10.6359613990624,1.1176465683008956,-1.2225828062513928,0.8786618886070864
1730865966.9837117,-1.6971153020858765,1.0559735298156738,-9.882655143737793,-0.27968359427520495,-0.34323259880104806,-10.635953090927174,1.1166956658303513,-1.291589226225309,0.8237236015539118
1730865967.0336804,-1.7184339761734009,1.0200108289718628,-9.829143524169922,-0.27955484257960894,-0.3423590466281501,-10.635955351512235,1.119693707851752,-1.3562701779566246,0.8750767925521156
1730865967.0837424,-1.7796587944030762,0.9819168448448181,-9.78043270111084,-0.2794161044221021,-0.3414088574076104,-10.635974660871266,1.1192182841414677,-1.4271696767057707,0.8171143680547936
1730865967.1336548,-1.7767276763916016,0.9837790727615356,-9.749464988708496,-0.27926519734607375,-0.34038393901817104,-10.636016109384899,1.1180493651386374,-1.4983518755016418,0.7330663780587772
1730865967.1838517,-1.7815088033676147,1.03798508644104,-9.75819206237793,-0.27910059929344405,-0.3392855326000239,-10.636082925056888,1.1208747536388979,-1.5654492299168976,0.8683967022003586
1730865967.2337184,-1.7619465589523315,1.1153185367584229,-9.77953052520752,-0.27892160040871805,-0.33811446224213315,-10.636176361087085,1.1198843331413892,-1.6381086455659328,0.8081764773058199
1730865967.283684,-1.7306779623031616,1.2181533575057983,-9.794438362121582,-0.2787281714716251,-0.33687188237764193,-10.636295944936268,1.1181934807021328,-1.7119601858463738,0.7211289787496027
1730865967.3336196,-1.73723566532135,1.2622041702270508,-9.825244903564453,-0.27852067497683114,-0.3355602958701072,-10.63643992827258,1.115809554205332,-1.7865494341908636,0.6076545833670437
1730865967.3837023,-1.7728885412216187,1.2536513805389404,-9.841352462768555,-0.2782996336269723,-0.334184410183152,-10.636605775179307,1.122199533546384,-1.85558695811776,0.8650848183148642
1730865967.4336104,-1.7957485914230347,1.2329119443893433,-9.852080345153809,-0.27806576487862156,-0.3327514308454297,-10.636790603414596,1.1210568059326684,-1.9316518287269413,0.8035617885802281
1730865967.4835632,-1.8130037784576416,1.187165379524231,-9.869086265563965,-0.2778202389241674,-0.33127073857918166,-10.636991522881978,1.123824328030265,-2.0018388532905624,0.8703356542401697
1730865967.5335834,-1.8403993844985962,1.1168467998504639,-9.861696243286133,-0.27756495015118776,-0.3297531646285915,-10.637205857490889,1.1228555900616797,-2.0796435267757807,0.8108556994039967
1730865967.5836523,-1.8365612030029297,1.1099493503570557,-9.855596542358398,-0.2773026960703048,-0.328210095248196,-10.637431246974339,1.1273183665682294,-2.150576859868571,0.8703365684626615
1730865967.6335382,-1.8015090227127075,1.1125519275665283,-9.858222961425781,-0.27703719938699245,-0.3266527019804121,-10.63766562936343,1.1293549027346343,-2.221921603631827,0.8756152101171712
1730865967.683565,-1.7416749000549316,1.0947171449661255,-9.853496551513672,-0.27677284196254814,-0.32509153169638283,-10.637907173244137,1.1292242290976533,-2.301845314663914,0.8188519001961457
1730865967.7336876,-1.707353949546814,1.0896289348602295,-9.870576858520508,-0.27651409094010526,-0.32353635527408287,-10.638154241368536,1.1283911266987685,-2.3834835941126187,0.7344994025005814
1730865967.7836096,-1.6856294870376587,1.0882185697555542,-9.87708854675293,-0.27626483722821027,-0.32199607288704285,-10.638405420055133,1.1268811636260412,-2.464741122840467,0.624853660459235
1730865967.833548,-1.6856732368469238,1.1131680011749268,-9.89499282836914,-0.27602792401093834,-0.32047867949746767,-10.638659613415612,1.1308519562665036,-2.5381245785815714,0.8636880648084478
1730865967.8835711,-1.6620116233825684,1.1451038122177124,-9.884458541870117,-0.27580495180640907,-0.318991389852959,-10.638916150235548,1.1299269220146284,-2.6212652246856063,0.8018864214458056
1730865967.9334772,-1.6606212854385376,1.1801331043243408,-9.870457649230957,-0.2755962473506134,-0.31754094404041866,-10.639174807579236,1.1329480029761863,-2.6958222284336784,0.8683319538716996
1730865967.9834714,-1.653437852859497,1.1797866821289062,-9.851520538330078,-0.27540088884700953,-0.31613398309976,-10.639435686725118,1.132393481002884,-2.7800701148806244,0.8088848457649952
1730865968.0334425,-1.6758476495742798,1.1824043989181519,-9.821070671081543,-0.27521680308053204,-0.3147773054501681,-10.639698965122122,1.1311486834251354,-2.8655331254209644,0.7225684964669158
1730865968.0835173,-1.7237505912780762,1.1566532850265503,-9.81063461303711,-0.2750410196157962,-0.31347788973566226,-10.639964596833304,1.1292172305179928,-2.951702757075678,0.6097328450514768
1730865968.1334534,-1.7996176481246948,1.1426687240600586,-9.782665252685547,-0.27487017446893136,-0.31224270736694726,-10.64023203430435,1.1345512308371608,-3.0276550755540783,0.862554777026146
1730865968.1835039,-1.8628112077713013,1.1092867851257324,-9.77823543548584,-0.2747012718647641,-0.3110784093449951,-10.640500018865684,1.1335003219139852,-3.11515205908995,0.800723047625339
1730865968.2334023,-1.8774480819702148,1.0935637950897217,-9.79169750213623,-0.2745325076694956,-0.30999096979516,-10.640766480055229,1.1355768403295305,-3.1919208327431554,0.8675090182513953
1730865968.2834685,-1.8534674644470215,1.108945369720459,-9.822172164916992,-0.27436380058951926,-0.30898539075065135,-10.641028622723201,1.1371758230542273,-3.2684178664073795,0.8733970158613991
1730865968.3333826,-1.7973651885986328,1.1064001321792603,-9.855999946594238,-0.2741967722296018,-0.30806559108243753,-10.641283240885477,1.1365886317299922,-3.358230137263441,0.8162851119849026
1730865968.3833833,-1.749116063117981,1.0848197937011719,-9.900351524353027,-0.2740342060720231,-0.3072344540611638,-10.641527189680842,1.1353233078969862,-3.4482587436770307,0.7330572182084479
1730865968.4334073,-1.749116063117981,1.0848197937011719,-9.900351524353027,-0.2738792885986446,-0.30649385931537854,-10.641757880366335,1.133367761843236,-3.539486343979511,0.6228543706598462
1730865968.4334073,-1.6887575387954712,1.0780417919158936,-9.944061279296875,-0.27373496985066403,-0.3058446520998375,-10.641973659246798,1.133354846152389,-3.5400007414935857,0.622160388416603
1730865968.4834383,-1.660573959350586,1.0784896612167358,-9.943114280700684,-0.2736034932768012,-0.3052866419132618,-10.642174037758014,1.1383525254683684,-3.6176196141490804,0.8637242550121056
1730865968.5333052,-1.6808581352233887,1.0688133239746094,-9.9386625289917,-0.2734860181182738,-0.3048186534811612,-10.642359796126414,1.1391202249161432,-3.695644115612844,0.8736370579714943
1730865968.5834394,-1.6925055980682373,1.0484857559204102,-9.91047477722168,-0.2733824775671726,-0.3044385693851826,-10.642532898269177,1.1381295360448203,-3.7884464781232863,0.8180869231071997
1730865968.6333168,-1.7340891361236572,1.0040960311889648,-9.874168395996094,-0.2732917916665233,-0.30414328303996385,-10.6426961715417,1.1408333051484099,-3.8669415328887307,0.8688114070561057
1730865968.6832635,-1.7513102293014526,0.9668171405792236,-9.831408500671387,-0.2732123029440149,-0.30392850398329296,-10.642852807347078,1.140079406891063,-3.9612365060651276,0.810135218682902
1730865968.7332773,-1.7555934190750122,0.9132131338119507,-9.825553894042969,-0.2731422285931504,-0.3037884421574844,-10.643005808935866,1.1386357289931588,-4.056780956944021,0.7244341413661922
1730865968.783267,-1.7511773109436035,0.8991687297821045,-9.808719635009766,-0.27307996077791324,-0.30371547966002244,-10.643157560892272,1.141956704608305,-4.135700856410567,0.8643816323906193
1730865968.833155,-1.7669599056243896,0.9138646125793457,-9.811017036437988,-0.2730241766370192,-0.3037000017882421,-10.643309616146814,1.1409317573082998,-4.231965627649022,0.8038732419864713
1730865968.8833268,-1.7647291421890259,0.9623916149139404,-9.817171096801758,-0.2729738699732184,-0.3037305773476704,-10.643462664294763,1.1392165022038085,-4.329542684494215,0.716334299507287
1730865968.9331322,-1.774051547050476,0.9942019581794739,-9.836055755615234,-0.2729283864511618,-0.3037945287097658,-10.643616636905417,1.143435963136524,-4.408698156637605,0.8640695008529349
1730865968.9830694,-1.7563841342926025,1.0308074951171875,-9.850176811218262,-0.2728874344478135,-0.3038787030208311,-10.643770927263525,1.1424094674602843,-4.506601351963682,0.8038082747775487
1730865969.0331802,-1.7418923377990723,1.052126407623291,-9.863423347473145,-0.27285101150863716,-0.3039702005538018,-10.643924665486287,1.1406737143530161,-4.607037536461944,0.7155166789451053
1730865969.0830772,-1.7634446620941162,1.1164103746414185,-9.859697341918945,-0.2728192620044208,-0.3040569769363499,-10.644076960829294,1.1382788764057585,-4.70686835792495,0.6017923531537853
1730865969.1331055,-1.7613576650619507,1.1499154567718506,-9.857751846313477,-0.27279239321323173,-0.3041283974554071,-10.644227038295195,1.1449587335423832,-4.786590673727658,0.8613896309122313
1730865969.1830616,-1.7668864727020264,1.152148723602295,-9.854114532470703,-0.27277070651510066,-0.3041757390118105,-10.644374259591807,1.1475826752123055,-4.866525936107214,0.8719560907382712
1730865969.2330203,-1.7597706317901611,1.146106243133545,-9.849930763244629,-0.2727546434363888,-0.30419245322609695,-10.644518080914187,1.1471366126136164,-4.9687144829543834,0.8146497095500727
1730865969.2830868,-1.7832831144332886,1.1196283102035522,-9.831854820251465,-0.27274479324011947,-0.3041740788716967,-10.644657983923222,1.1494505419669376,-5.048430483941553,0.8673823132009675
1730865969.3329446,-1.7911642789840698,1.0579688549041748,-9.824539184570312,-0.2727419311382119,-0.30411785564187727,-10.644793369540618,1.1488497618034497,-5.151299768100819,0.8083911023325492
1730865969.3830001,-1.793712854385376,1.0126854181289673,-9.833224296569824,-0.272747113451907,-0.3040220981941782,-10.64492344389485,1.1475629264728782,-5.231430641675955,0.7224286944362673
1730865969.432937,-1.7517714500427246,1.0202561616897583,-9.849518775939941,-0.2727617095279382,-0.3038854893042213,-10.645047196374648,1.1456039981147674,-5.335560891186611,0.610431150879393
1730865969.4829564,-1.7155946493148804,1.0792349576950073,-9.881749153137207,-0.2727872119676277,-0.30370665658121565,-10.64516353843075,1.1559507671317424,-5.4154789163957515,0.8541729355176426
1730865969.532836,-1.6973638534545898,1.1483683586120605,-9.885079383850098,-0.2728248368633653,-0.30348432142255205,-10.645271562545638,1.1558021305290869,-5.520865493213674,0.7912466631140102
1730865969.5827827,-1.6990910768508911,1.1914793252944946,-9.90003490447998,-0.2728751358677455,-0.3032179205628531,-10.645370794649224,1.1549723086834225,-5.627334213439649,0.7015674072520968
1730865969.6338701,-1.7048535346984863,1.1952179670333862,-9.894710540771484,-0.27293782741309786,-0.30290828386655,-10.64546133532251,1.1534072208541595,-5.737642729083417,0.5815656799539579
1730865969.6838133,-1.7279154062271118,1.140415906906128,-9.889106750488281,-0.27301187090125073,-0.30255794100755695,-10.645543872698735,1.1512107336668302,-5.84493030248478,0.43896149812782653
1730865969.7338028,-1.727390170097351,1.0967813730239868,-9.850716590881348,-0.27309568989695154,-0.3021708631798323,-10.645619562020507,1.158585055872206,-5.924522387417929,0.2683368496285256
1730865969.7837937,-1.7448590993881226,1.0502889156341553,-9.854978561401367,-0.2731874258910512,-0.30175178174321926,-10.6456897737385,1.157665787955577,-6.033395706911476,0.07224189883265915
1730865969.8337355,-1.7205950021743774,1.0371060371398926,-9.837763786315918,-0.2732851238414672,-0.3013054326262693,-10.645755814446199,1.1614440863727888,-6.112338459851136,-0.1510800866708824
1730865969.8838043,-1.7044275999069214,1.004769206047058,-9.838481903076172,-0.2733867769071296,-0.3008359873676535,-10.645818740926803,1.1610926062157936,-6.223061962587495,-0.4017022473354208
1730865969.9337204,-1.6762114763259888,1.0011883974075317,-9.852025985717773,-0.27349020292097775,-0.3003467113997659,-10.6458792888466,1.1600636212385396,-6.3337594555864705,-0.6770466858994431
1730865969.9836867,-1.6579885482788086,0.9812003374099731,-9.872231483459473,-0.2735928184511963,-0.299839785950626,-10.64593792564024,1.1583504659626127,-6.445546789400635,-0.9797467681703657
1730865970.0337353,-1.6788157224655151,1.0039273500442505,-9.869159698486328,-0.2736914511163952,-0.2993162645769121,-10.64599501571949,1.1645872529228616,-6.523939834227716,0.831252084373883
1730865970.0836577,-1.7302862405776978,0.9892690777778625,-9.866273880004883,-0.27378237509918685,-0.2987761671989328,-10.646050976350962,1.1638571110606615,-6.636775078027393,0.7658638871260799
1730865970.1336935,-1.7561147212982178,1.0005706548690796,-9.84821891784668,-0.2738616729769676,-0.29821865876958453,-10.646106306076554,1.1660514252204708,-6.714326792393011,0.8397445839692632
1730865970.1836424,-1.7367112636566162,1.0267400741577148,-9.844929695129395,-0.27392572925452613,-0.2976422558852452,-10.64616148964219,1.165313477734603,-6.791346944354115,0.8433332355697469
1730865970.2335315,-1.7292639017105103,1.0034098625183105,-9.847564697265625,-0.27397150298259476,-0.2970450640350683,-10.646216873579746,1.1638885364564349,-6.906102377238419,0.7844145910065158
1730865970.283596,-1.7082710266113281,1.0320013761520386,-9.856908798217773,-0.27399647648977266,-0.2964249939235237,-10.646272614673574,1.1617864173841965,-7.021161375001828,0.6991962025822741
1730865970.3336132,-1.7297741174697876,1.0265306234359741,-9.872505187988281,-0.2739984756519006,-0.2957799148527538,-10.64632873954171,1.1589930606392713,-7.137325181701505,0.587108220721385
1730865970.3835676,-1.73284912109375,1.026072382926941,-9.879054069519043,-0.27397558028813473,-0.2951077844318859,-10.646385281819782,1.1618080804279831,-7.211984834793957,0.8329222162555531
1730865970.4335475,-1.7507237195968628,1.0402652025222778,-9.899032592773438,-0.273926184744377,-0.2944067488321491,-10.646442441149105,1.159885206564584,-7.329339055727735,0.7708970660219928
1730865970.4835615,-1.7441734075546265,1.067531943321228,-9.886956214904785,-0.27384911926005606,-0.29367524272497814,-10.646500715136103,1.1572656415532832,-7.447835063232888,0.6818338102869786
1730865970.5335526,-1.7646288871765137,1.0706843137741089,-9.89332103729248,-0.2737437369645936,-0.2929121636492671,-10.646560954270901,1.1539348370573486,-7.523048290213512,0.8348266036233749
1730865970.583584,-1.8092890977859497,1.0768513679504395,-9.85693645477295,-0.2736100059028829,-0.2921170591349716,-10.646624298920944,1.1500184300105676,-7.6401640443358785,0.7746923218166397
1730865970.6335008,-1.8451093435287476,1.0780317783355713,-9.835271835327148,-0.27344873023891303,-0.291290214832417,-10.646691977504187,1.1453330540347766,-7.760546344498153,0.6866266852812578
1730865970.6835158,-1.8778879642486572,1.068177342414856,-9.794242858886719,-0.27326189883625135,-0.29043263412572207,-10.646764975902016,1.139989197109182,-7.832889011360437,0.8356278426786946
1730865970.7335863,-1.8792659044265747,1.0619271993637085,-9.761591911315918,-0.2730529903364448,-0.2895459378475002,-10.646843639446063,1.1339606244651141,-7.953646310771568,0.7746732294087466
1730865970.7835293,-1.8781741857528687,1.0342954397201538,-9.767451286315918,-0.27282707075711293,-0.28863219020445646,-10.646927317483023,1.1272447316426581,-8.024953065479739,0.8393691445662764
1730865970.8334446,-1.8452465534210205,1.0448501110076904,-9.792409896850586,-0.27259062870720935,-0.28769367762799203,-10.647014218520379,1.1786165470317234,-8.09454582133225,0.8458893526276444
1730865970.8834481,-1.7909832000732422,1.0523160696029663,-9.833215713500977,-0.2723511521791428,-0.2867327396798906,-10.647101605347244,1.1805707778023338,-8.216339974062697,0.789527900892492
1730865970.9334626,-1.7380390167236328,1.0403714179992676,-9.891928672790527,-0.2721164687759374,-0.28575172759252077,-10.647186295606353,1.1818493089804174,-8.339197078329047,0.7063616878469279
1730865970.9834626,-1.6841381788253784,1.027842402458191,-9.939653396606445,-0.27189394932875033,-0.28475299895551254,-10.647265337011408,1.182447080822567,-8.46320537535929,0.5960791582005238
1730865971.0333781,-1.598343849182129,1.0370818376541138,-9.97574520111084,-0.27168970292333106,-0.28373884803628124,-10.647336700025837,1.1838703098425714,-8.53128617902151,0.8343878887450042
1730865971.083417,-1.5712602138519287,1.0332560539245605,-9.993497848510742,-0.2715078238584573,-0.2827114371144217,-10.647399816811824,1.184253236458583,-8.654963699361254,0.7730300281927412
1730865971.133399,-1.550557255744934,1.039259433746338,-9.944525718688965,-0.27134981693105237,-0.28167279843309856,-10.647455809298899,1.1848109099477397,-8.720840022021358,0.8400278525990929
1730865971.1834455,-1.5575945377349854,1.0153611898422241,-9.915091514587402,-0.27121438883285276,-0.2806248521439322,-10.647507288863059,1.1845383746950258,-8.84683117870583,0.7802271515326701
1730865971.233443,-1.6128383874893188,0.9890211224555969,-9.859123229980469,-0.2710976652720336,-0.27956933784045096,-10.647557777121834,1.1835944048923333,-8.972120818103136,0.6946060313798083
1730865971.283348,-1.700724482536316,0.9786924719810486,-9.800239562988281,-0.2709938363267806,-0.2785076257447877,-10.647610952426062,1.181965724898011,-9.09902532757746,0.5817318929454478
1730865971.3333108,-1.7688379287719727,1.0146944522857666,-9.755945205688477,-0.27089619560849343,-0.27744054763485637,-10.647669876234596,1.1856526409708847,-9.160879703330368,0.8346523467995288
1730865971.3833656,-1.8208271265029907,1.02140212059021,-9.763900756835938,-0.2707983253478629,-0.2763684503648096,-10.647736348121086,1.1874301395263147,-9.223276022752865,0.8447864196503457
1730865971.433279,-1.8217395544052124,1.0340009927749634,-9.765320777893066,-0.2706950524450532,-0.2752914521592608,-10.647810598855802,1.1869039268143002,-9.350079671536227,0.7879983961734112
1730865971.48329,-1.782911777496338,1.0537012815475464,-9.80487060546875,-0.2705828997948938,-0.27420971339442846,-10.647891391015287,1.1894490652420877,-9.410486873297822,0.8400883512215591
1730865971.5332751,-1.7525897026062012,1.0612386465072632,-9.85537052154541,-0.2704599645927507,-0.27312364853245114,-10.647976435330317,1.1889983786348268,-9.53899310672102,0.7806438642686289
1730865971.5832372,-1.7406247854232788,1.1116029024124146,-9.87990665435791,-0.270325432006564,-0.27203413059895487,-10.64806300305448,1.1878750120968322,-9.667836524747738,0.6948203780697555
1730865971.633259,-1.770524501800537,1.115897536277771,-9.90289306640625,-0.27017911066929384,-0.27094273644097777,-10.64814854798563,1.1860646487514117,-9.79822959131496,0.5816490596138776
1730865971.683197,-1.7900440692901611,1.1545110940933228,-9.899785995483398,-0.2700212661926465,-0.26985200421720396,-10.648231138201332,1.1917913504289426,-9.85284276243181,0.8341675916087947
1730865971.7331789,-1.8505797386169434,1.163799524307251,-9.896068572998047,-0.2698527732127892,-0.2687656303632699,-10.648309629971806,1.1933428732536264,-9.907375162667101,0.8448091565240249
1730865971.783353,-1.8653908967971802,1.1624170541763306,-9.862640380859375,-0.26967545398445913,-0.26768856339356434,-10.648383608044076,1.1927344868326712,-10.038383599948332,0.7875644127741801
1730865971.8332534,-1.84821355342865,1.119704008102417,-9.858514785766602,-0.26949238161465827,-0.2666269136583228,-10.648453147526228,1.1914441141327559,-10.170383396635286,0.7033012103765813
1730865971.8832345,-1.8270213603973389,1.114829421043396,-9.805334091186523,-0.26930789350121026,-0.26558761225913197,-10.648518481333511,1.1895064076704964,-10.30112185606857,0.5939347302061476
1730865971.9334147,-1.793975830078125,1.0453251600265503,-9.822367668151855,-0.26912725988157643,-0.2645778977093363,-10.648579653433545,1.1957985315641324,-10.351663974731986,0.8340631188289429
1730865971.9832606,-1.7209333181381226,1.0137131214141846,-9.828447341918945,-0.268956131902031,-0.2636047195859974,-10.648636283601604,1.1949395794027993,-10.483642948082567,0.7725546122223936
1730865972.0332992,-1.6012029647827148,0.9719731211662292,-9.870986938476562,-0.26879977245293285,-0.2626741089457172,-10.648687595172998,1.1986811768373187,-10.531106258973418,0.8398050379530422
1730865972.0832047,-1.5673483610153198,0.9927900433540344,-9.874567985534668,-0.2686620524545562,-0.26179067690440966,-10.648732689182454,1.198385207007527,-10.66408287406286,0.780486765331147
1730865972.133241,-1.5673483610153198,0.9927900433540344,-9.874567985534668,-0.2685445464753042,-0.260957432651149,-10.648770856123171,1.2012952071758656,-10.709332858859533,0.8404077010681443
1730865972.133241,-1.5617990493774414,1.0194441080093384,-9.915316581726074,-0.2684461678695703,-0.2601759300007048,-10.648801773619315,1.201296124053981,-10.71026286029236,0.8400864260123556
1730865972.1831715,-1.576568603515625,1.0584110021591187,-9.886327743530273,-0.26836333932253875,-0.25944661811925723,-10.64882562698628,1.2010938132602689,-10.84319801931601,0.7810586339739283
1730865972.2332606,-1.631142258644104,1.0728533267974854,-9.91388988494873,-0.2682904473510293,-0.25876929882312993,-10.648843177342883,1.200220991088824,-10.977793914269535,0.6950315823385332
1730865972.283102,-1.7173388004302979,1.079965353012085,-9.86382007598877,-0.2682205472865683,-0.2581435705855343,-10.648855712840726,1.202549424468911,-11.018120706039733,0.8461973904598439
1730865972.3331964,-1.82231605052948,1.1077828407287598,-9.826631546020508,-0.26814639479643115,-0.25756913550972604,-10.648864823615869,1.201701543430162,-11.153723488536736,0.7887786049114683
1730865972.383157,-1.8533849716186523,1.1184059381484985,-9.800682067871094,-0.268061661987076,-0.25704600036327724,-10.648871984748792,1.2001868363565817,-11.191625710741489,0.8442695779794595
1730865972.4330823,-1.8954871892929077,1.0949914455413818,-9.761144638061523,-0.26796195701064246,-0.2565746135928261,-10.64887807237734,1.1980052094705294,-11.327053292362114,0.78604724053689
1730865972.4830406,-1.8989217281341553,1.0262970924377441,-9.779446601867676,-0.267845370932146,-0.2561557873465071,-10.648883000128365,1.195170197575354,-11.462510865464077,0.7017263626785865
1730865972.5331557,-1.8536771535873413,1.0082930326461792,-9.78778076171875,-0.26771254103280206,-0.2557902817888622,-10.648885599984919,1.191607341602679,-11.600967877573883,0.5889541323255539
1730865972.5831227,-1.783974289894104,1.004658818244934,-9.84261703491211,-0.2675662413632885,-0.25547826500064924,-10.648883814062435,1.2085039687764527,-11.631961559408198,0.8360032485845772
1730865972.6330674,-1.783974289894104,1.004658818244934,-9.84261703491211,-0.2674105911998679,-0.25521899585148633,-10.648875129185319,1.2129492938065156,-11.662791080322247,0.8458658308356992
1730865972.6330674,-1.7528783082962036,1.0574264526367188,-9.855023384094238,-0.2672502458092936,-0.25501084503837806,-10.64885703364018,1.2129572123023409,-11.663634466637012,0.8455963275185506
1730865972.6830595,-1.7219197750091553,1.080628514289856,-9.910914421081543,-0.26708983310588214,-0.2548516037899974,-10.648827352549578,1.2159394413069549,-11.692006841167624,0.7890458861119873
1730865972.7331333,-1.7219197750091553,1.080628514289856,-9.910914421081543,-0.2669335624635758,-0.2547389367698317,-10.648784547452657,1.2170136404741598,-11.829167801431101,0.705468727183237
1730865972.7331333,-1.704637885093689,1.1132997274398804,-9.919187545776367,-0.2667849426807465,-0.25467074810953233,-10.648728000185077,1.2170177804958153,-11.82993854461103,0.7049250962600296
1730865972.7830756,-1.6880874633789062,1.1303209066390991,-9.951221466064453,-0.2666466269973933,-0.2546454091171769,-10.648658160365878,1.2174203132685495,-11.966632101880677,0.5955534216448052
1730865972.8330402,-1.6892642974853516,1.1353075504302979,-9.929433822631836,-0.2665203270461458,-0.2546619452847544,-10.64857657735984,1.2171613454534744,-12.105206945947307,0.45861481420300343
1730865972.8830557,-1.6928538084030151,1.1137971878051758,-9.93874454498291,-0.2664067856155216,-0.2547201321489866,-10.648485855439509,1.216234720406329,-12.24439472197163,0.29501808894603415
1730865972.9329422,-1.7044410705566406,1.0738990306854248,-9.894899368286133,-0.2663058632004852,-0.2548203635487928,-10.64838946823762,1.217479224303128,-12.264040589141416,0.1062465085687275
1730865972.9829872,-1.7288248538970947,1.0470776557922363,-9.854463577270508,-0.26621673966558385,-0.2549632770071382,-10.648291396396775,1.216735244370866,-12.403623906058964,-0.11047770398805583
1730865973.0330038,-1.782965898513794,1.0143132209777832,-9.822835922241211,-0.2661382343745266,-0.25514926839329777,-10.648195608661718,1.2153246254835566,-12.543839569156898,-0.3538616699302593
1730865973.082945,-1.8363450765609741,1.0109021663665771,-9.767317771911621,-0.2660692889055968,-0.2553780677868636,-10.648105484826095,1.2189710746383944,-12.559384441402111,0.8558597685800441
1730865973.132889,-1.8869452476501465,0.9894759058952332,-9.760782241821289,-0.2660095840196339,-0.2556484749400494,-10.64802330128952,1.2182497444526004,-12.69898086577801,0.7972386176684563
1730865973.1829495,-1.8473352193832397,1.0347927808761597,-9.739604949951172,-0.2659600775730254,-0.2559582900461066,-10.64794987528217,1.2168543281758046,-12.840642008224833,0.7113289178048663
1730865973.232936,-1.816389560699463,1.0465000867843628,-9.774761199951172,-0.26592313735829665,-0.2563044805460992,-10.647884464177936,1.2207362699161903,-12.850171002206492,0.8541685900471554
1730865973.2828844,-1.783855676651001,1.0769073963165283,-9.79489803314209,-0.2659021678830113,-0.256683551468786,-10.64782496390727,1.2227468319650394,-12.858982588439808,0.8629129645391543
1730865973.3328242,-1.7646828889846802,1.053520679473877,-9.82564926147461,-0.2659010051753821,-0.2570919282329598,-10.647768345617916,1.2222995188732728,-12.999879075824566,0.8077192519924226
1730865973.3828576,-1.7351040840148926,1.0145779848098755,-9.854711532592773,-0.26592337567912433,-0.2575261167837726,-10.647711184117318,1.22118289903282,-13.142136941840377,0.7255355117250736
1730865973.432912,-1.7351040840148926,1.0145779848098755,-9.854711532592773,-0.26597249919592036,-0.2579825662594695,-10.647650134775262,1.219405215109104,-13.28451908645416,0.6170220289269097
1730865973.432912,-1.683071255683899,0.9749651551246643,-9.900102615356445,-0.2660508058919994,-0.2584573988711314,-10.647582291114695,1.2193937528041117,-13.285293773842634,0.6163604158983658
1730865973.4828544,-1.6453770399093628,0.9578630328178406,-9.910890579223633,-0.26615966384871925,-0.25894617021026917,-10.647505463561778,1.2169547613641662,-13.427987936434299,0.4814701364416099
1730865973.532847,-1.649688720703125,0.9565423130989075,-9.945751190185547,-0.2662990652469787,-0.25944368263631834,-10.647418444690341,1.2138561938942232,-13.571244999640365,0.32022214869194265
1730865973.5828483,-1.6442580223083496,0.9954084157943726,-9.940225601196289,-0.2664674354208732,-0.25994394577172203,-10.647321223939025,1.224547132954007,-13.566950933692942,0.8508612408397765
1730865973.632834,-1.6689367294311523,1.0497392416000366,-9.937795639038086,-0.26666171361230795,-0.2604404447635075,-10.64721505927318,1.2234716164825594,-13.710895106917333,0.7908063278804053
1730865973.682793,-1.6859419345855713,1.0834542512893677,-9.915569305419922,-0.2668776535856956,-0.26092670877905244,-10.647102353043454,1.2274721470474659,-13.702504786848223,0.8562599824309461
1730865973.7328548,-1.71327543258667,1.1262437105178833,-9.893120765686035,-0.26711024201207456,-0.2613969728328791,-10.646986353277759,1.2269325392407728,-13.847219978283485,0.797303966829594
1730865973.782775,-1.7269731760025024,1.1472166776657104,-9.872698783874512,-0.2673541484421065,-0.26184672797237996,-10.64687075724384,1.2257209527626998,-13.9926340044088,0.7115646805202
1730865973.8327966,-1.735066294670105,1.1401067972183228,-9.833118438720703,-0.2676041150393702,-0.2622730609100007,-10.646759287943176,1.2286185144976247,-13.978170847809551,0.8522269063998911
1730865973.8827624,-1.717958927154541,1.1496965885162354,-9.815305709838867,-0.2678552033202503,-0.26267473545173625,-10.646655275242592,1.2276225864463228,-14.12370204460068,0.7914962691799784
1730865973.9327734,-1.6673269271850586,1.18075430393219,-9.812365531921387,-0.2681028118854729,-0.2630520999815602,-10.646561298558218,1.2306170517750998,-14.105860691068438,0.8554400549886885
1730865973.9827108,-1.718985915184021,1.200554609298706,-9.816550254821777,-0.26834249328396975,-0.2634070264141416,-10.646479001275903,1.2300014058650306,-14.250697803795367,0.7965397232376435
1730865974.032757,-1.777178168296814,1.1863377094268799,-9.796299934387207,-0.26856989661682334,-0.26374291863375904,-10.6464090883534,1.2320329586333902,-14.22963650262984,0.8556788876756833
1730865974.0837018,-1.8267006874084473,1.1075407266616821,-9.833602905273438,-0.26878114438127254,-0.2640645505472061,-10.646351410393617,1.2312921571741133,-14.378138575886723,0.7950320299503538
1730865974.1328225,-1.8129234313964844,1.0744457244873047,-9.833734512329102,-0.2689734336888553,-0.26437751387235103,-10.64630512594982,1.229914931778902,-14.522126150248063,0.7102746708999434
1730865974.1827915,-1.7848941087722778,1.034195899963379,-9.854951858520508,-0.26914536365033914,-0.2646874138018688,-10.646268962176034,1.2278507432750387,-14.66896901024262,0.5978727449994515
1730865974.2327878,-1.7069191932678223,1.0519814491271973,-9.866008758544922,-0.2692967346509654,-0.26499919323418986,-10.646241492987592,1.2337751274476454,-14.637755468942682,0.8498991214364822
1730865974.2827125,-1.7330290079116821,1.0380792617797852,-9.891645431518555,-0.2694279657612128,-0.2653168122308008,-10.646221386036105,1.232793592528651,-14.785719215791003,0.7878201355937215
1730865974.333654,-1.723747968673706,1.0607243776321411,-9.90710735321045,-0.269539557844828,-0.2656432327141992,-10.646207642681517,1.2349443790069254,-14.754516639142794,0.8544012960324453
1730865974.383695,-1.6333900690078735,1.1029419898986816,-9.92292594909668,-0.26963180573966183,-0.2659805959952744,-10.646199822844554,1.2339745231381039,-14.901905054622913,0.794328892782053
1730865974.4336932,-1.7185343503952026,1.0912126302719116,-9.885492324829102,-0.2697045613434774,-0.26633053912052707,-10.646198171055381,1.2323431681090722,-15.049002599587016,0.7082816248652601
1730865974.4835937,-1.7632367610931396,1.0811116695404053,-9.884361267089844,-0.2697571619756492,-0.2666944842651441,-10.646203534562279,1.236628191191798,-15.007186813971174,0.8519421250424912
1730865974.533778,-1.7660847902297974,1.066494345664978,-9.817702293395996,-0.2697888164899163,-0.2670737000259209,-10.646217062589779,1.2356303526878631,-15.156190960860163,0.790609496708023
1730865974.583637,-1.76335608959198,1.0730304718017578,-9.786660194396973,-0.2697991196808887,-0.2674691895918415,-10.646239747827419,1.2379757743443365,-15.110799633087957,0.8551050028186242
1730865974.6336203,-1.755035638809204,1.0663394927978516,-9.755593299865723,-0.2697882462879154,-0.26788159542595996,-10.64627189589611,1.2370678355128768,-15.259966902027598,0.7951334468674941
1730865974.683558,-1.7797462940216064,1.05051851272583,-9.727736473083496,-0.2697569015434691,-0.26831116566867497,-10.646312675098697,1.2389982471547438,-15.20957493746701,0.8558438035856905
1730865974.7336075,-1.7905184030532837,1.0506978034973145,-9.733460426330566,-0.2697062910529261,-0.2687577122452794,-10.646359859222168,1.2380511395239453,-15.358793769123082,0.7962986804501174
1730865974.7834837,-1.7196898460388184,1.0897799730300903,-9.776664733886719,-0.26963811828814577,-0.26922059518333474,-10.646409830997133,1.2391894449288459,-15.306313518897136,0.8555899663434595
1730865974.8335426,-1.7713710069656372,1.1019127368927002,-9.835098266601562,-0.269554431030281,-0.26969887208647525,-10.646457944911965,1.2379428793381155,-15.455664777579853,0.7958443427093279
1730865974.8835092,-1.8028919696807861,1.1387075185775757,-9.852670669555664,-0.2694574477797268,-0.2701916132958517,-10.646499193937775,1.2360381034510646,-15.399057726099448,0.8554190623750826
1730865974.9336016,-1.8285831212997437,1.182466745376587,-9.922863006591797,-0.26934968423622574,-0.27069827330225044,-10.64652893008671,1.2334429769116801,-15.548137423639503,0.7958239313834297
1730865974.9834633,-1.8077365159988403,1.2220063209533691,-9.935257911682129,-0.2692342512345908,-0.2712190936558254,-10.64654347967913,1.2301969250912161,-15.696787920496234,0.7101759885422794
1730865975.0335941,-1.8268399238586426,1.19771409034729,-9.958266258239746,-0.2691149734659356,-0.27175546441170345,-10.646540608287928,1.2262657970772055,-15.846735839301864,0.5976098264838795
1730865975.0834959,-1.7553056478500366,1.1827597618103027,-9.942646980285645,-0.26899625157711143,-0.2723100192904146,-10.646519743618047,1.2216746577281368,-15.996977974167093,0.45881714865449447
1730865975.1334362,-1.7702215909957886,1.131227731704712,-9.93575382232666,-0.2688827303940937,-0.2728863472157048,-10.64648191084689,1.2339463633034369,-15.926244541291675,0.8476593593753636
1730865975.1834197,-1.7350672483444214,1.0756663084030151,-9.8892240524292,-0.26877889049848525,-0.27348841560450315,-10.64642943174507,1.2318776792031398,-16.076934538432283,0.785252588886757
1730865975.2334309,-1.6980245113372803,1.014807939529419,-9.849322319030762,-0.26868869544446616,-0.27411983349965025,-10.646365433744139,1.2350475170634587,-16.003817922538623,0.8541770320584925
1730865975.2833824,-1.74787175655365,0.9247363805770874,-9.83838939666748,-0.2686153267859905,-0.2747830380427787,-10.646293254745563,1.2337470933940409,-16.154724158531977,0.7943636492370105
1730865975.3333728,-1.7218077182769775,0.9190731048583984,-9.835184097290039,-0.26856109823951185,-0.27547851143857904,-10.646215945859938,1.2363370323297598,-16.076837048102746,0.8547788842693387
1730865975.3833628,-1.710154414176941,0.9689270853996277,-9.809120178222656,-0.2685275485201018,-0.27620431257580014,-10.646136002837778,1.2352965622991836,-16.22826775197762,0.7950676514700774
1730865975.4333987,-1.6837084293365479,0.9878154993057251,-9.841340065002441,-0.2685154681762281,-0.27695622667129877,-10.646055265434693,1.237335233942276,-16.147138600799057,0.8545666281542422
1730865975.483403,-1.650559425354004,1.0081390142440796,-9.836055755615234,-0.2685247544170615,-0.27772838832130764,-10.645974945258008,1.236235845269854,-16.298404207261544,0.7949216231057404
1730865975.5333564,-1.6746716499328613,1.0141290426254272,-9.857386589050293,-0.2685542297149726,-0.278513934064238,-10.645895784423654,1.2344730982355225,-16.213935003004,0.8545580088649802
1730865975.5833364,-1.6851810216903687,1.004333734512329,-9.852632522583008,-0.26860161853581915,-0.2793054526698589,-10.645818254397167,1.2320396596167165,-16.129817492631727,0.8602403745259186
1730865975.6333683,-1.5812643766403198,1.044628381729126,-9.859695434570312,-0.2686636615961041,-0.28009526645638894,-10.645742705635602,1.2289301762714293,-16.279911437506097,0.8034942500678827
1730865975.683324,-1.7228114604949951,1.0327458381652832,-9.875347137451172,-0.26873616218693475,-0.28087567555780046,-10.645669467323646,1.2251530217885687,-16.430539953836753,0.7202219717188632
1730865975.7333395,-1.8088876008987427,1.0366780757904053,-9.752493858337402,-0.26881425719623536,-0.28163919720218,-10.645598832331004,1.220681097530547,-16.58262634689512,0.6097618153225981
1730865975.7832942,-1.8492463827133179,1.0879586935043335,-9.823813438415527,-0.26889331730375626,-0.2823787546603962,-10.645530786696703,1.215585168223511,-16.486872138987202,0.8488313243782982
1730865975.8332365,-1.8476037979125977,1.0733569860458374,-9.768607139587402,-0.2689699889871371,-0.2830878908380582,-10.645464662755977,1.2097860236865634,-16.63839746658868,0.7871344799133287
1730865975.8832293,-1.7965223789215088,1.0459142923355103,-9.815152168273926,-0.26904264459098215,-0.28376096309941506,-10.645399046494619,1.2593697046306978,-16.540568408241363,0.8535577227671861
1730865975.933179,-1.7969716787338257,1.0425485372543335,-9.871280670166016,-0.2691111723510684,-0.28439310720820027,-10.645331974417234,1.263754198040037,-16.442239481912058,0.8596639980051806
1730865975.9832678,-1.7303887605667114,1.079399585723877,-9.879664421081543,-0.2691764463740749,-0.2849800599161482,-10.645261368245974,1.2643713015087252,-16.593769262458633,0.8025173263551828
1730865976.0331671,-1.6776671409606934,1.154143214225769,-9.950304985046387,-0.2692396983851074,-0.2855182072997411,-10.645185594457967,1.2643118892906247,-16.744509864415225,0.7194263596014671
1730865976.0831647,-1.6643404960632324,1.210000991821289,-9.945380210876465,-0.2693018442178858,-0.2860050317225027,-10.645103959044935,1.2661933127700946,-16.640702447560678,0.8501962908819892
1730865976.1330926,-1.6949403285980225,1.204162359237671,-9.977410316467285,-0.26936297678364074,-0.28643972715031923,-10.645017050700346,1.265778078359596,-16.791536412124355,0.7895273620224139
1730865976.1830785,-1.715383529663086,1.1504161357879639,-9.959513664245605,-0.2694222964795232,-0.2868235074622484,-10.64492687764099,1.2683654357238205,-16.684056175472346,0.8530512081620029
1730865976.2331274,-1.7309974431991577,1.0735752582550049,-9.935346603393555,-0.2694784134575017,-0.2871592842298136,-10.64483676387255,1.270370273103899,-16.577473241396646,0.7933805852461054
1730865976.2831085,-1.751832365989685,1.0295008420944214,-9.867960929870605,-0.2695297379809311,-0.2874508211600311,-10.644750977662778,1.2703548964953366,-16.72788376878587,0.707290895634238
1730865976.333172,-1.7894331216812134,1.0231446027755737,-9.804779052734375,-0.2695748258439201,-0.2877018042329392,-10.644674070689655,1.2696673684955102,-16.879039557347287,0.5946417072430498
1730865976.3830342,-1.7807178497314453,0.9962002635002136,-9.770801544189453,-0.26961269095079127,-0.2879152196921804,-10.64461005201641,1.271939579879193,-16.765060988168084,0.8419746931609986
1730865976.4331918,-1.7807178497314453,0.9962002635002136,-9.770801544189453,-0.269643011859631,-0.2880930840859004,-10.644561688413024,1.2711657913133738,-16.917362339168026,0.7789880133300218
1730865976.4331918,-1.7861945629119873,0.9779112339019775,-9.746031761169434,-0.2696661507814918,-0.2882363607037817,-10.644530157446578,1.2711574653150786,-16.91849945742153,0.7784177089244063
