Timestamp,IMU_Linear_Acc_X,IMU_Linear_Acc_Y,IMU_Linear_Acc_Z,Filtered_X,Filtered_Y,Filtered_Z,Pose_X,Pose_Y,Pose_Z
1730865946.9339588,-1.6460669040679932,1.1705397367477417,-9.888028144836426,-0.08124321426544824,-0.11052033274978035,-7.39672962222452,0.9028239038642828,3.832091955441082,0.8959803454999169
1730865946.9839773,-1.5448205471038818,1.3515266180038452,-9.916738510131836,-0.09607590726845977,-0.1402012028356397,-8.319442642851968,0.9033333955162074,3.8321485026391393,0.8958175383258415
1730865947.0338826,-1.5448205471038818,1.3515266180038452,-9.916738510131836,-0.11087565031305843,-0.17155408257881363,-9.16074264418241,0.8912619303334938,2.711284045044819,0.8926919590875374
1730865947.0338826,-1.4505513906478882,1.3764179944992065,-9.885746955871582,-0.12494047921761822,-0.20394931168469657,-9.900583271647932,0.8901424239472656,2.570950781876383,0.8921727040608208
1730865947.083904,-1.4505513906478882,1.3764179944992065,-9.885746955871582,-0.1374364640214797,-0.23702693402622155,-10.52548628256137,0.8742356461842317,0.5772730039492852,0.8846211249996087
1730865947.083904,-1.483825922012329,1.3574954271316528,-9.83907413482666,-0.1474757415301018,-0.2705642066598447,-11.028530127588057,0.8730784667429539,0.43225852189802216,0.8840590211423703
1730865947.1338828,-1.483825922012329,1.3574954271316528,-9.83907413482666,-0.15425977833378066,-0.3043433282805006,-11.408928277967352,0.8845961589413037,1.8909551752281102,0.8753782594154073
1730865947.1338828,-1.5220105648040771,1.4168083667755127,-9.791072845458984,-0.15723668113812472,-0.33807727256743814,-11.671303931848604,0.8845624956779047,1.886964272043166,0.8752107119506576
1730865947.1838188,-1.5220105648040771,1.4168083667755127,-9.791072845458984,-0.1561982044960477,-0.37141988098184275,-11.82475814285849,0.8780832146146754,1.1417338552685596,0.8290154026731379
1730865947.1838188,-1.466209888458252,1.5062932968139648,-9.781386375427246,-0.15128624714744715,-0.40403371481418093,-11.881827048366404,0.8780475045590299,1.1377453660870225,0.8286884659387431
1730865947.2339377,-1.466209888458252,1.5062932968139648,-9.781386375427246,-0.14290830207154367,-0.4356634726233961,-11.85741563364244,0.8712724037119124,0.4001844585369516,0.7536492374440412
1730865947.2339377,-1.6475468873977661,1.4503509998321533,-9.745635986328125,-0.13164772748126538,-0.4661632669820367,-11.767760865132884,0.8712326862960281,0.3959672332362209,0.7531369063548793
1730865947.2838902,-1.7597566843032837,1.3032793998718262,-9.741059303283691,-0.11830748939946824,-0.4954098737226094,-11.629452821466224,0.8836774905443763,1.7745770978475535,0.8742438304122544
1730865947.3337905,-1.6816997528076172,1.2365984916687012,-9.753911018371582,-0.10402011865238657,-0.5231115353795779,-11.458567699067993,0.8795080740862629,1.094654508699921,0.871954440085642
1730865947.3838024,-1.757475733757019,1.2633165121078491,-9.788309097290039,-0.09019307974191543,-0.5486676776623496,-11.26998070685772,0.8769312599120312,0.761378763719539,0.8275893907311885
1730865947.4338114,-1.9410609006881714,1.2342725992202759,-9.715015411376953,-0.0783185382003179,-0.5712226447723052,-11.076863678483697,0.8746758892252964,0.3544983314336505,0.8722221116939456
1730865947.4836771,-1.7980672121047974,1.2204742431640625,-9.816902160644531,-0.06985117317866281,-0.5898569794263213,-10.890324350885857,0.8713625308010923,-0.10741730352908042,0.8305328265800619
1730865947.5337312,-1.6201061010360718,1.2407430410385132,-9.861479759216309,-0.06605732532062308,-0.6037669251733513,-10.71921431026452,0.8678833031775824,-0.5704024652952853,0.7620364630070905
1730865947.5837328,-1.6417081356048584,1.2559638023376465,-9.932706832885742,-0.06769593178150543,-0.6123918220554967,-10.570143150492838,0.8756504592651488,0.818379839373291,0.8722399083398015
1730865947.6336718,-1.6417081356048584,1.2559638023376465,-9.932706832885742,-0.074780622767787,-0.6155054307173708,-10.447613095858943,0.8749292021902741,0.8171372104097734,0.8326383077210644
1730865947.6336718,-1.4783844947814941,1.2720919847488403,-9.962823867797852,-0.0866231017498557,-0.6132513172213976,-10.354167849903767,0.8749247882424531,0.8171263192770095,0.8323531445785458
1730865947.6836586,-1.4127205610275269,1.249739170074463,-9.95790958404541,-0.10197067292420538,-0.6061125994474905,-10.290547919447054,0.8739833568558408,0.8143612993700309,0.7669104233170192
1730865947.7336457,-1.4345476627349854,1.2176520824432373,-9.960887908935547,-0.11911390768156896,-0.5948276649184747,-10.255886293923048,0.8713585494669657,0.8234512669073918,0.8723956947038369
1730865947.7836764,-1.6071974039077759,1.2252144813537598,-9.856568336486816,-0.13611443648174593,-0.5802724824716183,-10.247937594625515,0.8695944658756419,0.822831860272017,0.833678923793017
1730865947.8337014,-1.532752275466919,1.1856809854507446,-9.923158645629883,-0.15119246799360747,-0.5633518086168601,-10.263320638303924,0.8674768834828616,0.8207860299849173,0.7694620948212816
1730865947.8835726,-1.49844229221344,1.2116985321044922,-9.878271102905273,-0.16302744253228102,-0.5449274095792535,-10.29781421076922,0.8680491842319997,0.8277999284369144,0.8719485334072694
1730865947.9345996,-1.521494746208191,1.106750726699829,-9.946966171264648,-0.17079922722905622,-0.5257676876763021,-10.34673123195629,0.866247194258828,0.8272409170194241,0.8322034354336365
1730865947.9846032,-1.521494746208191,1.106750726699829,-9.946966171264648,-0.17410737758075281,-0.5064870032683912,-10.40531073303302,0.8701255146924076,0.8333074997133135,0.8711966442365071
1730865947.9846032,-1.521235466003418,1.066617727279663,-9.89339542388916,-0.17292089668708865,-0.48748745719249675,-10.469043822855715,0.8701249352663292,0.8333152759771142,0.8710331816666901
1730865948.034629,-1.6524330377578735,0.9745575785636902,-9.893824577331543,-0.16755770907826842,-0.46893952743785916,-10.533874044717901,0.8707175897414945,0.837597676591123,0.8719402256648499
1730865948.0845356,-1.6524330377578735,0.9745575785636902,-9.893824577331543,-0.1586889363855562,-0.4507868486272688,-10.596297073367879,0.870431970996269,0.8382666829100569,0.8328519095382806
1730865948.0845356,-1.714928388595581,0.9513433575630188,-9.833707809448242,-0.14733534939448628,-0.4327766483824476,-10.653430275028706,0.8704277624934113,0.8382675921365946,0.832396854460987
1730865948.1347377,-1.6118273735046387,0.9223973155021667,-9.884674072265625,-0.13476799307382203,-0.41454347219011645,-10.703057178912239,0.8697759391655625,0.8378543469703316,0.7667619370274558
1730865948.1846237,-1.3661701679229736,0.9260615110397339,-9.857068061828613,-0.12225388773701207,-0.39571004173986923,-10.743645940773277,0.8687998675415455,0.8364278665310939,0.6740052568773345
1730865948.2345996,-1.3661701679229736,0.9260615110397339,-9.857068061828613,-0.11068894397413677,-0.3759685849526441,-10.774351761899561,0.8684181417269546,0.8430018028066851,0.8716825338322427
1730865948.2345996,-1.2212275266647339,0.8862243294715881,-9.932165145874023,-0.10032692394673645,-0.35514031295359966,-10.794988303507019,0.868414208166816,0.8430058122735589,0.8715364823509599
1730865948.2835228,-1.0323896408081055,0.8774198889732361,-9.941996574401855,-0.09073487598397686,-0.33319214184315393,-10.80598693806003,0.8675979638231728,0.8433259824838736,0.8322936661083321
1730865948.3344536,-1.2495695352554321,0.9381879568099976,-9.924843788146973,-0.08090707782536605,-0.3102246790742421,-10.808337624753424,0.8691857755051765,0.8501183354691979,0.8710521469670789
1730865948.3844686,-1.4342632293701172,1.0002256631851196,-9.9284086227417,-0.06959712520016854,-0.28649843094538896,-10.80345331439716,0.8689813994451002,0.8516551004784548,0.8299116377184123
1730865948.4344435,-1.6491162776947021,1.1198151111602783,-9.88106918334961,-0.05589988375615917,-0.2625155625144481,-10.792970458071828,0.86862365663056,0.8524953676427358,0.7624575467483556
1730865948.4846096,-1.8150001764297485,1.2128596305847168,-9.911548614501953,-0.03978448757371848,-0.2391046812878751,-10.77855695321714,0.8681382904568062,0.8527161825811366,0.6664339022528445
1730865948.5345068,-1.8747748136520386,1.2866096496582031,-9.855307579040527,-0.022287348975941756,-0.21744696664918556,-10.761770281644033,0.8665816829333244,0.8537502648355286,0.8716755219332574
1730865948.5845046,-1.8972151279449463,1.2438414096832275,-9.890105247497559,-0.005331640947949503,-0.19898583532257305,-10.743969147515891,0.8603333362840151,0.8598357945636269,0.8715433481432622
1730865948.6345894,-1.8699368238449097,1.2726092338562012,-9.829380989074707,0.008708705572277268,-0.18520382181530193,-10.726263606560986,0.8578610476600221,0.8617997459608834,0.8311558151541871
1730865948.6844258,-1.9649289846420288,1.1705948114395142,-9.842905044555664,0.017499055070352525,-0.17734056109611454,-10.709489115963596,0.8584945023112358,0.8645947492666816,0.8716265585776866
1730865948.7343395,-1.755480170249939,1.117276906967163,-9.814167976379395,0.01913235538201588,-0.17614119777240264,-10.69419983228526,0.8570354914408852,0.8665493513157076,0.8316204527470483
1730865948.7843802,-1.648979902267456,1.0715574026107788,-9.870731353759766,0.012446220168918595,-0.18168595405477075,-10.68069743855035,0.8591399348850641,0.8721691853377559,0.8715356081511522
1730865948.8343627,-1.619248390197754,1.0923936367034912,-9.766934394836426,-0.002709946727047578,-0.19336149094201532,-10.66909010465653,0.8588953347297106,0.8746469872880166,0.8317479073980645
1730865948.8843756,-1.5719029903411865,1.1600306034088135,-9.814069747924805,-0.02541570681627269,-0.21001162554577976,-10.65932992608019,0.8609036561854733,0.8796906030679772,0.8714879064924905
1730865948.9342463,-1.4718180894851685,1.2043366432189941,-9.855443000793457,-0.05387402737669326,-0.2302154922780778,-10.651239426003253,0.8613026999910826,0.8825861645432551,0.8318478267903854
1730865948.9843962,-1.5622344017028809,1.2559999227523804,-9.844598770141602,-0.08571267686010448,-0.2525758715303018,-10.644589419594833,0.8656895257537043,0.8836419294577789,0.8713956642910521
1730865949.0343103,-1.6065484285354614,1.3037285804748535,-9.91126537322998,-0.11834194997223776,-0.27592102840154836,-10.639195640286411,0.867495534048509,0.8857832093224397,0.8314613000221674
1730865949.084335,-1.6464300155639648,1.3352413177490234,-9.848318099975586,-0.14935893260165528,-0.29940150715244074,-10.634963873151005,0.8689809998951558,0.8872211919770544,0.7645230840235355
1730865949.1342292,-1.7890230417251587,1.2793657779693604,-9.847938537597656,-0.17688729519306792,-0.32248964489490994,-10.63186611067091,0.8674311385918804,0.8892594748944462,0.8757075398757198
1730865949.1843033,-1.9112098217010498,1.1769911050796509,-9.826825141906738,-0.1998030962797404,-0.3448654597543718,-10.629867872086212,0.8675903648829243,0.8898838660622291,0.8366236542145171
1730865949.2342906,-1.7468112707138062,1.169215440750122,-9.872337341308594,-0.2178220592072725,-0.36622338082124334,-10.628875100542068,0.8672304254778016,0.8896223370654273,0.7713638997252602
1730865949.2843397,-1.7610691785812378,1.1731765270233154,-9.90518856048584,-0.23133554931118894,-0.3861365666952843,-10.628756140448987,0.8687369518835721,0.8970648851467375,0.8791921135585239
1730865949.3341703,-1.772855281829834,1.1963719129562378,-9.869773864746094,-0.241067855954278,-0.404077629681974,-10.629403211479959,0.8684844757694461,0.8983220585939016,0.8408309550555203
1730865949.3842542,-1.7723252773284912,1.1582468748092651,-9.856871604919434,-0.24782207826498645,-0.4195323678565542,-10.63074860165817,0.8676132992706805,0.8985618411271674,0.775161414769043
1730865949.4341888,-1.5951693058013916,1.1924304962158203,-9.84045124053955,-0.2523544523339667,-0.43209172843601673,-10.632716009681896,0.870244464165137,0.9050444242286177,0.8828741404347686
1730865949.4842129,-1.4303251504898071,1.1096744537353516,-9.871488571166992,-0.2552006982738064,-0.4414860209940393,-10.63517677642523,0.8698459073556384,0.9062327511221593,0.8433942699025713
1730865949.5342839,-1.4494115114212036,1.127644419670105,-9.831385612487793,-0.2564585026450486,-0.4475724311045277,-10.637956107412975,0.8659754861182275,0.9146352957505524,0.8871106197861951
1730865949.5842733,-1.374488115310669,1.0864741802215576,-9.847817420959473,-0.2557347350321372,-0.4503017359205146,-10.640857275642137,0.8636779738382316,0.917425158175109,0.8492244716073729
1730865949.634126,-1.4525998830795288,1.0719263553619385,-9.802490234375,-0.2523271163844868,-0.449698025251181,-10.643669326570055,0.8636570600726942,0.9223535611188263,0.8902386834112384
1730865949.684152,-1.5784028768539429,1.0320987701416016,-9.840079307556152,-0.24552913463044332,-0.44584834096603243,-10.646168354863647,0.8614702596297709,0.9248333339012988,0.8520700971687096
1730865949.734146,-1.5448294878005981,0.9901504516601562,-9.828018188476562,-0.2349452622826399,-0.43888172172316214,-10.648137715176112,0.8643494989804973,0.9279958446184664,0.8886246520511655
1730865949.7841535,-1.495914340019226,0.9905200004577637,-9.897010803222656,-0.22065954681411912,-0.42894562191723923,-10.64941642880411,0.8633292814715733,0.9291172467626754,0.8488091349931032
1730865949.8341901,-1.5989469289779663,0.96947181224823,-9.889765739440918,-0.203178380382609,-0.4162053274799253,-10.649959863124867,0.8639218472670245,0.9361490435015241,0.8886599480809831
1730865949.8841543,-1.5671354532241821,0.9694827198982239,-9.91878890991211,-0.18330273522463544,-0.4008705571517078,-10.649875826065605,0.8634590847202631,0.9347873529326647,0.8832775335721753
1730865949.9341342,-1.4966825246810913,0.9941743016242981,-9.964380264282227,-0.16202518499456464,-0.383229643373864,-10.649417887743716,0.8624960867484435,0.9343973608832227,0.8413680296440034
1730865949.984129,-1.4800490140914917,0.969645619392395,-9.981051445007324,-0.14037435033002107,-0.36367766431584697,-10.648961479046818,0.8611363283777124,0.933059286494878,0.7719188250091876
1730865950.0342054,-1.459653377532959,1.016774296760559,-9.992463111877441,-0.11923428184660077,-0.3427258568022293,-10.64897280885062,0.8594665020365305,0.9308521207265662,0.6765869127582298
1730865950.0840492,-1.5144121646881104,1.049118995666504,-9.973414421081543,-0.09926101316929871,-0.32099731362542105,-10.649946214913399,0.8659504134830959,0.9431368124427247,0.8818215397323204
1730865950.1340241,-1.6105612516403198,1.0086636543273926,-9.94045639038086,-0.08093330893169959,-0.2992164613891213,-10.652307353165865,0.8660774126303161,0.9441035381789582,0.841117044095929
1730865950.1840804,-1.5536221265792847,1.06661057472229,-9.94149398803711,-0.06467125586880737,-0.2781636608763133,-10.656314415974906,0.8679525471557047,0.9520032881863786,0.8781425952155097
1730865950.2339597,-1.603241205215454,1.065562129020691,-9.964529037475586,-0.050896921923790674,-0.2586065490963054,-10.662009392987272,0.8685462186104034,0.9546710728535822,0.8372296088395073
1730865950.2839465,-1.879683494567871,1.0326447486877441,-9.866992950439453,-0.040044264395465795,-0.24124470556631225,-10.669230931847995,0.8690380684727775,0.9567667264546045,0.7687847100699606
1730865950.3339956,-2.0737950801849365,0.9914940595626831,-9.809025764465332,-0.03269355784197399,-0.22663770494973778,-10.677617512001987,0.8714570509863334,0.9609599127424565,0.8763811106966616
1730865950.3840535,-2.0737950801849365,0.9914940595626831,-9.809025764465332,-0.029783881757275706,-0.21511100008945472,-10.686578241801133,0.8722441837474404,0.9627873248750901,0.8353670861566856
1730865950.3840535,-1.8243703842163086,0.9407444000244141,-9.798154830932617,-0.032554383430346855,-0.20670158365874228,-10.695322463592424,0.8722484109017088,0.9627960925473444,0.8350590594435654
1730865950.4339852,-1.6435387134552002,1.0102969408035278,-9.805895805358887,-0.04205645387906498,-0.20117651784269933,-10.702984273846802,0.8757874500736104,0.973761784465812,0.8729203611042189
1730865950.4839067,-1.5730770826339722,1.1460793018341064,-9.76155948638916,-0.05854745341788664,-0.19814510049979778,-10.708761885099275,0.8774668027957933,0.9784764327665622,0.8314666486681974
1730865950.5338778,-1.402429223060608,1.2469379901885986,-9.80485725402832,-0.08118240398970167,-0.19727544532726135,-10.712008664580807,0.878962515735193,0.9826713836541385,0.7637478570020361
1730865950.5837739,-1.2801685333251953,1.27745521068573,-9.844583511352539,-0.1080652209341044,-0.19850660193387332,-10.712299510949448,0.8802316351795733,0.9863993163269984,0.6689103247816984
1730865950.6338754,-1.3144124746322632,1.2810062170028687,-9.876189231872559,-0.13650129460438012,-0.20209639889785658,-10.709506737688633,0.8811944536561707,0.9896242471511363,0.5473993918204099
1730865950.6837897,-1.3144124746322632,1.2810062170028687,-9.876189231872559,-0.1634047220638109,-0.2084878867640517,-10.703846280796085,0.8817833836141646,0.9923393575630799,0.3989915819315149
1730865950.6837897,-1.3720238208770752,1.2254197597503662,-9.91110610961914,-0.18580970321474882,-0.21810278499897245,-10.695845571129166,0.8817855797722561,0.992353413768035,0.39806394287115165
1730865950.7338083,-1.4993278980255127,1.1518988609313965,-9.931300163269043,-0.20134025276682938,-0.23114256448707343,-10.686259542377766,0.8794428742742575,0.9842054211206908,0.87429563202553
1730865950.78379,-1.6006672382354736,1.0863429307937622,-9.86929702758789,-0.20855914997112507,-0.24742629581745082,-10.675968871076186,0.8795755602726071,0.9858250737374487,0.8341094653507254
1730865950.8337855,-1.81550133228302,1.01986563205719,-9.81452465057373,-0.2071860430493756,-0.26630328754644206,-10.665837748944277,0.8840968788297231,0.9922236047497875,0.8743278278884036
1730865950.8837059,-1.9375649690628052,0.9927679896354675,-9.77560806274414,-0.19817391532289869,-0.2866743150016853,-10.656539469082492,0.8848958982958647,0.994173774948705,0.8342430135491639
1730865950.9336746,-2.0457820892333984,0.9714118242263794,-9.726194381713867,-0.18361929571025326,-0.3071176525929801,-10.648430005526476,0.8852136060622687,0.9953680878223324,0.7682117029371032
1730865950.9836621,-2.0869340896606445,1.0083929300308228,-9.737180709838867,-0.16647632670945522,-0.3260901496719228,-10.641523030133897,0.8879486913276001,1.0082114549933052,0.8741212667930871
1730865951.0336392,-2.0869340896606445,1.0083929300308228,-9.737180709838867,-0.15011017057671705,-0.34215831878301545,-10.63556032687627,0.8886916036591335,1.0117464396553113,0.83436748127455
1730865951.0336392,-2.0562994480133057,1.051559329032898,-9.758321762084961,-0.13779181340691998,-0.3542010036282535,-10.630142953366532,0.8886948786512916,1.011764742013984,0.8340557012957439
1730865951.083622,-1.9736506938934326,1.1039338111877441,-9.822582244873047,-0.13223238174581933,-0.36154595287524416,-10.624877503541429,0.8989968343249353,1.018804718570931,0.8743785602477909
1730865951.133597,-1.9736506938934326,1.1039338111877441,-9.822582244873047,-0.13523680129471338,-0.3640355048977616,-10.619504137394067,0.9028821662309883,1.0229277479261991,0.8345206521359355
1730865951.133597,-1.9302725791931152,1.1401413679122925,-9.887577056884766,-0.14754548453401797,-0.36201028477465846,-10.61397598351229,0.9029030947705182,1.0229483901475986,0.8342206171874481
1730865951.1835477,-1.8705997467041016,1.1601102352142334,-9.892549514770508,-0.16886501392898157,-0.35621762422316516,-10.608474504243617,0.9072178390237648,1.029142414693987,0.8744665118178049
1730865951.233644,-1.852792739868164,1.1702474355697632,-9.919771194458008,-0.1980091954875553,-0.34768857591671753,-10.603374364831492,0.9112025043911208,1.0336373219604564,0.8348584578427666
1730865951.2836158,-1.850260853767395,1.1229956150054932,-9.914119720458984,-0.23310471666497107,-0.3375979291605087,-10.599169464601534,0.9120234700867771,1.0406739952150421,0.874637609553876
1730865951.3335752,-1.8229795694351196,1.0839333534240723,-9.910886764526367,-0.27185617216377744,-0.32709292065032364,-10.596373882189821,0.9140170365753207,1.0447207231887354,0.8350638528269652
1730865951.3836124,-1.7985893487930298,1.0479875802993774,-9.888747215270996,-0.3118174041050181,-0.317117501096843,-10.595420235396515,0.9216713570788435,1.0539331423771632,0.874847779026836
1730865951.4335694,-1.7535266876220703,0.9978740811347961,-9.872357368469238,-0.3506054549331859,-0.3082900406842847,-10.596573780599485,0.9311671468262585,1.0566446737946797,0.874746136709394
1730865951.4836032,-1.7225205898284912,0.9698752164840698,-9.863229751586914,-0.3860461746330147,-0.3008581006005527,-10.599879983473745,0.935641047475928,1.0593413667839642,0.8347882967048387
1730865951.533507,-1.668954610824585,0.9353963732719421,-9.8529052734375,-0.4162695874894706,-0.2947185728533981,-10.605158466131613,0.939079553621421,1.0612744330727584,0.7687573430051992
1730865951.583536,-1.6359572410583496,0.9215210676193237,-9.852986335754395,-0.43976935073408974,-0.2894881360075904,-10.612039223273216,0.9414699699510362,1.062489313321486,0.6756507912552889
1730865951.6334298,-1.6144894361495972,0.9229671359062195,-9.850465774536133,-0.4554397502817231,-0.2846086498738266,-10.620024182476499,0.9257432776844399,1.0697771097100879,0.8747691904207947
1730865951.6834772,-1.6067534685134888,0.9610587358474731,-9.857247352600098,-0.46260741733484817,-0.27947658980252577,-10.6285577649864,0.9241300636891466,1.072266307505514,0.8348423107908811
1730865951.7344527,-1.5976148843765259,1.0084751844406128,-9.867647171020508,-0.46105921516590553,-0.2735878635808608,-10.637095738729045,0.9209269266560818,1.0871504533577845,0.8742867525806082
1730865951.7843916,-1.6114647388458252,1.0301212072372437,-9.874835968017578,-0.4510503147709364,-0.26666780097994564,-10.645165098901307,0.9175348792491003,1.0935266415689768,0.8339641620941906
1730865951.8344188,-1.5975745916366577,1.018343448638916,-9.889068603515625,-0.43328058588137,-0.2587313623360614,-10.652407642625533,0.9130271312581254,1.0992555279289853,0.7668480744449029
1730865951.8845086,-1.6075562238693237,0.9683912396430969,-9.893061637878418,-0.40883363856717775,-0.2500348632897762,-10.65860226737955,0.9188612449860104,1.0982929362272984,0.8745762137907024
1730865951.934418,-1.626556634902954,0.905511736869812,-9.897462844848633,-0.3790867493122014,-0.24093563744649524,-10.663665052768355,0.9165526871476187,1.1013499085454437,0.8347473924538908
1730865951.9844997,-1.6508206129074097,0.8503293991088867,-9.890620231628418,-0.34561803691469417,-0.23172367934687826,-10.667627876019774,0.913867741247418,1.1169537007008201,0.874486407119161
1730865952.034278,-1.668717384338379,0.7852784395217896,-9.882685661315918,-0.31012227248367014,-0.22249454125992543,-10.670600347173846,0.9105496236462429,1.1240578368505416,0.834646750070247
1730865952.0843859,-1.668717384338379,0.7852784395217896,-9.882685661315918,-0.2743204422481334,-0.2131038574106631,-10.672726768307978,0.9101672849217667,1.1315456855342478,0.8745219337269046
1730865952.0843859,-1.666137456893921,0.7490000128746033,-9.847501754760742,-0.2398513018962149,-0.20321127031621627,-10.674148134677894,0.9101524053079995,1.131585710627473,0.8743775095111022
1730865952.134316,-1.6244356632232666,0.7482098340988159,-9.854060173034668,-0.2081502290679859,-0.19238238304040778,-10.674969640490822,0.9071534443099615,1.1387248483930563,0.8346041233052051
1730865952.1843207,-1.6244356632232666,0.7482098340988159,-9.854060173034668,-0.18033423791085948,-0.18019842345589315,-10.675244069987045,0.9036263955656578,1.1454977862459155,0.767547780763535
1730865952.1843207,-1.5937052965164185,0.7874472141265869,-9.882034301757812,-0.15712491779283594,-0.16635555456821957,-10.67499042666861,0.9036059691792273,1.1455333836832968,0.7671094641003188
1730865952.2342668,-1.5707736015319824,0.8576775789260864,-9.910017013549805,-0.1388274261175545,-0.15076357120793904,-10.674243587239449,0.9088249380745952,1.1366459067499435,0.8748884184979595
1730865952.2842512,-1.587791085243225,0.9232023358345032,-9.935588836669922,-0.12535818676029772,-0.13364135560996934,-10.673109000268912,0.9110765808923849,1.1475668834606862,0.8745687669464004
1730865952.3342435,-1.5839658975601196,0.9715844392776489,-9.951668739318848,-0.11631971923445064,-0.11557457254547393,-10.67179451030896,0.9110525256005161,1.1522104520365188,0.8345652294896231
1730865952.3842833,-1.6285433769226074,0.9795622229576111,-9.949352264404297,-0.1111159707350216,-0.09748728863739636,-10.670600926782996,0.9076705244054204,1.1471367328128736,0.8743106062239165
1730865952.4342704,-1.6731714010238647,0.9589577913284302,-9.931402206420898,-0.10908496584595673,-0.08050958070857271,-10.669870052346512,0.906062727527859,1.148650809646485,0.8341169254437019
1730865952.4843504,-1.7608195543289185,0.9085907340049744,-9.892904281616211,-0.10963482384821414,-0.06577035983820667,-10.669902446656927,0.9041769117993929,1.1499843416465172,0.7670401036225603
1730865952.5342863,-1.8198007345199585,0.8613375425338745,-9.845653533935547,-0.11236700186914576,-0.05417535302840259,-10.67086516458891,0.9070334937138219,1.1617612643235822,0.8742348960172279
1730865952.5842535,-1.8743910789489746,0.8098325729370117,-9.812735557556152,-0.11715032844387563,-0.046234850015595644,-10.67271712446112,0.9061785196632222,1.1654130627530224,0.8341506061041976
1730865952.634168,-1.8814746141433716,0.8248398900032043,-9.78154468536377,-0.12411006364914108,-0.041991358826158745,-10.67518190790721,0.9074446806687823,1.177153666142886,0.8742830481639959
1730865952.6841817,-1.8178749084472656,0.9012826681137085,-9.799697875976562,-0.13351758213734075,-0.04108275406132812,-10.677785895890807,0.9069694004845291,1.183605839799497,0.8344217967742531
1730865952.7341259,-1.7743693590164185,0.9895063042640686,-9.821540832519531,-0.14559906919963733,-0.04293939842898371,-10.679960917835741,0.9055479898098826,1.1858244686514399,0.8742285092857931
1730865952.7841399,-1.7426655292510986,1.0704177618026733,-9.879551887512207,-0.1603398944297682,-0.0470360160803302,-10.681188785605258,0.9043128919228437,1.1911385479394325,0.834171574703623
1730865952.834016,-1.7173658609390259,1.144403100013733,-9.899643898010254,-0.1773820199230656,-0.05308365155353856,-10.681141286707973,0.9044083146119937,1.2042206932497976,0.8742292286005642
1730865952.884022,-1.7238008975982666,1.201750636100769,-9.902915954589844,-0.1960435508273971,-0.061103625879439454,-10.67975836355386,0.903145173207665,1.2117286221010435,0.8340123346694627
1730865952.9340377,-1.7645459175109863,1.1820310354232788,-9.86949348449707,-0.21543162083677375,-0.07138382897145826,-10.677226676054241,0.9088935870577309,1.2212142372477914,0.8751825066277064
1730865952.9839852,-1.7645459175109863,1.1820310354232788,-9.86949348449707,-0.23460623438198036,-0.08433451860229119,-10.67387730180787,0.9118312612262651,1.2233485031585,0.8758824640690059
1730865952.9839852,-1.83077871799469,1.1543887853622437,-9.82955265045166,-0.25273832561011433,-0.10029663569539968,-10.670066888868458,0.9118378424641596,1.22337184809989,0.8757307768074988
1730865953.0339887,-1.83077871799469,1.1543887853622437,-9.82955265045166,-0.2692223691096508,-0.11938517170149218,-10.66608981791431,0.9126417351742802,1.2272745656203228,0.8359758942711987
1730865953.0339887,-1.8594506978988647,1.0799541473388672,-9.79504680633545,-0.28373023959981114,-0.1414051553817804,-10.66213056194848,0.9126442394783395,1.2272947676637767,0.8356896343022073
1730865953.0839276,-1.8594506978988647,1.0799541473388672,-9.79504680633545,-0.2962004366184767,-0.16582246284455898,-10.658250629690762,0.9127397440307474,1.2308042615471777,0.7699366010631032
1730865953.0839276,-1.8404059410095215,1.018115758895874,-9.759230613708496,-0.30677584033317196,-0.19178107189837762,-10.654399358949913,0.9127381590399744,1.2308236868733353,0.7694729083318578
1730865953.1339393,-1.7897979021072388,0.9865586757659912,-9.764646530151367,-0.3157054450906023,-0.21816756987900493,-10.650437428235383,0.9120747720174203,1.233872196774189,0.6769876721066176
1730865953.1840162,-1.698754072189331,1.0258070230484009,-9.786855697631836,-0.32321453602326683,-0.24371544945420212,-10.64617711166822,0.9115224033602154,1.2392536353081771,0.8759594597365701
1730865953.2339149,-1.6195176839828491,1.096706748008728,-9.849236488342285,-0.3293632169093035,-0.26717017349764133,-10.64145700576693,0.9106314681128586,1.242657644315119,0.8362375393046776
1730865953.2839737,-1.5690386295318604,1.1863417625427246,-9.894932746887207,-0.3339445799540788,-0.2875178090555036,-10.636245793392767,0.9088700420838008,1.2454211423197996,0.7683585089813684
1730865953.3338645,-1.5690386295318604,1.1863417625427246,-9.894932746887207,-0.3364847208211894,-0.3041884938875892,-10.630720747927501,0.9114744012188393,1.2569556691071193,0.8770404973862198
1730865953.3338645,-1.5596836805343628,1.2637195587158203,-9.941064834594727,-0.3363595979765585,-0.3171315616969856,-10.62526659454803,0.9114702501813594,1.2569863788513362,0.8768964383774998
1730865953.384044,-1.59630286693573,1.3051685094833374,-9.960204124450684,-0.3329738824278271,-0.32676837776970236,-10.620412214363931,0.9102963944414768,1.2621234008562805,0.8373483110443671
1730865953.4338489,-1.6284863948822021,1.3273265361785889,-9.94701862335205,-0.3259344762357809,-0.33389409129344083,-10.616751727427024,0.9083239797445815,1.2663695504194508,0.7720884680711232
1730865953.4840422,-1.6553434133529663,1.316172480583191,-9.920696258544922,-0.3151783842801672,-0.33954296608299583,-10.614847749748863,0.9116683083188816,1.2679077814494721,0.8766844800251309
1730865953.5338588,-1.6599690914154053,1.2806527614593506,-9.860176086425781,-0.3010235654389771,-0.3448050062120056,-10.615108217249004,0.9147792565745843,1.2837664402595066,0.8767725594357373
1730865953.583919,-1.6765570640563965,1.1801283359527588,-9.819402694702148,-0.2841305849464401,-0.35061510758741654,-10.617667556606975,0.9148324575260495,1.289904763866099,0.8369286715977254
1730865953.6338382,-1.6720153093338013,1.0732054710388184,-9.787087440490723,-0.2654033950286593,-0.35754324448435115,-10.622318279161325,0.9167588601530485,1.2961341962714814,0.8767185436464717
1730865953.6838663,-1.6663193702697754,0.9791675806045532,-9.763050079345703,-0.24586716484404492,-0.3656272745890272,-10.628523641067083,0.9168810111322668,1.3017550784314238,0.8370750868672924
1730865953.7339408,-1.6663193702697754,0.9791675806045532,-9.763050079345703,-0.22654635603236092,-0.37432455192321923,-10.635504913049685,0.916414355867994,1.3064716134421268,0.7707771849989793
1730865953.7339408,-1.6707918643951416,0.9239218235015869,-9.750232696533203,-0.20836501797286988,-0.38263038930853965,-10.642369850739133,0.9164098702926029,1.3064969654615497,0.7703015211085203
1730865953.7837968,-1.6707918643951416,0.9239218235015869,-9.750232696533203,-0.1920850266955293,-0.3893053105646013,-10.648243859361209,0.920991183825336,1.302332775494042,0.8767400064118864
1730865953.7837968,-1.6994575262069702,0.9047927856445312,-9.781537055969238,-0.17828117757802642,-0.39310664669309764,-10.652380152800832,0.9209979699691749,1.3023516340135408,0.8765505370298845
1730865953.8338177,-1.7137017250061035,0.9450106620788574,-9.824131965637207,-0.16734868653446594,-0.392981844737399,-10.654255177128958,0.9217369911783221,1.3044947723233424,0.8369568076444363
1730865953.8838098,-1.7137017250061035,0.9450106620788574,-9.824131965637207,-0.15952851907699922,-0.38822315295036314,-10.653645960735576,0.9270365880863178,1.3135875811978537,0.8767192077203326
1730865953.8838098,-1.7199853658676147,1.0237822532653809,-9.900525093078613,-0.15492285427857883,-0.378574488926018,-10.650660531576396,0.9270505831204058,1.3136144923185773,0.8765527254556017
1730865953.933771,-1.7121604681015015,1.109671950340271,-9.941783905029297,-0.15349371139715176,-0.3642953045331742,-10.645727232288827,0.9332733524529846,1.3192595325490584,0.8768102425398461
1730865953.9838536,-1.7125602960586548,1.1412822008132935,-9.991416931152344,-0.15506024356288853,-0.3461868216791841,-10.639567218316326,0.9363824321377662,1.3224562117600231,0.8370025923052926
1730865954.033785,-1.7383090257644653,1.1559922695159912,-9.991555213928223,-0.15931100670508241,-0.3255348638291732,-10.633130462954075,0.9390893093616608,1.3248057119552141,0.7708696307875369
1730865954.0837812,-1.7700742483139038,1.0934906005859375,-9.966474533081055,-0.16584709667514622,-0.3039258360446639,-10.627467108440769,0.9324694025618481,1.3336391530583527,0.8765830185204855
1730865954.1337168,-1.7931220531463623,1.0574482679367065,-9.924484252929688,-0.17425224951239152,-0.28297070454362655,-10.623547077849317,0.9325103982472472,1.336916314383012,0.8368654690242974
1730865954.1838078,-1.8051255941390991,0.9757516384124756,-9.861323356628418,-0.18415452218734285,-0.2640252304875462,-10.622074565089477,0.9351842286709242,1.3516333898147956,0.876552201177407
1730865954.233678,-1.8243852853775024,0.909440279006958,-9.807530403137207,-0.19525148638264644,-0.2479817030720446,-10.623347547876104,0.935687275587237,1.3585524671057203,0.8368640608402264
1730865954.2837088,-1.831785798072815,0.8526820540428162,-9.77783489227295,-0.20730539790406666,-0.23516332311076266,-10.627198299471987,0.9351519958910088,1.3558302503623207,0.8766064728334816
1730865954.3335953,-1.7967559099197388,0.8678164482116699,-9.767488479614258,-0.2201186550867743,-0.22533785921019464,-10.63303547118056,0.9347707695821048,1.3590601661578523,0.8368544229545795
1730865954.3836603,-1.7605763673782349,0.9291214346885681,-9.799591064453125,-0.23348083346776766,-0.21786754858817275,-10.6399815526436,0.9358741582229051,1.374239924404745,0.8765190822546663
1730865954.433618,-1.710945725440979,1.0032237768173218,-9.818702697753906,-0.2470940797008855,-0.21196833095957732,-10.647067680600836,0.9353497352066195,1.380480937592585,0.8366859402685312
1730865954.4836576,-1.7012803554534912,1.053971767425537,-9.838756561279297,-0.26051899612565765,-0.20698321402815753,-10.653424379868063,0.9367154201960249,3.0345516765288103,0.8765941797991328
1730865954.5335536,-1.6881037950515747,1.0379717350006104,-9.849413871765137,-0.27318231607218957,-0.20255196763018182,-10.658410182965424,0.9361665002785419,3.6249034241194047,0.8367582541896722
1730865954.5836434,-1.7113316059112549,0.9963055849075317,-9.854170799255371,-0.28445094456441233,-0.19861095198989506,-10.661660079524,0.9375680105597839,4.2094117134594216,0.8764961263484322
1730865954.6335702,-1.745736837387085,0.9328804016113281,-9.85682487487793,-0.29374649376410605,-0.19525090946859736,-10.66307164252255,0.9370118365866135,4.907729879492929,0.8364063234923081
1730865954.683587,-1.7479357719421387,0.8603179454803467,-9.831171989440918,-0.30066122700495823,-0.19252638078751416,-10.662750893749772,0.9357141989948556,5.605570325258496,0.7697145387583547
1730865954.733575,-1.7479357719421387,0.8603179454803467,-9.831171989440918,-0.30502549244353827,-0.19031313115019238,-10.660934715197197,0.9380369949716719,1.7266609278851976,0.876713485631065
1730865954.733575,-1.7491909265518188,0.843873918056488,-9.839099884033203,-0.3069015104596925,-0.18827749782667313,-10.657917609693946,0.9380331869774496,1.7240047722767127,0.8765273624456398
1730865954.7836032,-1.719849944114685,0.8954249024391174,-9.856204986572266,-0.3065270058982894,-0.18596087369556957,-10.654014244500239,0.9371097317778501,1.3453144396191772,0.8367696654389454
1730865954.8335345,-1.69038987159729,1.013269066810608,-9.893735885620117,-0.304235160395943,-0.1829412442209145,-10.64956129510859,0.9418603396448311,2.5309378742696107,0.8766275847037714
1730865954.8834958,-1.6407148838043213,1.1782209873199463,-9.94733715057373,-0.3003621634704179,-0.1790477759389463,-10.644943453449093,0.9460074629213724,2.967784249411684,0.8766611270252064
1730865954.9335127,-1.5968351364135742,1.3148117065429688,-9.980710983276367,-0.2951607609875628,-0.17458220408839947,-10.640626460156088,0.9478712333280482,3.2814914429821305,0.8367867781524824
1730865954.9834745,-1.5788203477859497,1.3853707313537598,-9.986942291259766,-0.2887460355668851,-0.17043706776239703,-10.637163796820804,0.9490068449351886,3.594820913523655,0.7703599021768966
1730865955.0333755,-1.59587824344635,1.345052719116211,-9.986001014709473,-0.28110165402889564,-0.1680039035524586,-10.635146003968876,0.945870456288111,3.001511396174717,0.8767766095491368
1730865955.0834413,-1.6471034288406372,1.241713523864746,-9.92891788482666,-0.2721607753216191,-0.16885325670432855,-10.635097421496594,0.9454474530676714,3.077913920006269,0.836742329251838
1730865955.1334794,-1.7504501342773438,1.1041513681411743,-9.85863208770752,-0.2619460394545125,-0.17428387704321802,-10.63734352917595,0.9443519537497763,3.1538257219213586,0.7699417739023269
1730865955.1834555,-1.8304283618927002,0.9711137413978577,-9.74976921081543,-0.2507269798229814,-0.1849063510663552,-10.641872861216505,0.9509614090808495,3.292091915586151,0.8767155493196116
1730865955.2333221,-1.9156988859176636,0.9128645658493042,-9.670672416687012,-0.23913098900126264,-0.2004096350615106,-10.648231945375723,0.9515144389835603,3.3869735189041807,0.8368563003463853
1730865955.2834413,-1.9563443660736084,0.903839647769928,-9.61693286895752,-0.22815045619300345,-0.2195896639935963,-10.655504850798128,0.9514825189996791,3.4817428315559336,0.7700422024393896
1730865955.3332965,-1.9662718772888184,0.9583784937858582,-9.625625610351562,-0.21903232661038022,-0.24062480235668274,-10.662416621021823,0.9508932480324731,3.5752826484014197,0.6771120254171685
1730865955.3834836,-1.923431158065796,1.0500279664993286,-9.705564498901367,-0.21307312856723132,-0.2614969874338683,-10.667563766498745,0.9576722434714647,3.5412075735256177,0.8765325574458899
1730865955.4342368,-1.8367159366607666,1.1513241529464722,-9.823517799377441,-0.2113597958348378,-0.2804286205468596,-10.66973303333543,0.9586194573855329,3.614871706084744,0.8355065863317286
1730865955.4842105,-1.7143102884292603,1.2665013074874878,-9.948857307434082,-0.21450628297255203,-0.296227123891892,-10.668226592568155,0.962412225835399,3.8814833675718057,0.8768072446822706
1730865955.5342638,-1.5934988260269165,1.3747628927230835,-10.055098533630371,-0.22244301511531261,-0.3084780066328744,-10.663088099581584,0.9638984865320794,4.027438536016486,0.836789025145149
1730865955.5842412,-1.4835880994796753,1.4298890829086304,-10.111140251159668,-0.23431798502981038,-0.3175724776358647,-10.655151660822252,0.9654036889721138,4.154007622216551,0.8767524105520267
1730865955.6342456,-1.443881630897522,1.4316983222961426,-10.103753089904785,-0.2485532979308656,-0.324568750696833,-10.645892506363907,0.9664138298315811,4.303521991976315,0.8367148029418892
1730865955.6842623,-1.4952565431594849,1.3775787353515625,-10.049909591674805,-0.26307761740010355,-0.33090469782549176,-10.637113292919105,0.968110579653779,4.368702088631861,0.8706340887928322
1730865955.7341847,-1.6399167776107788,1.2702287435531616,-9.953142166137695,-0.27572388726187413,-0.33802232777099506,-10.630547306396231,0.9683471260566064,4.464353905667849,0.8293333593343288
1730865955.7842758,-1.8158236742019653,1.1555479764938354,-9.814238548278809,-0.28472086378021955,-0.34699267426797054,-10.62747526825277,0.9692360416645983,4.728044640018251,0.8645959773436607
1730865955.8341494,-1.987913966178894,1.0372942686080933,-9.684324264526367,-0.28913947449252336,-0.3582316104875094,-10.62843212042237,0.9695701664343217,8.022357735216287,0.8607455075968219
1730865955.8841746,-2.1046435832977295,0.9711049795150757,-9.589987754821777,-0.2891451163874755,-0.3713777821685346,-10.633064037456952,0.9690199119451067,9.416023318363209,0.8180376329792859
1730865955.9341092,-2.1483964920043945,0.9394667744636536,-9.553539276123047,-0.28597047775112716,-0.3853629807602327,-10.640182096988429,0.9677498918243691,10.807940499116754,0.7487188691833289
1730865955.9841945,-2.121264934539795,0.9565346837043762,-9.586009979248047,-0.2816171300072434,-0.39865188515834205,-10.648014641257536,0.9657682507919283,12.19957356798261,0.6526988029160854
1730865956.0340698,-2.039263963699341,0.9619608521461487,-9.645097732543945,-0.27837638248053553,-0.40957366111280624,-10.654598252010517,0.97007658533324,6.632665647694151,0.8581815658091673
1730865956.0840585,-1.9312196969985962,0.9948458671569824,-9.719782829284668,-0.2783047508531939,-0.4166420318769771,-10.658198233930687,0.9692558264933909,6.629618761186439,0.817013100903343
1730865956.1340225,-1.8107657432556152,1.0069457292556763,-9.799466133117676,-0.28278454682052107,-0.4187884002897863,-10.657644847684224,0.9677398369846376,6.625545633966375,0.7494811157149558
1730865956.184022,-1.7375962734222412,1.0039891004562378,-9.883305549621582,-0.2922626592647308,-0.41547909712099285,-10.652522658373513,0.9654998155681872,6.620415539141746,0.6550787060681458
1730865956.2339506,-1.6901278495788574,0.9899908900260925,-9.963652610778809,-0.3062140508790587,-0.40671530640207987,-10.643211285368544,0.9769327934705359,6.624912259035535,0.85432098013586
1730865956.2840056,-1.6511867046356201,1.0167818069458008,-10.022025108337402,-0.3233115348666379,-0.39294890313867203,-10.630802903688652,0.9772876862120364,6.6215881546564805,0.813067187147874
1730865956.3338845,-1.626352071762085,1.0566904544830322,-10.058816909790039,-0.341714833832524,-0.37498280165839615,-10.616922671679486,0.9830853322475467,6.631412445733714,0.8560148645271606
1730865956.3839247,-1.6089198589324951,1.1275053024291992,-10.08283519744873,-0.35938153179855614,-0.3539059374339876,-10.603482648898835,0.9839127524682276,6.6313216553727425,0.8161249648495617
1730865956.433835,-1.548673152923584,1.161179542541504,-10.08017635345459,-0.37433493706488585,-0.3310532413249013,-10.592412420230504,0.9917658661518213,6.6354512798271745,0.856577197879945
1730865956.4838657,-1.5168516635894775,1.1840696334838867,-10.051786422729492,-0.3848483838804751,-0.307941133790668,-10.58540580713,0.997841987071417,6.639860736495794,0.864081810354603
1730865956.533793,-1.4813148975372314,1.1318827867507935,-9.987784385681152,-0.3895467302446121,-0.2861359929371489,-10.583703403955408,1.0008824482846244,6.64155975159554,0.8281548824850312
1730865956.5838237,-1.4938756227493286,1.0512200593948364,-9.905617713928223,-0.3874690052380433,-0.2670485445425074,-10.587921633117148,1.002975681860114,6.642580385856907,0.7653688033808962
1730865956.6337664,-1.5253958702087402,0.9455553293228149,-9.82075309753418,-0.37813083355817256,-0.2516912688366688,-10.597946873076708,1.0040998548694364,6.642947436984716,0.6766958630086867
1730865956.683823,-1.6069215536117554,0.8572342395782471,-9.72569751739502,-0.3615953651437355,-0.24047494276133047,-10.612917687292562,1.0002979310452473,6.644305934539168,0.8658736274270116
1730865956.7337284,-1.7038275003433228,0.803158164024353,-9.66273307800293,-0.3385397086781794,-0.2331234027472191,-10.631305059456453,1.0005176019603594,6.645017407429941,0.8272235548651882
1730865956.7837372,-1.7038275003433228,0.803158164024353,-9.66273307800293,-0.3102705396464896,-0.22874805709142723,-10.6510937005132,1.0051917110316628,6.651218794390846,0.8708148171383074
1730865956.7837372,-1.8090814352035522,0.8006678223609924,-9.635173797607422,-0.27863078147411174,-0.22606408319436933,-10.670055095029063,1.0051992411154267,6.65123130083889,0.8706837720175507
1730865956.8336544,-1.8090814352035522,0.8006678223609924,-9.635173797607422,-0.24581242613659882,-0.2236662489044116,-10.686049321513277,1.0096125289633997,6.646464488089762,0.8749727252300015
1730865956.8336544,-1.8927173614501953,0.8072279691696167,-9.634767532348633,-0.21414369087755963,-0.22026818113024585,-10.697272872915033,1.0096247032671262,6.646455820471798,0.8747993070527941
1730865956.883653,-1.9440635442733765,0.8602471947669983,-9.668485641479492,-0.1858944825914185,-0.21486966422124523,-10.702427080229825,1.011099920275737,6.644973499638047,0.8371793812722782
1730865956.9336395,-1.9440635442733765,0.8602471947669983,-9.668485641479492,-0.16311548434043,-0.20686641971510436,-10.700817536113576,1.0121493579145917,6.642956529419562,0.7726554880543753
1730865956.9336395,-1.9826576709747314,0.9154075980186462,-9.733817100524902,-0.1474942688980811,-0.196101082068919,-10.692386191780509,1.0121558744189536,6.642938947726218,0.7720533100568606
1730865956.9837236,-1.9826576709747314,0.9154075980186462,-9.733817100524902,-0.14022712014924205,-0.18284657091419781,-10.677682154535105,1.0132187479607344,6.6441377311119565,0.8782179781337852
1730865956.9837236,-1.9989776611328125,0.9727869033813477,-9.810914993286133,-0.14194191722478505,-0.16773808810332896,-10.657783361799147,1.0132256075624269,6.644130610199856,0.8780793555215735
1730865957.033659,-1.9968469142913818,1.0430967807769775,-9.891023635864258,-0.1526819086785381,-0.1516893677573421,-10.634193425936544,1.0142713025857166,6.642663232809241,0.8400609530646005
1730865957.083661,-1.9078164100646973,1.1033395528793335,-9.982389450073242,-0.1719224129944811,-0.13582627300838496,-10.608748609330295,1.014926803031275,6.6408111539739805,0.7747669237625474
1730865957.1336153,-1.811535358428955,1.1505705118179321,-10.037453651428223,-0.1985748869303554,-0.12142651568658783,-10.583526079234705,1.0171465491808376,6.6421197294898935,0.8768758040451677
1730865957.1835968,-1.811535358428955,1.1505705118179321,-10.037453651428223,-0.2309890339049919,-0.10982174249844753,-10.560701107694566,1.0177621907384438,6.640950042967321,0.837447181542649
1730865957.1835968,-1.684177279472351,1.158101201057434,-10.068291664123535,-0.2670328533067374,-0.10224873421170268,-10.542335793643115,1.017764445631136,6.640940999332798,0.8370828690786376
1730865957.2335598,-1.684177279472351,1.158101201057434,-10.068291664123535,-0.30425959335148867,-0.09968742084266535,-10.530156155476446,1.017711237789038,6.639515112711899,0.7715469859247857
1730865957.2335598,-1.607757568359375,1.1402833461761475,-10.083259582519531,-0.3401065241639122,-0.10273809582825541,-10.525390031393748,1.017708080197531,6.639503779754679,0.7709720365736006
1730865957.2836456,-1.5794684886932373,1.0847864151000977,-10.054425239562988,-0.3721007586050489,-0.11154992117575149,-10.528682093838745,1.0168120901609425,6.637812857063387,0.6791127704691393
1730865957.3335211,-1.5794684886932373,1.0847864151000977,-10.054425239562988,-0.398053294751715,-0.1257884829476726,-10.540066264316572,1.0229130976599288,6.616018353342249,0.876846509399536
1730865957.3335211,-1.6266781091690063,1.0333889722824097,-10.00820255279541,-0.41623992256620745,-0.14465686168535594,-10.558985118260612,1.0229176339470551,6.615972950260419,0.8766515575294455
1730865957.3835816,-1.6266781091690063,1.0333889722824097,-10.00820255279541,-0.4255692469283201,-0.166980225708378,-10.584354541368786,1.027773752245998,6.5893213689841135,0.8770290403743805
1730865957.3835816,-1.7076492309570312,0.985153317451477,-9.948284149169922,-0.42569219841559625,-0.1913289068274544,-10.614667298608484,1.027783300343965,6.589230573102443,0.8768304191518829
1730865957.4335127,-1.7076492309570312,0.985153317451477,-9.948284149169922,-0.41702070342812964,-0.21615184548856994,-10.648121481415771,1.0285213212232565,6.57697733352356,0.8372883161611
1730865957.4335127,-1.7534598112106323,0.9991579055786133,-9.872818946838379,-0.40065677129724453,-0.2399141490304416,-10.682757072289881,1.02852286791706,6.576887807450628,0.8369104090922189
1730865957.4836228,-1.761965274810791,1.019677996635437,-9.80775260925293,-0.3782418382836519,-0.261244834059888,-10.716575761148643,1.0282683719268115,6.564084598678521,0.770921870395211
1730865957.5335631,-1.7332777976989746,1.0601274967193604,-9.740081787109375,-0.3517513456936558,-0.2790798222606369,-10.747623579217358,1.0271044863651568,6.550536940630642,0.6778612007826095
1730865957.5835302,-1.7332777976989746,1.0601274967193604,-9.740081787109375,-0.32326029879765594,-0.2927622453357385,-10.774065459812935,1.0250935229187168,6.536245243499461,0.5576740513185222
1730865957.5835302,-1.7360866069793701,1.0578792095184326,-9.706241607666016,-0.2947232066659017,-0.302066397974261,-10.794299098418003,1.0250758279880543,6.536137979369273,0.5566952744899509
1730865957.633568,-1.7360866069793701,1.0578792095184326,-9.706241607666016,-0.2678238855134898,-0.3071411229027879,-10.807091744057495,1.0308161042237374,6.569022594446042,0.8767593507338108
1730865957.633568,-1.7078824043273926,1.0534155368804932,-9.675688743591309,-0.24389526881137874,-0.3084106814900505,-10.811681405773053,1.0308182094838327,6.568974372305656,0.8765639805404064
1730865957.683474,-1.7233083248138428,1.0290294885635376,-9.678693771362305,-0.22387555517582836,-0.30647163707208647,-10.80781467880945,1.0308265892512933,6.561996740171702,0.8363570598127891
1730865957.733404,-1.7296462059020996,1.0342074632644653,-9.693284034729004,-0.20830282823457769,-0.3019964058925478,-10.795736538963478,1.0364201827668293,6.536572260311833,0.8766244033949488
1730865957.7834828,-1.7296462059020996,1.0342074632644653,-9.693284034729004,-0.1973589048720768,-0.29565790852789675,-10.776156346585328,1.0379436099224706,6.521952354571988,0.8363941877238045
1730865957.7834828,-1.7782323360443115,1.0552161931991577,-9.738544464111328,-0.19094364257698815,-0.2880932627569497,-10.7501947441607,1.0379504822435397,6.521871646481795,0.8361049497134733
1730865957.833414,-1.8271551132202148,1.1032934188842773,-9.756502151489258,-0.18877075553647105,-0.27990644214510235,-10.719311879381365,1.0389910058813472,6.506522368912677,0.7689197857336104
1730865957.8834038,-1.8970963954925537,1.1459044218063354,-9.80887222290039,-0.19048667863703428,-0.27170023613641436,-10.685223690490636,1.039558603877164,6.490493118773417,0.6751023785472763
1730865957.933347,-1.9201931953430176,1.1988476514816284,-9.833016395568848,-0.19577909924310408,-0.2641162824145243,-10.649805891725453,1.0392583633677146,6.514581013901709,0.8768550137471127
1730865957.983341,-1.93211030960083,1.2210768461227417,-9.855461120605469,-0.2044229821540897,-0.2578505308866189,-10.614981453982917,1.0394146138844527,6.507327043929119,0.8369638804433653
1730865958.0332818,-1.8952357769012451,1.1917591094970703,-9.863088607788086,-0.21624085579643368,-0.2536144445046587,-10.58259032010211,1.0445305176381234,6.506622759475465,0.8773788252943217
1730865958.0833924,-1.8952357769012451,1.1917591094970703,-9.863088607788086,-0.23100571854595375,-0.2520341275656027,-10.554252351329689,1.045920413174694,6.50055442018246,0.8376648063235312
1730865958.0833924,-1.8420480489730835,1.143674373626709,-9.883455276489258,-0.2483461122623421,-0.25352665660836715,-10.531250522319493,1.0459284976677519,6.500507277558551,0.8372726484738775
1730865958.1332362,-1.8420480489730835,1.143674373626709,-9.883455276489258,-0.2676945104386516,-0.25821045059836656,-10.514460915185898,1.0465313715441897,6.497702348379181,0.8770156577424794
1730865958.1332362,-1.7618697881698608,1.129366159439087,-9.8805570602417,-0.2882816847148836,-0.26588017597620106,-10.504331477903165,1.046537902942593,6.497658365413804,0.8768058140032452
1730865958.1833367,-1.7618697881698608,1.129366159439087,-9.8805570602417,-0.3091616881980842,-0.27604927426658976,-10.5008908454254,1.0469645294609418,6.491841019276998,0.8375768278367902
1730865958.1833367,-1.694387674331665,1.115341305732727,-9.905627250671387,-0.32926144595412477,-0.2880339170272381,-10.50378502211267,1.0469648097852275,6.491798518547599,0.8372158688665999
1730865958.2332082,-1.6100733280181885,1.094612956047058,-9.931663513183594,-0.3474417732237763,-0.30103937014246296,-10.512356017073161,1.0465725025268227,6.485265024873691,0.7718094098570414
1730865958.2832747,-1.5418109893798828,1.0807050466537476,-9.972339630126953,-0.3625368622967515,-0.3142281158853679,-10.525756549907104,1.0505093907837542,6.488783483732505,0.8763284409449124
1730865958.3331993,-1.499990701675415,1.0729589462280273,-10.015694618225098,-0.3733834363968795,-0.3267744762802921,-10.54307382119607,1.0529604829628474,6.477421545600377,0.8758330686519461
1730865958.383289,-1.4388550519943237,1.0682786703109741,-10.016959190368652,-0.3788851290440798,-0.33791934128311446,-10.563430907448183,1.0529818684895962,6.470729081322262,0.8356200782880451
1730865958.4332135,-1.4234479665756226,1.0768064260482788,-10.036955833435059,-0.3781089592572727,-0.34702700211593707,-10.586037112805908,1.056116959441038,6.473240616245437,0.8749982955077412
1730865958.4831707,-1.4432932138442993,1.1116139888763428,-10.005428314208984,-0.3703920055408591,-0.35364150122819715,-10.610182691829266,1.056708175867192,6.4677884132315056,0.8349159970450224
1730865958.5341525,-1.5085569620132446,1.1484904289245605,-9.962830543518066,-0.3554647577793715,-0.35754429316144987,-10.635193696522666,1.0563804824768366,6.461343608020528,0.7670571476760696
1730865958.5831633,-1.5824558734893799,1.1850098371505737,-9.87814998626709,-0.3335829152784384,-0.3588019158924832,-10.660357501513035,1.0570409591042202,6.460556190866759,0.8748903406400765
1730865958.6341417,-1.7026240825653076,1.1562330722808838,-9.797066688537598,-0.3056270039421473,-0.35776790585248514,-10.684836715497422,1.05647722077831,6.455256527935937,0.8341949252577306
1730865958.6841717,-1.8434793949127197,1.0966352224349976,-9.701960563659668,-0.27314190664513005,-0.35499776971822145,-10.70760614894397,1.0551874069258746,6.449125356858143,0.7669417301473201
1730865958.7341104,-1.9647480249404907,1.0394996404647827,-9.635427474975586,-0.23830909336234962,-0.351080941200003,-10.727445448647547,1.0532753674991475,6.442177333942404,0.6737468396149874
1730865958.7841659,-1.9647480249404907,1.0394996404647827,-9.635427474975586,-0.20381430324817232,-0.3464720220607467,-10.743012974242927,1.0593440296601238,6.447817108404903,0.8747622247550897
1730865958.7841659,-2.0362460613250732,0.9632866978645325,-9.589738845825195,-0.17257101920107373,-0.3414072053963185,-10.753004286256648,1.0593444536275907,6.447795850347593,0.8746325851564769
1730865958.8331368,-2.0362460613250732,0.9632866978645325,-9.589738845825195,-0.14736425053328564,-0.33590121063038486,-10.756339678892031,1.0592538803721592,6.443085699681221,0.8354880718360812
1730865958.8331368,-2.0580220222473145,0.9396564364433289,-9.595098495483398,-0.13053606430604994,-0.3297862018265318,-10.752312470366487,1.059251810350478,6.443046095966834,0.8350849053984336
1730865958.8841126,-2.0260348320007324,0.9472898840904236,-9.640368461608887,-0.12375977370534534,-0.3227878891573519,-10.740690307630905,1.0605211124121414,6.43151087477643,0.8747165755450773
1730865958.9341154,-1.9630955457687378,1.0134309530258179,-9.721592903137207,-0.12788795974568196,-0.31463499123783606,-10.721790652413773,1.0605217396881603,6.424667106044754,0.8340439613483821
1730865958.984118,-1.895137906074524,1.0919886827468872,-9.815616607666016,-0.14286130160934352,-0.3051961818026169,-10.696533795762761,1.0618450993675403,6.415639909337791,0.8753380218752935
1730865959.0339692,-1.8222602605819702,1.1473636627197266,-9.905097961425781,-0.1676909040993348,-0.29461997574463744,-10.66645275582621,1.0619041144895276,6.4071649954956165,0.8356735706204154
1730865959.0840662,-1.8222602605819702,1.1473636627197266,-9.905097961425781,-0.20055013802013433,-0.2834010932927114,-10.633613203489585,1.0649026836503483,6.398804772449166,0.875572534947346
1730865959.0840662,-1.7455374002456665,1.1361726522445679,-9.956357955932617,-0.23898630338171253,-0.27231241340741785,-10.600410821375736,1.0649085990707172,6.398744206735655,0.8754225825305645
1730865959.1339521,-1.700907826423645,1.1482601165771484,-10.000899314880371,-0.28018941249471174,-0.262237824868335,-10.569300925003109,1.065604078431727,6.387717288148793,0.8357361491215751
1730865959.1839936,-1.7207727432250977,1.1174755096435547,-10.020934104919434,-0.3212508103972871,-0.25399971661275134,-10.542561467263397,1.065549112751381,6.375949835764303,0.769182256609268
1730865959.233999,-1.7523990869522095,1.134559988975525,-9.988039016723633,-0.3594262716950637,-0.24823656672377875,-10.522109814732428,1.0647205303144998,6.390639003681352,0.8794275347152505
1730865959.2839696,-1.8286563158035278,1.1376848220825195,-9.950651168823242,-0.39241901108966204,-0.2453412224670208,-10.509333011652256,1.0637038538555739,6.385441138632335,0.8410051091969133
1730865959.3339097,-1.8731988668441772,1.1633003950119019,-9.883402824401855,-0.41862498912570517,-0.24546220584736023,-10.504936418944887,1.067334225663624,6.3734765838588965,0.882402920542524
1730865959.3839538,-1.87714421749115,1.2097761631011963,-9.829784393310547,-0.437261490904777,-0.24855560315887834,-10.508855491412131,1.0690741682644866,6.369205363509997,0.8847431276300258
1730865959.43391,-1.87714421749115,1.2097761631011963,-9.829784393310547,-0.4483341450436674,-0.254459498736341,-10.52027098501111,1.0684489050075856,6.364138350057377,0.8472905024770503
1730865959.43391,-1.8527741432189941,1.2444229125976562,-9.779115676879883,-0.45246976619271995,-0.26295434750353,-10.537742283380759,1.0684397174656166,6.364096150930759,0.84689612185099
1730865959.483997,-1.7791498899459839,1.2536530494689941,-9.761033058166504,-0.4506842659836699,-0.2737913173779785,-10.559413474777944,1.066675742842561,6.358266365484403,0.7822916698763943
1730865959.5338774,-1.7433054447174072,1.2289862632751465,-9.7857084274292,-0.44413610671951814,-0.2866957837562457,-10.583231688296998,1.0705250575987848,6.334993677581216,0.8873253654359485
1730865959.583923,-1.7001326084136963,1.2023404836654663,-9.813427925109863,-0.4339175673764954,-0.3013410303408067,-10.607173075486932,1.0695552614099568,6.323341697738953,0.8486793075414263
1730865959.6338441,-1.658395528793335,1.1724835634231567,-9.855494499206543,-0.42093208896298034,-0.3172981109431321,-10.629470227639963,1.0723525209562288,6.302013841949188,0.8901240309051147
1730865959.6838272,-1.589672565460205,1.1396898031234741,-9.88569164276123,-0.40584613153331867,-0.33399945233848677,-10.648791168205593,1.0742491069510296,6.281896991285846,0.888714750963771
1730865959.733828,-1.5081108808517456,1.1046420335769653,-9.922158241271973,-0.3890675908505842,-0.350738840651396,-10.664332485675152,1.0739082567449334,6.265692348377692,0.8487818132372309
1730865959.7838185,-1.4295170307159424,1.1049782037734985,-9.95274543762207,-0.37072856032970736,-0.3667075746528138,-10.675827724800577,1.072611405669248,6.248534200895442,0.7818999632011638
1730865959.833836,-1.4295170307159424,1.1049782037734985,-9.95274543762207,-0.3506994318260213,-0.3810693877300637,-10.683487235401735,1.0704266546897494,6.230577179783651,0.6889514197534504
1730865959.833836,-1.4276865720748901,1.1359474658966064,-9.951932907104492,-0.3286825068184158,-0.39306805309098636,-10.687881398415396,1.0704076554245245,6.230443635179794,0.6881813749046273
1730865959.8838398,-1.4276865720748901,1.1359474658966064,-9.951932907104492,-0.30437538067846037,-0.40213734711741583,-10.689789646974162,1.0742675177207455,6.260634532887496,0.8884595517710487
1730865959.8838398,-1.4848183393478394,1.1582427024841309,-9.916403770446777,-0.27763360795523706,-0.4079749598408234,-10.690051176145623,1.0742645756617375,6.260580100057229,0.8883062802941084
1730865959.9337692,-1.4848183393478394,1.1582427024841309,-9.916403770446777,-0.2485872482121786,-0.4105622229661221,-10.68943831658871,1.0765423297578844,6.226881792245611,0.8883967104270661
1730865959.9337692,-1.5948827266693115,1.1681678295135498,-9.850994110107422,-0.2177057035992883,-0.41013817482533166,-10.688559164740315,1.0765441682954007,6.226760516035301,0.8881921058333001
1730865959.9839382,-1.7093874216079712,1.1369863748550415,-9.79179573059082,-0.1858336376083795,-0.40713944866548624,-10.687783289177448,1.076549988696731,6.210491832981484,0.8482182084887541
1730865960.0338023,-1.7093874216079712,1.1369863748550415,-9.79179573059082,-0.1542048797308136,-0.40211354528764387,-10.687191883575013,1.0782540117575838,6.230793273930977,0.888030771775095
1730865960.0338023,-1.8193243741989136,1.1080282926559448,-9.737626075744629,-0.12437405348412399,-0.3956269314916019,-10.686587659216174,1.0782573540903109,6.230759245256898,0.8878376023589339
1730865960.083812,-1.8193243741989136,1.1080282926559448,-9.737626075744629,-0.09805311149820423,-0.3881943523262158,-10.685569037195984,1.0785960266400274,6.225589710694256,0.8479760815262827
1730865960.083812,-1.884267807006836,1.1029753684997559,-9.714607238769531,-0.07692193219769863,-0.38024155148559724,-10.68362746517867,1.0785972426202368,6.225558115952058,0.8476792133887614
1730865960.1337838,-1.9105286598205566,1.1115912199020386,-9.716594696044922,-0.06245699528261671,-0.3721022198547197,-10.680245728185682,1.0787376213355897,6.219412224051634,0.7809445574410896
1730865960.1837988,-1.9257912635803223,1.116139531135559,-9.744019508361816,-0.055795674399404555,-0.36403895741458336,-10.674993138148384,1.079761761306471,6.211389406308328,0.8877190896653997
1730865960.2337227,-1.9447674751281738,1.1083884239196777,-9.78177261352539,-0.0576408260374832,-0.35626754925020526,-10.667617373465642,1.0801797564670603,6.203512237476908,0.8477247331488967
1730865960.28374,-1.942165493965149,1.0875669717788696,-9.824285507202148,-0.06820229738393666,-0.34896361654358277,-10.65812663118854,1.0815980399380585,6.192198234420517,0.8875471228828672
1730865960.3336928,-1.9253342151641846,1.0885087251663208,-9.844911575317383,-0.08717828937320554,-0.34224792985713337,-10.646833571631563,1.0822031686855564,6.181714262196854,0.8474245372820531
1730865960.383695,-1.8715403079986572,1.0781447887420654,-9.8873929977417,-0.11376439551689087,-0.3361721711239193,-10.634338233873457,1.0825566800561774,6.170377962550509,0.7806308197229876
1730865960.4336674,-1.8715403079986572,1.0781447887420654,-9.8873929977417,-0.14668390695731118,-0.33072314220525234,-10.621457683862761,1.0825850152449341,6.158300289076009,0.6880024467625191
1730865960.4336674,-1.8378441333770752,1.0401469469070435,-9.917705535888672,-0.18426474101044552,-0.32583418245466955,-10.609123827568943,1.0825837628178934,6.158199086349339,0.687144761874443
1730865960.48365,-1.7672381401062012,1.032460331916809,-9.951805114746094,-0.22456302999014088,-0.32138482919212213,-10.598277630256282,1.0853672733190112,6.180332429532174,0.8838383270037694
1730865960.5337403,-1.7021394968032837,1.0370874404907227,-9.975760459899902,-0.26548040915399584,-0.31719918802282787,-10.589790559032412,1.085328813379185,6.175419529588684,0.8434358162226817
1730865960.5838394,-1.65043306350708,1.073177456855774,-10.0149564743042,-0.3048545159187779,-0.31307682588428676,-10.584416869596728,1.0905494912960392,4.7761475331454015,0.8788798034964103
1730865960.6337297,-1.65043306350708,1.073177456855774,-10.0149564743042,-0.3405679788364159,-0.30885879973901553,-10.582757960686038,1.091470820166595,4.292491534648612,0.8375631167263778
1730865960.6337297,-1.6014059782028198,1.14634108543396,-10.020565032958984,-0.3707013121241003,-0.3044940699251033,-10.585223042179123,1.0914744266574923,4.28899328887449,0.837169730959961
1730865960.6836996,-1.5850491523742676,1.22859787940979,-9.987622261047363,-0.39368496495612326,-0.3000987262256071,-10.591979693842426,1.0944709660754781,3.853507987057824,0.8758234189313163
1730865960.733647,-1.6096011400222778,1.2526041269302368,-9.945744514465332,-0.408407027556843,-0.2960122246844122,-10.60289985589382,1.095149838045602,3.3554752367822984,0.8344438298939557
1730865960.7837098,-1.6096011400222778,1.2526041269302368,-9.945744514465332,-0.41428960814424626,-0.29279568674201817,-10.617523696776784,1.0948043404127235,2.857124101317746,0.7666908424717742
1730865960.7837098,-1.665219783782959,1.2559261322021484,-9.857342720031738,-0.41134176258731325,-0.29112787716097005,-10.635067568154135,1.0947983571536266,2.8536720007735776,0.7661298039714756
1730865960.8336103,-1.665219783782959,1.2559261322021484,-9.857342720031738,-0.4001661509262767,-0.29165263411869746,-10.654470327385253,1.093442312785778,2.3571834935494684,0.672291574186437
1730865960.8336103,-1.7471556663513184,1.2027697563171387,-9.769553184509277,-0.3819101356921566,-0.29484734138378677,-10.67446045493747,1.0934288371112793,2.353568442254808,0.6715126852161629
1730865960.8836133,-1.8258168697357178,1.1118991374969482,-9.667461395263672,-0.35818616807106085,-0.3009101257945094,-10.693626848591256,1.0964528626571863,5.9449799388275615,0.8729453202495097
1730865960.9335773,-1.8258168697357178,1.1118991374969482,-9.667461395263672,-0.33097812881084376,-0.3096609906848574,-10.710477459298525,1.0960508605506847,6.294278888806629,0.8320467816585245
1730865960.9335773,-1.8815194368362427,1.0185134410858154,-9.608986854553223,-0.3024981229439314,-0.3205104763271178,-10.723526118811286,1.0960448785655947,6.296833771465905,0.8316489203798835
1730865960.9835758,-1.8734042644500732,0.954424262046814,-9.58102798461914,-0.27498527006775375,-0.3325086239732643,-10.731430160083828,1.1008817801599997,5.267074455959097,0.8689894862079677
1730865961.033538,-1.8734042644500732,0.954424262046814,-9.58102798461914,-0.25049724444319776,-0.34443280704210305,-10.733123786573714,1.1013170945585244,5.175781098990113,0.8276705835837515
1730865961.033538,-1.824157476425171,0.9195178747177124,-9.613903045654297,-0.2307217253859797,-0.3549223520012689,-10.72792703119717,1.101317969229242,5.175120725794146,0.8272762473108929
1730865961.0836797,-1.7324042320251465,0.9404146075248718,-9.695297241210938,-0.21680666043604807,-0.3626616397392022,-10.715654898527063,1.1011679710116316,5.083030267375485,0.7591496071128153
1730865961.133535,-1.6441199779510498,0.9858413338661194,-9.814929962158203,-0.20921732865682063,-0.36656574527643315,-10.69672625683427,1.101427398368162,5.032966994957083,0.8742799211824126
1730865961.1836119,-1.5686087608337402,1.074684739112854,-9.920032501220703,-0.2076562807241373,-0.36595170840556096,-10.672243791096136,1.1011328635379207,4.947665781440428,0.8351421573301021
1730865961.2334654,-1.5686087608337402,1.074684739112854,-9.920032501220703,-0.2111057409947052,-0.3606734137373576,-10.643977532261497,1.101559666288557,4.747156040423866,0.8780775251723788
1730865961.2334654,-1.542607307434082,1.151999592781067,-10.003628730773926,-0.21801623453932165,-0.35115769726405077,-10.61419152558533,1.1015574786195201,4.746200839647306,0.8778987880655843
1730865961.283573,-1.5542049407958984,1.2301385402679443,-10.041191101074219,-0.22658359449071952,-0.33834063143890325,-10.585369707099819,1.1009697754486254,4.613056665090649,0.8398048846379498
1730865961.3333614,-1.6225168704986572,1.2406723499298096,-10.066964149475098,-0.23503303400956882,-0.3235633537311593,-10.559953299514346,1.0998115322350854,4.479416678209561,0.7756027879492836
1730865961.3834236,-1.7253564596176147,1.2138913869857788,-10.027120590209961,-0.2418873406215661,-0.30841842920977686,-10.540109878763307,1.0980500406462026,4.344138148234018,0.6846305365842293
1730865961.4334004,-1.8377536535263062,1.1672279834747314,-9.96264362335205,-0.24621190085018643,-0.29451154239987865,-10.527502013621126,1.1017829758010356,4.5871284947582245,0.8801628084731247
1730865961.4834306,-1.8791604042053223,1.118408203125,-9.90227222442627,-0.24777322863992757,-0.2831932732373208,-10.523075463799383,1.1009484628435382,4.532646096207192,0.8414063301867724
1730865961.5334456,-1.8703622817993164,1.049418330192566,-9.87574577331543,-0.24702538604134613,-0.27535030620484036,-10.526937903349145,1.1032410941080268,4.270465530834416,0.8842691353910692
1730865961.5833516,-1.7904411554336548,0.9940613508224487,-9.860814094543457,-0.24489777381047811,-0.2712944064988103,-10.538386845044693,1.1034340268900686,3.966745235932285,0.888622125499584
1730865961.6333067,-1.6464136838912964,0.9628157019615173,-9.86606502532959,-0.2424428398996709,-0.27075317030442014,-10.556077490669601,1.1028620813633832,3.7656623917524614,0.8519785857190079
1730865961.683353,-1.5627888441085815,0.9482263922691345,-9.848698616027832,-0.2404576702390937,-0.2729620066293639,-10.578262118330015,1.101677724798549,3.562455635449341,0.7884490377424137
1730865961.7333167,-1.562458872795105,0.9341247081756592,-9.841981887817383,-0.23923231815581855,-0.2768338761537439,-10.60302472422534,1.099896608530743,3.359498727181405,0.6986210449898023
1730865961.783527,-1.5797141790390015,0.9555282592773438,-9.840194702148438,-0.23854255742507852,-0.2811579624529552,-10.628470639999028,1.103355687649188,3.8624130046813083,0.8853118462719477
1730865961.8334281,-1.656130313873291,1.0449622869491577,-9.828990936279297,-0.23785659716474924,-0.2848020580498688,-10.652870865385765,1.1025199397554934,3.7945837472393693,0.8454294949361204
1730865961.883437,-1.7408385276794434,1.130565881729126,-9.812065124511719,-0.236624598883463,-0.2869229602953377,-10.6747634737253,1.1010824022635095,3.725523244978848,0.7784791688923508
1730865961.933372,-1.8037424087524414,1.1793253421783447,-9.80042552947998,-0.2345361848248194,-0.28714668305640634,-10.693007162913304,1.099069292012842,3.656281484049296,0.6854399622587091
1730865961.9834905,-1.8700915575027466,1.1633671522140503,-9.820185661315918,-0.23167003162914893,-0.2856254379913006,-10.70680198643769,1.1038201349953367,3.6276304455314707,0.88506795207892
1730865962.0333447,-1.9134926795959473,1.100498914718628,-9.80792236328125,-0.22851097111540347,-0.28291632438108,-10.715701373621895,1.1030694161667411,3.5609636194298737,0.8449912297190056
1730865962.083408,-1.9134926795959473,1.100498914718628,-9.80792236328125,-0.22585888192101747,-0.27973919914680706,-10.7196091764645,1.1040213264771497,0.5729331398309638,0.8849176060827333
1730865962.083408,-1.9817607402801514,0.9967160820960999,-9.799867630004883,-0.22467333420338453,-0.2767376655310692,-10.718742327238335,1.1040187578842207,0.5670108371493973,0.8847678252951869
1730865962.1332574,-2.009242534637451,0.8998187184333801,-9.762540817260742,-0.2259217561379267,-0.2742993672779345,-10.713561125175183,1.1032778369940694,-0.49337873770355944,0.8446246001540777
1730865962.1833553,-2.0146119594573975,0.8520634174346924,-9.732019424438477,-0.23047176873049177,-0.27242801571204955,-10.704675050452426,1.1033106267065345,1.6345284597218321,0.8846156727829738
1730865962.2332752,-1.9653370380401611,0.8578269481658936,-9.763777732849121,-0.2389906107773324,-0.27071718371009657,-10.692749166136645,1.1035037252836768,1.6360596580009508,0.8846280301404732
1730865962.2832632,-1.8760980367660522,0.9307280778884888,-9.811843872070312,-0.2518104923148504,-0.26848691395536217,-10.678468688155025,1.102590659265832,1.6354463151735996,0.8443902019972435
1730865962.3331802,-1.7786275148391724,1.0387083292007446,-9.875558853149414,-0.2687789864005795,-0.26505104213236363,-10.662582179900326,1.101033762511855,1.6341712035268579,0.7777727227499253
1730865962.3832405,-1.7020138502120972,1.1243410110473633,-9.926508903503418,-0.2891573071584955,-0.2600109894870783,-10.645968275164924,1.098770200436677,1.6322320829105237,0.6841334038001672
1730865962.4332123,-1.6601722240447998,1.1989141702651978,-9.964488983154297,-0.31163304043691464,-0.2534576242044614,-10.629658559644053,1.1036650727696942,1.6359379325951595,0.8846957166526074
1730865962.4832904,-1.6342209577560425,1.2611186504364014,-9.975395202636719,-0.3344687781993523,-0.2460144742460369,-10.614788290638076,1.10251867046231,1.635048476213482,0.8447070347844897
1730865962.5331616,-1.622498869895935,1.2675787210464478,-9.962905883789062,-0.3557432179044229,-0.23873550650402564,-10.602482028457954,1.1043823950857317,1.6361762807195137,0.884940445781027
1730865962.5832772,-1.639206886291504,1.2061913013458252,-9.937066078186035,-0.37361402321415527,-0.23289211938072354,-10.593703120558263,1.103258242224219,1.6353666790487282,0.845363425016859
1730865962.6331246,-1.6860491037368774,1.1449236869812012,-9.880510330200195,-0.38655663503797694,-0.22968286909838637,-10.58910451583986,1.101197809470502,1.633987711907305,0.7797214918944403
1730865962.6834114,-1.7109571695327759,1.0855287313461304,-9.83228588104248,-0.3935558787653471,-0.22994562088212933,-10.58891217818815,1.1051806484281075,1.6366474813367913,0.8848316762893242
1730865962.7330935,-1.709753394126892,1.0741137266159058,-9.788422584533691,-0.3942113021929725,-0.23397959065008817,-10.592867496099032,1.1039744977466452,1.6359142581027675,0.8448399339905696
1730865962.7832174,-1.6724727153778076,1.0828081369400024,-9.795247077941895,-0.388714546243186,-0.24153433279108047,-10.600256249416743,1.1067444816547227,2.9696639026663534,0.8902258084559903
1730865962.8330767,-1.6206578016281128,1.0981696844100952,-9.837224006652832,-0.37770487993332613,-0.25194084762207153,-10.610040504561038,1.1059333305924932,3.4303307090671855,0.8521907521712203
1730865962.8830912,-1.5427521467208862,1.13316011428833,-9.84755802154541,-0.3620583044109571,-0.2643082340601528,-10.621066449924138,1.1073930190002443,3.877721491410991,0.8933889002592053
1730865962.933006,-1.5629488229751587,1.1618047952651978,-9.863628387451172,-0.3426897204148947,-0.2777156521785953,-10.632265829063217,1.1065136233140238,4.362249666783676,0.8556644463643449
1730865962.9830446,-1.629149079322815,1.215698003768921,-9.845447540283203,-0.3204615072505862,-0.29136584342935623,-10.642775413829492,1.1047909169393075,4.851095236212908,0.7907816057707383
1730865963.0340078,-1.6967530250549316,1.2590280771255493,-9.838217735290527,-0.2962380875680029,-0.3046917492502549,-10.651964926746654,1.1021987239134672,5.354313165885525,0.6956907403217408
1730865963.084012,-1.7413307428359985,1.2730633020401,-9.82457160949707,-0.2710022629241511,-0.3174087598705464,-10.659409739858916,1.1080839876799158,4.49272266510501,0.8917876225329542
1730865963.1339903,-1.7646113634109497,1.2583575248718262,-9.81188678741455,-0.24590717909979953,-0.32949299992866365,-10.664848674212507,1.1073214079434155,4.725637177189331,0.8520493074681944
1730865963.1839724,-1.7786732912063599,1.2127102613449097,-9.802888870239258,-0.22221974522811647,-0.3410794965735937,-10.668147824638279,1.10909868702301,5.548841413148672,0.8906570099929478
1730865963.233917,-1.8130278587341309,1.14822256565094,-9.807696342468262,-0.20119938677792198,-0.35231034381391035,-10.669276497752818,1.1086667773118963,5.960553923338586,0.8502889686579044
1730865963.2838762,-1.809478998184204,1.100132703781128,-9.810400009155273,-0.18397558462906705,-0.3631859827344025,-10.668299157256858,1.107762011334394,6.3672111058612835,0.783898561466588
1730865963.333905,-1.797210454940796,1.1131501197814941,-9.829365730285645,-0.17144590235459556,-0.3734841958730495,-10.66537992546367,1.1103342581314226,6.25608051115356,0.8903550866569848
1730865963.383851,-1.7991148233413696,1.125964879989624,-9.836786270141602,-0.1641890650572241,-0.382795118711187,-10.66078895001812,1.1100490804137282,6.507361159304586,0.8501787397421925
1730865963.4338167,-1.7826963663101196,1.1695894002914429,-9.845488548278809,-0.16240976313947308,-0.39065307929323406,-10.654898418373708,1.1112416730986838,5.987330004174129,0.8852486846389214
1730865963.4838102,-1.7767739295959473,1.2048052549362183,-9.856528282165527,-0.16593270785570954,-0.3966922884155121,-10.64816050324813,1.1110733889348101,5.979834604096057,0.8432796640507548
1730865963.5337822,-1.8129676580429077,1.1983704566955566,-9.851751327514648,-0.17424583943171562,-0.4007577098381936,-10.64107057064115,1.1120245417975956,5.975934696474148,0.8814803622584769
1730865963.5838563,-1.865580439567566,1.1427628993988037,-9.82577133178711,-0.18660141538132619,-0.40291957029318387,-10.634117186743435,1.1117977662762897,5.968401164342455,0.839896049762668
1730865963.633715,-1.881205439567566,1.0834192037582397,-9.824111938476562,-0.20216118433912988,-0.40337723438009665,-10.627719545292882,1.1110520708985043,5.959486928490282,0.7686936795058146
1730865963.68373,-1.863053321838379,1.0553536415100098,-9.826824188232422,-0.2201142012634138,-0.4023142177980781,-10.622177338518437,1.1130652878426208,5.966903134807437,0.8848319684638741
1730865963.7337158,-1.8265241384506226,1.0528087615966797,-9.850543975830078,-0.23970454809833863,-0.399805048995441,-10.617664913703674,1.1125520422712816,5.961986647843622,0.8449180584401096
1730865963.7837036,-1.7715882062911987,1.0776413679122925,-9.877630233764648,-0.26018190694326465,-0.3958257393607913,-10.614270039515256,1.1114473310778687,5.956288054113673,0.7805689809550518
1730865963.8336518,-1.7354477643966675,1.0973707437515259,-9.941924095153809,-0.28073518184656504,-0.3903409883498914,-10.612057607684221,1.1140370703225844,5.9535188930634435,0.8843787974395346
1730865963.8837056,-1.689695954322815,1.1317925453186035,-9.966397285461426,-0.3004611394520883,-0.38340549728804874,-10.611137927351622,1.1133435430227405,5.947389275133039,0.8444778728376359
1730865963.9335935,-1.6389662027359009,1.1293141841888428,-9.971222877502441,-0.3183822975239622,-0.3752284925661707,-10.611703270952551,1.111881596129,5.940362034472637,0.7783571883279391
1730865963.9836588,-1.6623183488845825,1.1505361795425415,-9.938908576965332,-0.33350550796840217,-0.3661794698240759,-10.613992889036094,1.1143847730108272,5.94157055926156,0.8886581065822755
1730865964.0335605,-1.685981035232544,1.114296793937683,-9.907242774963379,-0.34492944899290373,-0.3567400874602708,-10.618192290048363,1.1132504477489953,5.935751603575153,0.847512305111439
1730865964.0836053,-1.7127622365951538,1.098321795463562,-9.828071594238281,-0.3519919629756816,-0.3474184764233852,-10.624313017034446,1.1148072155347715,5.926933307137865,0.8938503793211215
1730865964.1335196,-1.7381293773651123,1.0863145589828491,-9.812661170959473,-0.3543943582169332,-0.33865329314296133,-10.632099218243816,1.113711097936819,5.918719275711315,0.8560037237573882
1730865964.1835907,-1.7394286394119263,1.1070185899734497,-9.751754760742188,-0.3522476663392492,-0.3307540357510932,-10.640999031263028,1.1151866680961307,5.9147099459577515,0.9021701269260507
1730865964.2335656,-1.7783422470092773,1.099996566772461,-9.74980354309082,-0.3460407521261982,-0.32390242398048946,-10.65021330812461,1.1141062032119644,5.907010307742738,0.8666229289166185
1730865964.2834716,-1.775434136390686,1.1180026531219482,-9.734968185424805,-0.33656339346242004,-0.318187815250356,-10.658801443113322,1.1121607274320366,5.89846692608774,0.8040634423802449
1730865964.3334875,-1.7961090803146362,1.0978853702545166,-9.74190616607666,-0.3248102130113545,-0.3136382951238553,-10.665816897809075,1.114995587894798,5.907710073349277,0.9066105325817732
1730865964.3834748,-1.8024729490280151,1.096219539642334,-9.761283874511719,-0.3118749989033276,-0.31023119383823106,-10.670443503163636,1.1137984977323105,5.903641218895292,0.8686632216903978
1730865964.4334664,-1.8615046739578247,1.0873790979385376,-9.789366722106934,-0.2988577256863114,-0.3078880690979682,-10.67210954023416,1.115602873075982,5.895552341326751,0.9141248372467887
1730865964.4834557,-1.8906596899032593,1.113863468170166,-9.796687126159668,-0.2868114644178914,-0.30647721557495317,-10.670564028442765,1.1146672018211983,5.889712546112971,0.876719541346823
1730865964.533443,-1.8843986988067627,1.1354656219482422,-9.818350791931152,-0.27671259323562947,-0.30584486010539846,-10.66589696370064,1.113036619132078,5.8831582887278335,0.8130217534503568
1730865964.5834439,-1.8520234823226929,1.1645499467849731,-9.829914093017578,-0.26940005480445955,-0.3058682850877891,-10.658504011235365,1.1107259612827423,5.875838799015344,0.7227685002848865
1730865964.6334517,-1.8085271120071411,1.176212191581726,-9.861815452575684,-0.26546702432545133,-0.3065005569048412,-10.649021574095205,1.1159944794905583,5.884213255443273,0.9158148347338662
1730865964.6834452,-1.7181299924850464,1.1627516746520996,-9.876137733459473,-0.265143079971352,-0.3077774455577792,-10.638255402370628,1.1151201581639318,5.879217137423739,0.8767616185614502
1730865964.7333987,-1.6924563646316528,1.1392431259155273,-9.905946731567383,-0.26821147939594886,-0.30977513837552767,-10.62710934501132,1.1167665996228555,5.869350528848756,0.9162599085799576
1730865964.7834475,-1.6710063219070435,1.1597439050674438,-9.915834426879883,-0.2740087205599382,-0.312543466809874,-10.616513444828248,1.1160717458647793,5.862018883856673,0.8776790336976249
1730865964.8333828,-1.6623401641845703,1.1732234954833984,-9.910504341125488,-0.28153239860915313,-0.31606954923412606,-10.607348394834203,1.1146128589144617,5.8534471978751,0.8092290886055343
1730865964.8834436,-1.664509892463684,1.188157320022583,-9.918722152709961,-0.2896159661340941,-0.3202944927346616,-10.600365562809166,1.1125748903992285,5.844729835497843,0.7202904136875898
1730865964.933397,-1.664509892463684,1.188157320022583,-9.918722152709961,-0.2971051983512174,-0.3251473999759068,-10.596119188609128,1.117165401916972,5.853706735439962,0.9134684596804916
1730865964.933397,-1.6572636365890503,1.1673773527145386,-9.908549308776855,-0.30299808364724135,-0.3305556635982515,-10.59492914430075,1.117160999877476,5.85367120501601,0.9132726122487672
1730865964.9834638,-1.6591688394546509,1.130024790763855,-9.90406608581543,-0.30653137459872504,-0.33641903146331553,-10.59686959612824,1.116169159362716,5.848348000924547,0.8729597648079721
1730865965.0333724,-1.6591688394546509,1.130024790763855,-9.90406608581543,-0.30721806825477904,-0.3425655937444778,-10.601777663893623,1.118252892841248,5.836470055573275,0.9103106153873936
1730865965.0333724,-1.6374982595443726,1.1253414154052734,-9.897210121154785,-0.3048483086191923,-0.3487333355434825,-10.609286231113993,1.1182503721607073,5.836406417494461,0.9100993978772852
1730865965.0834715,-1.6542800664901733,1.1127800941467285,-9.890379905700684,-0.2994602120754243,-0.35459806988001086,-10.618873821525277,1.1188446785766915,5.820597518171338,0.9079122285350799
1730865965.1333466,-1.6624219417572021,1.1077226400375366,-9.87459659576416,-0.2913002969467252,-0.3598193876087403,-10.629915499426286,1.1181550489677539,5.809671671069664,0.8667567213500331
1730865965.183495,-1.6803877353668213,1.1172305345535278,-9.872438430786133,-0.280794767872402,-0.364080208162572,-10.641728516765252,1.1167361093673633,5.797727448430237,0.7983343231673337
1730865965.2333581,-1.6642932891845703,1.1443051099777222,-9.851571083068848,-0.26851934481341716,-0.36712929946436945,-10.653615637875616,1.1192464878456476,5.810050736673622,0.9063915148709574
1730865965.2835011,-1.676072597503662,1.1518168449401855,-9.866317749023438,-0.25514509853463974,-0.36883115993617455,-10.664908792377748,1.1184458434657345,5.804022989055247,0.8660888023697412
1730865965.3333554,-1.688549518585205,1.173169493675232,-9.839729309082031,-0.24137219808510313,-0.36920131071030615,-10.675012572588171,1.1200249355474539,5.790941784418539,0.9067284548301789
1730865965.3832452,-1.7406500577926636,1.1670211553573608,-9.839791297912598,-0.2278880867096889,-0.3684064323345687,-10.683437923835704,1.1194688466011757,5.781212675418576,0.8668823596886615
1730865965.4331973,-1.7592371702194214,1.1434805393218994,-9.807424545288086,-0.2153634362396016,-0.36672482960717084,-10.689813898052382,1.1209707664186361,5.7844159226693845,0.9063840031582809
1730865965.4832108,-1.7919294834136963,1.1425443887710571,-9.786770820617676,-0.20445739116279238,-0.3644759356074082,-10.69387788256211,1.1206171678269898,5.7777623808353775,0.8662085020096135
1730865965.5332005,-1.8289555311203003,1.1339582204818726,-9.734051704406738,-0.19580375903283626,-0.3619511379866547,-10.695449298609063,1.1197634950186395,5.770186667130372,0.7992575257655102
1730865965.5832748,-1.906752586364746,1.1017496585845947,-9.722082138061523,-0.18999297918378388,-0.3593718944214632,-10.69439563731525,1.1213819570575705,5.764783204487284,0.9061524577465805
1730865965.6332035,-1.9440362453460693,1.0649313926696777,-9.711519241333008,-0.18757455267090223,-0.3568597194100134,-10.690616170958705,1.1208928230532709,5.756737806011739,0.8659463720665258
1730865965.6832056,-1.954621434211731,1.0486096143722534,-9.747272491455078,-0.18905535026301978,-0.3544060920432634,-10.684069105319036,1.1183643856210066,5.743250223889817,0.9060762264032226
1730865965.733109,-1.9300211668014526,1.0519165992736816,-9.785317420959473,-0.19484456231202696,-0.3518698850479465,-10.67484108662335,1.1165854916038376,5.731439709563429,0.8641252962406257
1730865965.7832572,-1.8917458057403564,1.0662336349487305,-9.863221168518066,-0.2051429890784507,-0.3490267292996707,-10.663233634660374,1.1144318539749554,5.7195066851207725,0.798903224419268
1730865965.8331983,-1.8917458057403564,1.0662336349487305,-9.863221168518066,-0.21983339530621854,-0.3456507524943071,-10.64982489921373,1.1116911932434448,5.706359480051318,0.705552508665328
1730865965.8331983,-1.8261340856552124,1.0515388250350952,-9.917787551879883,-0.23843073950066063,-0.3415806137978343,-10.635460268399578,1.1116667401220692,5.706249397543782,0.7046874783920966
1730865965.8832433,-1.7325536012649536,1.0188775062561035,-9.973783493041992,-0.26008340538828556,-0.3367347343511333,-10.6211769915615,1.1171003611929005,5.732314373515697,0.9062842929148422
1730865965.9331484,-1.6438817977905273,1.0134690999984741,-9.997303009033203,-0.28357746973366305,-0.3310824616556204,-10.60811605291294,1.115718523712006,5.727364615501777,0.8666574710292118
1730865965.9832146,-1.6068297624588013,1.0392526388168335,-10.010113716125488,-0.30736135794988434,-0.32461802682671537,-10.597430299566593,1.1149283064924747,5.70896488127378,0.9057616199758809
1730865966.0331244,-1.5930547714233398,1.1113393306732178,-9.983500480651855,-0.32965819745827063,-0.31738736944885554,-10.590162080838,1.1128670019273017,5.698162883290221,0.865964465958794
1730865966.0831685,-1.6152253150939941,1.2080261707305908,-9.939994812011719,-0.3486778627852242,-0.30957786021948386,-10.58709651809913,1.1130188676993142,5.69208729090443,0.9053058295793373
1730865966.1329873,-1.6628810167312622,1.2549554109573364,-9.904179573059082,-0.3628724351699739,-0.3016229797889304,-10.588625952276253,1.1107658778846412,5.681881269178689,0.8656834163989393
1730865966.183079,-1.7237470149993896,1.2498868703842163,-9.840123176574707,-0.37116970110174985,-0.29423161852628305,-10.594665529421086,1.107565373406253,5.670810783662052,0.7990081716154218
1730865966.232996,-1.7540323734283447,1.1959750652313232,-9.810408592224121,-0.37313120789018617,-0.2882768754377419,-10.60464124151039,1.1116995604876765,5.675833739711936,0.9052508339966899
1730865966.282932,-1.7761001586914062,1.1373709440231323,-9.77637004852295,-0.3689908690455434,-0.2845734856797585,-10.617551451344784,1.1129603878605752,5.654826881018627,0.9051046131923448
1730865966.3329697,-1.7739691734313965,1.080772876739502,-9.734260559082031,-0.3595657829862201,-0.28364663577113547,-10.632088697455396,1.1118113687476467,5.643675675867489,0.8652177398410633
1730865966.3838212,-1.7863746881484985,1.0190056562423706,-9.72805404663086,-0.3460818009476609,-0.28558361703887336,-10.646789699861008,1.1134701389906905,5.647931806268923,0.9038813535977349
1730865966.4338863,-1.7863746881484985,1.0190056562423706,-9.72805404663086,-0.3299775462517997,-0.29000380726066044,-10.660192774187898,1.1124923982139754,5.639485215937901,0.8632255981323462
1730865966.4338863,-1.763444423675537,0.9958710074424744,-9.702902793884277,-0.31272693404366514,-0.29614340384382176,-10.670991413869826,1.1124234086526128,5.6390528040835095,0.8605508246913066
1730865966.4838243,-1.7485802173614502,0.980993390083313,-9.72205638885498,-0.2956853253678689,-0.3030126933206385,-10.678153812758454,1.1107237084388362,5.630259876195945,0.7956308372923812
1730865966.5338418,-1.7739217281341553,0.9647471904754639,-9.749009132385254,-0.27997272515354077,-0.3095559601841259,-10.681000089189023,1.114279664351527,5.631693658069326,0.9040796690469832
1730865966.5839176,-1.776928424835205,1.0090956687927246,-9.792386054992676,-0.26642628616821495,-0.3147850804134675,-10.679260243315875,1.1134780135539828,5.625221353713561,0.8639417159102513
1730865966.6337254,-1.7719019651412964,1.0469619035720825,-9.85647201538086,-0.2556126346749238,-0.3179092566684837,-10.673115284264505,1.1152958804459923,5.609083080884162,0.9040187261354654
1730865966.6840096,-1.742720127105713,1.0767850875854492,-9.918389320373535,-0.24784609183964768,-0.31845780192042805,-10.663206620833005,1.1147580997026671,5.598245625764499,0.8635707062013196
1730865966.733826,-1.7308605909347534,1.0838773250579834,-9.983128547668457,-0.2431870958725374,-0.31634431282733955,-10.650603362459915,1.1164473778910788,5.604657666447116,0.9038753391731108
1730865966.7839155,-1.7244657278060913,1.1198302507400513,-10.016728401184082,-0.2414455325880912,-0.3118441453933482,-10.636717063928561,1.1160893857521492,5.598480089647203,0.8637232438846792
1730865966.8337839,-1.7244657278060913,1.1198302507400513,-10.016728401184082,-0.2422186800903285,-0.3055160339968538,-10.623155169591044,1.1172894653993488,5.582133817513118,0.9037999807544138
1730865966.8337839,-1.6922295093536377,1.1217204332351685,-10.01152515411377,-0.24495601234198283,-0.2981010205673449,-10.611521504427351,1.1172881911963641,5.582082637543004,0.9036403645938961
1730865966.8839517,-1.6949405670166016,1.091368556022644,-10.003122329711914,-0.24901976180943153,-0.2904032807090938,-10.603207164473371,1.1167629866632407,5.573203761462004,0.8637497664281908
1730865966.9338105,-1.6541407108306885,1.079060673713684,-9.937772750854492,-0.25373054062279865,-0.2831628508036845,-10.599220470737901,1.1184004848122455,5.559807312731104,0.9043793994207517
1730865966.9837117,-1.6971153020858765,1.0559735298156738,-9.882655143737793,-0.25841228307787,-0.2769503679518341,-10.60006388874701,1.1179618962422935,5.548496376393553,0.8648668181068988
1730865967.0336804,-1.7184339761734009,1.0200108289718628,-9.829143524169922,-0.26245972746661095,-0.27210507610537177,-10.605659903702321,1.12071082407063,5.550899415313402,0.9049067895968456
1730865967.0837424,-1.7796587944030762,0.9819168448448181,-9.78043270111084,-0.2654345741132066,-0.2687085602983058,-10.615354616783533,1.1209662388784685,5.541448112041851,0.8652330254612034
1730865967.1336548,-1.7767276763916016,0.9837790727615356,-9.749464988708496,-0.26715032950284373,-0.2665885475558506,-10.628009989635238,1.1205557271265858,5.531412768587511,0.7994350585136744
1730865967.1838517,-1.7815088033676147,1.03798508644104,-9.75819206237793,-0.26768832989824304,-0.2653798812229792,-10.64216656269318,1.121538886720389,5.533038710252361,0.9045853251688922
1730865967.2337184,-1.7815088033676147,1.03798508644104,-9.75819206237793,-0.26733327966200476,-0.2646527546158878,-10.65625332734679,1.1210116343292615,5.5260886579555795,0.8648736719768504
1730865967.2337184,-1.7619465589523315,1.1153185367584229,-9.77953052520752,-0.26647134014914287,-0.26405453185789185,-10.668804430751717,1.121006329467003,5.526043733622369,0.8645468318061548
1730865967.283684,-1.7306779623031616,1.2181533575057983,-9.794438362121582,-0.26548851710434185,-0.26342583169883305,-10.6786345280488,1.1198186167900137,5.518446855302844,0.7984120024591019
1730865967.3336196,-1.73723566532135,1.2622041702270508,-9.825244903564453,-0.26468454505080635,-0.2628966074878661,-10.684950769690964,1.1179504395746083,5.51009438695253,0.7046292218111285
1730865967.3837023,-1.7728885412216187,1.2536513805389404,-9.841352462768555,-0.26423586285312206,-0.26291337754460925,-10.687402032724272,1.1231156266711797,5.513270691647095,0.9049834056209795
1730865967.4336104,-1.7957485914230347,1.2329119443893433,-9.852080345153809,-0.26423195708838143,-0.2641305391444927,-10.686067871327667,1.122572243146812,5.506654093461147,0.865024050930719
1730865967.4835632,-1.8130037784576416,1.187165379524231,-9.869086265563965,-0.26474612421541033,-0.267204043865396,-10.681393738589069,1.1248948513801413,5.489619083691852,0.9047520770508493
1730865967.5335834,-1.8130037784576416,1.187165379524231,-9.869086265563965,-0.26587795105672596,-0.2725943320666187,-10.674092784548993,1.1245295667890027,5.4804288610224665,0.8649136583179002
1730865967.5335834,-1.8403993844985962,1.1168467998504639,-9.861696243286133,-0.2677514690217926,-0.2804483391958744,-10.66503364913503,1.1245242471301384,5.480356079986544,0.8645078454888904
1730865967.5836523,-1.8365612030029297,1.1099493503570557,-9.855596542358398,-0.270495499835465,-0.2905609392183761,-10.655123871820283,1.1288035269679388,5.466049228056828,0.904310948538422
1730865967.6335382,-1.8015090227127075,1.1125519275665283,-9.858222961425781,-0.27421587181228674,-0.3024022665150622,-10.645206701308574,1.1304250471512378,5.439906733291137,0.9038766784380713
1730865967.683565,-1.7416749000549316,1.0947171449661255,-9.853496551513672,-0.2789375832268112,-0.31521308180400265,-10.635992130100252,1.130765812895436,5.422787172870014,0.8638599196789171
1730865967.7336876,-1.707353949546814,1.0896289348602295,-9.870576858520508,-0.28452207180220324,-0.3281321863330091,-10.628025967042083,1.1303975338346595,5.4046812323828695,0.7965525497768308
1730865967.7836096,-1.6856294870376587,1.0882185697555542,-9.87708854675293,-0.2906156158870373,-0.3403049318716463,-10.621690322228133,1.129314648948149,5.385941119886168,0.7034372654857702
1730865967.833548,-1.6856732368469238,1.1131680011749268,-9.89499282836914,-0.2966755129952995,-0.3509709608906735,-10.617225492344513,1.1313641818723643,5.430622315943528,0.9036937226452869
1730865967.8835711,-1.6620116233825684,1.1451038122177124,-9.884458541870117,-0.3020602085958678,-0.3595486469355533,-10.614755422539101,1.1307777381122568,5.423502160899871,0.8636132063263546
1730865967.9334772,-1.6606212854385376,1.1801331043243408,-9.870457649230957,-0.30613108887291207,-0.3657117879373225,-10.614296936540736,1.1339105068638684,5.406310061252339,0.9030230432333607
1730865967.9834714,-1.653437852859497,1.1797866821289062,-9.851520538330078,-0.30833238068461355,-0.36943109433658544,-10.615747600776684,1.1338537357494394,5.394378709929058,0.8631783020548653
1730865968.0334425,-1.6758476495742798,1.1824043989181519,-9.821070671081543,-0.30825230506421003,-0.37095139460064197,-10.61886737877817,1.1330328579647255,5.381522292825836,0.7969943350300412
1730865968.0835173,-1.7237505912780762,1.1566532850265503,-9.81063461303711,-0.30568138584138954,-0.37070636477009344,-10.623273208668113,1.1314403237700996,5.367669423769646,0.703906106545609
1730865968.1334534,-1.7996176481246948,1.1426687240600586,-9.782665252685547,-0.30067874794937366,-0.3692039710164545,-10.628457271676115,1.1352766347618697,5.395584794796679,0.9027680512052877
1730865968.1835039,-1.8628112077713013,1.1092867851257324,-9.77823543548584,-0.2936361594047141,-0.36691846224211355,-10.633828540592395,1.134610557935461,5.390257984579632,0.862790847993249
1730865968.2334023,-1.8774480819702148,1.0935637950897217,-9.79169750213623,-0.2852948304358274,-0.36421138700250294,-10.638773443468981,1.136387797086185,5.372629451453611,0.9021902192321978
1730865968.2834685,-1.8534674644470215,1.108945369720459,-9.822172164916992,-0.27666173201100736,-0.36129810611314034,-10.642737944861125,1.1383192389387278,5.351504152834101,0.9017882740726233
1730865968.3333826,-1.7973651885986328,1.1064001321792603,-9.855999946594238,-0.2688198664122331,-0.35826993427264064,-10.645322228988013,1.1383592864455572,5.336883148159574,0.8615786649439965
1730865968.3833833,-1.749116063117981,1.0848197937011719,-9.900351524353027,-0.26269424186047946,-0.35514550271135403,-10.64636031869864,1.1377381775975535,5.321424835731408,0.7950273905368972
1730865968.4334073,-1.749116063117981,1.0848197937011719,-9.900351524353027,-0.25886917775524476,-0.35190418152235636,-10.64595555268696,1.1364573050490294,5.304959760472013,0.7012244961174792
1730865968.4334073,-1.6887575387954712,1.0780417919158936,-9.944061279296875,-0.2575201103979121,-0.34849727060034696,-10.644456616087616,1.136443011218694,5.3048096171585835,0.7002715484089238
1730865968.4834383,-1.660573959350586,1.0784896612167358,-9.943114280700684,-0.25843624838027224,-0.34486205150745997,-10.642389927550461,1.1390934452692083,5.338925242634188,0.9021151639731638
1730865968.5333052,-1.6808581352233887,1.0688133239746094,-9.9386625289917,-0.2610876876154894,-0.34094094789243334,-10.640373035777236,1.1398844042227438,5.314532212576515,0.9016242306419396
1730865968.5834394,-1.6925055980682373,1.0484857559204102,-9.91047477722168,-0.2647446810303746,-0.3366909021778589,-10.639011119742657,1.1393106781785802,5.302944087754193,0.8615114703594169
1730865968.6333168,-1.7340891361236572,1.0040960311889648,-9.874168395996094,-0.2686434230514543,-0.3320706319312867,-10.638783499469662,1.1419329544584182,5.308724362206492,0.9016777626924289
1730865968.6832635,-1.7513102293014526,0.9668171405792236,-9.831408500671387,-0.27214212527754,-0.32700448650290787,-10.639945668455859,1.1417928218415707,5.301852879664527,0.8619688535255162
1730865968.7332773,-1.7555934190750122,0.9132131338119507,-9.825553894042969,-0.27481779073608315,-0.3213402951895239,-10.642475495444158,1.1409623984160389,5.294095840843126,0.7950569323790236
1730865968.783267,-1.7511773109436035,0.8991687297821045,-9.808719635009766,-0.27648401755367114,-0.3148281817081523,-10.646087085070352,1.1427235382519725,5.2849239517244335,0.9016832701665056
1730865968.833155,-1.7669599056243896,0.9138646125793457,-9.811017036437988,-0.27714847847040924,-0.30714726913982404,-10.650306149484983,1.1421593255026847,5.275501281854448,0.8619784833954651
1730865968.8833268,-1.7647291421890259,0.9623916149139404,-9.817171096801758,-0.27695533932857763,-0.2979959167277263,-10.654572270842216,1.1409005538103436,5.2652780166990025,0.7954823132813796
1730865968.9331322,-1.774051547050476,0.9942019581794739,-9.836055755615234,-0.2761369584575645,-0.2872208490628293,-10.658341622287484,1.144375361306729,5.26514016532686,0.9016723738804254
1730865968.9830694,-1.7563841342926025,1.0308074951171875,-9.850176811218262,-0.2749692361100584,-0.27492245845427066,-10.661176631306649,1.1438663814914827,5.257203561589427,0.8619253224218879
1730865969.0331802,-1.7418923377990723,1.052126407623291,-9.863423347473145,-0.2737213331929419,-0.26148806472962377,-10.662807514813553,1.1426594183277263,5.24849879603367,0.7948213735532226
1730865969.0830772,-1.7634446620941162,1.1164103746414185,-9.859697341918945,-0.2726091976040259,-0.24755918466475077,-10.663152649945857,1.1407866790417003,5.2392659661608425,0.7019728623816134
1730865969.1331055,-1.7613576650619507,1.1499154567718506,-9.857751846313477,-0.27177978777136397,-0.23397281899358452,-10.66229588454481,1.145907590909474,5.242631393823386,0.9012965922921536
1730865969.1830616,-1.7668864727020264,1.152148723602295,-9.854114532470703,-0.2713270394521277,-0.22168908897414666,-10.660435327677218,1.1491768260907722,5.213513190350817,0.9011883551298503
1730865969.2330203,-1.7597706317901611,1.146106243133545,-9.849930763244629,-0.27130804558812116,-0.21168093591441878,-10.657827318501056,1.1494808086573267,5.200046375644332,0.8611730871049638
1730865969.2830868,-1.7832831144332886,1.1196283102035522,-9.831854820251465,-0.27174850268724504,-0.2047893136375395,-10.654738309297297,1.1503331513301367,5.190589354881715,0.9009321394419505
1730865969.3329446,-1.7911642789840698,1.0579688549041748,-9.824539184570312,-0.27265435081173406,-0.2015811431893884,-10.651403708772307,1.1501866264228817,5.17729815424465,0.8609459124416952
1730865969.3830001,-1.793712854385376,1.0126854181289673,-9.833224296569824,-0.27403144889826647,-0.20223568261419556,-10.648000394835181,1.1547247386973134,5.17591373401318,0.8966397650819324
1730865969.432937,-1.7517714500427246,1.0202561616897583,-9.849518775939941,-0.27588616629021345,-0.20649255715735906,-10.644649390801522,1.1553618154692527,5.166527046925065,0.8552840119895078
1730865969.4829564,-1.7155946493148804,1.0792349576950073,-9.881749153137207,-0.2781845691934235,-0.21371557469085917,-10.641450485118703,1.1573869463619875,5.155740983087505,0.893452855668116
1730865969.532836,-1.6973638534545898,1.1483683586120605,-9.885079383850098,-0.2807920982715817,-0.2230809438673813,-10.63852642186055,1.1578770695024019,5.144755539443951,0.852082569707819
1730865969.5827827,-1.6990910768508911,1.1914793252944946,-9.90003490447998,-0.28344880318058613,-0.23380991322234604,-10.636045454208396,1.157664542137909,5.133168537742235,0.7840479051039492
1730865969.6338701,-1.7048535346984863,1.1952179670333862,-9.894710540771484,-0.2858086989251686,-0.24533075041221067,-10.63420868629446,1.1567090786535503,5.120676435043169,0.6867819478990441
1730865969.6838133,-1.7279154062271118,1.140415906906128,-9.889106750488281,-0.2875207176573747,-0.25730095959612,-10.633213312980667,1.155052920171936,5.107858121754155,0.5650502821434492
1730865969.7338028,-1.727390170097351,1.0967813730239868,-9.850716590881348,-0.28831085286690716,-0.2695021938114556,-10.633203352271117,1.1591965591055375,5.149545198160183,0.8885632983127719
1730865969.7837937,-1.7448590993881226,1.0502889156341553,-9.854978561401367,-0.28803490917351043,-0.2816902253201698,-10.634217935418997,1.158675710532783,5.145827016601935,0.847794314140181
1730865969.8337355,-1.7205950021743774,1.0371060371398926,-9.837763786315918,-0.2866885385040683,-0.2934950038076809,-10.636163245022244,1.162594287306944,5.131551347490484,0.8814540344186171
1730865969.8838043,-1.7044275999069214,1.004769206047058,-9.838481903076172,-0.2843747770520817,-0.30440995358203077,-10.638825477194988,1.1628755360929153,5.123336050986169,0.8386183686842861
1730865969.9337204,-1.6762114763259888,1.0011883974075317,-9.852025985717773,-0.2812416573468084,-0.31384604280111733,-10.641913451802829,1.1624514565242847,5.1143981553229,0.7695487620845571
1730865969.9836867,-1.6579885482788086,0.9812003374099731,-9.872231483459473,-0.2774183622309405,-0.3212098344478577,-10.645118539999,1.1613275329275914,5.104625648778611,0.6735678313405418
1730865970.0337353,-1.6788157224655151,1.0039273500442505,-9.869159698486328,-0.272982352231834,-0.3259837959295658,-10.648178104480483,1.1654496592701038,5.112940918725772,0.8775557746791715
1730865970.0836577,-1.7302862405776978,0.9892690777778625,-9.866273880004883,-0.26798354103967026,-0.3278002933233065,-10.65091239305846,1.1652242808897537,5.10689662172892,0.8365079793632494
1730865970.1336935,-1.7561147212982178,1.0005706548690796,-9.84821891784668,-0.2625212762590963,-0.3264933184394915,-10.653218785524286,1.1668423418393337,5.095423725417459,0.8746814790359657
1730865970.1836424,-1.7561147212982178,1.0005706548690796,-9.84821891784668,-0.25681386267102313,-0.3221143679859643,-10.655040470555141,1.1626568908772403,5.075964238384693,0.8715015667352033
1730865970.1836424,-1.7367112636566162,1.0267400741577148,-9.844929695129395,-0.2511944693415219,-0.31492276617423964,-10.656338951952756,1.162645693851568,5.075895752449008,0.8713597655195144
1730865970.2335315,-1.7292639017105103,1.0034098625183105,-9.847564697265625,-0.24603526027157266,-0.30536185446794073,-10.657086284049923,1.1600679257298097,5.061622943509957,0.8293231762059167
1730865970.283596,-1.7082710266113281,1.0320013761520386,-9.856908798217773,-0.2416559134596424,-0.2940146808862634,-10.657273098174198,1.1568804975320242,5.046584015499464,0.7607485879871252
1730865970.3336132,-1.7297741174697876,1.0265306234359741,-9.872505187988281,-0.23826516449541163,-0.2815462163376862,-10.656924344631864,1.1530465186621093,5.030632437281299,0.6643518479081202
1730865970.3835676,-1.73284912109375,1.026072382926941,-9.879054069519043,-0.23595389455415564,-0.26864900692899296,-10.656116489508873,1.1620063973502384,5.069881153972272,0.8738532997623395
1730865970.4335475,-1.7507237195968628,1.0402652025222778,-9.899032592773438,-0.23472830169379238,-0.2559922018501606,-10.654986691851352,1.1606230191379856,5.064684993673976,0.8341282010767916
1730865970.4835615,-1.7441734075546265,1.067531943321228,-9.886956214904785,-0.23454945460254167,-0.24418303287916876,-10.653726447901429,1.1586512346120121,5.058856729421823,0.7677158706458443
1730865970.5335526,-1.7646288871765137,1.0706843137741089,-9.89332103729248,-0.23535629012900647,-0.23375430992302207,-10.652556263674265,1.1660718189217902,5.054951487317739,0.8733609724905133
1730865970.583584,-1.8092890977859497,1.0768513679504395,-9.85693645477295,-0.23708411255525785,-0.22515883007222104,-10.651682858584682,1.1659510314697197,5.050031609259386,0.8337066457434363
1730865970.6335008,-1.8092890977859497,1.0768513679504395,-9.85693645477295,-0.23969603744411347,-0.2187488250794441,-10.651249172751896,1.1652351277365056,5.044497835252683,0.767036236797815
1730865970.6335008,-1.8451093435287476,1.0780317783355713,-9.835271835327148,-0.24320869290769292,-0.21474917917897468,-10.651296763219008,1.165228374281092,5.044459301525803,0.7665049389394207
1730865970.6835158,-1.8778879642486572,1.068177342414856,-9.794242858886719,-0.24769485708267863,-0.21323934286129728,-10.651750886165992,1.168045481553791,5.0387759005576465,0.8738361676152668
1730865970.7335863,-1.8792659044265747,1.0619271993637085,-9.761591911315918,-0.2532754613444431,-0.2141458845248624,-10.652413356584368,1.1678689867597662,5.032360423489021,0.8339129740986511
1730865970.7835293,-1.8781741857528687,1.0342954397201538,-9.767451286315918,-0.2600947001053233,-0.2172425194969755,-10.65296449867062,1.1720574902994143,5.019053279821449,0.8740667874402419
1730865970.8334446,-1.8452465534210205,1.0448501110076904,-9.792409896850586,-0.2682620685203941,-0.22215960608427798,-10.653010287114036,1.1800361075169548,5.004914783189617,0.8742150197004965
1730865970.8834481,-1.7909832000732422,1.0523160696029663,-9.833215713500977,-0.27777122760750483,-0.22841766658338328,-10.652185481584056,1.1829972466257404,4.994258762204516,0.8344630153285014
1730865970.9334626,-1.7380390167236328,1.0403714179992676,-9.891928672790527,-0.2884168095113435,-0.23548824711004165,-10.65027572278106,1.1852568389486593,4.982994578597877,0.7679310146814914
1730865970.9834626,-1.6841381788253784,1.027842402458191,-9.939653396606445,-0.29973781344949096,-0.24284988310688835,-10.647314757104311,1.1867774880843005,4.971145597897413,0.6748240900375456
1730865971.0333781,-1.598343849182129,1.0370818376541138,-9.97574520111084,-0.31100880089253424,-0.2500172527740375,-10.643625853819358,1.1836553502559957,4.9971013016069294,0.8743014356734667
1730865971.083417,-1.5712602138519287,1.0332560539245605,-9.993497848510742,-0.3212752961367396,-0.25656282433988103,-10.639790055589174,1.1841183570180254,4.992388357638156,0.8345513352362608
1730865971.133399,-1.550557255744934,1.039259433746338,-9.944525718688965,-0.32943915931644613,-0.2621440971102416,-10.636539837366723,1.184781087876851,4.97945168322488,0.8745383437172668
1730865971.1834455,-1.5575945377349854,1.0153611898422241,-9.915091514587402,-0.3344036385737838,-0.2665205532137556,-10.634592313902857,1.1845303719715436,4.970845213034488,0.8346654980576578
1730865971.233443,-1.6128383874893188,0.9890211224555969,-9.859123229980469,-0.3352534207086151,-0.2695422505085644,-10.634468964777984,1.1834421456938522,4.96157209937145,0.7682067451960454
1730865971.283348,-1.6128383874893188,0.9890211224555969,-9.859123229980469,-0.33142402380112057,-0.2711159345633435,-10.63637290323689,1.1815267811427934,4.951651814097935,0.6754470445169934
1730865971.283348,-1.700724482536316,0.9786924719810486,-9.800239562988281,-0.32281548320398895,-0.2711807762492313,-10.640160437842836,1.1815137175956476,4.951594287227882,0.6748523339230725
1730865971.3333108,-1.7688379287719727,1.0146944522857666,-9.755945205688477,-0.30984057939650866,-0.26971747084231734,-10.645377280407033,1.1860550816001363,4.970152667255304,0.8746271584113504
1730865971.3833656,-1.7688379287719727,1.0146944522857666,-9.755945205688477,-0.29341543756413824,-0.266783820723649,-10.651319275055505,1.1885422281014109,4.951481384088006,0.874138760604345
1730865971.3833656,-1.8208271265029907,1.02140212059021,-9.763900756835938,-0.27486374665488966,-0.2625463646330152,-10.657130538551094,1.1885442639633945,4.951432279521795,0.8739934587560981
1730865971.433279,-1.8217395544052124,1.0340009927749634,-9.765320777893066,-0.25574113479073846,-0.2572798435598262,-10.661947071605749,1.1886004560492123,4.942104411332245,0.8341130164767252
1730865971.48329,-1.782911777496338,1.0537012815475464,-9.80487060546875,-0.23763475393226857,-0.25134321347977606,-10.665040466792734,1.190409570527242,4.9379227776830685,0.8739397847165264
1730865971.5332751,-1.7525897026062012,1.0612386465072632,-9.85537052154541,-0.22195680994549602,-0.24515511021447273,-10.665931761258456,1.1906454008993281,4.928614559950355,0.8337885773306758
1730865971.5832372,-1.7406247854232788,1.1116029024124146,-9.87990665435791,-0.20976048902986955,-0.23917387858548012,-10.66447348537634,1.1903424490979069,4.918727837127506,0.7671583745355937
1730865971.633259,-1.770524501800537,1.115897536277771,-9.90289306640625,-0.20164886346914956,-0.23388376998935312,-10.660875061273654,1.1895214724508356,4.908192637962683,0.673393001499906
1730865971.683197,-1.7900440692901611,1.1545110940933228,-9.899785995483398,-0.1978063899686299,-0.22978077520760556,-10.655649538250795,1.192652559582161,4.9293159124398365,0.8741894604968096
1730865971.7331789,-1.8505797386169434,1.163799524307251,-9.896068572998047,-0.1981127169431007,-0.22734603846727458,-10.649500173352457,1.194434701634866,4.912114401891515,0.873995660933706
1730865971.783353,-1.8505797386169434,1.163799524307251,-9.896068572998047,-0.20227453968029424,-0.2270066382390217,-10.643187543927478,1.1945678155035995,4.903830207411062,0.8337652784777845
1730865971.783353,-1.8653908967971802,1.1624170541763306,-9.862640380859375,-0.2099191325146929,-0.22908511641940216,-10.63741116342263,1.194567147841804,4.903783785041206,0.8334743574414993
1730865971.8332534,-1.84821355342865,1.119704008102417,-9.858514785766602,-0.22062411633970444,-0.23374142124083336,-10.63271765715581,1.1941724239055567,4.895025011368042,0.7672407248546214
1730865971.8832345,-1.8270213603973389,1.114829421043396,-9.805334091186523,-0.23390163099837236,-0.24091981813625624,-10.629436754322507,1.193209712967096,4.885615030661141,0.6741076094939543
1730865971.9334147,-1.793975830078125,1.0453251600265503,-9.822367668151855,-0.24916759407794942,-0.25031581994427543,-10.627651786183787,1.1967587862608258,4.9015928354911775,0.8741509764965693
1730865971.9832606,-1.7209333181381226,1.0137131214141846,-9.828447341918945,-0.2657108129235668,-0.26136806377305494,-10.6272219153932,1.1964722258397542,4.896996749516834,0.8343909473620452
1730865972.0332992,-1.6012029647827148,0.9719731211662292,-9.870986938476562,-0.28265447788006176,-0.27327656411779533,-10.627866125934958,1.1998333228270892,4.882847772332413,0.8745892704790987
1730865972.0832047,-1.5673483610153198,0.9927900433540344,-9.874567985534668,-0.2989144267271694,-0.28506829401462286,-10.62927682180661,1.2001404901741386,4.873631545433485,0.8350162209823417
1730865972.133241,-1.5673483610153198,0.9927900433540344,-9.874567985534668,-0.31322300631105204,-0.2957237363103493,-10.63120344165903,1.202142070016204,4.868887146016824,0.8745574428657049
1730865972.133241,-1.5617990493774414,1.0194441080093384,-9.915316581726074,-0.3242749593271015,-0.3043321368134271,-10.633481463111288,1.2021448868718434,4.868841977894495,0.8744170235016208
1730865972.1831715,-1.576568603515625,1.0584110021591187,-9.886327743530273,-0.33093519212596584,-0.3102263483783018,-10.636031102976746,1.2022703064001685,4.859961387120434,0.8349788329401224
1730865972.2332606,-1.631142258644104,1.0728533267974854,-9.91388988494873,-0.3324174073417916,-0.31307211770049037,-10.638841055038364,1.2015679794411651,4.8501331738893585,0.7681736056990056
1730865972.283102,-1.7173388004302979,1.079965353012085,-9.86382007598877,-0.3284185200456865,-0.3128950517827941,-10.64193157524797,1.2028398232247903,4.857609823338296,0.874758186921401
1730865972.3331964,-1.82231605052948,1.1077828407287598,-9.826631546020508,-0.31922240865296353,-0.31003928156727056,-10.645296484538214,1.2020651994776057,4.852198361047739,0.8346335315224284
1730865972.383157,-1.8533849716186523,1.1184059381484985,-9.800682067871094,-0.3057423935258073,-0.3050894314543585,-10.648834385282981,1.2082763897619924,4.838708259305825,0.8748224356019273
1730865972.4330823,-1.8954871892929077,1.0949914455413818,-9.761144638061523,-0.28944390176554846,-0.2987816088328953,-10.652303391877178,1.2092244523454758,4.8293947579998,0.834967227426246
1730865972.4830406,-1.8989217281341553,1.0262970924377441,-9.779446601867676,-0.27214203280879845,-0.2918853653139948,-10.65533062100342,1.2094693452762113,4.819399171065213,0.7688572741552064
1730865972.5331557,-1.8536771535873413,1.0082930326461792,-9.78778076171875,-0.2557334955386342,-0.2850546045927612,-10.657479178727588,1.2090502555712608,4.808538994176761,0.674905812231498
1730865972.5831227,-1.783974289894104,1.004658818244934,-9.84261703491211,-0.2419125494470293,-0.2787132594056866,-10.658357894625915,1.2098607011912077,4.828292662885777,0.8748078980405979
1730865972.6330674,-1.783974289894104,1.004658818244934,-9.84261703491211,-0.23192120099791946,-0.2730398327256053,-10.657734687322824,1.2149516142992618,4.799434210051285,0.8745253066966349
1730865972.6330674,-1.7528783082962036,1.0574264526367188,-9.855023384094238,-0.22641572596595894,-0.26803886519444475,-10.6555993485993,1.2149673350919683,4.799322365609569,0.8743658582023311
1730865972.6830595,-1.7219197750091553,1.080628514289856,-9.910914421081543,-0.22547299140328064,-0.2636527926270522,-10.652160259085859,1.2166709091367596,4.789903824748817,0.8807016678098104
1730865972.7331333,-1.7219197750091553,1.080628514289856,-9.910914421081543,-0.22867601490287,-0.2598633547829007,-10.647813983068797,1.218209054715804,4.77552691169333,0.8436161692098094
1730865972.7331333,-1.704637885093689,1.1132997274398804,-9.919187545776367,-0.23523540482967914,-0.25673451927803986,-10.643102370056035,1.2182172958291688,4.7754297962809,0.8432820714892026
1730865972.7830756,-1.704637885093689,1.1132997274398804,-9.919187545776367,-0.24413314057715357,-0.25440239529946773,-10.638636190500982,1.2191471369199562,4.76060594367046,0.7802270009103763
1730865972.7830756,-1.6880874633789062,1.1303209066390991,-9.951221466064453,-0.2542617931277721,-0.2530476397673675,-10.635007058923012,1.2191505842395678,4.7605229308348695,0.7798092509923551
1730865972.8330402,-1.6880874633789062,1.1303209066390991,-9.951221466064453,-0.2645378876823097,-0.25286125485489797,-10.63273026947193,1.219452841180993,4.744988342539751,0.6899630895682779
1730865972.8330402,-1.6892642974853516,1.1353075504302979,-9.929433822631836,-0.27398903260755636,-0.2540072363880787,-10.632211293526698,1.2194526891328497,4.744901199648863,0.6893962227354485
1730865972.8830557,-1.6928538084030151,1.1137971878051758,-9.93874454498291,-0.28182131408388067,-0.25658657149027175,-10.633706598123702,1.2190763250083962,4.728791151865028,0.5735026762755531
1730865972.9329422,-1.7044410705566406,1.0738990306854248,-9.894899368286133,-0.2874673992915695,-0.26059613355981803,-10.637285462184112,1.2173197990844729,4.786975158591649,0.8812958236592674
1730865972.9829872,-1.7288248538970947,1.0470776557922363,-9.854463577270508,-0.29061459644641574,-0.26588133309959294,-10.642804523012034,1.216717320616861,4.783488922924935,0.841983479327941
1730865973.0330038,-1.782965898513794,1.0143132209777832,-9.822835922241211,-0.2912227355825796,-0.27210497517949955,-10.649889643505949,1.2153856504504095,4.7793259825520416,0.7759713872544468
1730865973.082945,-1.8363450765609741,1.0109021663665771,-9.767317771911621,-0.2895423740732679,-0.2787595221289921,-10.657938479749486,1.2196273793681915,4.770489878363921,0.8848827011945097
1730865973.132889,-1.8869452476501465,0.9894759058952332,-9.760782241821289,-0.2861229172400224,-0.28522529848473527,-10.666160609434558,1.2193387002104532,4.764074672088416,0.8462275802600779
1730865973.1829495,-1.8473352193832397,1.0347927808761597,-9.739604949951172,-0.28177059382806596,-0.2908598530281845,-10.67365726633599,1.2183398853109149,4.756925339930874,0.7808249720597723
1730865973.232936,-1.816389560699463,1.0465000867843628,-9.774761199951172,-0.27741533666339147,-0.29510655572974476,-10.67953763910095,1.2215378693175079,4.757799977705987,0.8871995269857424
1730865973.2828844,-1.783855676651001,1.0769073963165283,-9.79489803314209,-0.2739125887876142,-0.2975985146398983,-10.683055586364508,1.2239710566532591,4.741595084290873,0.8909360778061166
1730865973.3328242,-1.7646828889846802,1.053520679473877,-9.82564926147461,-0.2718739733708317,-0.2982126759908602,-10.683733919873523,1.2240689860922038,4.73298916070351,0.8525999152266844
1730865973.3828576,-1.7351040840148926,1.0145779848098755,-9.854711532592773,-0.2715885022085937,-0.29704163855719834,-10.681439659025624,1.2234878488143728,4.72363940811316,0.7875673317089387
1730865973.432912,-1.7351040840148926,1.0145779848098755,-9.854711532592773,-0.2730252684980433,-0.29430039873100694,-10.67639162351373,1.2222209939812165,4.713516790933359,0.6955062350406821
1730865973.432912,-1.683071255683899,0.9749651551246643,-9.900102615356445,-0.275884445143728,-0.29023002366163425,-10.669108739947207,1.2222114553298045,4.713454700413076,0.6948816697967611
1730865973.4828544,-1.6453770399093628,0.9578630328178406,-9.910890579223633,-0.27965755219740507,-0.2850377223752343,-10.66033022104785,1.2202694005344665,4.702715369613666,0.5771993126490402
1730865973.532847,-1.649688720703125,0.9565423130989075,-9.945751190185547,-0.28368090891413833,-0.27886909053593567,-10.650934972955973,1.2175842920109043,4.69108772097838,0.4306816724673911
1730865973.5828483,-1.6442580223083496,0.9954084157943726,-9.940225601196289,-0.28721255553223174,-0.2718208231625371,-10.641859150926201,1.2252045153122169,4.728545095603948,0.889238064771946
1730865973.632834,-1.6689367294311523,1.0497392416000366,-9.937795639038086,-0.2895455799941086,-0.26400791189157047,-10.63400202125233,1.2244925338487853,4.724405059289572,0.8495755333683079
1730865973.682793,-1.6859419345855713,1.0834542512893677,-9.915569305419922,-0.29012398011283885,-0.255657272434715,-10.628123588924844,1.2287439341153557,4.716338377789774,0.8888917638216176
1730865973.7328548,-1.71327543258667,1.1262437105178833,-9.893120765686035,-0.28862920104971634,-0.24717000756034144,-10.624751822484756,1.2287671152275983,4.710988947004752,0.8486344533339472
1730865973.782775,-1.7269731760025024,1.1472166776657104,-9.872698783874512,-0.2850221705567545,-0.23911897426116524,-10.624121094668109,1.2280747017716573,4.705094398157251,0.7823426613419955
1730865973.8327966,-1.735066294670105,1.1401067972183228,-9.833118438720703,-0.2795337800473072,-0.23218646750913619,-10.62615203098492,1.2292728679434313,4.695568458650757,0.88916819153568
1730865973.8827624,-1.717958927154541,1.1496965885162354,-9.815305709838867,-0.27260573051365516,-0.2270604481777651,-10.630468397750722,1.2286530465703056,4.688135097562242,0.8492283953258981
1730865973.9327734,-1.6673269271850586,1.18075430393219,-9.812365531921387,-0.26478730068274403,-0.22433007898147,-10.636449561198534,1.2316670552542062,4.684092733449398,0.8897798766104047
1730865973.9827108,-1.718985915184021,1.200554609298706,-9.816550254821777,-0.2566177662358437,-0.22442964851120736,-10.643323806189235,1.2316874642634412,4.67682568002684,0.8503349998889996
1730865974.032757,-1.777178168296814,1.1863377094268799,-9.796299934387207,-0.2485711779777538,-0.22762649465230858,-10.650282713894885,1.2328279446807615,4.672774777133161,0.8896888508451695
1730865974.0837018,-1.8267006874084473,1.1075407266616821,-9.833602905273438,-0.24110295649023863,-0.23399466846681516,-10.656580984791265,1.2326332293669986,4.665656993092557,0.8487943547431465
1730865974.1328225,-1.8129234313964844,1.0744457244873047,-9.833734512329102,-0.23471682631051596,-0.24334343020916765,-10.661616241579127,1.2318519763472349,4.658137671937425,0.7824933087343511
1730865974.1827915,-1.7848941087722778,1.034195899963379,-9.854951858520508,-0.22994541422297338,-0.2551527965954558,-10.664991512519048,1.230497608089833,4.649990374671122,0.6898279827012354
1730865974.2327878,-1.7069191932678223,1.0519814491271973,-9.866008758544922,-0.2272316373735036,-0.268593694683323,-10.66654400904548,1.2346612689395002,4.66003277504243,0.889946733187094
