Timestamp,IMU_Linear_Acc_X,IMU_Linear_Acc_Y,IMU_Linear_Acc_Z,Filtered_X,Filtered_Y,Filtered_Z,Pose_X,Pose_Y,Pose_Z
1730865946.8840554,-1.6525182723999023,1.072100281715393,-9.886634826660156,-0.0020062409800695622,-0.0011156752454640267,-0.19022420645541577,0.8738991152177789,3.8310480549860557,0.8989990783657116
1730865946.9339588,-1.6460669040679932,1.1705397367477417,-9.888028144836426,-0.0025598972543816106,-0.0015638679129117146,-0.23928410065617087,0.9020952438399972,3.8310569796892624,0.898997958674407
1730865946.9839773,-1.5448205471038818,1.3515266180038452,-9.916738510131836,-0.0032063218910218187,-0.002139417133827243,-0.29604791871887826,0.902501177983687,3.8310584425087404,0.8989977207000478
1730865947.0338826,-1.4505513906478882,1.3764179944992065,-9.885746955871582,-0.003952269334891773,-0.002862660432260397,-0.3609390278958783,0.891464958316503,3.831052788782076,0.8989965525905589
1730865947.083904,-1.4505513906478882,1.3764179944992065,-9.885746955871582,-0.004802844790022579,-0.00375587456063442,-0.4343286890722452,0.8113338036043916,3.8311044434314807,0.8988982706595227
1730865947.1338828,-1.5220105648040771,1.4168083667755127,-9.791072845458984,-0.006826362884591092,-0.006151410548991324,-0.6078123742505555,0.8778600505998827,3.8312183274357547,0.8976892358653122
1730865947.1838188,-1.466209888458252,1.5062932968139648,-9.781386375427246,-0.007997993725212663,-0.007706864024253324,-0.7083666916072757,0.8665911645239402,3.831327623462906,0.8948209469757142
1730865947.2339377,-1.466209888458252,1.5062932968139648,-9.781386375427246,-0.00927245350393344,-0.009537966888968503,-0.8183376814004414,0.8553194284719644,3.831415124903781,0.8900440265647888
1730865947.2339377,-1.6475468873977661,1.4503509998321533,-9.745635986328125,-0.01064517936675049,-0.01167384030795012,-0.9378072054071648,0.855259389523141,3.8314155265266843,0.8900131222814028
1730865947.2838902,-1.7597566843032837,1.3032793998718262,-9.741059303283691,-0.012111024953421558,-0.014143908736070705,-1.0667981398911548,0.8830464520911367,3.831440300543425,0.8828902743940639
1730865947.3337905,-1.7597566843032837,1.3032793998718262,-9.741059303283691,-0.013665666528152497,-0.01697651679331964,-1.2052754049466334,0.8797168421469773,3.831405202126641,0.8730005620735065
1730865947.3337905,-1.6816997528076172,1.2365984916687012,-9.753911018371582,-0.015306643208447232,-0.020197442892224245,-1.3531475014810648,0.8797057560636052,3.8314051528255315,0.8729433185343862
1730865947.3838024,-1.757475733757019,1.2633165121078491,-9.788309097290039,-0.01703338451047657,-0.023828907827550025,-1.510268588401693,0.8774657591772365,3.8313654389689478,0.8595950149794457
1730865947.4338114,-1.9410609006881714,1.2342725992202759,-9.715015411376953,-0.018846973434878723,-0.027889130596405704,-1.676440951069316,0.87473084686948,3.8311694422842386,0.8422710083708671
1730865947.4836771,-1.7980672121047974,1.2204742431640625,-9.816902160644531,-0.02075046547308488,-0.03239219254149206,-1.851417647312536,0.8716424440183161,3.8309822542942706,0.820566508976188
1730865947.5337312,-1.6201061010360718,1.2407430410385132,-9.861479759216309,-0.022748991095745137,-0.037348018241722375,-2.0349054539825744,0.8684943133791807,3.830707656888787,0.7939713992145645
1730865947.5837328,-1.6417081356048584,1.2559638023376465,-9.932706832885742,-0.024848631937085492,-0.04276248103180162,-2.2265683721537286,0.8754709822378296,3.8302673247781693,0.7620393403595124
1730865947.6336718,-1.4783844947814941,1.2720919847488403,-9.962823867797852,-0.027054736351102174,-0.04863770269163729,-2.426031481657653,0.874829804072149,3.8297767804251177,0.7242521880420284
1730865947.6836586,-1.4127205610275269,1.249739170074463,-9.95790958404541,-0.029370574177213837,-0.054972423011376226,-2.632884706527191,0.8741192004256585,3.82915759978107,0.680207379750588
1730865947.7336457,-1.4345476627349854,1.2176520824432373,-9.960887908935547,-0.03179633544218271,-0.06176221886405457,-2.8466862735395786,0.8715108364075874,3.828312463778226,0.6294067015855753
1730865947.7836764,-1.6071974039077759,1.2252144813537598,-9.856568336486816,-0.03432880749566894,-0.06899951643179654,-3.0669658086662643,0.8701124047466652,3.8273821837071793,0.5710875708261766
1730865947.8337014,-1.532752275466919,1.1856809854507446,-9.923158645629883,-0.036962119189707154,-0.07667354801484598,-3.2932271404851257,0.868623124309099,3.8262683613169592,0.5047356685803454
1730865947.8835726,-1.49844229221344,1.2116985321044922,-9.878271102905273,-0.0396887698583899,-0.08477038795940167,-3.5249511279885493,0.8681844038504525,3.8248586877707558,0.4302346385961958
1730865947.9345996,-1.521494746208191,1.106750726699829,-9.946966171264648,-0.042500009641314514,-0.09327302128200496,-3.761598807346046,0.8668421420465454,3.823281958603417,0.34429150521957247
1730865947.9846032,-1.521235466003418,1.066617727279663,-9.89339542388916,-0.04538583029748961,-0.10216125077233564,-4.0026147614351935,0.8701117955904422,3.8213746738282715,0.2502535758531372
1730865948.034629,-1.6524330377578735,0.9745575785636902,-9.893824577331543,-0.04833524324314818,-0.11141133654533925,-4.247430414212385,0.8708117577025118,3.819207220678145,0.14675482323512593
1730865948.0845356,-1.714928388595581,0.9513433575630188,-9.833707809448242,-0.05133706013950418,-0.12099555466865808,-4.495467051450941,0.8709403370048554,3.816852402551365,0.031470700063291196
1730865948.1347377,-1.6118273735046387,0.9223973155021667,-9.884674072265625,-0.054380844194841266,-0.1308819599527432,-4.746138634226036,0.8709360502341947,3.8141776580868285,-0.09558823382710117
1730865948.1846237,-1.3661701679229736,0.9260615110397339,-9.857068061828613,-0.05745707167025421,-0.14103450162473713,-4.9988546655935355,0.8707927591886986,3.811187221392552,-0.23370089349571263
1730865948.2345996,-1.2212275266647339,0.8862243294715881,-9.932165145874023,-0.060555819572820864,-0.15141343648589015,-5.253023231916442,0.8685194874481644,3.8076704477402363,-0.3847596942173788
1730865948.2835228,-1.0323896408081055,0.8774198889732361,-9.941996574401855,-0.06366455954077278,-0.16197583282325206,-5.508054156892628,0.8678636187646173,3.803987702735291,-0.5462333167013952
1730865948.3344536,-1.2495695352554321,0.9381879568099976,-9.924843788146973,-0.06676641346911964,-0.17267611067436156,-5.76336210098062,0.8691247170042457,3.79953429961298,-0.7293134171687464
1730865948.3844686,-1.4342632293701172,1.0002256631851196,-9.9284086227417,-0.06984016328803333,-0.18346684844128436,-6.018369338507568,0.86891932398409,3.794925573567051,-0.9221694416291778
1730865948.4344435,-1.6491162776947021,1.1198151111602783,-9.88106918334961,-0.07286235658262687,-0.19430001982937972,-6.27250810410405,0.8685371838131717,3.789847923419003,-1.1302930855191007
1730865948.4846096,-1.8150001764297485,1.2128596305847168,-9.911548614501953,-0.07581044388780134,-0.20512854595396252,-6.525222649643272,0.8679602793212089,3.784181753943129,-1.3580036083590998
1730865948.5345068,-1.8747748136520386,1.2866096496582031,-9.855307579040527,-0.0786655834260631,-0.2159078930158703,-6.775971166063169,0.8665275279603264,3.777850434466007,-1.5988124323671924
1730865948.5845046,-1.8972151279449463,1.2438414096832275,-9.890105247497559,-0.0814143887456172,-0.22659731466705732,-7.0242276146342455,0.8606756330737789,3.770926538677871,-1.857767686620233
1730865948.6345894,-1.8699368238449097,1.2726092338562012,-9.829380989074707,-0.08404945506807891,-0.2371603831427334,-7.269483440021145,0.8580476941058003,3.763654560049849,-2.1346678729700463
1730865948.6844258,-1.9649289846420288,1.1705948114395142,-9.842905044555664,-0.08656904386121113,-0.24756482888196651,-7.511249124011361,0.8582543855506982,3.7555663648409556,-2.4279420252459865
1730865948.7343395,-1.755480170249939,1.117276906967163,-9.814167976379395,-0.08897641746124128,-0.25778189836749027,-7.749055571872983,0.8563520351614017,3.7471052633013078,-2.7404302024236276
1730865948.7843802,-1.648979902267456,1.0715574026107788,-9.870731353759766,-0.09127865877188324,-0.2677854152332105,-7.982455435025626,0.8588313749600375,3.73757572061192,-3.0767965121462097
1730865948.8343627,-1.619248390197754,1.0923936367034912,-9.766934394836426,-0.0934848132514603,-0.2775509145086543,-8.21102440952458,0.8581378624661127,3.727806625602052,-3.4279077932416158
1730865948.8843756,-1.5719029903411865,1.1600306034088135,-9.814069747924805,-0.09560411535695959,-0.28705528462147484,-8.43436230920705,0.860682503746401,3.716914906765961,-3.803022217479931
1730865948.9342463,-1.4718180894851685,1.2043366432189941,-9.855443000793457,-0.0976448767717919,-0.2962770415256232,-8.652093933702295,0.8607920719999291,3.705620517809495,-4.199309229098898
1730865948.9843962,-1.5622344017028809,1.2559999227523804,-9.844598770141602,-0.09961380554678546,-0.305196979246435,-8.863870047643696,0.8654817977290319,3.693235561621219,-4.616604079417367
1730865949.0343103,-1.6065484285354614,1.3037285804748535,-9.91126537322998,-0.10151580951612338,-0.3137988349369186,-9.069368435156541,0.8671775461439168,3.680470724830712,-5.055059602214317
1730865949.084335,-1.6464300155639648,1.3352413177490234,-9.848318099975586,-0.1033545013617039,-0.32206980071723734,-9.26829474054081,0.8686319734393271,3.6667876049560357,-5.52065739751349
1730865949.1342292,-1.7890230417251587,1.2793657779693604,-9.847938537597656,-0.10513310679156225,-0.33000077578001846,-9.46038292519576,0.867578860787357,3.6519146037340477,-6.007962155415757
1730865949.1843033,-1.9112098217010498,1.1769911050796509,-9.826825141906738,-0.10685557124062438,-0.3375860947383451,-9.645395304416894,0.8680470549804002,3.636643523590239,-6.518445025990482
1730865949.2342906,-1.7468112707138062,1.169215440750122,-9.872337341308594,-0.10852765426641987,-0.34482264866967094,-9.82312240143207,0.8682460551623444,3.6206141723354213,-7.050138292730588
1730865949.2843397,-1.7610691785812378,1.1731765270233154,-9.90518856048584,-0.11015721925639116,-0.3517088863000987,-9.993382932929931,0.8688851357706954,3.603142843800372,-7.6093735351331775
1730865949.3341703,-1.772855281829834,1.1963719129562378,-9.869773864746094,-0.11175356360866733,-0.3582442773015479,-10.156023901830212,0.8690778367438962,3.5853408576501464,-8.191242636640103
1730865949.3842542,-1.7723252773284912,1.1582468748092651,-9.856871604919434,-0.1133267228749765,-0.3644292253435431,-10.310920459043523,0.8689899412455072,3.5664606920291155,-8.804394524091892
1730865949.4341888,-1.5951693058013916,1.1924304962158203,-9.84045124053955,-0.11488703411438339,-0.37026506323699304,-10.457975352901366,0.8703856391864747,3.5462760190777702,-9.437879084741676
1730865949.4842129,-1.4303251504898071,1.1096744537353516,-9.871488571166992,-0.11644421739117897,-0.3757539456852975,-10.597118191229866,0.8704884217151586,3.5256295758262084,-10.10020908097047
1730865949.5342839,-1.4494115114212036,1.127644419670105,-9.831385612487793,-0.11800580908228321,-0.38089860897249306,-10.728304751348174,0.8662782696080563,3.5035067008845577,-10.78671855298383
1730865949.5842733,-1.374488115310669,1.0864741802215576,-9.847817420959473,-0.11957585157746686,-0.38570204657412305,-10.85151627577297,0.8645515304686998,3.4808160708592313,-11.506751646629894
1730865949.634126,-1.4525998830795288,1.0719263553619385,-9.802490234375,-0.12115449806919691,-0.390167233006171,-10.966758622790547,0.8637678859200976,3.4568549409900347,-12.242592005263013
1730865949.684152,-1.5784028768539429,1.0320987701416016,-9.840079307556152,-0.12273848231750857,-0.3942969039340848,-11.07406130243872,0.8620378608778003,3.432311756076127,-13.013953249793506
1730865949.734146,-1.5448294878005981,0.9901504516601562,-9.828018188476562,-0.12432224118266229,-0.39809330442248014,-11.173476528160663,0.8643283739313065,3.406345162220415,-13.8040383383962
1730865949.7841535,-1.495914340019226,0.9905200004577637,-9.897010803222656,-0.12589903433160834,-0.4015579214066938,-11.265078389774223,0.8636222850247528,3.379703331499195,-14.634227275005216
1730865949.8341901,-1.5989469289779663,0.96947181224823,-9.889765739440918,-0.12746144378632618,-0.40469132425808496,-11.348962153026065,0.863973144320172,3.3516576938244915,-15.480668617669867
1730865949.8841543,-1.5671354532241821,0.9694827198982239,-9.91878890991211,-0.12900162286409075,-0.4074931848006491,-11.425243555291528,0.8635049307509141,3.3223929085425885,-16.360303424151052
1730865949.9341342,-1.4966825246810913,0.9941743016242981,-9.964380264282227,-0.13051161897700267,-0.4099624427254316,-11.494057982272452,0.8626878102002564,3.292820270460922,-17.271420887249068
1730865949.984129,-1.4800490140914917,0.969645619392395,-9.981051445007324,-0.13198336875807842,-0.4120975792895746,-11.555559587274335,0.8615363959773331,3.262062050112811,-18.216201338165085
1730865950.0342054,-1.459653377532959,1.016774296760559,-9.992463111877441,-0.13340833415451048,-0.4138969377978963,-11.609920373871839,0.8600587678613771,3.2304262184294856,-19.18517863574016
1730865950.0840492,-1.5144121646881104,1.049118995666504,-9.973414421081543,-0.13477728915410497,-0.41535908954594036,-11.657329093204858,0.8658023265378287,3.1972356584017314,-20.16980356275806
1730865950.1340241,-1.6105612516403198,1.0086636543273926,-9.94045639038086,-0.13608059905767975,-0.41648326029454835,-11.697989855544991,0.8657233708064718,3.1634932998430996,-21.197485104541244
1730865950.1840804,-1.5536221265792847,1.06661057472229,-9.94149398803711,-0.13730892017269142,-0.4172696499107065,-11.732120515190843,0.8677689927508808,3.127744388754236,-22.25249205244425
1730865950.2339597,-1.603241205215454,1.065562129020691,-9.964529037475586,-0.13845383194278202,-0.4177196159585084,-11.759951052768224,0.8680267386110221,3.092279542674296,-23.32727143176475
1730865950.2839465,-1.879683494567871,1.0326447486877441,-9.866992950439453,-0.1395083460113326,-0.4178358343807945,-11.781722088451783,0.8679403226958144,3.055216395136821,-24.448258450268135
1730865950.3339956,-2.0737950801849365,0.9914940595626831,-9.809025764465332,-0.14046812885124313,-0.4176222713585504,-11.797683268511847,0.8712403740523011,3.0168216238338026,-25.572660912074557
1730865950.3840535,-2.0737950801849365,0.9914940595626831,-9.809025764465332,-0.14133350881706913,-0.41708385817271376,-11.808091378503255,0.8715809512862686,2.977591206379179,-26.75442644836706
1730865950.3840535,-1.8243703842163086,0.9407444000244141,-9.798154830932617,-0.14211066920738413,-0.416226095759045,-11.813208583941154,0.8715818394035351,2.977371391027472,-26.761042781679624
1730865950.4339852,-1.6435387134552002,1.0102969408035278,-9.805895805358887,-0.14281061394719557,-0.41505480293595665,-11.813301119306804,0.8755557108512085,2.937052417439837,-27.93684876997322
1730865950.4839067,-1.5730770826339722,1.1460793018341064,-9.76155948638916,-0.14344645557375887,-0.41357625879263243,-11.808638248543577,0.8768266812409943,2.8960523401592457,-29.16784857579209
1730865950.5338778,-1.402429223060608,1.2469379901885986,-9.80485725402832,-0.14403068723233517,-0.4117980284522022,-11.799491262447178,0.8777385412098674,2.8540756259920754,-30.426712022234017
1730865950.5837739,-1.2801685333251953,1.27745521068573,-9.844583511352539,-0.1445731696034529,-0.4097302031567778,-11.786132597642737,0.8782930967236604,2.810909591071832,-31.71992797270356
1730865950.6338754,-1.3144124746322632,1.2810062170028687,-9.876189231872559,-0.1450796822015779,-0.40738630099053463,-11.768835258573837,0.8784848259499807,2.7666724217640444,-33.044073485512435
1730865950.6837897,-1.3720238208770752,1.2254197597503662,-9.91110610961914,-0.14555132415033714,-0.40478339043878575,-11.747872440213246,0.8783120654214993,2.721460421639342,-34.39640335016098
1730865950.7338083,-1.4993278980255127,1.1518988609313965,-9.931300163269043,-0.14598513654049106,-0.4019414877208606,-11.723517119735424,0.8795335257346633,0.9856390607008912,0.8800636866096084
1730865950.78379,-1.6006672382354736,1.0863429307937622,-9.86929702758789,-0.14637564109927936,-0.39888246516920883,-11.696041460901709,0.8798622064657434,0.9863950132977765,0.8333580571112205
1730865950.8337855,-1.81550133228302,1.01986563205719,-9.81452465057373,-0.14671678918624853,-0.3956287871203659,-11.665715840938688,0.8840101094299294,0.9918625537350362,0.8695014706358806
1730865950.8837059,-1.9375649690628052,0.9927679896354675,-9.77560806274414,-0.14700408281748445,-0.39220237717940043,-11.632807476900771,0.8849636737558724,0.9932397468697335,0.8229752681132275
1730865950.9336746,-2.0457820892333984,0.9714118242263794,-9.726194381713867,-0.14723659434769754,-0.38862380751768566,-11.59757895755695,0.8855443811950318,0.9936341425939132,0.7477159625775321
1730865950.9836621,-2.0869340896606445,1.0083929300308228,-9.737180709838867,-0.1474184127204616,-0.3849119067181802,-11.560286988107059,0.8879260800975052,1.007793037841388,0.8689532856647634
1730865951.0336392,-2.0562994480133057,1.051559329032898,-9.758321762084961,-0.1475591965595582,-0.38108382596931245,-11.521181509404435,0.8886954516641837,1.0110005583863924,0.8229746703957367
1730865951.083622,-1.9736506938934326,1.1039338111877441,-9.822582244873047,-0.14767377148800132,-0.37715550826240896,-11.480505290285702,0.8986602566030925,1.01864338980066,0.868877354314954
1730865951.133597,-1.9302725791931152,1.1401413679122925,-9.887577056884766,-0.14778092535278398,-0.3731423600636806,-11.438493967643435,0.9023035577844294,1.0225705366970161,0.8230924939466322
1730865951.1835477,-1.8705997467041016,1.1601102352142334,-9.892549514770508,-0.14790185481834428,-0.3690598715994703,-11.395376320632653,0.9072092119209615,1.0290369696747086,0.8692583820656072
1730865951.233644,-1.852792739868164,1.1702474355697632,-9.919771194458008,-0.14805874474950192,-0.3649240184497027,-11.35137444133521,0.9112543996466732,1.0333703602520983,0.8239358266217287
1730865951.2836158,-1.850260853767395,1.1229956150054932,-9.914119720458984,-0.14827370803823373,-0.36075136361342874,-11.306703612107299,0.9122367880613396,1.0405150710737479,0.869646011971012
1730865951.3335752,-1.8229795694351196,1.0839333534240723,-9.910886764526367,-0.14856810820510022,-0.35655880307474686,-11.261571957079523,0.9146408267893941,1.0444085938247025,0.8248182397890195
1730865951.3836124,-1.7985893487930298,1.0479875802993774,-9.888747215270996,-0.14896211189657493,-0.35236300922065955,-11.21617995903084,0.9217167733344478,1.053701487522364,0.869797471589758
1730865951.4335694,-1.7535266876220703,0.9978740811347961,-9.872357368469238,-0.14947426138847725,-0.3481797791178491,-11.170719881041125,0.9309470284968815,1.0567655924721768,0.8701997797194748
1730865951.4836032,-1.7225205898284912,0.9698752164840698,-9.863229751586914,-0.150120997721118,-0.34402344633596016,-11.125375168710738,0.9360631579884517,1.0594444422403448,0.8257677740892855
1730865951.533507,-1.668954610824585,0.9353963732719421,-9.8529052734375,-0.1509161769803597,-0.3399064066937568,-11.080319931472399,0.9407695799577934,1.0612563883902053,0.7541291133210103
1730865951.583536,-1.6359572410583496,0.9215210676193237,-9.852986335754395,-0.1518706224627747,-0.33583879786663856,-11.035718557883316,0.9451407177823992,1.0622389645106993,0.6541236993679292
1730865951.6334298,-1.6144894361495972,0.9229671359062195,-9.850465774536133,-0.15299176746377044,-0.33182836791952514,-10.991725464580323,0.9265147029427138,1.069640353862193,0.8702576400535821
1730865951.6834772,-1.6067534685134888,0.9610587358474731,-9.857247352600098,-0.15428348276994258,-0.32788058304342843,-10.948484962751666,0.9261417032949336,1.0718740679511554,0.8264349454274924
1730865951.7344527,-1.5976148843765259,1.0084751844406128,-9.867647171020508,-0.15574613268873566,-0.3239990334747231,-10.906131231420277,0.9214656885182618,1.0866392720248528,0.8698534279054223
1730865951.7843916,-1.6114647388458252,1.0301212072372437,-9.874835968017578,-0.15737681202455014,-0.3201860791423318,-10.864788386954114,0.9192644720679454,1.0925718378266867,0.8259801750636546
1730865951.8344188,-1.5975745916366577,1.018343448638916,-9.889068603515625,-0.15916969595785066,-0.3164434831891477,-10.824570622595672,0.9166647143129873,1.097716757951621,0.7549428524654671
1730865951.8845086,-1.6075562238693237,0.9683912396430969,-9.893061637878418,-0.16111642640429363,-0.31277272784104027,-10.785582384638591,0.9190556125243747,1.0983332734765017,0.8701151603049978
1730865951.934418,-1.626556634902954,0.905511736869812,-9.897462844848633,-0.16320649897326842,-0.30917487071442995,-10.747918554831179,0.9175707580643476,1.1011601544795866,0.8270648446648997
1730865951.9844997,-1.6508206129074097,0.8503293991088867,-9.890620231628418,-0.16542770822292746,-0.30565003775497046,-10.711664605410004,0.914155902536923,1.1163902101635985,0.8705480355363202
1730865952.034278,-1.668717384338379,0.7852784395217896,-9.882685661315918,-0.1677666740422415,-0.30219678502687164,-10.676896705031483,0.9114950636927138,1.122942807647798,0.8284245837444264
1730865952.0843859,-1.666137456893921,0.7490000128746033,-9.847501754760742,-0.17020934963497647,-0.29881152713568254,-10.643681758991152,0.9102170728249499,1.131408817851276,0.8705783234041432
1730865952.134316,-1.6244356632232666,0.7482098340988159,-9.854060173034668,-0.17274135131649784,-0.29548817744861566,-10.612077388033894,0.9074598259860606,1.1381928126918568,0.82809127971946
1730865952.1843207,-1.5937052965164185,0.7874472141265869,-9.882034301757812,-0.17534799027168427,-0.29221816587454885,-10.58213197459249,0.9042534799000297,1.1442727263637646,0.7588538943755875
1730865952.2342668,-1.5707736015319824,0.8576775789260864,-9.910017013549805,-0.1780140669224618,-0.28899094587265717,-10.553884965129788,0.9085959938437433,1.136827088879362,0.8710070866050843
1730865952.2842512,-1.587791085243225,0.9232023358345032,-9.935588836669922,-0.18072367471361292,-0.2857949305330457,-10.527367426537387,0.9106753296730224,1.1467472892649853,0.8710947038324557
1730865952.3342435,-1.5839658975601196,0.9715844392776489,-9.951668739318848,-0.18346022201473575,-0.2826186163352592,-10.502602674279716,0.9102660134305361,1.1506239877140982,0.8292401536435732
1730865952.3842833,-1.6285433769226074,0.9795622229576111,-9.949352264404297,-0.18620669013793523,-0.2794515662066668,-10.479606816291444,0.9076497116859974,1.1471727859707734,0.8708060823590885
1730865952.4342704,-1.6731714010238647,0.9589577913284302,-9.931402206420898,-0.18894607946907538,-0.2762849843472316,-10.458389127138037,0.9057799316282151,1.148059144568729,0.828850665132348
1730865952.4843504,-1.7608195543289185,0.9085907340049744,-9.892904281616211,-0.19166205857720423,-0.27311177609301596,-10.43895220734611,0.9034320548305775,1.148256150623177,0.7606582606699518
1730865952.5342863,-1.8198007345199585,0.8613375425338745,-9.845653533935547,-0.19433980113328597,-0.26992616344268666,-10.421291931826472,0.9068079283364054,1.1611845893124788,0.8707857487370393
1730865952.5842535,-1.8743910789489746,0.8098325729370117,-9.812735557556152,-0.19696685563559224,-0.2667230542815436,-10.405397262507838,0.9055796171955908,1.1639034396925416,0.8290899802821295
1730865952.634168,-1.8814746141433716,0.8248398900032043,-9.78154468536377,-0.1995338042503191,-0.2634974306532065,-10.391250072259064,0.9072319295225907,1.176486983068585,0.8710026541909492
1730865952.6841817,-1.8178749084472656,0.9012826681137085,-9.799697875976562,-0.20203446913555262,-0.2602440877939538,-10.378825144829284,0.9064108788710494,1.1819871940809203,0.8294298591404758
1730865952.7341259,-1.7743693590164185,0.9895063042640686,-9.821540832519531,-0.20446551914515934,-0.25695799584958395,-10.368090484370313,0.90547289399272,1.1855902899901645,0.8710155153880781
1730865952.7841399,-1.7426655292510986,1.0704177618026733,-9.879551887512207,-0.206825631592069,-0.2536352102796523,-10.359007985555534,0.9040111216689828,1.190106155368333,0.8295985420091426
1730865952.834016,-1.7173658609390259,1.144403100013733,-9.899643898010254,-0.20911461815944507,-0.250273945609995,-10.351534369513343,0.9042992828871017,1.2035552483051273,0.8710831056849416
1730865952.884022,-1.7238008975982666,1.201750636100769,-9.902915954589844,-0.21133279441749306,-0.24687548024943484,-10.345622144087962,0.902888689556116,1.2101692509332034,0.8297813240996464
1730865952.9340377,-1.7645459175109863,1.1820310354232788,-9.86949348449707,-0.21348067941666107,-0.24344470482124533,-10.341220310512934,0.9086154098960537,1.2208450447383823,0.8719006589343202
1730865952.9839852,-1.83077871799469,1.1543887853622437,-9.82955265045166,-0.21555908992223052,-0.2399901359902685,-10.338274681450722,0.9116338260979536,1.2235759325239013,0.8726569695051247
1730865953.0339887,-1.8594506978988647,1.0799541473388672,-9.79504680633545,-0.21756957991074544,-0.2365233275795151,-10.33672788934673,0.9124657334442524,1.227232351980932,0.8319831759576364
1730865953.0839276,-1.8404059410095215,1.018115758895874,-9.759230613708496,-0.2195149159924354,-0.2330578359711212,-10.3365192816816,0.9127531460383362,1.2303063532569223,0.7654818610625336
1730865953.1339393,-1.7897979021072388,0.9865586757659912,-9.764646530151367,-0.22139918553498544,-0.2296080324744524,-10.337584893324685,0.9124903280249068,1.2328026476403688,0.6731902266621349
1730865953.1840162,-1.698754072189331,1.0258070230484009,-9.786855697631836,-0.2232273517861149,-0.22618814212295074,-10.339857652145685,0.9116787338641922,1.2392484930522827,0.8724925520267977
1730865953.2339149,-1.6195176839828491,1.096706748008728,-9.849236488342285,-0.22500435354537418,-0.22281187046764248,-10.343267931854442,0.9111459657404395,1.2427011738085743,0.8313827783278719
1730865953.2839737,-1.5690386295318604,1.1863417625427246,-9.894932746887207,-0.22673403331443182,-0.21949271701150808,-10.347744443289479,0.9100376103815608,1.2456286144417286,0.76374879328345
1730865953.3338645,-1.5596836805343628,1.2637195587158203,-9.941064834594727,-0.22841826978412735,-0.2162447436093169,-10.35321529154754,0.9115438116531064,1.2569784532058912,0.8732099506313157
1730865953.384044,-1.5596836805343628,1.2637195587158203,-9.941064834594727,-0.23005658242080818,-0.21308337524615828,-10.359608937644254,0.9107169232613543,1.262354118840274,0.831969421994705
1730865953.384044,-1.59630286693573,1.3051685094833374,-9.960204124450684,-0.23164622768085064,-0.2100258416059005,-10.366854868561953,0.9107102078322615,1.262384751679332,0.8316429912864752
1730865953.4338489,-1.6284863948822021,1.3273265361785889,-9.94701862335205,-0.23318266210014374,-0.20709120560485894,-10.374883959876694,0.9093224428060072,1.267152548468698,0.7653648936670439
1730865953.4840422,-1.6553434133529663,1.316172480583191,-9.920696258544922,-0.23466020775894725,-0.20430018755821422,-10.383628605479073,0.9117057896502887,1.2681662526111417,0.8739637985834912
1730865953.5338588,-1.6599690914154053,1.2806527614593506,-9.860176086425781,-0.23607271187133716,-0.201674815548242,-10.39302261351337,0.9145412785109888,1.282944540855967,0.8737426166337985
1730865953.583919,-1.6765570640563965,1.1801283359527588,-9.819402694702148,-0.23741403586450527,-0.199237739998415,-10.403000855232484,0.9146774555056543,1.2893460160203438,0.8325317276020393
1730865953.6338382,-1.6720153093338013,1.0732054710388184,-9.787087440490723,-0.23867835585260594,-0.1970111208015211,-10.413498801678589,0.9167057317272965,1.2962976428900461,0.8732809212447409
1730865953.6838663,-1.6663193702697754,0.9791675806045532,-9.763050079345703,-0.23986032111935263,-0.19501519363268888,-10.424452163003068,0.9168443983136995,1.3025168394306823,0.8317215639848318
1730865953.7339408,-1.6707918643951416,0.9239218235015869,-9.750232696533203,-0.24095510126031547,-0.1932668527649728,-10.435796736132811,0.9163821438384072,1.3082371261547316,0.7641973070215156
1730865953.7837968,-1.6994575262069702,0.9047927856445312,-9.781537055969238,-0.241958410812709,-0.19177863556326624,-10.447468479012167,0.9208263095949777,1.3028582675827238,0.8731658794951521
1730865953.8338177,-1.7137017250061035,0.9450106620788574,-9.824131965637207,-0.24286663303393635,-0.19055833538734837,-10.459403870851762,0.9212868217127091,1.3058304159911032,0.8314552447814663
1730865953.8838098,-1.7199853658676147,1.0237822532653809,-9.900525093078613,-0.24367702724653129,-0.18960931590446597,-10.471540601320251,0.9267382394354747,1.3136680464303567,0.8730083178338046
1730865953.933771,-1.7121604681015015,1.109671950340271,-9.941783905029297,-0.24438787421191316,-0.18893145522912355,-10.483818493547123,0.9327744919711335,1.3193644471351682,0.8733874974407178
1730865953.9838536,-1.7125602960586548,1.1412822008132935,-9.991416931152344,-0.24499847320625312,-0.18852241593349367,-10.496180438206682,0.9354086227746687,1.3232249905847193,0.8314688668491687
1730865954.033785,-1.7383090257644653,1.1559922695159912,-9.991555213928223,-0.24550906374124487,-0.1883787670954799,-10.508573108859872,0.9374017811334734,1.3265701821654146,0.7640255360798981
1730865954.0837812,-1.7700742483139038,1.0934906005859375,-9.966474533081055,-0.2459208320194563,-0.18849658536661118,-10.520947302429647,0.9325352828710242,1.333701917435194,0.8728401476353664
1730865954.1337168,-1.7931220531463623,1.0574482679367065,-9.924484252929688,-0.24623607298196307,-0.18887143600538564,-10.533257832929694,0.9323190258648726,1.3373485962487806,0.8310146145377955
1730865954.1838078,-1.8051255941390991,0.9757516384124756,-9.861323356628418,-0.24645840408549635,-0.18949789020331098,-10.545463033716967,0.9349826469158576,1.3513181401595653,0.8728717469451901
1730865954.233678,-1.8243852853775024,0.909440279006958,-9.807530403137207,-0.2465928941148903,-0.1903688268247023,-10.557524024311011,0.9351876356249285,1.358295317846408,0.8309183610166053
1730865954.2837088,-1.831785798072815,0.8526820540428162,-9.77783489227295,-0.24664608314515912,-0.19147470454395393,-10.569403936956505,0.9350996993572434,1.3562308680548456,0.8728197840431698
1730865954.3335953,-1.7967559099197388,0.8678164482116699,-9.767488479614258,-0.24662588983150302,-0.19280301732792432,-10.581067323219099,0.934566764410882,1.359715495774283,0.8309857869225744
1730865954.3836603,-1.7605763673782349,0.9291214346885681,-9.799591064453125,-0.2465413111474003,-0.1943382380854699,-10.592479909251498,0.935777250317883,1.373837339945534,0.8728064602738203
1730865954.433618,-1.710945725440979,1.0032237768173218,-9.818702697753906,-0.24640186913231701,-0.19606242674412414,-10.603608737687946,0.9351652842832627,1.3800057057380726,0.830560262089748
1730865954.4836576,-1.7012803554534912,1.053971767425537,-9.838756561279297,-0.2462169485103314,-0.19795632413404274,-10.614422569568116,0.9366383723154397,1.3857379891309454,0.8726554110305583
1730865954.5335536,-1.6881037950515747,1.0379717350006104,-9.849413871765137,-0.24599525717763607,-0.2000004606205033,-10.624892322147906,0.9360975055476576,1.3908846996180289,0.8305811469138862
1730865954.5836434,-1.7113316059112549,0.9963055849075317,-9.854170799255371,-0.24574455822083066,-0.20217580721701908,-10.63499139361449,0.9375297281547645,1.3956043925680364,0.8727448901214069
1730865954.6335702,-1.745736837387085,0.9328804016113281,-9.85682487487793,-0.24547170336822688,-0.20446378789659939,-10.644695847333473,0.937071216803867,1.3997780200657368,0.8303643670056416
1730865954.683587,-1.7479357719421387,0.8603179454803467,-9.831171989440918,-0.2451828995306037,-0.20684580811252737,-10.653984457768665,0.9359989578819919,1.403447854684785,0.7612890210542912
1730865954.733575,-1.7491909265518188,0.843873918056488,-9.839099884033203,-0.2448840107496157,-0.20930261250778484,-10.66283862236704,0.9380441822395369,1.4066259393204823,0.872752856140057
1730865954.7836032,-1.719849944114685,0.8954249024391174,-9.856204986572266,-0.24458068367862384,-0.21181387032906232,-10.6712422355342,0.9372930207103463,1.4092542856255215,0.8301473142193039
1730865954.8335345,-1.69038987159729,1.013269066810608,-9.893735885620117,-0.24427823260726744,-0.214358401825635,-10.679181696014783,0.941727588574012,1.4114130123249677,0.872800634501087
1730865954.8834958,-1.6407148838043213,1.1782209873199463,-9.94733715057373,-0.24398132695756672,-0.21691523315004207,-10.68664612995259,0.9457725047504201,1.4131006208117807,0.8729051955827857
1730865954.9335127,-1.5968351364135742,1.3148117065429688,-9.980710983276367,-0.24369355223234668,-0.21946529705300497,-10.69362777310026,0.9476478869729767,1.414123392129631,0.8305645419100959
1730865954.9834745,-1.5788203477859497,1.3853707313537598,-9.986942291259766,-0.2434169555555785,-0.22199325614871018,-10.700122340092129,0.9489237986233497,1.4145998784368359,0.7613445308994434
1730865955.0333755,-1.59587824344635,1.345052719116211,-9.986001014709473,-0.24315176030085275,-0.2244887531055944,-10.706129168156892,0.9460201138425269,1.414598209831305,0.8727775050144698
1730865955.0834413,-1.6471034288406372,1.241713523864746,-9.92891788482666,-0.24289644461953253,-0.2269465469056056,-10.711651021711038,0.9457410854790683,1.413953134488743,0.830005700428898
1730865955.1334794,-1.7504501342773438,1.1041513681411743,-9.85863208770752,-0.24264828686026518,-0.2293654522230574,-10.716693522300764,0.9448530325222629,1.4127360243093159,0.7603816426172714
1730865955.1834555,-1.8304283618927002,0.9711137413978577,-9.74976921081543,-0.24240434423678334,-0.2317464749851892,-10.72126419889113,0.9508239608633084,1.4110432751959237,0.8725816524863144
1730865955.2333221,-1.9156988859176636,0.9128645658493042,-9.670672416687012,-0.24216264368175375,-0.23409077651077426,-10.72537126994293,0.9513078042823289,1.40867597905398,0.82986802413683
1730865955.2834413,-1.9156988859176636,0.9128645658493042,-9.670672416687012,-0.2419232161552432,-0.2363981098267882,-10.729022475628913,0.9511860819480987,1.4056976525856257,0.759808168706289
1730865955.2834413,-1.9563443660736084,0.903839647769928,-9.61693286895752,-0.24168867138585814,-0.23866610048345552,-10.732224340690806,0.9511837930834033,1.4056801636476695,0.7593617477894251
1730865955.3332965,-1.9563443660736084,0.903839647769928,-9.61693286895752,-0.24146430058656201,-0.2408902265893036,-10.73498192020066,0.9504672435311083,1.4021679829430975,0.6640981192157789
1730865955.3332965,-1.9662718772888184,0.9583784937858582,-9.625625610351562,-0.24125790810434522,-0.2430641405180148,-10.737298827350354,0.9504608333506509,1.402143873962482,0.6634116131093123
1730865955.3834836,-1.923431158065796,1.0500279664993286,-9.705564498901367,-0.2410794718776968,-0.2451802663769595,-10.73917754164473,0.9575537577874698,1.3981190844500244,0.8732051870335091
1730865955.4342368,-1.8367159366607666,1.1513241529464722,-9.823517799377441,-0.2409405376154383,-0.24723078752643945,-10.740620170953239,0.958345896700712,1.3932792445929305,0.8304580432132246
1730865955.4842105,-1.7143102884292603,1.2665013074874878,-9.948857307434082,-0.24085320334009014,-0.24920894428886708,-10.741629714567583,0.9622676032956399,1.3880654483020058,0.8728300350398766
1730865955.5342638,-1.5934988260269165,1.3747628927230835,-10.055098533630371,-0.24082869912911112,-0.251110405341485,-10.742211606821456,0.963591173989171,1.3820199356228318,0.8299566068434481
1730865955.5842412,-1.4835880994796753,1.4298890829086304,-10.111140251159668,-0.2408758030480031,-0.2529344758349296,-10.742375127084584,0.9653631374900752,1.3755367804503504,0.8725758712446612
1730865955.6342456,-1.443881630897522,1.4316983222961426,-10.103753089904785,-0.24099946373912273,-0.25468486235022125,-10.74213427051189,0.9663031300120868,1.3682740924274026,0.8298703400674922
1730865955.6842623,-1.4952565431594849,1.3775787353515625,-10.049909591674805,-0.24120004065816125,-0.256369726802972,-10.741507825033807,0.9680851705393418,1.3605687696746571,0.8668716070294248
1730865955.7341847,-1.6399167776107788,1.2702287435531616,-9.953142166137695,-0.24147354396775228,-0.2580009408712428,-10.74051862807954,0.9683922976862571,1.3520158842146557,0.8225830142843766
1730865955.7842758,-1.8158236742019653,1.1555479764938354,-9.814238548278809,-0.24181300860205493,-0.2595926634116052,-10.739192162996456,0.9692592293387443,1.343026894256191,0.8607365106775048
1730865955.8341494,-1.987913966178894,1.0372942686080933,-9.684324264526367,-0.24221070163180802,-0.26115953244900125,-10.73755472720578,0.9696029857680954,1.3334871739566803,0.8569704885574718
1730865955.8841746,-2.1046435832977295,0.9711049795150757,-9.589987754821777,-0.24266053041541105,-0.26271486984431913,-10.735631498148189,0.9692119199327207,1.3229697683222827,0.8113676579889905
1730865955.9341092,-2.1483964920043945,0.9394667744636536,-9.553539276123047,-0.243159979960682,-0.2642692909437926,-10.733444933476427,0.9682163341269991,1.3118258031990673,0.7391320918954633
1730865955.9841945,-2.121264934539795,0.9565346837043762,-9.586009979248047,-0.24371110418191586,-0.2658299806312468,-10.731013893428223,0.9665977841582775,1.2999145357845758,0.6391815292709632
1730865956.0340698,-2.039263963699341,0.9619608521461487,-9.645097732543945,-0.24432040980457345,-0.2674006511133904,-10.728353651888163,0.9700618199512863,1.287856835278581,0.8540477371143106
1730865956.0840585,-1.9312196969985962,0.9948458671569824,-9.719782829284668,-0.24499778445065026,-0.2689819622787412,-10.725476664896641,0.9693209373801158,1.2746935082781703,0.8101407474245819
1730865956.1340225,-1.8107657432556152,1.0069457292556763,-9.799466133117676,-0.2457548184254319,-0.2705721382324202,-10.72239375655166,0.9679698501782491,1.2608867271941453,0.7395909063790017
1730865956.184022,-1.7375962734222412,1.0039891004562378,-9.883305549621582,-0.24660294869659746,-0.27216758264334,-10.719115405124086,0.965994327765848,1.2463305628997823,0.6417898411530186
1730865956.2339506,-1.6901278495788574,0.9899908900260925,-9.963652610778809,-0.24755186106883675,-0.2737633371514169,-10.715652954006853,0.9768211821373721,1.2316812038654195,0.8502710173979748
1730865956.2840056,-1.6511867046356201,1.0167818069458008,-10.022025108337402,-0.24860843542464459,-0.27535335553277984,-10.712019646894149,0.977326933671245,1.2156951123585773,0.806126172046554
1730865956.3338845,-1.626352071762085,1.0566904544830322,-10.058816909790039,-0.2497762198460694,-0.27693077922071285,-10.70823138009942,0.982972605076101,1.1997899043765528,0.8519705523919211
1730865956.3839247,-1.6089198589324951,1.1275053024291992,-10.08283519744873,-0.25105525930465555,-0.27848842673137425,-10.704307085394127,0.9840780181527412,1.1824378017346533,0.8092239391706766
1730865956.433835,-1.548673152923584,1.161179542541504,-10.08017635345459,-0.25244210909341425,-0.28001950245469936,-10.700268740622578,0.9916617565823977,1.165222740223613,0.8525793812708105
1730865956.4838657,-1.5168516635894775,1.1840696334838867,-10.051786422729492,-0.2539298589557972,-0.2815183050022778,-10.696141045411897,0.9977427035061661,1.1470804186537573,0.8596585446381095
1730865956.533793,-1.4813148975372314,1.1318827867507935,-9.987784385681152,-0.25550810547704245,-0.282980635219961,-10.691950766263524,1.0011665563711578,1.1278870123594897,0.8206765442528272
1730865956.5838237,-1.4938756227493286,1.0512200593948364,-9.905617713928223,-0.25716301168426414,-0.28440366790035315,-10.68772575066069,1.0039778897973917,1.1078307751058902,0.7546886189225641
1730865956.6337664,-1.5253958702087402,0.9455553293228149,-9.82075309753418,-0.25887763980445616,-0.2857852268005971,-10.68349368549012,1.0061367812439312,1.087123965312852,0.662234321698633
1730865956.683823,-1.6069215536117554,0.8572342395782471,-9.72569751739502,-0.2606326648163485,-0.2871226561505943,-10.679280761509538,1.0005860294795517,1.0663847152399777,0.8619759618816681
1730865956.7337284,-1.7038275003433228,0.803158164024353,-9.66273307800293,-0.26240748486122667,-0.2884116595867615,-10.675110423057019,1.0011601174671623,1.044244415396801,0.8205786410790514
1730865956.7837372,-1.8090814352035522,0.8006678223609924,-9.635173797607422,-0.26418163441878373,-0.2896454855103872,-10.671002392332928,1.005113952481894,1.0221670184549285,0.8667149389308867
1730865956.8336544,-1.8927173614501953,0.8072279691696167,-9.634767532348633,-0.2659362840031541,-0.29081468834702057,-10.666972159800254,1.0093117244309617,0.999644763039479,0.8712088156424385
1730865956.883653,-1.9440635442733765,0.8602471947669983,-9.668485641479492,-0.267655542655491,-0.29190745610765767,-10.663031018239716,1.010575056683647,0.9753383206070758,0.8311439890023794
1730865956.9336395,-1.9826576709747314,0.9154075980186462,-9.733817100524902,-0.2693273370825786,-0.29291035889327843,-10.659186588211657,1.0111669207450555,0.9502721206005225,0.7643168858148172
1730865956.9837236,-1.9989776611328125,0.9727869033813477,-9.810914993286133,-0.27094380895314435,-0.2938093518201852,-10.655443740206447,1.0130414428818828,0.925481588225729,0.8742625883091723
1730865957.033659,-1.9968469142913818,1.0430967807769775,-9.891023635864258,-0.2725013054198852,-0.2945908494445725,-10.651805768661122,1.0135753213524723,0.8990924936599598,0.8333854198193438
1730865957.083661,-1.9078164100646973,1.1033395528793335,-9.982389450073242,-0.2739999837219682,-0.2952427403378295,-10.648275632514462,1.0134278045762926,0.8718108417784504,0.7655913910689902
1730865957.1336153,-1.811535358428955,1.1505705118179321,-10.037453651428223,-0.2754429203916372,-0.29575527078896535,-10.644857103445716,1.016975418812145,0.845112734813366,0.8729314093830381
1730865957.1835968,-1.684177279472351,1.158101201057434,-10.068291664123535,-0.27683471018013095,-0.29612168552334345,-10.64155565640022,1.0172820772354396,0.8164689374875975,0.8305775115988153
1730865957.2335598,-1.607757568359375,1.1402833461761475,-10.083259582519531,-0.2781798229033493,-0.2963384808857854,-10.638378945845371,1.0168954356440725,0.7870558482112434,0.761587108334275
1730865957.2836456,-1.5794684886932373,1.0847864151000977,-10.054425239562988,-0.2794811633573661,-0.29640518963889295,-10.635336829853827,1.01581167709649,0.7569048215213934,0.666008680563662
1730865957.3335211,-1.6266781091690063,1.0333889722824097,-10.00820255279541,-0.28073926446325137,-0.29632374118576665,-10.632440977833935,1.0229544520124099,0.7275778642801654,0.8728380930133313
1730865957.3835816,-1.7076492309570312,0.985153317451477,-9.948284149169922,-0.2819523479814589,-0.29609757828767586,-10.629704117045378,1.0276094433727365,0.6973449041329662,0.8729277267980468
1730865957.4335127,-1.7534598112106323,0.9991579055786133,-9.872818946838379,-0.2831171212557646,-0.2957308204539648,-10.627139042070027,1.0287434851127029,0.6651594285827369,0.8307455848948544
1730865957.4836228,-1.761965274810791,1.019677996635437,-9.80775260925293,-0.28422981098944444,-0.2952277729051516,-10.624757541330968,1.0291744944731114,0.6320189237162169,0.7616640004570864
1730865957.5335631,-1.7332777976989746,1.0601274967193604,-9.740081787109375,-0.2852868813775593,-0.29459289899669894,-10.622569375252523,1.0288925563541553,0.5982835440170529,0.6663477522939049
1730865957.5835302,-1.7360866069793701,1.0578792095184326,-9.706241607666016,-0.2862852409530304,-0.2938310891071971,-10.620581434220098,1.0278946660266313,0.56371697341909,0.5441835858346165
1730865957.633568,-1.7078824043273926,1.0534155368804932,-9.675688743591309,-0.28722213452665746,-0.29294791392845687,-10.618797185888788,1.0307951574640641,0.5303750616472789,0.872732401620373
1730865957.683474,-1.7233083248138428,1.0290294885635376,-9.678693771362305,-0.2880949802513032,-0.29194965107466664,-10.617216467096844,1.0306271978462398,0.49447052329568325,0.8303999042700225
1730865957.733404,-1.7296462059020996,1.0342074632644653,-9.693284034729004,-0.2889012929141125,-0.29084310455034246,-10.615835616495144,1.0360993941465078,0.45993973558167495,0.8729426572275326
1730865957.7834828,-1.7782323360443115,1.0552161931991577,-9.738544464111328,-0.2896387774231774,-0.28963540951001315,-10.614647921107899,1.0371854982567947,0.4224164968720412,0.8304462840756435
1730865957.833414,-1.8271551132202148,1.1032934188842773,-9.756502151489258,-0.2903056402446653,-0.2883340268625397,-10.613644305137672,1.0375408569874571,0.38447246322079787,0.7618566628908372
1730865957.8834038,-1.8970963954925537,1.1459044218063354,-9.80887222290039,-0.29090110404146374,-0.2869469978002394,-10.612814115693096,1.0371697962521473,0.34551299926744133,0.666105955152896
1730865957.933347,-1.9201931953430176,1.1988476514816284,-9.833016395568848,-0.2914260124608897,-0.2854833683012144,-10.612145884142958,1.0391227495562703,0.3085876125766506,0.873106545458013
1730865957.983341,-1.93211030960083,1.2210768461227417,-9.855461120605469,-0.29188329826317416,-0.28395362455288814,-10.611627998403648,1.0388940673850005,0.26838085878404183,0.8308491768158253
1730865958.0332818,-1.8952357769012451,1.1917591094970703,-9.863088607788086,-0.2922780937587022,-0.2823699434701211,-10.61124920732601,1.0442153221211679,0.23040321437808434,0.873562119391805
1730865958.0833924,-1.8952357769012451,1.1917591094970703,-9.863088607788086,-0.29261744377457577,-0.2807460861632625,-10.61099890908957,1.0452154725335325,0.1885360765567964,0.8311041749491763
1730865958.0833924,-1.8420480489730835,1.143674373626709,-9.883455276489258,-0.2929097750109079,-0.27909696404623274,-10.610867271919544,1.045219128193216,0.18828981921187832,0.8307776107543412
1730865958.1332362,-1.7618697881698608,1.129366159439087,-9.8805570602417,-0.2931642227384692,-0.27743805109425485,-10.610845287603336,1.0464750166020393,0.14944791083095363,0.8739350619065195
1730865958.1833367,-1.694387674331665,1.115341305732727,-9.905627250671387,-0.29338976244358683,-0.2757847908777517,-10.610924821174084,1.0468295797527385,0.1063846347492912,0.8323108138202636
1730865958.2332082,-1.6100733280181885,1.094612956047058,-9.931663513183594,-0.2935941970784885,-0.27415211528623873,-10.611098688070104,1.046449965156614,0.0629245860600703,0.764507995156554
1730865958.2832747,-1.5418109893798828,1.0807050466537476,-9.972339630126953,-0.29378318524586017,-0.27255409509207734,-10.611360813000173,1.0505120159254335,0.021895450532963195,0.8723090709252819
1730865958.3331993,-1.5418109893798828,1.0807050466537476,-9.972339630126953,-0.2939594891575602,-0.2710036774127294,-10.611706454455675,1.0528883880182585,6.475090382701547,0.8721818475309352
1730865958.3331993,-1.499990701675415,1.0729589462280273,-10.015694618225098,-0.2941226154022316,-0.2695125242849198,-10.612132380893993,1.0528912530963987,6.475064224536436,0.8720521177237676
1730865958.383289,-1.4388550519943237,1.0682786703109741,-10.016959190368652,-0.2942687930022182,-0.26809095200409516,-10.612636954849751,1.0531650982598597,6.468830653535921,0.8294079499627572
1730865958.4332135,-1.4234479665756226,1.0768064260482788,-10.036955833435059,-0.29439100297490695,-0.2667479261996987,-10.613220151040872,1.0561499946734851,6.473059401280731,0.8726597697517535
1730865958.4831707,-1.4432932138442993,1.1116139888763428,-10.005428314208984,-0.29447905018838083,-0.26549113995032675,-10.613883464447623,1.0569783484208533,6.467826422207185,0.8305491450025679
1730865958.5341525,-1.5085569620132446,1.1484904289245605,-9.962830543518066,-0.2945199763368861,-0.26432726135029094,-10.614629605388611,1.0570608140182582,6.461880731414457,0.7610525868518997
1730865958.5831633,-1.5824558734893799,1.1850098371505737,-9.87814998626709,-0.2944989601585433,-0.2632623498049003,-10.615461897403804,1.057098121976467,6.460575636014077,0.8711100948511669
1730865958.6341417,-1.7026240825653076,1.1562330722808838,-9.797066688537598,-0.29440059869449525,-0.26230226922589117,-10.61638337967298,1.0566169170699988,6.45556845740628,0.828058335889975
1730865958.6841717,-1.8434793949127197,1.0966352224349976,-9.701960563659668,-0.29421043799628066,-0.2614528028548942,-10.61739573314723,1.0553961533989966,6.449959681220187,0.7586444123492004
1730865958.7341104,-1.9647480249404907,1.0394996404647827,-9.635427474975586,-0.29391664827943476,-0.260719286725277,-10.618498216981742,1.0534563791000133,6.4437538289416745,0.663500026317358
1730865958.7841659,-2.0362460613250732,0.9632866978645325,-9.589738845825195,-0.2935115923955216,-0.2601058898434513,-10.619686815499023,1.0591361136146498,6.447761516312147,0.8708707593896129
1730865958.8331368,-2.0580220222473145,0.9396564364433289,-9.595098495483398,-0.29299289873758233,-0.25961483590180967,-10.620953782826323,1.0585833752162008,6.443278548514854,0.8296141141808583
1730865958.8841126,-2.0260348320007324,0.9472898840904236,-9.640368461608887,-0.2923637636725034,-0.25924585878649176,-10.622287726929128,1.0601988935063282,6.431825221110431,0.8708016871750184
1730865958.9341154,-1.9630955457687378,1.0134309530258179,-9.721592903137207,-0.2916324547895414,-0.2589961512003005,-10.623674282361915,1.059499973686472,6.425270287062844,0.8280453635194391
1730865958.984118,-1.895137906074524,1.0919886827468872,-9.815616607666016,-0.2908111954988769,-0.2588609136288026,-10.625097282898386,1.061541504432402,6.41576291949492,0.8715155203663083
1730865959.0339692,-1.8222602605819702,1.1473636627197266,-9.905097961425781,-0.2899147375062639,-0.25883434430390134,-10.626540212376097,1.0610047452733395,6.407430300059178,0.8294022133051495
1730865959.0840662,-1.7455374002456665,1.1361726522445679,-9.956357955932617,-0.28895890354269316,-0.2589106553997014,-10.627987632823224,1.0646226584246514,6.398782833234335,0.8717136590773426
1730865959.1339521,-1.700907826423645,1.1482601165771484,-10.000899314880371,-0.28795927206532607,-0.25908469095723313,-10.629426302578086,1.0649779090052038,6.3878887622047476,0.8295410401315928
1730865959.1839936,-1.7207727432250977,1.1174755096435547,-10.020934104919434,-0.2869301860274585,-0.25935205929305843,-10.63084584924017,1.0646138406753947,6.376275404146256,0.7604185789307841
1730865959.233999,-1.7207727432250977,1.1174755096435547,-10.020934104919434,-0.2858842875250106,-0.25970897631071455,-10.632239028477299,1.064805094097437,6.390025123578119,0.8752030511041691
1730865959.233999,-1.7523990869522095,1.134559988975525,-9.988039016723633,-0.2848325530151209,-0.2601520448114264,-10.633601618130202,1.0648034975985057,6.390003558732732,0.8750847764655277
1730865959.2839696,-1.8286563158035278,1.1376848220825195,-9.950651168823242,-0.2837846443896444,-0.26067814492676855,-10.634931970211971,1.0640695115794787,6.38453643986005,0.8336409997723446
1730865959.3339097,-1.8731988668441772,1.1633003950119019,-9.883402824401855,-0.28274950609389515,-0.2612844726626863,-10.636230286613968,1.0674040315479685,6.3735599959555485,0.8799068701511358
1730865959.3839538,-1.87714421749115,1.2097761631011963,-9.829784393310547,-0.2817360610785882,-0.2619686826340603,-10.63749772688546,1.0691154640504237,6.368907472935963,0.8811096203036471
1730865959.43391,-1.87714421749115,1.2097761631011963,-9.829784393310547,-0.2807536644948052,-0.2627291235054677,-10.638735529765723,1.0690177921611421,6.36346139598366,0.8406336450018673
1730865959.43391,-1.8527741432189941,1.2444229125976562,-9.779115676879883,-0.27981214872030064,-0.26356507406424495,-10.639944375798152,1.0690158689037192,6.363436327409185,0.8404009600631156
1730865959.483997,-1.7791498899459839,1.2536530494689941,-9.761033058166504,-0.2789215219465552,-0.26447687790492935,-10.641124011650442,1.068218149326486,6.357271761390883,0.7729020895685856
1730865959.5338774,-1.7433054447174072,1.2289862632751465,-9.7857084274292,-0.2780913786059174,-0.2654659601938042,-10.642273030554616,1.0706791865362775,6.350486843999705,0.8842594886148967
1730865959.583923,-1.7001326084136963,1.2023404836654663,-9.813427925109863,-0.2773301701794473,-0.266534648969897,-10.643388899401952,1.0702737108628635,6.342981472824861,0.8434093079256101
1730865959.6338441,-1.658395528793335,1.1724835634231567,-9.855494499206543,-0.2766445740899489,-0.2676857571028285,-10.644468323277637,1.0724219310354917,6.334850073966225,0.8863976095279497
1730865959.6838272,-1.658395528793335,1.1724835634231567,-9.855494499206543,-0.2760390693924756,-0.2689220788093343,-10.64550777960253,1.0742325731096731,6.326038799958784,0.885312446515532
1730865959.6838272,-1.589672565460205,1.1396898031234741,-9.88569164276123,-0.2755157032332103,-0.27024598275083633,-10.646503979422423,1.074234368111104,6.325995408593534,0.8851753655774087
1730865959.733828,-1.5081108808517456,1.1046420335769653,-9.922158241271973,-0.2750738848624079,-0.27165909702966307,-10.647454200223779,1.0742682062846236,6.3165013562350465,0.8429106501931647
1730865959.7838185,-1.5081108808517456,1.1046420335769653,-9.922158241271973,-0.27471004997148885,-0.27316199966326093,-10.648356577986412,1.0736164172248392,6.306330777839296,0.7741015712519321
1730865959.7838185,-1.4295170307159424,1.1049782037734985,-9.95274543762207,-0.2744173567136762,-0.2747539901244196,-10.649210347317675,1.0736123581025212,6.30628792229913,0.77376671791562
1730865959.833836,-1.4276865720748901,1.1359474658966064,-9.951932907104492,-0.2741855888071723,-0.27643309022624796,-10.650015967827457,1.0722725340362762,6.295423670331487,0.678238562881085
1730865959.8838398,-1.4848183393478394,1.1582427024841309,-9.916403770446777,-0.27400130609737094,-0.27819628832325705,-10.650775112351695,1.0742908519944587,6.283868041172973,0.8860319374723573
1730865959.9337692,-1.4848183393478394,1.1582427024841309,-9.916403770446777,-0.27384838380896137,-0.2800399062487471,-10.651490456975434,1.0762754615692707,6.2716606299508655,0.8848448817480264
1730865959.9337692,-1.5948827266693115,1.1681678295135498,-9.850994110107422,-0.27370892834953775,-0.28195991218234967,-10.652165286151153,1.0762757354280958,6.271610108937851,0.8847285694144846
1730865959.9839382,-1.7093874216079712,1.1369863748550415,-9.79179573059082,-0.27356445856480066,-0.28395206657443706,-10.652802957959867,1.0759999332745087,6.258624686545271,0.84224990709771
1730865960.0338023,-1.8193243741989136,1.1080282926559448,-9.737626075744629,-0.27339737893119564,-0.2860118697743378,-10.653406218757842,1.0780370849155665,6.245001128981579,0.8856938694342078
1730865960.083812,-1.8193243741989136,1.1080282926559448,-9.737626075744629,-0.2731924824632805,-0.2881343504431983,-10.653976525002491,1.0778119034070002,6.230581375164397,0.843911543862628
1730865960.083812,-1.884267807006836,1.1029753684997559,-9.714607238769531,-0.2729379599178206,-0.29031386643469204,-10.654513647721304,1.0778091391788056,6.230509617309793,0.843643554752846
1730865960.1337838,-1.9105286598205566,1.1115912199020386,-9.716594696044922,-0.2726258160974293,-0.2925440677299438,-10.655015613358321,1.0769055932223992,6.215475565821751,0.7756274968871487
1730865960.1837988,-1.9257912635803223,1.116139531135559,-9.744019508361816,-0.27225198431298747,-0.29481800085126386,-10.655478864237,1.0794367692083255,6.199618400024814,0.884849857445072
1730865960.2337227,-1.9447674751281738,1.1083884239196777,-9.78177261352539,-0.27181626900785133,-0.29712826408836457,-10.655898618022864,1.079000965438196,6.182993716865335,0.84277184153629
1730865960.28374,-1.942165493965149,1.0875669717788696,-9.824285507202148,-0.2713221051032526,-0.2994671151600979,-10.656269438736755,1.0812292059904949,6.1656606602927475,0.8837930143517997
1730865960.3336928,-1.9253342151641846,1.0885087251663208,-9.844911575317383,-0.2707761639794856,-0.3018264747460666,-10.656585900105032,1.0810233249612535,6.147621222904362,0.8413849439655645
1730865960.383695,-1.8715403079986572,1.0781447887420654,-9.8873929977417,-0.270187779503297,-0.30419788772904444,-10.65684317888892,1.0801420342464831,6.128778461228059,0.7722764838313032
1730865960.4336674,-1.8378441333770752,1.0401469469070435,-9.917705535888672,-0.26956815813502716,-0.306572493463065,-10.657037530715009,1.0785875275128824,6.1091836190476965,0.6766027436638135
1730865960.48365,-1.8378441333770752,1.0401469469070435,-9.917705535888672,-0.2689295125690112,-0.3089409509369838,-10.65716665631042,1.0852011352449262,6.088868196296123,0.879723060481914
1730865960.48365,-1.7672381401062012,1.032460331916809,-9.951805114746094,-0.2682843279027153,-0.3112933462424238,-10.657229911996538,1.0852016522637289,6.088774113694135,0.8795874598843147
1730865960.5337403,-1.7021394968032837,1.0370874404907227,-9.975760459899902,-0.2676447003137944,-0.31361920582863184,-10.657228395467751,1.0849791140365932,6.06759139437363,0.8362158837679449
1730865960.5838394,-1.7021394968032837,1.0370874404907227,-9.975760459899902,-0.2670216102855943,-0.31590763142372674,-10.657165003714177,1.0904457634157927,6.045373833314435,0.8766570576099566
1730865960.5838394,-1.65043306350708,1.073177456855774,-10.0149564743042,-0.26642430650664584,-0.31814751526546836,-10.657044449294332,1.090451970344609,6.045272310543277,0.8765195524300202
1730865960.6337297,-1.6014059782028198,1.14634108543396,-10.020565032958984,-0.2658599221941469,-0.3203279078751631,-10.656873225917765,1.0914795251269487,6.022697671593745,0.8333150464684336
1730865960.6836996,-1.5850491523742676,1.22859787940979,-9.987622261047363,-0.2653331697027299,-0.32243866585911884,-10.656659515314804,1.0945837967349221,5.998884907383055,0.8733508235817025
1730865960.733647,-1.6096011400222778,1.2526041269302368,-9.945744514465332,-0.2648461487403837,-0.3244713044940559,-10.656412875266563,1.0957213340894216,5.974430671546367,0.8297182092653554
1730865960.7837098,-1.665219783782959,1.2559261322021484,-9.857342720031738,-0.2643985277631813,-0.32641969389514097,-10.65614358584951,1.09619342531545,5.949191952044758,0.7594055757143885
1730865960.8336103,-1.7471556663513184,1.2027697563171387,-9.769553184509277,-0.263988202679678,-0.32828025285309526,-10.655861696701416,1.0960047804217932,5.9232192401210355,0.6627358198067709
1730865960.8836133,-1.8258168697357178,1.1118991374969482,-9.667461395263672,-0.2636123134915639,-0.33005153619280647,-10.65557588748133,1.0965871161784153,5.8960824764311806,0.8688939492160405
1730865960.9335773,-1.8258168697357178,1.1118991374969482,-9.667461395263672,-0.2632683251515185,-0.33173337579186307,-10.65529238091551,1.0964665691355733,5.868537413430226,0.8256078303989629
1730865960.9335773,-1.8815194368362427,1.0185134410858154,-9.608986854553223,-0.2629548139952882,-0.3333259553755586,-10.655014244273268,1.0964642937738953,5.868395453173648,0.825320720396431
1730865960.9835758,-1.8734042644500732,0.954424262046814,-9.58102798461914,-0.2626718526547104,-0.33482901662327413,-10.654741149828787,1.100760724789094,5.8395287292182205,0.8661321689587087
1730865961.033538,-1.8734042644500732,0.954424262046814,-9.58102798461914,-0.262421110617796,-0.3362411444431227,-10.654469386531723,1.1011521974221985,5.810199203521301,0.823256443162265
1730865961.033538,-1.824157476425171,0.9195178747177124,-9.613903045654297,-0.26220568914602427,-0.33755927958309523,-10.654192089206681,1.1011525193555713,5.810046220673812,0.8229673122028283
1730865961.0836797,-1.824157476425171,0.9195178747177124,-9.613903045654297,-0.26202969320040664,-0.3387786009332746,-10.653899771864541,1.1008871215728335,5.779890009273535,0.7534400055229414
1730865961.0836797,-1.7324042320251465,0.9404146075248718,-9.695297241210938,-0.2618976539498941,-0.3398926639666919,-10.65358107790151,1.1008846174497022,5.779760889654741,0.7530901825459166
1730865961.133535,-1.6441199779510498,0.9858413338661194,-9.814929962158203,-0.26181379943861954,-0.3408937606336062,-10.653223739312464,1.1013544268038915,5.748381134747302,0.8717418315777977
1730865961.1836119,-1.5686087608337402,1.074684739112854,-9.920032501220703,-0.26178109827733914,-0.34177358011210385,-10.65281588395446,1.1008434076328155,5.716292921134859,0.8312128964810919
1730865961.2334654,-1.542607307434082,1.151999592781067,-10.003628730773926,-0.2618002845574635,-0.3425241677791339,-10.65234754526681,1.1014404354628347,5.68325232729956,0.8742654355438887
1730865961.283573,-1.5542049407958984,1.2301385402679443,-10.041191101074219,-0.2618692669771423,-0.34313904142525836,-10.651811940490541,1.100633376510172,5.64955008787277,0.8334961517772432
1730865961.3333614,-1.6225168704986572,1.2406723499298096,-10.066964149475098,-0.2619831642470274,-0.34361418444000424,-10.651206211765958,1.0991821799703916,5.615232919122074,0.7665881925134027
1730865961.3834236,-1.7253564596176147,1.2138913869857788,-10.027120590209961,-0.26213499814189545,-0.3439485885453368,-10.650531570212447,1.0970658797343182,5.579812629714692,0.6725920532769032
1730865961.4334004,-1.7253564596176147,1.2138913869857788,-10.027120590209961,-0.26231682760595626,-0.3441441985522613,-10.649792920759364,1.101676443977385,5.543176309019125,0.8760968392782432
1730865961.4334004,-1.8377536535263062,1.1672279834747314,-9.96264362335205,-0.26252088212094626,-0.34420544144874343,-10.648998144836213,1.101674182352765,5.543044008869706,0.8759938825666009
1730865961.4834306,-1.8791604042053223,1.118408203125,-9.90227222442627,-0.26274048638958925,-0.34413857591936514,-10.648157192131933,1.1007174446747994,5.505935708124896,0.8340874836329919
1730865961.5334456,-1.8703622817993164,1.049418330192566,-9.87574577331543,-0.26297080246607907,-0.34395090163521025,-10.647281061482555,1.103133941362215,5.467567330194308,0.8818300490533681
1730865961.5833516,-1.8703622817993164,1.049418330192566,-9.87574577331543,-0.2632091961884008,-0.3436499073688226,-10.64638088913381,1.1033511359288903,5.4283641315439,0.8848177437288944
1730865961.5833516,-1.7904411554336548,0.9940613508224487,-9.860814094543457,-0.2634550578122957,-0.3432425828852339,-10.645467388461036,1.1033500191114929,5.428242034191632,0.8847359644646433
1730865961.6333067,-1.6464136838912964,0.9628157019615173,-9.86606502532959,-0.2637090838773565,-0.34273495875351356,-10.64455060641091,1.1026635842816424,5.388681326155441,0.8452655780815664
1730865961.683353,-1.5627888441085815,0.9482263922691345,-9.848698616027832,-0.2639720309973847,-0.34213175843167065,-10.643639816563176,1.101313365039419,5.348061527509151,0.7789560582213634
1730865961.7333167,-1.562458872795105,0.9341247081756592,-9.841981887817383,-0.264243324087182,-0.34143617083765954,-10.642743439531099,1.0993001175298263,5.3065770779888375,0.6859253472184922
1730865961.783527,-1.5797141790390015,0.9555282592773438,-9.840194702148438,-0.26452023031788313,-0.3406498358131123,-10.641868960541185,1.1032774446628733,5.263538831073841,0.8828614548324809
1730865961.8334281,-1.5797141790390015,0.9555282592773438,-9.840194702148438,-0.2647978420822219,-0.3397730434585996,-10.641022879745012,1.1022983544120017,5.2206064138906845,0.8409768613444989
1730865961.8334281,-1.656130313873291,1.0449622869491577,-9.828990936279297,-0.26506954685125944,-0.3388051323438671,-10.640210718692272,1.1022917478830372,5.220387576705994,0.8406985576840632
1730865961.883437,-1.7408385276794434,1.130565881729126,-9.812065124511719,-0.2653277776051505,-0.33774517128850867,-10.639437025501058,1.1006422962610527,5.176383820153477,0.7718909038919488
1730865961.933372,-1.8037424087524414,1.1793253421783447,-9.80042552947998,-0.2655650417528025,-0.33659293326920303,-10.638705322488136,1.0983419066267524,5.131770449101344,0.6770076551284694
1730865961.9834905,-1.8700915575027466,1.1633671522140503,-9.820185661315918,-0.26577502656224017,-0.33534980572704826,-10.63801804922142,1.1037014576404058,5.085316017632333,0.8821841743696358
1730865962.0333447,-1.9134926795959473,1.100498914718628,-9.80792236328125,-0.26595349961799436,-0.3340191371492081,-10.637376607214566,1.1027689676835424,5.039094374616682,0.8404020979950063
1730865962.083408,-1.9134926795959473,1.100498914718628,-9.80792236328125,-0.266098876782058,-0.33260590982448035,-10.636781488029374,1.103876163364113,4.990973624107162,0.8811643633098756
1730865962.083408,-1.9817607402801514,0.9967160820960999,-9.799867630004883,-0.2662124478463981,-0.3311160547299359,-10.636232373864857,1.1038732871112187,4.990754488370263,0.881029871128755
1730865962.1332574,-2.009242534637451,0.8998187184333801,-9.762540817260742,-0.2662984282033688,-0.32955560167982884,-10.635728156239885,1.102908218788164,4.942438345086287,0.8381978375182381
1730865962.1833553,-2.0146119594573975,0.8520634174346924,-9.732019424438477,-0.2663639901095599,-0.32792964768963445,-10.635266834231732,1.1032354439085514,4.892990371247379,0.8825574619237627
1730865962.2332752,-1.9653370380401611,0.8578269481658936,-9.763777732849121,-0.26641910736299623,-0.3262414361763811,-10.634845344186612,1.1033542396029155,4.842608534766902,0.8812438819432347
1730865962.2832632,-1.8760980367660522,0.9307280778884888,-9.811843872070312,-0.2664759470974053,-0.32449204618621713,-10.634459592058125,1.1022840836937948,4.7919994638305194,0.8390281607721486
1730865962.3331802,-1.8760980367660522,0.9307280778884888,-9.811843872070312,-0.26654784580409674,-0.3226808023005836,-10.634104844549238,1.1005551729632104,4.7407469958679815,0.7705254451630364
1730865962.3331802,-1.7786275148391724,1.0387083292007446,-9.875558853149414,-0.26664821969057795,-0.32080607848079296,-10.633776273447774,1.1005460272161651,4.740517774642095,0.7701626700354964
1730865962.3832405,-1.7020138502120972,1.1243410110473633,-9.926508903503418,-0.26678958764665783,-0.31886625793674794,-10.633469494082473,1.098144208530929,4.688302767819228,0.674828191886873
1730865962.4332123,-1.6601722240447998,1.1989141702651978,-9.964488983154297,-0.2669826107297397,-0.3168608395753747,-10.633181146953776,1.1036310257327553,4.6343995686706325,0.8812871270187806
1730865962.4832904,-1.6342209577560425,1.2611186504364014,-9.975395202636719,-0.2672352742537306,-0.3147915158229805,-10.632909426584371,1.102629283795488,4.580490956708593,0.8392603388135828
1730865962.5331616,-1.6342209577560425,1.2611186504364014,-9.975395202636719,-0.26755247595620424,-0.3126629172755419,-10.632654346587515,1.1043757152929665,4.525247230936921,0.8813010055829051
1730865962.5331616,-1.622498869895935,1.2675787210464478,-9.962905883789062,-0.2679360223186627,-0.3104828628191029,-10.632417687821349,1.10437329013225,4.524984893756581,0.8811629823514745
1730865962.5832772,-1.639206886291504,1.2061913013458252,-9.937066078186035,-0.26838487261001964,-0.3082621018957984,-10.632202707018763,1.1035292063789899,4.469641982754136,0.8389361331661804
1730865962.6331246,-1.6860491037368774,1.1449236869812012,-9.880510330200195,-0.26889555378729113,-0.3060136109820287,-10.632013662996291,1.1020184698888809,4.413621363454755,0.7703385182782273
1730865962.6834114,-1.7109571695327759,1.0855287313461304,-9.83228588104248,-0.26946276625550647,-0.3037515661003078,-10.631855170038495,1.1052759686987879,4.355285084639285,0.88240282031488
1730865962.7330935,-1.709753394126892,1.0741137266159058,-9.788422584533691,-0.27008007413246726,-0.30149026075968766,-10.631731450836066,1.1044804603965286,4.296949351623153,0.8398548165632514
1730865962.7832174,-1.6724727153778076,1.0828081369400024,-9.795247077941895,-0.27074039713769643,-0.29924331806528415,-10.631645688092778,1.1067598083075711,4.240213761545822,0.8864612610750154
1730865962.8330767,-1.6206578016281128,1.0981696844100952,-9.837224006652832,-0.2714361040787524,-0.29702336588631323,-10.631599724151581,1.106289533462842,4.17998767027136,0.8451724678721306
1730865962.8830912,-1.5427521467208862,1.13316011428833,-9.84755802154541,-0.272158719089299,-0.2948420896646811,-10.631594215044139,1.1074345950250455,4.122616795523342,0.8899861304481043
1730865962.933006,-1.5629488229751587,1.1618047952651978,-9.863628387451172,-0.27289845006362057,-0.2927104974550997,-10.631629041662098,1.106815597367433,4.06203016524441,0.8499273782697664
1730865962.9830446,-1.629149079322815,1.215698003768921,-9.845447540283203,-0.2736439785473367,-0.2906392936359684,-10.631703658688867,1.1055094593396897,4.000534712019133,0.7830885922960985
1730865963.0340078,-1.629149079322815,1.215698003768921,-9.845447540283203,-0.2743828343738498,-0.28863927724192895,-10.631817237628535,1.1034792391804384,3.9373535480990953,0.6879081739100394
1730865963.0340078,-1.6967530250549316,1.2590280771255493,-9.838217735290527,-0.2751021348624533,-0.28672164768538905,-10.63196865791784,1.103468786594262,3.937075233415915,0.6874308449513271
1730865963.084012,-1.7413307428359985,1.2730633020401,-9.82457160949707,-0.2757893437438236,-0.28489817551491925,-10.63215645135742,1.1079922649660083,3.8757640092042576,0.8877301046231217
1730865963.1339903,-1.7646113634109497,1.2583575248718262,-9.81188678741455,-0.2764329846923157,-0.2831812636420635,-10.632378732905183,1.107122484637797,3.812154716730876,0.845776060946959
1730865963.1839724,-1.7786732912063599,1.2127102613449097,-9.802888870239258,-0.2770232157874121,-0.28158380114025827,-10.632633110141192,1.1089121798672172,3.75031865585125,0.8868831826004963
1730865963.233917,-1.8130278587341309,1.14822256565094,-9.807696342468262,-0.27755215193172755,-0.2801186746283024,-10.632916614814583,1.1081811903561505,3.6857558457367534,0.8445198646031165
1730865963.2838762,-1.809478998184204,1.100132703781128,-9.810400009155273,-0.2780140121279914,-0.27879799486658696,-10.633225718347632,1.1067569739959406,3.6203242651423126,0.7755823988007354
1730865963.333905,-1.797210454940796,1.1131501197814941,-9.829365730285645,-0.27840513633156777,-0.2776323159975738,-10.633556449068612,1.1100955508030617,3.5568010085311355,0.8864575371432352
1730865963.383851,-1.7991148233413696,1.125964879989624,-9.836786270141602,-0.278723818879153,-0.2766301958506637,-10.633904588730916,1.1093343904126127,3.4899387513404863,0.8439080325679666
1730865963.4338167,-1.7826963663101196,1.1695894002914429,-9.845488548278809,-0.27897001494455315,-0.2757982380970759,-10.63426589664169,1.1109890531077833,5.987057723061573,0.8815025054832355
1730865963.4838102,-1.7767739295959473,1.2048052549362183,-9.856528282165527,-0.27914502695813853,-0.2751414818622224,-10.634636303426413,1.1103165795302163,5.979822848800469,0.8372077789131895
1730865963.5337822,-1.8129676580429077,1.1983704566955566,-9.851751327514648,-0.2792512423220601,-0.2746638984836617,-10.63501204983115,1.1117895375672728,5.975889763578655,0.8773750467205862
1730865963.5838563,-1.865580439567566,1.1427628993988037,-9.82577133178711,-0.27929206686119806,-0.2743686924459134,-10.635389733796849,1.1111231306270088,5.968825437089298,0.8335895144496139
1730865963.633715,-1.881205439567566,1.0834192037582397,-9.824111938476562,-0.2792721290298923,-0.27425815439916934,-10.635766217962335,1.1096827961770166,5.960624753047736,0.7592509771769312
1730865963.68373,-1.863053321838379,1.0553536415100098,-9.826824188232422,-0.27919752255973806,-0.27433313587792624,-10.636138472098022,1.1129022516414608,5.966793900396387,0.8810138019081196
1730865963.7337158,-1.8265241384506226,1.0528087615966797,-9.850543975830078,-0.27907575136062185,-0.2745925189210508,-10.636503515213752,1.1121109567669056,5.962114513973219,0.8375121401368182
1730865963.7837036,-1.7715882062911987,1.0776413679122925,-9.877630233764648,-0.27891527910400493,-0.2750330152388646,-10.636858538127225,1.1107077704191382,5.957122849155707,0.7716753598316876
1730865963.8336518,-1.7354477643966675,1.0973707437515259,-9.941924095153809,-0.2787248280333232,-0.275649361884587,-10.637201203510804,1.1139381581793069,5.953584716706754,0.880394710821285
1730865963.8837056,-1.689695954322815,1.1317925453186035,-9.966397285461426,-0.27851263946198224,-0.2764347740653581,-10.637530091834046,1.1132112590260046,5.94786459035638,0.8379720043367531
1730865963.9335935,-1.6389662027359009,1.1293141841888428,-9.971222877502441,-0.2782858272500257,-0.27738146283065646,-10.63784514045215,1.111794576832606,5.941487052274564,0.7692766352482537
1730865963.9836588,-1.6623183488845825,1.1505361795425415,-9.938908576965332,-0.2780498868014731,-0.2784810629085009,-10.638147818064613,1.1143672424437283,5.941523705966798,0.8845506796173018
1730865964.0335605,-1.685981035232544,1.114296793937683,-9.907242774963379,-0.27780851701750947,-0.2797248882644729,-10.638440904997465,1.1134285754416064,5.936066618857531,0.841608010218412
1730865964.0836053,-1.685981035232544,1.114296793937683,-9.907242774963379,-0.2775638416295274,-0.2811039902408702,-10.638728013536042,1.114786722641108,5.927020533781141,0.889587728930234
1730865964.0836053,-1.7127622365951538,1.098321795463562,-9.828071594238281,-0.27731681740040615,-0.2826090714954532,-10.639013063820503,1.1147837719149996,5.926978760838776,0.8894378063838563
1730865964.1335196,-1.7381293773651123,1.0863145589828491,-9.812661170959473,-0.27706762923409706,-0.2842303771129546,-10.639299745541669,1.1139124169440053,5.919212157470309,0.8494832753306191
1730865964.1835907,-1.7394286394119263,1.1070185899734497,-9.751754760742188,-0.27681606764143063,-0.28595764792273637,-10.639590937637772,1.1152066184824652,5.9145183679338125,0.8992519489165518
1730865964.2335656,-1.7783422470092773,1.099996566772461,-9.74980354309082,-0.276561868646212,-0.28778018065332434,-10.639888201070981,1.11433764061087,5.90690083165302,0.8613882107387745
1730865964.2834716,-1.775434136390686,1.1180026531219482,-9.734968185424805,-0.2763049899077389,-0.2896869883307113,-10.640191476471573,1.1127777362684008,5.89856570477097,0.7969331081787788
1730865964.3334875,-1.775434136390686,1.1180026531219482,-9.734968185424805,-0.27604580971502,-0.291666990454661,-10.64049902580455,1.1149764681527095,5.9073562469020136,0.9029515403643292
1730865964.3334875,-1.7961090803146362,1.0978853702545166,-9.74190616607666,-0.27578520768308434,-0.2937091628009629,-10.640807565287727,1.1149722149704326,5.907334614287006,0.9027972700307794
1730865964.3834748,-1.8024729490280151,1.096219539642334,-9.761283874511719,-0.27552458726791035,-0.2958025816378074,-10.64111252158893,1.1138813452134642,5.903165294600213,0.8624221019506226
1730865964.4334664,-1.8024729490280151,1.096219539642334,-9.761283874511719,-0.2752659148787796,-0.2979363827959137,-10.641408374029073,1.115560221156972,5.895670929446069,0.9118066895207421
1730865964.4334664,-1.8615046739578247,1.0873790979385376,-9.789366722106934,-0.2750117749975701,-0.3000997410066888,-10.641689020720921,1.115556890836113,5.89563888245662,0.9116554644217256
1730865964.4834557,-1.8906596899032593,1.113863468170166,-9.796687126159668,-0.27476552602771825,-0.30228191497259504,-10.641948128839068,1.1146539454893756,5.889880909364962,0.8729504345315694
1730865964.533443,-1.8906596899032593,1.113863468170166,-9.796687126159668,-0.2745315700133757,-0.30447236865480287,-10.642179450379594,1.113068209126019,5.883370266112075,0.807789868907256
1730865964.533443,-1.8843986988067627,1.1354656219482422,-9.818350791931152,-0.27431550107362385,-0.30666096211255867,-10.642377057859008,1.1130576100031224,5.883332400044553,0.807358720951034
1730865964.5834439,-1.8520234823226929,1.1645499467849731,-9.829914093017578,-0.27412395590057853,-0.3088381751736552,-10.642535524303653,1.110793255324408,5.876076429463905,0.7158818344206996
1730865964.6334517,-1.8085271120071411,1.176212191581726,-9.861815452575684,-0.27396420080250683,-0.31099535967651903,-10.64265012743292,1.1159263820071483,5.884038780834121,0.9135355969600547
1730865964.6834452,-1.7181299924850464,1.1627516746520996,-9.876137733459473,-0.27384349736718067,-0.3131249572546955,-10.642717091885164,1.1149801784122035,5.8789824508429875,0.8729711798746751
1730865964.7333987,-1.6924563646316528,1.1392431259155273,-9.905946731567383,-0.2737682896146255,-0.3152205287832784,-10.642733829699706,1.1166441989713378,5.869504363827637,0.9125965102737246
1730865964.7834475,-1.6710063219070435,1.1597439050674438,-9.915834426879883,-0.2737434398945705,-0.3172765821350843,-10.642699139215313,1.1158615548718658,5.86216050948346,0.8713487169460936
1730865964.8333828,-1.6623401641845703,1.1732234954833984,-9.910504341125488,-0.273771793166075,-0.3192884100513247,-10.642613311781071,1.1143350407619377,5.853657308841598,0.800686893710176
1730865964.8834436,-1.6623401641845703,1.1732234954833984,-9.910504341125488,-0.27385409628959717,-0.32125208764581514,-10.642478087324267,1.1122352477780317,5.844874419133987,0.7084018447614323
1730865964.8834436,-1.664509892463684,1.188157320022583,-9.918722152709961,-0.2739891291308556,-0.3231645400377627,-10.642296485587575,1.1122217712791667,5.844823457102877,0.7078186982159889
1730865964.933397,-1.664509892463684,1.188157320022583,-9.918722152709961,-0.2741739419349428,-0.32502357385320024,-10.64207262459584,1.1171092075965228,5.853498204293688,0.9098233112536006
1730865964.933397,-1.6572636365890503,1.1673773527145386,-9.908549308776855,-0.2744041187617524,-0.32682784871974413,-10.641811562605325,1.117105980714374,5.853471172407175,0.9096662100028079
1730865964.9834638,-1.6591688394546509,1.130024790763855,-9.90406608581543,-0.2746740068055836,-0.32857671577887587,-10.641519108738674,1.1161641141411822,5.848056893020218,0.867239296001921
1730865965.0333724,-1.6591688394546509,1.130024790763855,-9.90406608581543,-0.27497691498437243,-0.33026989516279115,-10.641201597735371,1.1182142563387412,5.836586412328722,0.9079222576220782
1730865965.0333724,-1.6374982595443726,1.1253414154052734,-9.897210121154785,-0.2753052935039315,-0.3319071513960885,-10.640865685783325,1.11821229198233,5.836532691322228,0.9077309096509034
1730865965.0834715,-1.6542800664901733,1.1127800941467285,-9.890379905700684,-0.27565087345895867,-0.33348811758165503,-10.640518180612307,1.1188158592514204,5.820987616886753,0.9060511096750536
1730865965.1333466,-1.6624219417572021,1.1077226400375366,-9.87459659576416,-0.2760048135769899,-0.3350122213646046,-10.640165867988665,1.1181726102327565,5.810248311866062,0.8636674571474767
1730865965.183495,-1.6803877353668213,1.1172305345535278,-9.872438430786133,-0.27635794219441456,-0.3364786400674688,-10.639815320455812,1.116831797116048,5.798594092006888,0.7942916777527836
1730865965.2333581,-1.6642932891845703,1.1443051099777222,-9.851571083068848,-0.27670104880861746,-0.3378863430284925,-10.6394727115929,1.1191588532497192,5.8095739473376975,0.9025821694852513
1730865965.2835011,-1.676072597503662,1.1518168449401855,-9.866317749023438,-0.2770250965551225,-0.3392342754643273,-10.6391436655854,1.1182441389060365,5.803372743802597,0.8593974045260562
1730865965.3333554,-1.676072597503662,1.1518168449401855,-9.866317749023438,-0.2773213394658847,-0.3405215929877316,-10.638833187576658,1.1198699725216017,5.791239437383826,0.903030683203193
1730865965.3333554,-1.688549518585205,1.173169493675232,-9.839729309082031,-0.2775814294987081,-0.34174782236729934,-10.63854566899791,1.1198676750716998,5.791191259965989,0.9028770955076616
1730865965.3832452,-1.7406500577926636,1.1670211553573608,-9.839791297912598,-0.27779759443436836,-0.3429129516036641,-10.638284856719999,1.1190897841132446,5.78167420685195,0.8607063580160954
1730865965.4331973,-1.7592371702194214,1.1434805393218994,-9.807424545288086,-0.2779629492767629,-0.34401745772644804,-10.638053734435005,1.12082538411902,5.7841764315736315,0.9042502646622179
1730865965.4832108,-1.7919294834136963,1.1425443887710571,-9.786770820617676,-0.2780718945687567,-0.345062204579929,-10.637854357934279,1.1201745227175708,5.777431336121562,0.8624589037095862
1730865965.5332005,-1.8289555311203003,1.1339582204818726,-9.734051704406738,-0.2781204703998841,-0.3460482527039925,-10.63768763529093,1.1188327262518452,5.7698524566742195,0.7943082429114942
1730865965.5832748,-1.906752586364746,1.1017496585845947,-9.722082138061523,-0.2781066834903687,-0.3469766817707555,-10.637553045171853,1.1211931659375327,5.76472198236496,0.9024270847314126
1730865965.6332035,-1.9440362453460693,1.0649313926696777,-9.711519241333008,-0.2780309170115177,-0.34784837521104844,-10.637448402807351,1.1203153636570542,5.756681877977838,0.8600660439736802
1730865965.6832056,-1.954621434211731,1.0486096143722534,-9.747272491455078,-0.27789632862635594,-0.34866370745767455,-10.637369844059354,1.1182851277885657,5.743475830121246,0.9022785078585315
1730865965.733109,-1.9300211668014526,1.0519165992736816,-9.785317420959473,-0.2777089580425561,-0.3494222599990625,-10.637312127898042,1.1161932184205254,5.73197796977166,0.8586302935711968
1730865965.7832572,-1.8917458057403564,1.0662336349487305,-9.863221168518066,-0.27747738890429907,-0.3501227442563918,-10.637269247936905,1.1134866919919604,5.72000319607315,0.7902045831908381
1730865965.8331983,-1.8261340856552124,1.0515388250350952,-9.917787551879883,-0.27721203090779023,-0.35076313712454615,-10.63723526628849,1.1100590810476187,5.70700563401127,0.6945841056540528
1730865965.8832433,-1.7325536012649536,1.0188775062561035,-9.973783493041992,-0.2769241353557226,-0.35134083484713546,-10.63720520577974,1.116931864716097,5.693140039729811,0.9021352526125738
1730865965.9331484,-1.6438817977905273,1.0134690999984741,-9.997303009033203,-0.2766246191131242,-0.35185265377401986,-10.637175793695114,1.1154326233757033,5.678365152391491,0.8596998668142425
1730865965.9832146,-1.6068297624588013,1.0392526388168335,-10.010113716125488,-0.27632286723654403,-0.35229477558437405,-10.637145907409995,1.1149101616937005,5.662679282807673,0.9018897448526856
1730865966.0331244,-1.5930547714233398,1.1113393306732178,-9.983500480651855,-0.2760258378961999,-0.35266292172057473,-10.637116662293657,1.1129404674695844,5.6461212744034555,0.8592673627566476
1730865966.0831685,-1.6152253150939941,1.2080261707305908,-9.939994812011719,-0.2757377149133807,-0.3529529490180723,-10.637091128457566,1.113017427989921,5.62869855620574,0.901432625159407
1730865966.1329873,-1.6628810167312622,1.2549554109573364,-9.904179573059082,-0.27546011150895783,-0.35316178693773437,-10.6370737308414,1.1109925444126427,5.6105030863990795,0.8591384453541798
1730865966.183079,-1.7237470149993896,1.2498868703842163,-9.840123176574707,-0.27519270056866296,-0.35328832431277624,-10.637069480906387,1.1082629587197792,5.591277438130571,0.789908972841417
1730865966.232996,-1.7540323734283447,1.1959750652313232,-9.810408592224121,-0.27493408053393265,-0.35333377087492723,-10.637083189140338,1.111684427858318,5.571243558011183,0.9013266268072863
1730865966.282932,-1.7761001586914062,1.1373709440231323,-9.77637004852295,-0.27468260170185366,-0.3533013195359372,-10.63711877595147,1.1128290150265259,5.55035855609252,0.9014286180503039
1730865966.3329697,-1.7761001586914062,1.1373709440231323,-9.77637004852295,-0.27443692741358405,-0.35319537590787337,-10.637178800710588,1.1118874475383755,5.52852961961727,0.8590899456515338
1730865966.3329697,-1.7739691734313965,1.080772876739502,-9.734260559082031,-0.2741962835911261,-0.3530208004934438,-10.637264236021984,1.1118796081246516,5.528393905549056,0.858750483677347
1730865966.3838212,-1.7863746881484985,1.0190056562423706,-9.72805404663086,-0.2739604934636104,-0.3527823054007413,-10.6373743742326,1.1134818157589865,5.505424927992337,0.9011343701241071
1730865966.4338863,-1.7863746881484985,1.0190056562423706,-9.72805404663086,-0.27372994273628887,-0.3524838806005082,-10.63750679459231,1.1127078688677547,5.481740497460599,0.8587344835082213
1730865966.4338863,-1.763444423675537,0.9958710074424744,-9.702902793884277,-0.27350552860133515,-0.35212833694900225,-10.63765742976568,1.1126765312756244,5.481069698637098,0.8571742171683054
1730865966.4838243,-1.7485802173614502,0.980993390083313,-9.72205638885498,-0.2732885179420994,-0.35171711973068925,-10.63782071843161,1.111252266707311,5.457257559420754,0.7898662731506905
1730865966.5338418,-1.7739217281341553,0.9647471904754639,-9.749009132385254,-0.2730803316548951,-0.3512502880365145,-10.63798984117338,1.114215213946857,5.431882134285051,0.9011692500100279
1730865966.5839176,-1.776928424835205,1.0090956687927246,-9.792386054992676,-0.2728824331664436,-0.3507265812388088,-10.638157136617309,1.1133722261193992,5.405597771594801,0.859126958454147
1730865966.6337254,-1.776928424835205,1.0090956687927246,-9.792386054992676,-0.2726963744777134,-0.3501436724024365,-10.638314667989853,1.1151603294545025,5.378582656103566,0.9003169662221367
1730865966.6337254,-1.7719019651412964,1.0469619035720825,-9.85647201538086,-0.2725238491016774,-0.34949860226140983,-10.638454770048812,1.1151584070968128,5.378425770200418,0.9001508462934962
1730865966.6840096,-1.742720127105713,1.0767850875854492,-9.918389320373535,-0.2723666339618987,-0.34878826409193125,-10.638570575178903,1.114470669326038,5.350212371739669,0.8571753951410956
1730865966.733826,-1.7308605909347534,1.0838773250579834,-9.983128547668457,-0.27222640860174874,-0.3480098695553494,-10.638656653577222,1.1163441235811138,5.321668865142988,0.9016882549523926
1730865966.7839155,-1.7244657278060913,1.1198302507400513,-10.016728401184082,-0.2721045179102667,-0.3471613398543161,-10.63870970445671,1.1158305102400559,5.291831188448067,0.8600451805317838
1730865966.8337839,-1.7244657278060913,1.1198302507400513,-10.016728401184082,-0.2720018012332181,-0.34624158525867577,-10.638729042037168,1.117165091591825,5.261404678911453,0.9000540116048685
1730865966.8337839,-1.6922295093536377,1.1217204332351685,-10.01152515411377,-0.27191851676337353,-0.3452506711089802,-10.6387166919857,1.1171633372172074,5.261246127903347,0.8999053891719379
1730865966.8839517,-1.6949405670166016,1.091368556022644,-10.003122329711914,-0.27185426922468486,-0.34418981295561724,-10.638677127541708,1.1164771237397295,5.229737862050277,0.857378339954242
1730865966.9338105,-1.6541407108306885,1.079060673713684,-9.937772750854492,-0.2718078970081102,-0.3430611660193377,-10.638616774240733,1.118310227868615,5.197517586263739,0.901962115831412
1730865966.9837117,-1.6971153020858765,1.0559735298156738,-9.882655143737793,-0.27177738330113077,-0.3418674906931199,-10.638543300900889,1.1177628515619966,5.164333127490552,0.8605924908614858
1730865967.0336804,-1.7184339761734009,1.0200108289718628,-9.829143524169922,-0.27175993569483914,-0.3406117934712575,-10.638464713662778,1.120563917432671,5.13050892765393,0.9012228012226073
1730865967.0837424,-1.7796587944030762,0.9819168448448181,-9.78043270111084,-0.2717523492560041,-0.33929694799060633,-10.638388436249175,1.1206929543818316,5.095375441985896,0.8588827972703535
1730865967.1336548,-1.7767276763916016,0.9837790727615356,-9.749464988708496,-0.2717515523655759,-0.3379253105504299,-10.638320559677489,1.120144396367941,5.059850644252463,0.7906250516428391
1730865967.1838517,-1.7815088033676147,1.03798508644104,-9.75819206237793,-0.271755058897023,-0.3364985227601402,-10.638265358373268,1.1214959789798902,5.023126547302457,0.9006977719578356
1730865967.2337184,-1.7815088033676147,1.03798508644104,-9.75819206237793,-0.27176114772483917,-0.33501768817100647,-10.638225148098305,1.1209084919323424,4.985826160538028,0.8583287583606417
1730865967.2337184,-1.7619465589523315,1.1153185367584229,-9.77953052520752,-0.2717688188315931,-0.3334838273555558,-10.638200457472614,1.1209030023651425,4.985602831386395,0.8579991705733024
1730865967.283684,-1.7306779623031616,1.2181533575057983,-9.794438362121582,-0.2717776113497112,-0.33189849788709774,-10.63819037713926,1.119637111631088,4.947491944923406,0.7890861508228388
1730865967.3336196,-1.73723566532135,1.2622041702270508,-9.825244903564453,-0.27178731907329085,-0.3302646216919745,-10.638192984325258,1.1176934943457613,4.90850510901956,0.6936186908219678
1730865967.3837023,-1.7728885412216187,1.2536513805389404,-9.841352462768555,-0.27179777044917774,-0.3285872777188843,-10.638205794453349,1.1230349357285938,4.868565385563081,0.9018480565938863
1730865967.4336104,-1.7957485914230347,1.2329119443893433,-9.852080345153809,-0.2718088788983303,-0.32687399028470543,-10.638226176587416,1.1224090941798766,4.827956940026713,0.8599865724013576
1730865967.4835632,-1.8130037784576416,1.187165379524231,-9.869086265563965,-0.271820915791089,-0.3251344020085346,-10.638251667589433,1.1247548110273513,4.786479072467929,0.9010907639458191
1730865967.5335834,-1.8130037784576416,1.187165379524231,-9.869086265563965,-0.2718347715080909,-0.32337960899069634,-10.638280177766058,1.1242930356367795,4.744313038277769,0.8588896129892117
1730865967.5335834,-1.8403993844985962,1.1168467998504639,-9.861696243286133,-0.2718520814591877,-0.3216214481435695,-10.638310095561009,1.1242869505275384,4.743989806051491,0.8584682574715702
1730865967.5836523,-1.8365612030029297,1.1099493503570557,-9.855596542358398,-0.27187526871082346,-0.31987182666175595,-10.638340272162937,1.1286517279953998,4.701213631096178,0.901534814663389
1730865967.6335382,-1.8015090227127075,1.1125519275665283,-9.858222961425781,-0.2719075094429211,-0.3181421444470822,-10.638369920657379,1.1303249104089008,4.65757017496974,0.900442797636854
1730865967.683565,-1.7416749000549316,1.0947171449661255,-9.853496551513672,-0.27195247264530487,-0.3164429492819871,-10.638398516399208,1.1306343776592171,4.6129368679844776,0.8581205858779782
1730865967.7336876,-1.707353949546814,1.0896289348602295,-9.870576858520508,-0.27201376888165235,-0.3147838019400533,-10.638425747818868,1.130256872708307,4.566896430953947,0.788190125642485
1730865967.7836096,-1.6856294870376587,1.0882185697555542,-9.87708854675293,-0.27209431007165075,-0.31317319761177653,-10.638451534053262,1.1292058062514811,4.520801337543098,0.6927948730350866
1730865967.833548,-1.6856732368469238,1.1131680011749268,-9.89499282836914,-0.27219585799023455,-0.31161854720778576,-10.638476108401273,1.1313698565685528,4.474004966270908,0.8996770954232758
1730865967.8835711,-1.6620116233825684,1.1451038122177124,-9.884458541870117,-0.27231884803684014,-0.3101263178092685,-10.638500115394006,1.130836382735009,4.426058273550754,0.8570303366764175
1730865967.9334772,-1.6606212854385376,1.1801331043243408,-9.870457649230957,-0.27246237558375697,-0.3087023532918399,-10.638524625512309,1.1338062556705508,4.377541233887153,0.899184356565988
1730865967.9834714,-1.653437852859497,1.1797866821289062,-9.851520538330078,-0.2726242374772128,-0.3073522646002882,-10.638551003120536,1.1337891865760386,4.328267029712154,0.8566341084116726
1730865968.0334425,-1.6758476495742798,1.1824043989181519,-9.821070671081543,-0.27280104422395235,-0.30608170040389115,-10.638580651269356,1.1330917784792416,4.2781430519804475,0.7874717844512505
1730865968.0835173,-1.7237505912780762,1.1566532850265503,-9.81063461303711,-0.27298848811805,-0.3048963837181651,-10.63861470579658,1.1317098720168062,4.227162453004328,0.6915479405797942
1730865968.1334534,-1.7996176481246948,1.1426687240600586,-9.782665252685547,-0.27318185973311404,-0.30380193775128117,-10.638653751526327,1.1352556196213557,4.175702767948977,0.8988019401430197
1730865968.1835039,-1.8628112077713013,1.1092867851257324,-9.77823543548584,-0.27337682142800035,-0.30280358554397635,-10.638697607938239,1.1346332109040584,4.123330301000809,0.8562695486979576
1730865968.2334023,-1.8774480819702148,1.0935637950897217,-9.79169750213623,-0.27357024149316567,-0.30190580581725496,-10.63874522435703,1.13630221862963,4.070455896879365,0.8984372441484226
1730865968.2834685,-1.8534674644470215,1.108945369720459,-9.822172164916992,-0.2737607350657919,-0.3011120495542816,-10.63879476358732,1.1381184384592988,4.016977567136293,0.8982294828351453
1730865968.3333826,-1.7973651885986328,1.1064001321792603,-9.855999946594238,-0.27394865294480114,-0.3004246402031676,-10.638843912924234,1.138054386650505,3.962253444769422,0.855627818629836
1730865968.3833833,-1.749116063117981,1.0848197937011719,-9.900351524353027,-0.2741355484055754,-0.29984483197786893,-10.638890353859482,1.1373050066730226,3.9068246394660706,0.7864540173683268
1730865968.4334073,-1.749116063117981,1.0848197937011719,-9.900351524353027,-0.2743234252748078,-0.2993728520150914,-10.63893225538201,1.1358686400546034,3.850601533174593,0.6905960104182575
1730865968.4334073,-1.6887575387954712,1.0780417919158936,-9.944061279296875,-0.2745141045988418,-0.29900787929648437,-10.63896865173471,1.1358602317110102,3.8503343839105457,0.6900803970123195
1730865968.4834383,-1.660573959350586,1.0784896612167358,-9.943114280700684,-0.2747087597949106,-0.29874805237286944,-10.638999671812673,1.139022305198448,3.7942363599435778,0.8982040294969316
1730865968.5333052,-1.660573959350586,1.0784896612167358,-9.943114280700684,-0.2749075253472246,-0.29859053759933424,-10.639026646592354,1.1397495663324406,3.7373191602510825,0.8981663120627887
1730865968.5333052,-1.6808581352233887,1.0688133239746094,-9.9386625289917,-0.2751092966250037,-0.29853162269429717,-10.639052060892396,1.1397484739086639,3.737129120033299,0.8980713799717329
1730865968.5834394,-1.6925055980682373,1.0484857559204102,-9.91047477722168,-0.2753118541311447,-0.29856678065666836,-10.63907934357177,1.1390688941504001,3.6786874365646907,0.8557022707202084
1730865968.6333168,-1.7340891361236572,1.0040960311889648,-9.874168395996094,-0.27551221915049023,-0.29869062799515045,-10.639112522701026,1.1418348193869512,3.6202050510560193,0.8993602622023659
1730865968.6832635,-1.7513102293014526,0.9668171405792236,-9.831408500671387,-0.2757071038799772,-0.2988967288527071,-10.639155745167722,1.1416159171717022,3.5604554536817874,0.8578976036136235
1730865968.7332773,-1.7513102293014526,0.9668171405792236,-9.831408500671387,-0.2758933446738279,-0.2991773264943679,-10.639212747182924,1.140704694183065,3.499681225114615,0.7895762044420344
1730865968.7332773,-1.7555934190750122,0.9132131338119507,-9.825553894042969,-0.2760681805890617,-0.29952316304078663,-10.639286470703208,1.1406990240614885,3.4994058946639743,0.7892081493797725
1730865968.783267,-1.7511773109436035,0.8991687297821045,-9.808719635009766,-0.27622934071521793,-0.29992339697518033,-10.639378914744112,1.1426717053296525,3.4390093005366933,0.8984545401852724
1730865968.833155,-1.7669599056243896,0.9138646125793457,-9.811017036437988,-0.2763750400470997,-0.3003655772894488,-10.639491113262476,1.1420679097078,3.376903795731296,0.8567662754226787
1730865968.8833268,-1.7647291421890259,0.9623916149139404,-9.817171096801758,-0.27650398078235405,-0.30083583552808435,-10.63962315762107,1.1407721302854805,3.31400805686783,0.788433716974019
1730865968.9331322,-1.7647291421890259,0.9623916149139404,-9.817171096801758,-0.2766153672477687,-0.30131940056703943,-10.639774293496686,1.144270588300638,3.251247659753861,0.8978589643466647
1730865968.9331322,-1.774051547050476,0.9942019581794739,-9.836055755615234,-0.27670889725092035,-0.3018012302023696,-10.63994308807239,1.1442695039301878,3.2509571431726405,0.897726467815891
1730865968.9830694,-1.7563841342926025,1.0308074951171875,-9.850176811218262,-0.27678472387657505,-0.3022665636145598,-10.640127642187963,1.1436930665193106,3.1872911705207954,0.8557821738048944
1730865969.0331802,-1.7418923377990723,1.052126407623291,-9.863423347473145,-0.27684336565235745,-0.30270142657785765,-10.640325842148231,1.1424115273797262,3.1217597655156735,0.7863913754322803
1730865969.0830772,-1.7634446620941162,1.1164103746414185,-9.859697341918945,-0.27688555963682526,-0.303093139442869,-10.640535595304552,1.14045256613975,3.0561417761853282,0.691171486540206
1730865969.1331055,-1.7613576650619507,1.1499154567718506,-9.857751846313477,-0.2769121707082012,-0.3034308306633561,-10.640754966492501,1.145842116664835,2.9903943481514452,0.8987706340410226
1730865969.1830616,-1.7613576650619507,1.1499154567718506,-9.857751846313477,-0.27692421115010296,-0.3037058980019067,-10.640982202113173,1.1488528775066964,2.924276435908924,0.8977617707064838
1730865969.1830616,-1.7668864727020264,1.152148723602295,-9.854114532470703,-0.2769228725260008,-0.3039122346176864,-10.641215700812854,1.1488552352639556,2.92395310236415,0.8976228736769784
1730865969.2330203,-1.7668864727020264,1.152148723602295,-9.854114532470703,-0.2769095236288388,-0.30404614857113377,-10.641453979433177,1.1490017437069795,2.856004637120192,0.85529268615272
1730865969.2330203,-1.7597706317901611,1.146106243133545,-9.849930763244629,-0.2768856957676999,-0.3041061189286055,-10.641695641776884,1.1490008131779197,2.8556861716471817,0.855033392756317
1730865969.2830868,-1.7832831144332886,1.1196283102035522,-9.831854820251465,-0.27685306145357935,-0.30409249021905865,-10.641939332580485,1.1502949176845396,2.788469376335799,0.8991310223506114
1730865969.3329446,-1.7911642789840698,1.0579688549041748,-9.824539184570312,-0.27681345651931144,-0.3040070477390877,-10.64218364571237,1.1501092018401995,2.718880863683247,0.8579758467026992
1730865969.3830001,-1.793712854385376,1.0126854181289673,-9.833224296569824,-0.2767689695412797,-0.30385239407041786,-10.642427014090908,1.1545285564624292,2.6497317813279526,0.8931229650715798
1730865969.432937,-1.7517714500427246,1.0202561616897583,-9.849518775939941,-0.2767219737813878,-0.3036312473906316,-10.64266768781806,1.1550576814869113,2.57862039430837,0.849351049002102
1730865969.4829564,-1.7155946493148804,1.0792349576950073,-9.881749153137207,-0.2766749373676982,-0.3033460236431511,-10.642903873016644,1.1573101615020684,5.155413230363538,0.8897486431650399
1730865969.532836,-1.6973638534545898,1.1483683586120605,-9.885079383850098,-0.27663002342256676,-0.3029989912222863,-10.6431339907876,1.1577539793066098,5.143984146971548,0.8457224818089155
1730865969.5827827,-1.6990910768508911,1.1914793252944946,-9.90003490447998,-0.27658870197693725,-0.30259289850717297,-10.643356929562508,1.1575085446500952,5.131877380361665,0.7755695609075652
1730865969.6338701,-1.7048535346984863,1.1952179670333862,-9.894710540771484,-0.276551581000966,-0.3021316578722045,-10.643572186191193,1.1565334105069882,5.118552101421756,0.6751772806617885
1730865969.6838133,-1.7279154062271118,1.140415906906128,-9.889106750488281,-0.2765184803822989,-0.3016206587961451,-10.643779878672376,1.1548941808391786,5.1049141844622055,0.5513383214284493
1730865969.7338028,-1.727390170097351,1.0967813730239868,-9.850716590881348,-0.2764886548959876,-0.3010665161924592,-10.64398062548474,1.1591830099599663,5.148833422939012,0.8845970535383789
1730865969.7837937,-1.7448590993881226,1.0502889156341553,-9.854978561401367,-0.2764610477418098,-0.3004763958441455,-10.64417529340345,1.1586581594767378,5.144799629588605,0.8412219954171257
1730865969.8337355,-1.7205950021743774,1.0371060371398926,-9.837763786315918,-0.27643447586579084,-0.29985726574386956,-10.64436471809638,1.162429477128727,5.13184946930104,0.877751326096054
1730865969.8838043,-1.7044275999069214,1.004769206047058,-9.838481903076172,-0.27640767448905823,-0.29921533420031776,-10.644549517776603,1.1626444006998333,5.1237448172215725,0.8324016694477815
1730865969.9337204,-1.6762114763259888,1.0011883974075317,-9.852025985717773,-0.2763791733971993,-0.29855571529396746,-10.644730021446007,1.1621689330094676,5.114929625100341,0.7606950173752527
1730865969.9836867,-1.6579885482788086,0.9812003374099731,-9.872231483459473,-0.2763470708456193,-0.2978822580382784,-10.644906321276602,1.1610066861289468,5.105379479310093,0.662574825578335
1730865970.0337353,-1.6579885482788086,0.9812003374099731,-9.872231483459473,-0.27630882703921783,-0.29719748981948524,-10.645078440022463,1.165379388223182,5.112742779311027,0.873526007743384
1730865970.0337353,-1.6788157224655151,1.0039273500442505,-9.869159698486328,-0.2762612002493524,-0.29650267306922024,-10.645246496709179,1.1653795829762188,5.112717487772023,0.8733905608324201
1730865970.0836577,-1.7302862405776978,0.9892690777778625,-9.866273880004883,-0.27620042885971374,-0.29579799082346353,-10.645410761717406,1.1650796029970247,5.106666776905329,0.8297094953728478
1730865970.1336935,-1.7302862405776978,0.9892690777778625,-9.866273880004883,-0.2761226451666976,-0.2950827757341708,-10.645571621653993,1.166770748884888,5.095591592095041,0.8723986707120028
1730865970.1336935,-1.7561147212982178,1.0005706548690796,-9.84821891784668,-0.27602432494476054,-0.2943556761896534,-10.645729513914139,1.1667709444281038,5.095541091858669,0.8722235834920576
1730865970.1836424,-1.7561147212982178,1.0005706548690796,-9.84821891784668,-0.27590258810110124,-0.2936148020820154,-10.645884835124264,1.1628060261539952,5.076499059228356,0.8697633667841426
1730865970.1836424,-1.7367112636566162,1.0267400741577148,-9.844929695129395,-0.2757553195292333,-0.2928579192453087,-10.646037838889868,1.1627942563236626,5.076427594769016,0.8696063847811712
1730865970.2335315,-1.7292639017105103,1.0034098625183105,-9.847564697265625,-0.2755811123282135,-0.29208266259325766,-10.646188579188172,1.1602085480642452,5.062448238469052,0.8264354808513421
1730865970.283596,-1.7082710266113281,1.0320013761520386,-9.856908798217773,-0.275379068813457,-0.29128669957693776,-10.646336923010555,1.1569329119205576,5.04771610427096,0.7567138889474765
1730865970.3336132,-1.7082710266113281,1.0320013761520386,-9.856908798217773,-0.2751485681016723,-0.29046784811471776,-10.646482615525489,1.152940281122337,5.032142412423774,0.6596850472126895
1730865970.3336132,-1.7297741174697876,1.0265306234359741,-9.872505187988281,-0.27488911358708457,-0.28962419428661534,-10.646625371972915,1.1529157806423536,5.032052454591079,0.659061262770581
1730865970.3835676,-1.7297741174697876,1.0265306234359741,-9.872505187988281,-0.27460033590663857,-0.2887541636723646,-10.646764977314321,1.1618379940013215,5.069299774025727,0.8712554886084695
1730865970.3835676,-1.73284912109375,1.026072382926941,-9.879054069519043,-0.27428209922940705,-0.2878565127163614,-10.646901376472425,1.1618313977123447,5.0692727296864435,0.8711065698082073
1730865970.4335475,-1.73284912109375,1.026072382926941,-9.879054069519043,-0.27393457762833273,-0.2869303014150076,-10.647034730272463,1.1602484637181116,5.063823872062354,0.8298140002047499
1730865970.4335475,-1.7507237195968628,1.0402652025222778,-9.899032592773438,-0.2735582800704767,-0.2859748940911421,-10.64716544792114,1.1602383388099753,5.063793317554583,0.8295269423999262
1730865970.4835615,-1.7507237195968628,1.0402652025222778,-9.899032592773438,-0.2731540910105533,-0.28499000114436984,-10.647294239422465,1.157975187178302,5.057634656367171,0.7617513784715634
1730865970.4835615,-1.7441734075546265,1.067531943321228,-9.886956214904785,-0.272723318112414,-0.2839757621105448,-10.647422163417719,1.1579610502524096,5.057599283237091,0.7613113417340082
1730865970.5335526,-1.7646288871765137,1.0706843137741089,-9.89332103729248,-0.2722676930679586,-0.28293286251260635,-10.64755059432776,1.1659044027027945,5.054888397763415,0.8715580758265898
1730865970.583584,-1.8092890977859497,1.0768513679504395,-9.85693645477295,-0.27178940180706257,-0.28186265118238474,-10.647681098744021,1.1655989993418028,5.0497322686095325,0.8307072944579184
1730865970.6335008,-1.8451093435287476,1.0780317783355713,-9.835271835327148,-0.27129128870432195,-0.28076719297150465,-10.64781522491361,1.1646135606593757,5.043819851381901,0.7628816478370151
1730865970.6835158,-1.8778879642486572,1.068177342414856,-9.794242858886719,-0.2707772076514111,-0.27964923019934473,-10.647954183844842,1.1679265437376103,5.038633159807317,0.8699073107461666
1730865970.7335863,-1.8792659044265747,1.0619271993637085,-9.761591911315918,-0.2702523301497177,-0.27851206630919756,-10.64809846224059,1.1676028047835567,5.031958319934958,0.8273865047270883
1730865970.7835293,-1.8781741857528687,1.0342954397201538,-9.767451286315918,-0.2697232464054411,-0.2773593777266646,-10.648247477290564,1.1718666277434542,5.019140838285789,0.8702372537239667
1730865970.8334446,-1.8452465534210205,1.0448501110076904,-9.792409896850586,-0.269197804485564,-0.2761949805213819,-10.648399441352096,1.1794497932009802,5.0050949359095505,0.8705901819530582
1730865970.8834481,-1.7909832000732422,1.0523160696029663,-9.833215713500977,-0.2686846914559251,-0.2750226508917534,-10.648551565940142,1.1821899621553598,4.994143831666623,0.8284430054184453
1730865970.9334626,-1.7380390167236328,1.0403714179992676,-9.891928672790527,-0.26819277832178845,-0.27384607494441393,-10.648700570528653,1.1842668283412112,4.982462401854402,0.7594107305409399
1730865970.9834626,-1.6841381788253784,1.027842402458191,-9.939653396606445,-0.2677303286891949,-0.27266883617541426,-10.648843365383295,1.1856672008036353,4.970126151514695,0.6638795890505766
1730865971.0333781,-1.598343849182129,1.0370818376541138,-9.97574520111084,-0.2673041991294719,-0.2714943400383255,-10.648977751267122,1.1837923292451402,4.996458709820826,0.8704009311729439
1730865971.083417,-1.5712602138519287,1.0332560539245605,-9.993497848510742,-0.26691909173461414,-0.27032574087996586,-10.649102964853098,1.184419432153403,4.991466092146619,0.8280962622644281
1730865971.133399,-1.5712602138519287,1.0332560539245605,-9.993497848510742,-0.2665770038251948,-0.26916593535648964,-10.649219956718357,1.1848556515689197,4.979669483002946,0.8706796539115575
1730865971.133399,-1.550557255744934,1.039259433746338,-9.944525718688965,-0.2662770717868723,-0.26801758457668856,-10.649331347658705,1.1848571226085067,4.979628240087016,0.8705327133700487
1730865971.1834455,-1.5575945377349854,1.0153611898422241,-9.915091514587402,-0.26601575203742345,-0.26688312196983943,-10.649441039392864,1.1848164805371846,4.9711464724216405,0.8282347206881221
1730865971.233443,-1.6128383874893188,0.9890211224555969,-9.859123229980469,-0.2657871901044888,-0.26576468582105006,-10.649553568524148,1.184110486650862,4.961946293237652,0.7590384205615542
1730865971.283348,-1.700724482536316,0.9786924719810486,-9.800239562988281,-0.26558386684490176,-0.26466393355329454,-10.649673363343092,1.18274561532459,4.952126913595018,0.6636174052726396
1730865971.3333108,-1.7688379287719727,1.0146944522857666,-9.755945205688477,-0.26539761154031605,-0.2635818726855949,-10.64980399761451,1.186079662653388,4.969831227828517,0.8718749385525507
1730865971.3833656,-1.8208271265029907,1.02140212059021,-9.763900756835938,-0.2652207625900165,-0.2625189152837495,-10.649947571356309,1.1883314286747433,4.952615567652944,0.8707233248056938
1730865971.433279,-1.8217395544052124,1.0340009927749634,-9.765320777893066,-0.2650471007737986,-0.26147513600015126,-10.650104428108044,1.1883363789915822,4.94360533362172,0.8284338683007412
1730865971.48329,-1.782911777496338,1.0537012815475464,-9.80487060546875,-0.26487227932879787,-0.26045054533527967,-10.650273278196504,1.1902885284573403,4.9377529001526135,0.8701200055842193
1730865971.5332751,-1.7525897026062012,1.0612386465072632,-9.85537052154541,-0.2646936824802434,-0.2594453047099094,-10.650451636262716,1.1903377205250707,4.928359462982931,0.8275044448268617
1730865971.5832372,-1.7406247854232788,1.1116029024124146,-9.87990665435791,-0.2645099207472923,-0.25845993466427875,-10.65063645338613,1.1897253624430442,4.918325655763907,0.7582940205381468
1730865971.633259,-1.770524501800537,1.115897536277771,-9.90289306640625,-0.264320349415224,-0.25749556435084486,-10.650824757491126,1.188446287908825,4.907606570351742,0.66206376372674
1730865971.683197,-1.770524501800537,1.115897536277771,-9.90289306640625,-0.2641248687752339,-0.2565541590116951,-10.65101410494086,1.192510760308492,4.928783505294396,0.8703167994230412
1730865971.683197,-1.7900440692901611,1.1545110940933228,-9.899785995483398,-0.26392395753314746,-0.25563861527612736,-10.65120278150704,1.192510703964887,4.928759774170088,0.8701608901253838
1730865971.7331789,-1.7900440692901611,1.1545110940933228,-9.899785995483398,-0.26371875231976805,-0.2547527825011967,-10.651389803873315,1.1942557658373762,4.912643045624545,0.8721227858802096
1730865971.7331789,-1.8505797386169434,1.163799524307251,-9.896068572998047,-0.26351112619958117,-0.25390148755409037,-10.651574819712664,1.1942568440135812,4.912596604574998,0.8719584653214635
1730865971.783353,-1.8505797386169434,1.163799524307251,-9.896068572998047,-0.2633038465278129,-0.2530904924598201,-10.651757990386383,1.1941096801215454,4.904386771791925,0.8306679743131384
1730865971.783353,-1.8653908967971802,1.1624170541763306,-9.862640380859375,-0.2631007659059196,-0.25232635454417984,-10.65193985676763,1.1941069797400619,4.904338545234868,0.830358882156271
1730865971.8332534,-1.84821355342865,1.119704008102417,-9.858514785766602,-0.2629068669136323,-0.25161620012120883,-10.6521211361446,1.1933067226764635,4.895552405735718,0.7628470702430578
1730865971.8832345,-1.8270213603973389,1.114829421043396,-9.805334091186523,-0.26272808142062465,-0.2509673735862301,-10.65230243837927,1.1918456306658647,4.8860744877111655,0.6682889664128324
1730865971.9334147,-1.793975830078125,1.0453251600265503,-9.822367668151855,-0.26257092338092747,-0.25038697363676715,-10.65248395395357,1.1967016536855832,4.901377222686523,0.872141078362239
1730865971.9832606,-1.7209333181381226,1.0137131214141846,-9.828447341918945,-0.2624419642276221,-0.24988131355885812,-10.652665247562663,1.1963487514185867,4.896703733143717,0.8306894484139477
1730865972.0332992,-1.7209333181381226,1.0137131214141846,-9.828447341918945,-0.26234719758997305,-0.2494553830486817,-10.652845274532613,1.1996972673211168,4.883230907883978,0.8708455369862999
1730865972.0332992,-1.6012029647827148,0.9719731211662292,-9.870986938476562,-0.2622913963497989,-0.24911248564499375,-10.653022568363173,1.199701157861289,4.88317729824223,0.8706649263203591
1730865972.0832047,-1.5673483610153198,0.9927900433540344,-9.874567985534668,-0.26227746475768826,-0.24885410313421966,-10.653195514705994,1.1999987125014122,4.874312524679485,0.8286936698983007
1730865972.133241,-1.5617990493774414,1.0194441080093384,-9.915316581726074,-0.2623058242252654,-0.24867995322558312,-10.653362677663603,1.2021640911295999,4.868807722956525,0.8722012605766043
1730865972.1831715,-1.576568603515625,1.0584110021591187,-9.886327743530273,-0.26237413966181933,-0.24858830652076636,-10.653523083748103,1.202472426736492,4.859958212012673,0.8307487949066464
1730865972.2332606,-1.631142258644104,1.0728533267974854,-9.91388988494873,-0.26247758392371945,-0.24857651386806087,-10.653676356642011,1.2021257026514482,4.850403674295578,0.7622041445659429
1730865972.283102,-1.7173388004302979,1.079965353012085,-9.86382007598877,-0.2626095546503686,-0.24864151424457787,-10.653822680742657,1.2029023895904978,4.857341386560908,0.8709934983841685
1730865972.3331964,-1.7173388004302979,1.079965353012085,-9.86382007598877,-0.26276265676095567,-0.24878015595299466,-10.653962617022636,1.202329190062247,4.851986424462734,0.8282640691165994
1730865972.3331964,-1.82231605052948,1.1077828407287598,-9.826631546020508,-0.26292966610698776,-0.24898935389419424,-10.65409681058312,1.2023243506950778,4.851956190451501,0.8279639675451167
1730865972.383157,-1.8533849716186523,1.1184059381484985,-9.800682067871094,-0.26310434473824873,-0.2492662208047106,-10.65422565935416,1.208141514404638,4.838979854216777,0.8719777118447005
1730865972.4330823,-1.8954871892929077,1.0949914455413818,-9.761144638061523,-0.26328215310625247,-0.24960820236748915,-10.65434897371249,1.2091424345832973,4.82992896302896,0.8304275705384397
1730865972.4830406,-1.8989217281341553,1.0262970924377441,-9.779446601867676,-0.2634607427184151,-0.2500130262536228,-10.654465670022853,1.2094826970031534,4.820329106049409,0.7627884288921377
1730865972.5331557,-1.8989217281341553,1.0262970924377441,-9.779446601867676,-0.26364009508013964,-0.2504783345739018,-10.654573647319861,1.2091620819897964,4.809945467044922,0.6671503579975353
1730865972.5331557,-1.8536771535873413,1.0082930326461792,-9.78778076171875,-0.26382232312346743,-0.25100122236651445,-10.654669911142605,1.2091584772116781,4.809886849637153,0.6665519178690589
1730865972.5831227,-1.783974289894104,1.004658818244934,-9.84261703491211,-0.2640111434207466,-0.2515779786977036,-10.654750860103512,1.209834185441203,4.827942316963549,0.8711778688245219
1730865972.6330674,-1.783974289894104,1.004658818244934,-9.84261703491211,-0.26421109033876583,-0.2522040421917572,-10.65481268771947,1.214484777177137,4.801358813492743,0.8710589590248863
1730865972.6330674,-1.7528783082962036,1.0574264526367188,-9.855023384094238,-0.2644267615014773,-0.25287411051990816,-10.65485180663751,1.2145000874685252,4.801241542777876,0.8708655974970698
1730865972.6830595,-1.7219197750091553,1.080628514289856,-9.910914421081543,-0.2646623094227625,-0.25358246289735875,-10.654865171028838,1.2166170113207861,4.789622210065536,0.8784073181523261
1730865972.7331333,-1.704637885093689,1.1132997274398804,-9.919187545776367,-0.2649210865000625,-0.2543234542927703,-10.654850570817041,1.2180095017598944,4.775067531511465,0.8397921963098257
1730865972.7830756,-1.6880874633789062,1.1303209066390991,-9.951221466064453,-0.26520535261093114,-0.2550919901911192,-10.654806952851377,1.2187300341608271,4.7599796943274715,0.774835955590402
1730865972.8330402,-1.6880874633789062,1.1303209066390991,-9.951221466064453,-0.2655161023465169,-0.2558838460156723,-10.654734647772292,1.218789967491901,4.7442492495563835,0.6833161451828489
1730865972.8330402,-1.6892642974853516,1.1353075504302979,-9.929433822631836,-0.2658530465586112,-0.2566957961561963,-10.654635407272497,1.2187887182143924,4.744175610846443,0.6828350960364026
1730865972.8830557,-1.6928538084030151,1.1137971878051758,-9.93874454498291,-0.26621472260501683,-0.25752556754633393,-10.654512237395835,1.2181884333021846,4.7278940544868835,0.5653704799696723
1730865972.9329422,-1.7044410705566406,1.0738990306854248,-9.894899368286133,-0.2665986849739095,-0.25837162968221705,-10.654369093225037,1.2173802080696143,4.786184222120887,0.8778151388161788
1730865972.9829872,-1.7288248538970947,1.0470776557922363,-9.854463577270508,-0.2670017524176301,-0.25923281354057476,-10.654210478859852,1.2168353795108555,4.782481976812548,0.8362721421787334
1730865973.0330038,-1.782965898513794,1.0143132209777832,-9.822835922241211,-0.26742035373713535,-0.2601078360702132,-10.654040924708125,1.2156225980143383,4.77813453084571,0.7681211728461682
1730865973.082945,-1.8363450765609741,1.0109021663665771,-9.767317771911621,-0.26785103394808185,-0.26099488424786715,-10.653864406605962,1.2195465967955632,4.770570355714187,0.8809974862155828
1730865973.132889,-1.8869452476501465,0.9894759058952332,-9.760782241821289,-0.2682910925825235,-0.2618913571865171,-10.653683827544471,1.2192619748887963,4.7642447347503,0.8397890771128959
1730865973.1829495,-1.8473352193832397,1.0347927808761597,-9.739604949951172,-0.26873914090571344,-0.2627938020944951,-10.653500658080487,1.2183054620756681,4.757251658713009,0.7718683205144029
1730865973.232936,-1.816389560699463,1.0465000867843628,-9.774761199951172,-0.26919525211733725,-0.26369808490693225,-10.653314831871128,1.2214604370521176,4.757690958580831,0.8834445009890519
1730865973.2828844,-1.783855676651001,1.0769073963165283,-9.79489803314209,-0.2696606036341914,-0.264599763172247,-10.65312494036069,1.2237449168057204,4.742466785343227,0.8870724321119086
1730865973.3328242,-1.7646828889846802,1.053520679473877,-9.82564926147461,-0.2701368856284596,-0.26549447020945627,-10.652928665784103,1.223756179161152,4.734160615012861,0.846278297630022
1730865973.3828576,-1.7351040840148926,1.0145779848098755,-9.854711532592773,-0.27062577196918813,-0.26637807549261977,-10.652723306035401,1.2230915992086895,4.725195047961418,0.778882913860863
1730865973.432912,-1.683071255683899,0.9749651551246643,-9.900102615356445,-0.27112848685883423,-0.267246510950246,-10.652506288876362,1.221738206497435,4.715491950522344,0.6841059460532105
1730865973.4828544,-1.6453770399093628,0.9578630328178406,-9.910890579223633,-0.27164536432153197,-0.26809538282895967,-10.652275651505853,1.219725269320795,4.705237642168899,0.5639348821067295
1730865973.532847,-1.649688720703125,0.9565423130989075,-9.945751190185547,-0.27217542763834984,-0.2689196363621066,-10.652030430209221,1.2170140510768956,4.694224360028554,0.4160616150484967
1730865973.5828483,-1.6442580223083496,0.9954084157943726,-9.940225601196289,-0.2727161782212401,-0.2697134803374732,-10.651770900501825,1.2251717486962008,4.728114271013151,0.8851601376417501
1730865973.632834,-1.6689367294311523,1.0497392416000366,-9.937795639038086,-0.27326368607622264,-0.2704706595395148,-10.651498643632737,1.2244564220076242,4.723833015101205,0.8426739998063251
1730865973.682793,-1.6689367294311523,1.0497392416000366,-9.937795639038086,-0.27381288349624605,-0.2711849960879994,-10.651216437450767,1.2285586592440432,4.716459345218353,0.8851264114442742
1730865973.682793,-1.6859419345855713,1.0834542512893677,-9.915569305419922,-0.2743579226418588,-0.2718509290834649,-10.650928029737344,1.228560441862131,4.716431936223544,0.8849679810888255
1730865973.7328548,-1.71327543258667,1.1262437105178833,-9.893120765686035,-0.2748925287173315,-0.2724638970972943,-10.65063783986078,1.2285422449047463,4.711034411573418,0.8423164904234093
1730865973.782775,-1.71327543258667,1.1262437105178833,-9.893120765686035,-0.2754103512438091,-0.2730206485867285,-10.650350605978078,1.227840759964118,4.704997338260572,0.7735107773800688
1730865973.782775,-1.7269731760025024,1.1472166776657104,-9.872698783874512,-0.2759052756914496,-0.27351947844659,-10.650071062426974,1.2278363086719277,4.704970145263072,0.7731608978910901
1730865973.8327966,-1.7269731760025024,1.1472166776657104,-9.872698783874512,-0.27637163091717476,-0.27396030056422827,-10.649803708352184,1.229252778685836,4.695594791410306,0.886846492345135
1730865973.8327966,-1.735066294670105,1.1401067972183228,-9.833118438720703,-0.27680430645718285,-0.2743445762977455,-10.6495526196448,1.2292515199836422,4.6955639353099485,0.886726688189121
1730865973.8827624,-1.717958927154541,1.1496965885162354,-9.815305709838867,-0.2771988059894438,-0.2746751482894591,-10.64932122606203,1.2286135674258356,4.688029868749134,0.8455632646606207
1730865973.9327734,-1.717958927154541,1.1496965885162354,-9.815305709838867,-0.2775512199291218,-0.2749560383432741,-10.64911206356485,1.2315600321137954,4.683897774984022,0.8873501158296262
1730865973.9327734,-1.6673269271850586,1.18075430393219,-9.812365531921387,-0.2778580948570377,-0.27519229904394293,-10.648926628030985,1.231561057963341,4.683867384696227,0.8872308248503912
1730865973.9827108,-1.6673269271850586,1.18075430393219,-9.812365531921387,-0.2781161923072533,-0.27538995868242777,-10.64876539329868,1.231455989979818,4.676363578069086,0.8458463250465541
1730865973.9827108,-1.718985915184021,1.200554609298706,-9.816550254821777,-0.2783222783383015,-0.2755560138619504,-10.648627920306076,1.2314541082005672,4.676330895356104,0.845618666352138
1730865974.032757,-1.718985915184021,1.200554609298706,-9.816550254821777,-0.2784731931514635,-0.27569839679343244,-10.648512993260276,1.232754485933683,4.672684946382534,0.8879613138763777
1730865974.032757,-1.777178168296814,1.1863377094268799,-9.796299934387207,-0.27856619349362693,-0.2758258709978688,-10.648418742243706,1.2327545784688265,4.672645046679496,0.8877996345178704
1730865974.0837018,-1.8267006874084473,1.1075407266616821,-9.833602905273438,-0.2785993945966243,-0.2759477552157861,-10.648342730036521,1.2324116162209264,4.665354400551874,0.8459748422063627
1730865974.1328225,-1.8129234313964844,1.0744457244873047,-9.833734512329102,-0.2785722231631875,-0.27607335598962945,-10.648282086830509,1.2313929196886952,4.657583443211642,0.7791031801831084
1730865974.1827915,-1.7848941087722778,1.034195899963379,-9.854951858520508,-0.2784856627272837,-0.27621122163513234,-10.648233750322904,1.2296695161792852,4.649016791056188,0.6848895346966032
1730865974.2327878,-1.7069191932678223,1.0519814491271973,-9.866008758544922,-0.27834202703347843,-0.27636854116564935,-10.648194728307189,1.2345492701442384,4.659806857464753,0.8875254853540917
1730865974.2827125,-1.7330290079116821,1.0380792617797852,-9.891645431518555,-0.2781443529681362,-0.2765508940248076,-10.648162330631234,1.234004112146346,4.654626965743156,0.8456300444836714
1730865974.333654,-1.7330290079116821,1.0380792617797852,-9.891645431518555,-0.2778958489270417,-0.2767622804542016,-10.648134380809541,1.2356880728716548,4.642682878731454,0.885852608607253
1730865974.333654,-1.723747968673706,1.0607243776321411,-9.90710735321045,-0.2775996901318364,-0.277005265302921,-10.648109373344557,1.2356870092371144,4.642649379117259,0.8857174041115513
1730865974.383695,-1.6333900690078735,1.1029419898986816,-9.92292594909668,-0.27725892642151284,-0.2772812276994013,-10.648086560871985,1.2351065696765737,4.634969876971701,0.8427747917034841
1730865974.4336932,-1.7185343503952026,1.0912126302719116,-9.885492324829102,-0.2768762203405049,-0.27759075146202417,-10.648065977066949,1.2338371242317794,4.626612079548224,0.7733865777938106
