Timestamp,IMU_Linear_Acc_X,IMU_Linear_Acc_Y,IMU_Linear_Acc_Z,Filtered_X,Filtered_Y,Filtered_Z,Pose_X,Pose_Y,Pose_Z
1730865946.7840548,-1.6857694387435913,1.1897996664047241,-9.920260429382324,0.00022245891100397197,-0.0002219867310000536,-0.08345055026003864,7.557962862990775e-09,-4.7196024492033565e-09,-0.0003318702904156462
1730865946.7840548,-1.6862400770187378,1.1638270616531372,-9.89360523223877,0.0002602441245252808,-0.0003092059112886369,-0.11224155398140694,7.868608139292811e-09,-4.94948861322887e-09,-0.00033198641243224037
1730865946.8340745,-1.6464816331863403,1.1096014976501465,-9.926274299621582,0.0002916933566300022,-0.0004165926876914048,-0.1472163858780324,1.0683881105811324e-08,-7.315302228679773e-09,-0.0003330912771636221
1730865946.8840554,-1.6525182723999023,1.072100281715393,-9.886634826660156,0.00031489747563835993,-0.000544567682633889,-0.18895022630007985,1.2152926299064466e-08,-8.716760006229764e-09,-0.0003337026376067071
1730865946.9339588,-1.6460669040679932,1.1705397367477417,-9.888028144836426,0.0003286480592716568,-0.0006922068577014156,-0.23798156785914149,1.5243235805705378e-08,-1.2086748404858136e-08,-0.00033509813676637387
1730865946.9839773,-1.5448205471038818,1.3515266180038452,-9.916738510131836,0.0003324326439129,-0.0008576080066129109,-0.29480611797831247,1.6870863038473105e-08,-1.4078547137027236e-08,-0.00033589344239678634
1730865947.0338826,-1.4505513906478882,1.3764179944992065,-9.885746955871582,0.00032644898039356756,-0.001038988085519494,-0.35987195232319164,2.0039237127649812e-08,-1.8457396965350276e-08,-0.00033759593662257485
1730865947.083904,-1.4505513906478882,1.3764179944992065,-9.885746955871582,0.0003115578711043823,-0.0012353894109374583,-0.4335762328740319,5.589930395101711e-08,-9.695020817215907e-08,-0.00036639084546445845
1730865947.083904,-1.483825922012329,1.3574954271316528,-9.83907413482666,0.0002889360113984353,-0.0014463182190422468,-0.5162629894140461,5.737985010591602e-08,-1.00797799758041e-07,-0.0003677812932077918
1730865947.1338828,-1.5220105648040771,1.4168083667755127,-9.791072845458984,0.0002596561120379601,-0.0016711300447240398,-0.6082210435907556,6.624510358061154e-07,-2.9028046745651194e-06,-0.0013856276545160286
1730865947.1838188,-1.466209888458252,1.5062932968139648,-9.781386375427246,0.00022459331093538772,-0.001908932817109166,-0.709682005157235,1.879706300849536e-06,-1.0215278656734553e-05,-0.0040638237738262585
1730865947.2339377,-1.6475468873977661,1.4503509998321533,-9.745635986328125,0.00018454576293770858,-0.0021589295288183177,-0.8208188489283053,3.6071614630036986e-06,-2.2610082849496705e-05,-0.00865434377752003
1730865947.2838902,-1.7597566843032837,1.3032793998718262,-9.741059303283691,0.00014009168239957447,-0.002420705022114609,-0.9417450982525124,5.74456143750449e-06,-4.0770735535343825e-05,-0.015463713818011425
1730865947.3337905,-1.6816997528076172,1.2365984916687012,-9.753911018371582,9.132288505977931e-05,-0.0026940790381469845,-1.0725142954048352,8.149431599610734e-06,-6.510026862874757e-05,-0.02470544646262233
1730865947.3838024,-1.757475733757019,1.2633165121078491,-9.788309097290039,3.792764731711388e-05,-0.0029787846622081875,-1.2131198779603247,1.0740538147604324e-05,-9.678517111262857e-05,-0.0369051032948143
1730865947.4338114,-1.9410609006881714,1.2342725992202759,-9.715015411376953,-2.0656941064380597e-05,-0.003274375186588718,-1.363495910894722,1.3341052890213957e-05,-0.00013613200013721873,-0.05226585297078717
1730865947.4836771,-1.7980672121047974,1.2204742431640625,-9.816902160644531,-8.50911342540308e-05,-0.003580251636718342,-1.5235187228962457,1.580886616586692e-05,-0.0001840043229876058,-0.0712177911581805
1730865947.5337312,-1.6201061010360718,1.2407430410385132,-9.861479759216309,-0.00015529546476584485,-0.0038956033104200916,-1.6930092970232478,1.7980881026768868e-05,-0.0002413035493844005,-0.09422270991226091
1730865947.5837328,-1.6417081356048584,1.2559638023376465,-9.932706832885742,-0.00022923303201074255,-0.004219360246719369,-1.871736417385298,1.9672654139602688e-05,-0.00030877567058684653,-0.12169558751406491
1730865947.6336718,-1.4783844947814941,1.2720919847488403,-9.962823867797852,-0.00030269279765275875,-0.004550262821192757,-2.0594203221406717,2.0698238626415093e-05,-0.00038713659936200144,-0.15405232285569764
1730865947.6836586,-1.4127205610275269,1.249739170074463,-9.95790958404541,-0.0003699853661622188,-0.004886960272828568,-2.2557363836344475,2.088377609150622e-05,-0.0004773056636657522,-0.19180745883385975
1730865947.7336457,-1.4345476627349854,1.2176520824432373,-9.960887908935547,-0.00042432141491316775,-0.005228039834618551,-2.4603184712657353,2.0077205615103585e-05,-0.0005800920358743496,-0.235446098842898
1730865947.7836764,-1.6071974039077759,1.2252144813537598,-9.856568336486816,-0.000458392921935303,-0.005572006619113956,-2.672761860920544,1.816872467111051e-05,-0.0006963419348020456,-0.28548475311419685
1730865947.8337014,-1.532752275466919,1.1856809854507446,-9.923158645629883,-0.0004659570391213465,-0.0059172669344819216,-2.8926258544141987,1.509700535182478e-05,-0.0008272867264124755,-0.34262568183109826
1730865947.8835726,-1.49844229221344,1.2116985321044922,-9.878271102905273,-0.0004431047980402684,-0.0062620865657855105,-3.1194365851162726,1.0911705521619328e-05,-0.0009726385401547306,-0.40692070167634325
1730865947.9345996,-1.521494746208191,1.106750726699829,-9.946966171264648,-0.0003880658336677871,-0.00660446865521244,-3.3526903091065945,5.563865532055592e-06,-0.0011378588206433886,-0.48100777541643513
1730865947.9846032,-1.521235466003418,1.066617727279663,-9.89339542388916,-0.0003003458468272038,-0.006941968389611979,-3.5918568702067035,-5.763099963256163e-07,-0.0013177318832519544,-0.5627684047609282
1730865948.034629,-1.6524330377578735,0.9745575785636902,-9.893824577331543,-0.0001801812676936188,-0.007271679292851926,-3.836382696203276,-7.292232223639564e-06,-0.0015146322512369322,-0.6534787783415005
1730865948.0845356,-1.714928388595581,0.9513433575630188,-9.833707809448242,-2.8372866300497177e-05,-0.007590534665177879,-4.085693167064094,-1.4263064623070969e-05,-0.0017299114444085232,-0.7539967152007856
1730865948.1347377,-1.6118273735046387,0.9223973155021667,-9.884674072265625,0.00015371895550121733,-0.007895544248199944,-4.339195082844429,-2.1108660346194855e-05,-0.001965637083535178,-0.8655606808894492
1730865948.1846237,-1.3661701679229736,0.9260615110397339,-9.857068061828613,0.00036453020421122004,-0.008183691029981233,-4.596279911970126,-2.727580437403484e-05,-0.0022203656248390696,-0.9877741079080536
1730865948.2345996,-1.2212275266647339,0.8862243294715881,-9.932165145874023,0.0006032801995891384,-0.008451794860882732,-4.856327575837985,-3.223919368829894e-05,-0.002496012259585349,-1.121859374314921
1730865948.2835228,-1.0323896408081055,0.8774198889732361,-9.941996574401855,0.0008706222504042758,-0.008696644827540453,-5.118710195795348,-3.531953928013747e-05,-0.0027865762533962695,-1.265173818798903
1730865948.3344536,-1.2495695352554321,0.9381879568099976,-9.924843788146973,0.0011683393363817792,-0.00891527778088548,-5.382795700212128,-3.592655863748169e-05,-0.003111909106402739,-1.4279522073552877
1730865948.3844686,-1.4342632293701172,1.0002256631851196,-9.9284086227417,0.001498494694434228,-0.009105206417534116,-5.647951447470161,-3.3164160782564294e-05,-0.0034533408721158358,-1.60132227552459
1730865948.4344435,-1.6491162776947021,1.1198151111602783,-9.88106918334961,0.0018618873139044814,-0.009264781210621083,-5.913547733268713,-2.6234678093420122e-05,-0.003816677374200542,-1.7885899615457899
1730865948.4846096,-1.8150001764297485,1.2128596305847168,-9.911548614501953,0.002255783206458269,-0.009393970527620072,-6.178960921136019,-1.4028111777610575e-05,-0.004207663964443497,-1.993234114521055
1730865948.5345068,-1.8747748136520386,1.2866096496582031,-9.855307579040527,0.002672380321983167,-0.00949509503620422,-6.443576542164304,4.161575379732933e-06,-0.004617324529781952,-2.211058119319397
1730865948.5845046,-1.8972151279449463,1.2438414096832275,-9.890105247497559,0.0030998512514580534,-0.00957245820129635,-6.70679306332044,2.9689518066038846e-05,-0.00505354404105031,-2.4467698194716783
1730865948.6345894,-1.8699368238449097,1.2726092338562012,-9.829380989074707,0.003525367333508849,-0.009630993498916215,-6.968025817734679,6.352595344341352e-05,-0.005513838617871749,-2.699626960358781
1730865948.6844258,-1.9649289846420288,1.1705948114395142,-9.842905044555664,0.003937357568063276,-0.00967529327580929,-7.226709708369083,0.00010656427519458201,-0.005996721488313447,-2.969371342812912
1730865948.7343395,-1.755480170249939,1.117276906967163,-9.814167976379395,0.004326205743290849,-0.009709369361194077,-7.4823005345181315,0.00015964485423048842,-0.006501513211288831,-3.256157240509457
1730865948.7843802,-1.648979902267456,1.0715574026107788,-9.870731353759766,0.004684594517107462,-0.009736502370500772,-7.734275870930366,0.00022439269840608033,-0.00703447268766777,-3.5641558790091015
1730865948.8343627,-1.619248390197754,1.0923936367034912,-9.766934394836426,0.0050075882213547595,-0.009759161667998544,-7.9821359250781425,0.00030095006760816773,-0.007589510047681663,-3.890458968552829
1730865948.8843756,-1.5719029903411865,1.1600306034088135,-9.814069747924805,0.005292027314918261,-0.00977922667596746,-8.225404373609432,0.0003907712292321555,-0.0081716427046238,-4.238605522025571
1730865948.9342463,-1.4718180894851685,1.2043366432189941,-9.855443000793457,0.005535894925024692,-0.00979827560676413,-8.463629554851533,0.000493346688937813,-0.008773638677176053,-4.604812503368452
1730865948.9843962,-1.5622344017028809,1.2559999227523804,-9.844598770141602,0.0057382165881186414,-0.009817742138348176,-8.696386275975259,0.000611115729775093,-0.009406359451074637,-4.996273368206729
1730865949.0343103,-1.6065484285354614,1.3037285804748535,-9.91126537322998,0.005898995425796611,-0.009838985722278346,-8.923277789919258,0.0007434478831835357,-0.010063309346968924,-5.409602169418073
1730865949.084335,-1.6464300155639648,1.3352413177490234,-9.848318099975586,0.006018684319967462,-0.009863386499090781,-9.143937373029607,0.0008901079679921326,-0.010742015385028133,-5.843714448455477
1730865949.1342292,-1.6464300155639648,1.3352413177490234,-9.848318099975586,0.0060975582004166706,-0.009892503161626785,-9.358029238002311,0.0010508025580656052,-0.01144077106091221,-6.297902456231174
1730865949.1342292,-1.7890230417251587,1.2793657779693604,-9.847938537597656,0.00613547062377127,-0.009927990449464933,-9.565248937218424,0.0010516045119438513,-0.011444160122968563,-6.300122617997316
1730865949.1843033,-1.9112098217010498,1.1769911050796509,-9.826825141906738,0.006131591201923077,-0.009970996459435118,-9.76532358047257,0.0012291277352353177,-0.01217427104204971,-6.782492016366617
1730865949.2342906,-1.7468112707138062,1.169215440750122,-9.872337341308594,0.006083750320881655,-0.010021287829026511,-9.958011849420416,0.0014212288640050954,-0.0129265870090753,-7.287662453865343
1730865949.2843397,-1.7610691785812378,1.1731765270233154,-9.90518856048584,0.005988280121445654,-0.010076754131294366,-10.143103686017573,0.0016289058555004725,-0.013705917836413674,-7.819232844387473
1730865949.3341703,-1.772855281829834,1.1963719129562378,-9.869773864746094,0.005840984239195017,-0.01013387141269183,-10.32041955004146,0.001850280053566486,-0.014506594074771444,-8.373662403982602
1730865949.3842542,-1.7723252773284912,1.1582468748092651,-9.856871604919434,0.005638281425397743,-0.010188781446695614,-10.489809271525905,0.0020875951969151936,-0.015338371145399021,-8.958070757062378
1730865949.4341888,-1.5951693058013916,1.1924304962158203,-9.84045124053955,0.005377648029891331,-0.010237980807256753,-10.651150954800416,0.0023372413584120486,-0.016190702293910487,-9.565381152127538
1730865949.4842129,-1.4303251504898071,1.1096744537353516,-9.871488571166992,0.005057765244749803,-0.010278318573626929,-10.8043502756359,0.002602519825434474,-0.017077353501410344,-10.205768815640772
1730865949.5342839,-1.4494115114212036,1.127644419670105,-9.831385612487793,0.004678888124377896,-0.010306727004588987,-10.949339951638649,0.002878732302357204,-0.01798550311910351,-10.870345690533767
1730865949.5842733,-1.374488115310669,1.0864741802215576,-9.847817420959473,0.004243048465309524,-0.010320086412000856,-11.086078971341706,0.0031640302542371834,-0.018912709814986137,-11.557483413646267
1730865949.634126,-1.4525998830795288,1.0719263553619385,-9.802490234375,0.0037537164159436275,-0.010315330616173459,-11.214551477040363,0.003461126352820054,-0.019871581485146537,-12.276838470088146
1730865949.684152,-1.5784028768539429,1.0320987701416016,-9.840079307556152,0.0032151560535734723,-0.01028959997782288,-11.33476553293237,0.003764971175136679,-0.02084988675021148,-13.019569687099821
1730865949.734146,-1.5448294878005981,0.9901504516601562,-9.828018188476562,0.0026316680286370903,-0.010240298402089317,-11.44675196433743,0.004077910878881188,-0.021859608731720666,-13.79513011019737
1730865949.7841535,-1.495914340019226,0.9905200004577637,-9.897010803222656,0.0020071823738860416,-0.010165139117577781,-11.55056330497952,0.004396005338396819,-0.022892744383637618,-14.597811227677957
1730865949.8341901,-1.5989469289779663,0.96947181224823,-9.889765739440918,0.001345590437172462,-0.010062251295517053,-11.646272909501961,0.0047197948022278235,-0.02395610228076942,-15.43336312940245
1730865949.8841543,-1.5671354532241821,0.9694827198982239,-9.91878890991211,0.0006511616782510314,-0.009930265427038489,-11.733974254339731,0.005044336236627225,-0.02503868715509889,-16.29359420029465
1730865949.9341342,-1.4966825246810913,0.9941743016242981,-9.964380264282227,-7.144782352678711e-05,-0.009768330193161706,-11.813780325164883,0.005370261205013708,-0.026148065365861648,-17.18497097999821
1730865949.984129,-1.4800490140914917,0.969645619392395,-9.981051445007324,-0.0008171472854296479,-0.009576129819845883,-11.885823046558624,0.005701793798043616,-0.02730538882700771,-18.125385675782713
1730865950.0342054,-1.459653377532959,1.016774296760559,-9.992463111877441,-0.001580100670004621,-0.009353914188929316,-11.950252701147477,0.006019603749308735,-0.02844858705059383,-19.064793614413297
1730865950.0840492,-1.5144121646881104,1.049118995666504,-9.973414421081543,-0.0023535697210173736,-0.009102514238854319,-12.007237215813852,0.006337572989004414,-0.02963307907784971,-20.049109018287492
1730865950.1340241,-1.6105612516403198,1.0086636543273926,-9.94045639038086,-0.003130354740957629,-0.008823246308184644,-12.056961326280536,0.006643300229897129,-0.030818937081538288,-21.045790398213903
1730865950.1840804,-1.5536221265792847,1.06661057472229,-9.94149398803711,-0.0039036890718146065,-0.008517626272560154,-12.099625591172012,0.006946815051871478,-0.0320522244464533,-22.094358110309958
1730865950.2339597,-1.603241205215454,1.065562129020691,-9.964529037475586,-0.004667831826451089,-0.008187139441063685,-12.13544520472243,0.007235520281993022,-0.033289304168295834,-23.158605188760472
1730865950.2839465,-1.879683494567871,1.0326447486877441,-9.866992950439453,-0.005418327072707568,-0.00783324328277122,-12.164648678006415,0.007514243358738782,-0.034557680149034674,-24.26292617651857
1730865950.3339956,-2.0737950801849365,0.9914940595626831,-9.809025764465332,-0.006152569352324331,-0.007457388310294089,-12.187476180158404,0.007777253525975572,-0.03583927661400813,-25.392523338972993
1730865950.3840535,-1.8243703842163086,0.9407444000244141,-9.798154830932617,-0.006869740240220754,-0.007060951345506109,-12.204177335443237,0.008026052826872429,-0.03714987613287392,-26.562293696352494
1730865950.4339852,-1.6435387134552002,1.0102969408035278,-9.805895805358887,-0.007569155303431297,-0.006645174747639865,-12.215009033625112,0.00825402144443952,-0.03846231465144339,-27.74885150258236
1730865950.4839067,-1.5730770826339722,1.1460793018341064,-9.76155948638916,-0.00824881743030586,-0.006211312259909776,-12.2202339118584,0.008463621358660625,-0.03979860290593941,-28.97294895876862
1730865950.5338778,-1.402429223060608,1.2469379901885986,-9.80485725402832,-0.008905390297350529,-0.005761329188751484,-12.220119357145643,0.008651716008514575,-0.04114947338250441,-30.22724713753024
1730865950.5837739,-1.2801685333251953,1.27745521068573,-9.844583511352539,-0.009534015005643586,-0.005299045354136053,-12.214936696936036,0.008816351947681954,-0.0425104942406806,-31.508604233210875
1730865950.6338754,-1.3144124746322632,1.2810062170028687,-9.876189231872559,-0.010127249173584553,-0.004831011891054421,-12.20496061025911,0.008957046709826711,-0.04388954847956818,-32.825552935393276
1730865950.6837897,-1.3720238208770752,1.2254197597503662,-9.91110610961914,-0.010674399730729811,-0.0043666400202688,-12.19046870186619,0.00907128419315843,-0.045274738075196386,-34.16780958891213
1730865950.7338083,-1.4993278980255127,1.1518988609313965,-9.931300163269043,-0.011162206854547153,-0.003917484642103266,-12.171741156383053,0.009158715462391862,-0.046676851664188196,-35.546922368322754
1730865950.78379,-1.6006672382354736,1.0863429307937622,-9.86929702758789,-0.011576811831535087,-0.003495685555963485,-12.149060551368196,0.009217462264234704,-0.048083737732807795,-36.952001333916414
1730865950.8337855,-1.81550133228302,1.01986563205719,-9.81452465057373,-0.011906027329128599,-0.0031121887013885368,-12.122711333792617,0.009246931934230448,-0.04949987576865788,-38.388384893411505
1730865950.8837059,-1.9375649690628052,0.9927679896354675,-9.77560806274414,-0.01214059656557456,-0.0027758120953103285,-12.092978176774544,0.009246372667086588,-0.050922961419189415,-39.854591131690746
1730865950.9336746,-2.0457820892333984,0.9714118242263794,-9.726194381713867,-0.012274511411461398,-0.0024932463980174716,-12.060143623979883,0.009215449892182443,-0.0523491360702515,-41.34726712472628
1730865950.9836621,-2.0869340896606445,1.0083929300308228,-9.737180709838867,-0.012305216984346307,-0.002269265990561746,-12.024486150254631,0.009153572065468048,-0.05378911801793697,-42.87831677598239
1730865951.0336392,-2.0562994480133057,1.051559329032898,-9.758321762084961,-0.012233255320430608,-0.002106989613143505,-11.986279001531695,0.009060939231406991,-0.055233758595283275,-44.43860964227167
1730865951.083622,-1.9736506938934326,1.1039338111877441,-9.822582244873047,-0.01206102530916884,-0.00200833606756661,-11.945789712361501,0.008937498716712275,-0.05668705014943023,-46.03277978504863
1730865951.133597,-1.9302725791931152,1.1401413679122925,-9.887577056884766,-0.011791708932774727,-0.0019744120199426235,-11.903280338715408,0.008785240945955794,-0.058134524297457045,-47.644850236065864
1730865951.1835477,-1.8705997467041016,1.1601102352142334,-9.892549514770508,-0.011428905789409546,-0.002005647859727856,-11.859008123194132,0.008604567489802496,-0.059583808232087,-49.282863088211876
1730865951.233644,-1.852792739868164,1.1702474355697632,-9.919771194458008,-0.01097657454723968,-0.0021018142577262583,-11.813225955555394,0.008394436121483228,-0.061049677837723915,-50.96343044067138
1730865951.2836158,-1.850260853767395,1.1229956150054932,-9.914119720458984,-0.01043904673657661,-0.0022620090781824255,-11.76618226881073,0.008158384303319933,-0.06251525404972542,-52.66685890601548
1730865951.3335752,-1.8229795694351196,1.0839333534240723,-9.910886764526367,-0.00982103556491904,-0.0024846160891223113,-11.718120380438396,0.007896990063075949,-0.06398724584515594,-54.40014775760345
1730865951.3836124,-1.7985893487930298,1.0479875802993774,-9.888747215270996,-0.009127574198394392,-0.0027672370729059747,-11.669277423153172,0.00761139091327975,-0.06546865543011986,-56.166042620862
1730865951.4335694,-1.7535266876220703,0.9978740811347961,-9.872357368469238,-0.008363959193475252,-0.0031067027627870586,-11.619883006664917,0.007305137731807373,-0.06695157582902932,-57.95401079554641
1730865951.4836032,-1.7225205898284912,0.9698752164840698,-9.863229751586914,-0.007535735409151132,-0.0034992259569041925,-11.570157781971915,0.006977412732340662,-0.06845037831252843,-59.7801846430871
1730865951.533507,-1.668954610824585,0.9353963732719421,-9.8529052734375,-0.006648554694491222,-0.003940478144191708,-11.520312276152701,0.00663323058057192,-0.06995277223535155,-61.62823737946689
1730865951.583536,-1.6359572410583496,0.9215210676193237,-9.852986335754395,-0.005707773456483349,-0.004425437007618682,-11.470546245488976,0.006271718435194934,-0.0714736214220304,-63.51493243803343
1730865951.6334298,-1.6144894361495972,0.9229671359062195,-9.850465774536133,-0.004718064044618329,-0.004948252201736552,-11.421048334615588,0.005900385762645837,-0.0729929153693639,-65.41369427432909
1730865951.6834772,-1.6067534685134888,0.9610587358474731,-9.857247352600098,-0.0036835217562096855,-0.005502496896927409,-11.371995708658112,0.005515233157807367,-0.07453879260846123,-67.35787328736825
1730865951.7344527,-1.5976148843765259,1.0084751844406128,-9.867647171020508,-0.002608189799845103,-0.006081740200334896,-11.323553771817636,0.00511686795754201,-0.07612018820104444,-69.35715231438786
1730865951.7843916,-1.6114647388458252,1.0301212072372437,-9.874835968017578,-0.0014964488130679654,-0.006679952726871616,-11.275876391360717,0.0047208499603582695,-0.07768776769050803,-71.34709736956188
1730865951.8344188,-1.5975745916366577,1.018343448638916,-9.889068603515625,-0.00035310666251862064,-0.007291566646893758,-11.229106527872112,0.0043213534527772254,-0.07927743857383746,-73.37104571386055
1730865951.8845086,-1.6075562238693237,0.9683912396430969,-9.893061637878418,0.0008166440894184347,-0.007911419552596416,-11.183376703750726,0.003921662491061115,-0.08088929240942887,-75.42707312524125
1730865951.934418,-1.626556634902954,0.905511736869812,-9.897462844848633,0.0020073161622956893,-0.008534630091509616,-11.138809089868179,0.0035272155211791383,-0.08251473772027178,-77.50211792941475
1730865951.9844997,-1.6508206129074097,0.8503293991088867,-9.890620231628418,0.003213195490987874,-0.009156358141023755,-11.095515320385097,0.003137338990991569,-0.08417058028982029,-79.61552588759815
1730865952.034278,-1.668717384338379,0.7852784395217896,-9.882685661315918,0.0044283808045232674,-0.009771631727169567,-11.053596064159553,0.0027609913030507286,-0.08583258189165319,-81.73431096767833
1730865952.0843859,-1.666137456893921,0.7490000128746033,-9.847501754760742,0.005646846545647181,-0.010375351020522065,-11.013140423714844,0.0023926351732702212,-0.08754048481711744,-83.90706543719732
1730865952.134316,-1.6244356632232666,0.7482098340988159,-9.854060173034668,0.006862571893402579,-0.01096241951932823,-10.974225361229575,0.0020429623015547366,-0.08926068426410545,-86.08903397895851
1730865952.1843207,-1.5937052965164185,0.7874472141265869,-9.882034301757812,0.008069823932970776,-0.01152801245871177,-10.936915436195012,0.0017104602384975553,-0.09101636693603907,-88.30773807846559
1730865952.2342668,-1.5707736015319824,0.8576775789260864,-9.910017013549805,0.009263489612379164,-0.012067876146569626,-10.901263261447411,0.0014004081101911172,-0.09279717287219362,-90.54823210599572
1730865952.2842512,-1.587791085243225,0.9232023358345032,-9.935588836669922,0.010439105970248677,-0.01257842929002824,-10.867310844351893,0.0011144545372767346,-0.09461179117016183,-92.81971922841149
1730865952.3342435,-1.5839658975601196,0.9715844392776489,-9.951668739318848,0.011592570332286134,-0.013056690885008843,-10.835091364885441,0.0008566709649568571,-0.09645377960599533,-95.112526365291
1730865952.3842833,-1.6285433769226074,0.9795622229576111,-9.949352264404297,0.012719909468487856,-0.013500264923456112,-10.804630676001802,0.0006283136968143684,-0.09833622671613755,-97.44140164210854
1730865952.4342704,-1.6285433769226074,0.9795622229576111,-9.949352264404297,0.013817249022945493,-0.01390734712314218,-10.775948242680556,0.0004339864920155586,-0.10024492157787131,-99.78738778121713
1730865952.4342704,-1.6731714010238647,0.9589577913284302,-9.931402206420898,0.014880800299022189,-0.01427656718493103,-10.749057663105988,0.0004332608272390394,-0.10025281506556664,-99.79705736280961
1730865952.4843504,-1.7608195543289185,0.9085907340049744,-9.892904281616211,0.01590664822173234,-0.014606706754270544,-10.723966843126153,0.0002758684692432887,-0.10219974550630537,-102.17308704282941
1730865952.5342863,-1.8198007345199585,0.8613375425338745,-9.845653533935547,0.016890385045755178,-0.014896437444995286,-10.700677738048544,0.0001594418755573391,-0.10418205419123411,-104.5741290074992
1730865952.5842535,-1.8743910789489746,0.8098325729370117,-9.812735557556152,0.017827042317238136,-0.015144236240837706,-10.679185617604555,8.61641680320078e-05,-0.1062051010211017,-107.00578141340641
1730865952.634168,-1.8814746141433716,0.8248398900032043,-9.78154468536377,0.01871146091103255,-0.015348498588854237,-10.659478170933737,5.851601864321656e-05,-0.10827579290932088,-109.47543853753182
1730865952.6841817,-1.8178749084472656,0.9012826681137085,-9.799697875976562,0.019538755946807908,-0.015507778617195813,-10.641535012569683,7.8655933958456e-05,-0.11036462036770049,-111.94746847001369
1730865952.7341259,-1.7743693590164185,0.9895063042640686,-9.821540832519531,0.020304744326921052,-0.015621168963100333,-10.62532798238422,0.0001483867518641905,-0.11249943692015735,-114.45456962855089
1730865952.7841399,-1.7426655292510986,1.0704177618026733,-9.879551887512207,0.02100620387536944,-0.015688604258220235,-10.610822432414835,0.00026989671244182845,-0.11467839746976562,-116.99410503198813
1730865952.834016,-1.7173658609390259,1.144403100013733,-9.899643898010254,0.021640814679966598,-0.01571088724749116,-10.597979221426215,0.0004445652142786255,-0.11689455809333386,-119.55777644133148
1730865952.884022,-1.7238008975982666,1.201750636100769,-9.902915954589844,0.022206960225778494,-0.01568956446954765,-10.58675671645021,0.0006735621847943481,-0.11914622797276611,-122.14366877246002
1730865952.9340377,-1.7645459175109863,1.1820310354232788,-9.86949348449707,0.02270354082022584,-0.015626761091266823,-10.577112226187385,0.0009591602275297879,-0.12144210848703349,-124.7618518696632
1730865952.9839852,-1.83077871799469,1.1543887853622437,-9.82955265045166,0.02312984508464417,-0.015524977550944532,-10.569002550486301,0.001302507372616015,-0.12377978655981545,-127.40969198301114
1730865953.0339887,-1.8594506978988647,1.0799541473388672,-9.79504680633545,0.02348549195826896,-0.015386783960700335,-10.56238372062566,0.001704048854904028,-0.1261549636292292,-130.08262360032376
1730865953.0839276,-1.8404059410095215,1.018115758895874,-9.759230613708496,0.023770352810287974,-0.015214323944181023,-10.55721037223295,0.002166277042051139,-0.12857602661463016,-132.79044363851673
1730865953.1339393,-1.7897979021072388,0.9865586757659912,-9.764646530151367,0.023984517096150956,-0.015008672290321934,-10.55343518927367,0.0026855345337213864,-0.13102113421058764,-135.50930281588282
1730865953.1840162,-1.698754072189331,1.0258070230484009,-9.786855697631836,0.02412844108820411,-0.014769442598054086,-10.551008558482293,0.0032635829816921045,-0.13349868141780238,-138.24931975451764
1730865953.2339149,-1.6195176839828491,1.096706748008728,-9.849236488342285,0.024203165108251906,-0.014495243908906746,-10.54987831070243,0.003902621842977003,-0.13601640077918523,-141.01975598491688
1730865953.2839737,-1.6195176839828491,1.096706748008728,-9.849236488342285,0.024210514586169987,-0.014184864649292854,-10.54998963901155,0.004607008669040321,-0.13858775582838015,-143.83605892233692
1730865953.2839737,-1.5690386295318604,1.1863417625427246,-9.894932746887207,0.024153368906035422,-0.01383832329858593,-10.551285437253753,0.004610589191224229,-0.13860036815081891,-143.84984190838205
1730865953.3338645,-1.5596836805343628,1.2637195587158203,-9.941064834594727,0.02403581811987618,-0.013457291463831504,-10.55370717962523,0.005363609604932823,-0.14116538232368525,-146.64783375227577
1730865953.384044,-1.59630286693573,1.3051685094833374,-9.960204124450684,0.023862811129272188,-0.013044856044008542,-10.557196494599342,0.006190122035867485,-0.14380919332528924,-149.5219952405737
1730865953.4338489,-1.6284863948822021,1.3273265361785889,-9.94701862335205,0.0236393220187558,-0.012604917274579243,-10.561696929318874,0.007065735344279274,-0.1464530114388377,-152.3877476163167
1730865953.4840422,-1.6553434133529663,1.316172480583191,-9.920696258544922,0.023369646457915443,-0.01214179011459699,-10.56715483063349,0.008009546801894241,-0.14915561792096943,-155.31007648314934
1730865953.5338588,-1.6599690914154053,1.2806527614593506,-9.860176086425781,0.02305730876198634,-0.011660004849691381,-10.57351919564159,0.00900350056875844,-0.15186575396243024,-158.23481494844114
1730865953.583919,-1.6765570640563965,1.1801283359527588,-9.819402694702148,0.022705372762220056,-0.011163920982889618,-10.580740997775585,0.010059111172950112,-0.15461658473016474,-161.19912655061685
1730865953.6338382,-1.6720153093338013,1.0732054710388184,-9.787087440490723,0.022316676172356546,-0.010657236027080423,-10.588772080721563,0.011167634616408068,-0.15738622217542392,-164.18077926553477
1730865953.6838663,-1.6663193702697754,0.9791675806045532,-9.763050079345703,0.02189389456172759,-0.010142732084661167,-10.597563598603656,0.012331356882078997,-0.16018212851125596,-167.18921024377414
1730865953.7339408,-1.6707918643951416,0.9239218235015869,-9.750232696533203,0.021439605669268454,-0.009622185718670817,-10.607064519827256,0.013554491747755996,-0.1630150520502737,-170.23739520254634
1730865953.7837968,-1.6707918643951416,0.9239218235015869,-9.750232696533203,0.02095635609868579,-0.009096209276939701,-10.617220818761426,0.014823712707473263,-0.16585569859897642,-173.2952379966042
1730865953.7837968,-1.6994575262069702,0.9047927856445312,-9.781537055969238,0.020446640087721193,-0.008564404362259678,-10.627975177058945,0.014830978534234644,-0.16587169534988022,-173.3124636692021
1730865953.8338177,-1.7137017250061035,0.9450106620788574,-9.824131965637207,0.0199127665695081,-0.008026019902512145,-10.639266952635369,0.01614900639461093,-0.16872891949150237,-176.39167109900507
1730865953.8838098,-1.7199853658676147,1.0237822532653809,-9.900525093078613,0.01935670539948596,-0.007480535600679184,-10.65103287515102,0.01752283455836846,-0.1716202314410204,-179.51333057033966
1730865953.933771,-1.7121604681015015,1.109671950340271,-9.941783905029297,0.01878010904715386,-0.006927851680817519,-10.66320872166228,0.018943462059660954,-0.17452772667532204,-182.65965917115437
1730865953.9838536,-1.7125602960586548,1.1412822008132935,-9.991416931152344,0.01818451489619743,-0.006368280624895202,-10.675731458880538,0.020412729698602323,-0.17745666417980308,-185.8378982194841
1730865954.033785,-1.7383090257644653,1.1559922695159912,-9.991555213928223,0.017571480510049853,-0.005802580174465742,-10.688540981074077,0.02192030502559634,-0.18038833815469307,-189.02926629264277
1730865954.0837812,-1.7383090257644653,1.1559922695159912,-9.991555213928223,0.0169425480171176,-0.005232051122162727,-10.701580969535595,0.023476382116942873,-0.18334424831831744,-192.2587380813287
1730865954.0837812,-1.7700742483139038,1.0934906005859375,-9.966474533081055,0.016299171242485668,-0.0046584205826896,-10.714799117773463,0.02348390518697549,-0.18335837740757668,-192.27420470568606
1730865954.1337168,-1.7931220531463623,1.0574482679367065,-9.924484252929688,0.015642642311815155,-0.004083341078179103,-10.728147031500532,0.02507072646568403,-0.18630716868133812,-195.50991319164655
1730865954.1838078,-1.8051255941390991,0.9757516384124756,-9.861323356628418,0.014973983586631223,-0.0035078597066138233,-10.741579617517356,0.026707643906064955,-0.18928743137642173,-198.7965820158518
1730865954.233678,-1.8243852853775024,0.909440279006958,-9.807530403137207,0.014293957575535091,-0.0029323396678014226,-10.755053690404095,0.028375471298282447,-0.19226549962310943,-202.09879495182807
1730865954.2837088,-1.831785798072815,0.8526820540428162,-9.77783489227295,0.013603245648146273,-0.0023567345371089937,-10.768526173469096,0.03007826371605947,-0.19525051633264634,-205.4282264092692
1730865954.3335953,-1.7967559099197388,0.8678164482116699,-9.767488479614258,0.012902641370460016,-0.0017808754048054592,-10.781952651354523,0.03181171283779983,-0.1982366304578439,-208.77994433199814
1730865954.3836603,-1.7605763673782349,0.9291214346885681,-9.799591064453125,0.012193218006688189,-0.0012047483958489858,-10.795286770243248,0.03358750834157904,-0.2012452033108892,-212.1797394512876
1730865954.433618,-1.710945725440979,1.0032237768173218,-9.818702697753906,0.011476447935571173,-0.0006287523132121656,-10.808480710139754,0.035382400828407566,-0.20423839136200075,-215.58651148344572
1730865954.4836576,-1.7012803554534912,1.053971767425537,-9.838756561279297,0.010754227066487163,-5.3871629240769556e-05,-10.821486488776852,0.03721107333946037,-0.20724242589991843,-219.03169633552483
1730865954.5335536,-1.6881037950515747,1.0379717350006104,-9.849413871765137,0.01002880785982962,0.0005183385511860869,-10.834257505316117,0.039062602500792916,-0.21024078842545207,-222.49808661200927
1730865954.5836434,-1.7113316059112549,0.9963055849075317,-9.854170799255371,0.009302645153076099,0.0010860409943441167,-10.84674978802054,0.04094530653131881,-0.2132483404096194,-226.00463608500914
1730865954.6335702,-1.745736837387085,0.9328804016113281,-9.85682487487793,0.008578205588792538,0.0016474613014003214,-10.858922520226233,0.042837483308818786,-0.21623207531695834,-229.5143907611139
1730865954.683587,-1.7479357719421387,0.8603179454803467,-9.831171989440918,0.007857751412296011,0.002201226485646331,-10.870737938904455,0.044764992698058156,-0.21923418141992446,-233.07870242627965
1730865954.733575,-1.7491909265518188,0.843873918056488,-9.839099884033203,0.007143156004338895,0.0027467547385507138,-10.882160980644823,0.04670092738507068,-0.22221403404170192,-236.65110978684055
1730865954.7836032,-1.719849944114685,0.8954249024391174,-9.856204986572266,0.006435957470504777,0.003284209330840813,-10.893158682628954,0.048658195571154673,-0.22519305129915013,-240.25878203003722
1730865954.8335345,-1.69038987159729,1.013269066810608,-9.893735885620117,0.00573763420896906,0.0038138264973642164,-10.903699733017802,0.05062440817691729,-0.22815375720914627,-243.8821387945125
1730865954.8834958,-1.6407148838043213,1.1782209873199463,-9.94733715057373,0.005049783180269048,0.004335382307502749,-10.913755205524112,0.052603037005688295,-0.23110284351269406,-247.53078483482724
1730865954.9335127,-1.5968351364135742,1.3148117065429688,-9.980710983276367,0.004374105944819382,0.00484811000363848,-10.923300550390897,0.054603564128636546,-0.2340554860783453,-251.2253989198123
1730865954.9834745,-1.5788203477859497,1.3853707313537598,-9.986942291259766,0.003712469589610371,0.005350373948319253,-10.932317452580888,0.056605456077132375,-0.23698254049999795,-254.9311610869411
1730865955.0333755,-1.5788203477859497,1.3853707313537598,-9.986942291259766,0.0030670796510509422,0.0058390624434234775,-10.940794648215872,0.05861463137441698,-0.23989400927559854,-258.66199624283894
1730865955.0333755,-1.59587824344635,1.345052719116211,-9.986001014709473,0.002440418946718053,0.006309759350143044,-10.948728279872215,0.058625010854699976,-0.23990898381257666,-258.681303715343
1730865955.0834413,-1.6471034288406372,1.241713523864746,-9.92891788482666,0.0018348367141477672,0.006757977113167455,-10.956122139166862,0.06063972724338911,-0.242803881343887,-262.4384050675322
1730865955.1334794,-1.7504501342773438,1.1041513681411743,-9.85863208770752,0.0012519615752481865,0.00718062212398487,-10.962987147617037,0.06266884910936145,-0.2456964763290952,-266.24260829104054
1730865955.1834555,-1.8304283618927002,0.9711137413978577,-9.74976921081543,0.0006921757610599004,0.0075769598248707085,-10.969339506531162,0.06469829125583089,-0.24856755975570005,-270.07032963446557
1730865955.2333221,-1.9156988859176636,0.9128645658493042,-9.670672416687012,0.000154577465198687,0.007948466860467289,-10.975197372524548,0.06671857735721515,-0.2514048993560296,-273.9060733142118
1730865955.2834413,-1.9563443660736084,0.903839647769928,-9.61693286895752,-0.000362654151126261,0.008297776094246274,-10.980577088797158,0.06875356765430227,-0.25424288823554053,-277.79776298899753
1730865955.3332965,-1.9563443660736084,0.903839647769928,-9.61693286895752,-0.0008621839212550435,0.008627936851042692,-10.985490900289516,0.07077566084770298,-0.2570438993533894,-281.695119929302
1730865955.3332965,-1.9662718772888184,0.9583784937858582,-9.625625610351562,-0.0013477439544600193,0.008942277595565398,-10.989946590718262,0.07079194082604766,-0.25706637535264326,-281.72662563115256
1730865955.3834836,-1.923431158065796,1.0500279664993286,-9.705564498901367,-0.0018240642082576583,0.00924420530290368,-10.993948176697941,0.07280763869106598,-0.2598408149841467,-285.6456451025089
1730865955.4342368,-1.8367159366607666,1.1513241529464722,-9.823517799377441,-0.0022961864361796445,0.009536732444046257,-10.997497312334866,0.0748574062407806,-0.26264540873651515,-289.6692361042205
1730865955.4842105,-1.7143102884292603,1.2665013074874878,-9.948857307434082,-0.0027684210798116678,0.00982196375569282,-11.000595458477555,0.07686406664118131,-0.26537541725422686,-293.6482870871798
1730865955.5342638,-1.5934988260269165,1.3747628927230835,-10.055098533630371,-0.0032436552030439903,0.010100834259983909,-11.00324665129499,0.0788709204052549,-0.2680909993329211,-297.670162130553
1730865955.5842412,-1.4835880994796753,1.4298890829086304,-10.111140251159668,-0.0037232325735652803,0.010373153537037424,-11.005460274195809,0.08086038873384843,-0.27076930000591853,-301.70198331627506
1730865955.6342456,-1.443881630897522,1.4316983222961426,-10.103753089904785,-0.004207142621157322,0.010637855254287176,-11.007253046741718,0.08284588791858791,-0.27342935973233534,-305.7732931191396
1730865955.6842623,-1.4952565431594849,1.3775787353515625,-10.049909591674805,-0.004694404168578335,0.010893424073404141,-11.008649680426334,0.0848231726705433,-0.2760663820977214,-309.8782033363233
1730865955.7341847,-1.6399167776107788,1.2702287435531616,-9.953142166137695,-0.005183599634939382,0.011138368703980455,-11.00968195531275,0.08677973235483634,-0.2786647298414183,-313.9930543823653
1730865955.7842758,-1.8158236742019653,1.1555479764938354,-9.814238548278809,-0.005673519989483059,0.011371628911108208,-11.010386387920462,0.08873791606453922,-0.28125506096379466,-318.1677311287151
1730865955.8341494,-1.8158236742019653,1.1555479764938354,-9.814238548278809,-0.00616350734857145,0.011592724342175386,-11.010801044984138,0.09066298323147681,-0.2837924883754479,-322.3306206891472
1730865955.8341494,-1.987913966178894,1.0372942686080933,-9.684324264526367,-0.0066533027527060215,0.011801591422466472,-11.010962504246,0.09067706868388034,-0.28381102261407254,-322.36130318361563
1730865955.8841746,-2.1046435832977295,0.9711049795150757,-9.589987754821777,-0.007143315401803363,0.011998720248204683,-11.010903845748363,0.09258421349539527,-0.286317281772804,-326.5487611709356
1730865955.9341092,-2.1483964920043945,0.9394667744636536,-9.553539276123047,-0.007635765911095948,0.01218587615383296,-11.010653512985122,0.09447914454466698,-0.2888015705474451,-330.7771183037243
1730865955.9841945,-2.121264934539795,0.9565346837043762,-9.586009979248047,-0.008135757170380172,0.012366768482066661,-11.010234708099443,0.09636285752673425,-0.2912662948987538,-335.05216728011453
1730865956.0340698,-2.039263963699341,0.9619608521461487,-9.645097732543945,-0.008651202407035175,0.012546986761057834,-11.009665352034606,0.09821410709168517,-0.293684869876165,-339.32837318055243
1730865956.0840585,-1.9312196969985962,0.9948458671569824,-9.719782829284668,-0.009191208189782595,0.012732982322440939,-11.008958305924565,0.1000503353876761,-0.29608136277515673,-343.64881826406423
1730865956.1340225,-1.8107657432556152,1.0069457292556763,-9.799466133117676,-0.00976355978934567,0.012930618632812842,-11.008121770692966,0.10186007900947587,-0.2984421347705138,-347.99007287142854
1730865956.184022,-1.7375962734222412,1.0039891004562378,-9.883305549621582,-0.010372596508136774,0.013144230862795956,-11.007160290989756,0.10364608921790897,-0.30077218741724393,-352.3621771152379
1730865956.2339506,-1.6901278495788574,0.9899908900260925,-9.963652610778809,-0.011018346729838393,0.013376478511762734,-11.00607631629924,0.10540224257843064,-0.30306501418378434,-356.7538246902392
1730865956.2840056,-1.6511867046356201,1.0167818069458008,-10.022025108337402,-0.011697274496737062,0.013628622584116295,-11.00487182295656,0.10714063499638063,-0.3053379855502837,-361.20004103238546
1730865956.3338845,-1.626352071762085,1.0566904544830322,-10.058816909790039,-0.012403983204085615,0.0139008609644277,-11.00354970937303,0.10883321575694256,-0.30755600276793515,-365.63300791848417
1730865956.3839247,-1.6089198589324951,1.1275053024291992,-10.08283519744873,-0.013132469291954541,0.014192513319918205,-11.002114881875741,0.11050851589119068,-0.30975810722883923,-370.13209451020015
1730865956.433835,-1.548673152923584,1.161179542541504,-10.08017635345459,-0.013876557862010096,0.014502041864400989,-11.000575020356335,0.11213723522257266,-0.3119074469980335,-374.62365591494256
1730865956.4838657,-1.5168516635894775,1.1840696334838867,-10.051786422729492,-0.014630057385544298,0.01482712995658278,-10.998941063356808,0.11374396664184656,-0.3140381746614051,-379.18082783800344
1730865956.533793,-1.4813148975372314,1.1318827867507935,-9.987784385681152,-0.015386855404887725,0.015165012623690034,-10.997227311220584,0.11530022007992952,-0.3161141729867932,-383.72815199826135
1730865956.5838237,-1.4938756227493286,1.0512200593948364,-9.905617713928223,-0.016140898472355905,0.015513016594382062,-10.995450868704093,0.11682613862872694,-0.3181639355386538,-388.329529783167
1730865956.6337664,-1.5253958702087402,0.9455553293228149,-9.82075309753418,-0.01688614497560572,0.015869297735478936,-10.993630429987514,0.11830600333840229,-0.32016803565583674,-392.9437649558642
1730865956.683823,-1.6069215536117554,0.8572342395782471,-9.72569751739502,-0.017616676666193338,0.01623351576257102,-10.991784501010205,0.11974901415242005,-0.3221405671822186,-397.605591515379
1730865956.7337284,-1.7038275003433228,0.803158164024353,-9.66273307800293,-0.01832698936044105,0.01660669854992158,-10.989928861724476,0.1211388542486686,-0.32406071477255144,-402.26770148578106
1730865956.7837372,-1.8090814352035522,0.8006678223609924,-9.635173797607422,-0.01901233830789135,0.016990324042648823,-10.988073864735647,0.12248622861474144,-0.3259446425438367,-406.97108766413555
1730865956.8336544,-1.8927173614501953,0.8072279691696167,-9.634767532348633,-0.019668857206150574,0.017385557462735964,-10.986222929175234,0.12378975789647349,-0.3277920270273246,-411.71866901771483
1730865956.883653,-1.9440635442733765,0.8602471947669983,-9.668485641479492,-0.020293343772598352,0.01779291296690231,-10.984372567033432,0.12503178426819975,-0.329578880913644,-416.45018404394847
1730865956.9336395,-1.9826576709747314,0.9154075980186462,-9.733817100524902,-0.020883165747956775,0.018211947212632296,-10.982513351929097,0.12623321852138403,-0.33133642961283766,-421.2509815875943
1730865956.9837236,-1.9989776611328125,0.9727869033813477,-9.810914993286133,-0.02143646587653894,0.018640961454083095,-10.980631545824195,0.12737860053412856,-0.3330433699747754,-426.0671686533724
1730865957.033659,-1.9968469142913818,1.0430967807769775,-9.891023635864258,-0.02195214785764365,0.01907703799293662,-10.978711381887152,0.12846774966465702,-0.3347001268684526,-430.9019547186566
1730865957.083661,-1.9078164100646973,1.1033395528793335,-9.982389450073242,-0.022429401261959678,0.019516280282631908,-10.976737556247716,0.12950590283522714,-0.3363155957224836,-435.78511648096116
1730865957.1336153,-1.811535358428955,1.1505705118179321,-10.037453651428223,-0.022867145511033905,0.019953861270539087,-10.974697303466924,0.13048285026105222,-0.3378745610241143,-440.6739147877896
1730865957.1835968,-1.684177279472351,1.158101201057434,-10.068291664123535,-0.023263745428169957,0.020384199738643853,-10.972582098089617,0.13140094971933974,-0.3393809932889119,-445.582544739786
1730865957.2335598,-1.607757568359375,1.1402833461761475,-10.083259582519531,-0.023616776544134844,0.02080155333225774,-10.970388969971646,0.13226401994769074,-0.34084179156154654,-450.5376092568561
1730865957.2836456,-1.5794684886932373,1.0847864151000977,-10.054425239562988,-0.02392245537854659,0.021200602582249033,-10.96812088904286,0.13306567299418814,-0.3422466164341712,-455.50790742466495
1730865957.3335211,-1.6266781091690063,1.0333889722824097,-10.00820255279541,-0.024175233440931632,0.021576782978101738,-10.965786056296766,0.1338059306470162,-0.34359541006161676,-460.4951959526296
1730865957.3835816,-1.7076492309570312,0.985153317451477,-9.948284149169922,-0.02436845152661304,0.021926353970883695,-10.963396326195356,0.1344889480124454,-0.3448960645369002,-465.53286246000096
1730865957.4335127,-1.7534598112106323,0.9991579055786133,-9.872818946838379,-0.024495742568249955,0.022246178310953484,-10.96096514833846,0.13511012198668834,-0.3461400600590819,-470.5923825702563
1730865957.4836228,-1.761965274810791,1.019677996635437,-9.80775260925293,-0.024552082170093165,0.022533426169183673,-10.958505695933926,0.1356719242169346,-0.34733229869090854,-475.69774416178035
1730865957.5335631,-1.7332777976989746,1.0601274967193604,-9.740081787109375,-0.024534147067438193,0.0227853330911992,-10.956029562688268,0.13617021209587396,-0.34846340682094484,-480.81164802635385
1730865957.5835302,-1.7360866069793701,1.0578792095184326,-9.706241607666016,-0.024440251318976213,0.022998936323418893,-10.95354591390513,0.13660739977211897,-0.34953752941112753,-485.9539668255402
1730865957.633568,-1.7078824043273926,1.0534155368804932,-9.675688743591309,-0.024270066077800533,0.023170929095249933,-10.951061028944546,0.13698433725006073,-0.35055573965813797,-491.1330577467716
1730865957.683474,-1.7233083248138428,1.0290294885635376,-9.678693771362305,-0.024024296344495433,0.023297906231156712,-10.948578352668248,0.13729926535310677,-0.35151100560834153,-496.31349747143497
1730865957.733404,-1.7296462059020996,1.0342074632644653,-9.693284034729004,-0.02370443606122744,0.02337687432789,-10.9460989448316,0.13755537812329502,-0.35241005391181357,-501.5316073228884
1730865957.7834828,-1.7782323360443115,1.0552161931991577,-9.738544464111328,-0.02331265001643782,0.023405540918884846,-10.94362200756276,0.1377530131101284,-0.35325146117492545,-506.78145884839813
1730865957.833414,-1.8271551132202148,1.1032934188842773,-9.756502151489258,-0.022851858872907405,0.023382167885804744,-10.941145409121598,0.13789286928307157,-0.35403359634004533,-512.0527530504494
1730865957.8834038,-1.8970963954925537,1.1459044218063354,-9.80887222290039,-0.022326095145469477,0.023305149224808017,-10.938666288867115,0.13797657319605292,-0.3547593614283553,-517.365133636725
1730865957.933347,-1.8970963954925537,1.1459044218063354,-9.80887222290039,-0.021740856757067682,0.023172633544349796,-10.93618178335905,0.13800507459672826,-0.3554251357128133,-522.69005843321
1730865957.933347,-1.9201931953430176,1.1988476514816284,-9.833016395568848,-0.02110287698431022,0.022982550455486597,-10.933689911034627,0.13800508225250477,-0.3554290053274996,-522.7225027732555
1730865957.983341,-1.93211030960083,1.2210768461227417,-9.855461120605469,-0.02041938194041661,0.02273290073226716,-10.93119041625303,0.1379809805516147,-0.3560345136104908,-528.0495328529394
1730865958.0332818,-1.8952357769012451,1.1917591094970703,-9.863088607788086,-0.01969756155770617,0.02242187351070594,-10.9286852587587,0.13790713260650164,-0.35658560303139214,-533.4169016721333
1730865958.0833924,-1.8952357769012451,1.1917591094970703,-9.863088607788086,-0.018944391528244356,0.022047940419257422,-10.926178794054668,0.13778371881285392,-0.3570868415519969,-538.8725375595099
1730865958.0833924,-1.8420480489730835,1.143674373626709,-9.883455276489258,-0.018166437264579637,0.021610194401788414,-10.92367780350525,0.13778288493402305,-0.35708951500221786,-538.9034443671864
1730865958.1332362,-1.8420480489730835,1.143674373626709,-9.883455276489258,-0.017369603521858235,0.021108689946815227,-10.921191319809154,0.13761694337514205,-0.3575273886400506,-544.2780509044487
1730865958.1332362,-1.7618697881698608,1.129366159439087,-9.8805570602417,-0.016558986201482648,0.020544508010390778,-10.91873018617002,0.13761597155694358,-0.35752952744281846,-544.3060199181037
1730865958.1833367,-1.694387674331665,1.115341305732727,-9.905627250671387,-0.01573869950189699,0.019919609736493364,-10.916306497227097,0.1374067168173869,-0.3579215800201943,-549.7735115904356
1730865958.2332082,-1.6100733280181885,1.094612956047058,-9.931663513183594,-0.014911384956125918,0.019236740315901227,-10.913933219147335,0.13715951092548595,-0.3582643668685072,-555.2617230137449
1730865958.2832747,-1.5418109893798828,1.0807050466537476,-9.972339630126953,-0.014077719648376287,0.018499434813644144,-10.911624060109522,0.13687527218967913,-0.35856099021565796,-560.7941257664901
1730865958.3331993,-1.499990701675415,1.0729589462280273,-10.015694618225098,-0.013236785798754046,0.01771189669035178,-10.909393367137502,0.1365584534454245,-0.3588111032166071,-566.3264036643905
1730865958.383289,-1.4388550519943237,1.0682786703109741,-10.016959190368652,-0.012387171734007558,0.016878713017297372,-10.907255966609839,0.13620722022861492,-0.35901963077725185,-571.9258220566597
1730865958.4332135,-1.4234479665756226,1.0768064260482788,-10.036955833435059,-0.011527674249721714,0.01600463424547493,-10.90522704929376,0.13582774318700017,-0.3591860732679699,-577.5261855435774
1730865958.4831707,-1.4432932138442993,1.1116139888763428,-10.005428314208984,-0.010657416155848476,0.015094461301618883,-10.903322068873862,0.13541976546185885,-0.35931395150626677,-583.1649591848901
1730865958.5341525,-1.5085569620132446,1.1484904289245605,-9.962830543518066,-0.009776066154249882,0.01415284719396517,-10.901556483230241,0.13497824253229201,-0.3594065206048506,-588.9324424923495
1730865958.5831633,-1.5824558734893799,1.1850098371505737,-9.87814998626709,-0.008884209183984448,0.013184026450945336,-10.89994529523751,0.13453092448362156,-0.3594620617190339,-594.5039160698514
1730865958.6341417,-1.7026240825653076,1.1562330722808838,-9.797066688537598,-0.007983499691797409,0.012191812302573223,-10.89850256290936,0.13404361792674446,-0.3594875908555805,-600.3338025576131
1730865958.6841717,-1.8434793949127197,1.0966352224349976,-9.701960563659668,-0.007076849704563384,0.011180021734264425,-10.897240862937032,0.133547467821766,-0.3594831303375427,-606.0698123864832
1730865958.7341104,-1.9647480249404907,1.0394996404647827,-9.635427474975586,-0.006169235307018565,0.010153099727165715,-10.896170482545251,0.13303514245776663,-0.3594521043207789,-611.8292454107783
1730865958.7841659,-1.9647480249404907,1.0394996404647827,-9.635427474975586,-0.005268544385501723,0.009116557530493685,-10.895298392357288,0.13250549470411604,-0.35939670383273237,-617.6493431523493
1730865958.7841659,-2.0362460613250732,0.9632866978645325,-9.589738845825195,-0.004385007108682023,0.008076858408225184,-10.894627223635837,0.13250205421401137,-0.35939627436481014,-617.6867677449977
1730865958.8331368,-2.0580220222473145,0.9396564364433289,-9.595098495483398,-0.0035294977877723902,0.007040981425894705,-10.894154517590817,0.13197809033443106,-0.3593230031389669,-623.3534712378724
1730865958.8841126,-2.0260348320007324,0.9472898840904236,-9.640368461608887,-0.0027124162567273924,0.006016205777852652,-10.893872565149906,0.13142164820452923,-0.35922977418215385,-629.3137419716644
1730865958.9341154,-1.9630955457687378,1.0134309530258179,-9.721592903137207,-0.0019432619776971818,0.005009837571389486,-10.893768826632776,0.13086962893895682,-0.3591243589615159,-635.1911392208249
1730865958.984118,-1.895137906074524,1.0919886827468872,-9.815616607666016,-0.001230108262071977,0.004028557712941841,-10.89382694456537,0.13031383140895358,-0.3590076960460217,-641.0937835822259
1730865959.0339692,-1.8222602605819702,1.1473636627197266,-9.905097961425781,-0.0005792036516333865,0.0030779287987689067,-10.894028637420359,0.12975682178652337,-0.3588824058858019,-647.012494403406
1730865959.0840662,-1.7455374002456665,1.1361726522445679,-9.956357955932617,5.021640036536619e-06,0.0021623726587446483,-10.894356070182464,0.1291949768564786,-0.35874960587914734,-653.0023356068997
1730865959.1339521,-1.700907826423645,1.1482601165771484,-10.000899314880371,0.000519766007044456,0.0012853500860048413,-10.894793721424557,0.12863759627932714,-0.35861339659526087,-658.9787625610958
1730865959.1839936,-1.7207727432250977,1.1174755096435547,-10.020934104919434,0.0009636319669466285,0.0004495976742430418,-10.895329379354648,0.12807981577070138,-0.35847446464016236,-665.0066985539579
1730865959.233999,-1.7523990869522095,1.134559988975525,-9.988039016723633,0.0013364159443431526,-0.0003426298301032057,-10.895954428422263,0.12752548933044341,-0.3583355407263133,-671.0557522085479
1730865959.2839696,-1.8286563158035278,1.1376848220825195,-9.950651168823242,0.00163879634181106,-0.0010894256455836445,-10.896663544320708,0.12697696120372662,-0.3581989231402593,-677.109090255238
1730865959.3339097,-1.8731988668441772,1.1633003950119019,-9.883402824401855,0.0018718581117396081,-0.0017892265976670676,-10.897453957942522,0.12643260798433062,-0.358065837887359,-683.191634931591
1730865959.3839538,-1.87714421749115,1.2097761631011963,-9.829784393310547,0.0020368112234517813,-0.0024408425515071146,-10.898324590836985,0.12588999130591932,-0.35793728763794286,-689.3369236906105
1730865959.43391,-1.87714421749115,1.2097761631011963,-9.829784393310547,0.002135109188033969,-0.00304344427988734,-10.899275354308596,0.12535654823374032,-0.3578165029728833,-695.4642374244453
1730865959.43391,-1.8527741432189941,1.2444229125976562,-9.779115676879883,0.002168659451772135,-0.0035965615008721353,-10.900306684173707,0.12535305311571465,-0.3578157326597438,-695.5046747115935
1730865959.483997,-1.7791498899459839,1.2536530494689941,-9.761033058166504,0.0021399910442123126,-0.004100185140597941,-10.901419135601044,0.12482416146948744,-0.35770370442000476,-701.6684055491112
1730865959.5338774,-1.7433054447174072,1.2289862632751465,-9.7857084274292,0.0020524743954973314,-0.004554899753588424,-10.902612989863988,0.12430152432370531,-0.35760263034019674,-707.8468588394912
1730865959.583923,-1.7001326084136963,1.2023404836654663,-9.813427925109863,0.0019103596941150124,-0.004961801166441588,-10.9038881308076,0.12378013746956973,-0.3575127538460872,-714.0964667783984
1730865959.6338441,-1.658395528793335,1.1724835634231567,-9.855494499206543,0.0017185005654515547,-0.005322183736436726,-10.90524425342153,0.12326646231750972,-0.3574362273599982,-720.3349362026506
1730865959.6838272,-1.589672565460205,1.1396898031234741,-9.88569164276123,0.0014820271157846713,-0.005637319255298686,-10.906681066102188,0.12275577789333669,-0.35737319260988204,-726.6125990182196
1730865959.733828,-1.5081108808517456,1.1046420335769653,-9.922158241271973,0.0012061788968005698,-0.005908443767756724,-10.90819830909965,0.12224610394226908,-0.3573243497585483,-732.9466446803557
1730865959.7838185,-1.4295170307159424,1.1049782037734985,-9.95274543762207,0.0008964990665117618,-0.006136715927642384,-10.909795801684096,0.12174021403239114,-0.3572907092829418,-739.2937496058062
1730865959.833836,-1.4295170307159424,1.1049782037734985,-9.95274543762207,0.0005594287060217945,-0.006323072584395367,-10.911473646810649,0.12123650854973746,-0.3572726706086073,-745.6635691006373
1730865959.833836,-1.4276865720748901,1.1359474658966064,-9.951932907104492,0.00020283197464890124,-0.0064681764558781885,-10.913232408806405,0.1212334120190917,-0.35727260851593207,-745.702866599237
1730865959.8838398,-1.4276865720748901,1.1359474658966064,-9.951932907104492,-0.00016408152427652956,-0.006572555962796134,-10.915073100579622,0.1207333425837451,-0.3572707466147006,-752.0601603911781
1730865959.8838398,-1.4848183393478394,1.1582427024841309,-9.916403770446777,-0.0005316139658769376,-0.006636842146629363,-10.916997006873713,0.12073041642728384,-0.35727078345334196,-752.0974240130231
1730865959.9337692,-1.5948827266693115,1.1681678295135498,-9.850994110107422,-0.0008907859296776808,-0.006661959506822283,-10.919005370710181,0.12022988677917994,-0.357285313570027,-758.4710086136575
1730865959.9839382,-1.7093874216079712,1.1369863748550415,-9.79179573059082,-0.0012341223293432081,-0.006649146150881197,-10.921098928305767,0.11972041738022313,-0.35731670858562903,-764.9518555435391
1730865960.0338023,-1.8193243741989136,1.1080282926559448,-9.737626075744629,-0.0015558711057044982,-0.006599792838190994,-10.923277271668349,0.11921160754469608,-0.35736435469457134,-771.4073322029127
1730865960.083812,-1.884267807006836,1.1029753684997559,-9.714607238769531,-0.0018519301560939222,-0.006515304343366206,-10.925538044219817,0.11869553636177149,-0.3574286971455508,-777.9281521095417
1730865960.1337838,-1.9105286598205566,1.1115912199020386,-9.716594696044922,-0.0021196578613331455,-0.0063971275805500055,-10.927876244157986,0.11817504110986755,-0.3575091545547837,-784.4693675043567
1730865960.1837988,-1.9257912635803223,1.116139531135559,-9.744019508361816,-0.0023577505277219664,-0.006246833588020951,-10.9302840579375,0.11764880937963343,-0.35760547599833736,-791.0395530158836
1730865960.2337227,-1.9447674751281738,1.1083884239196777,-9.78177261352539,-0.002566030806168133,-0.006066137098284855,-10.932751292587005,0.11711948803104401,-0.35771654276215054,-797.5991049658815
1730865960.28374,-1.9447674751281738,1.1083884239196777,-9.78177261352539,-0.00274500586699128,-0.0058568606282211385,-10.935266096350041,0.11658173338336807,-0.35784283853581256,-804.2084317186658
1730865960.28374,-1.942165493965149,1.0875669717788696,-9.824285507202148,-0.002895499674885477,-0.005620878022885005,-10.937815633157635,0.11657833303850743,-0.357843678227019,-804.2500440628788
1730865960.3336928,-1.9253342151641846,1.0885087251663208,-9.844911575317383,-0.0030184689455478282,-0.005360039659750401,-10.940386627669046,0.11603681942191409,-0.3579831232097712,-810.8447033062212
1730865960.383695,-1.9253342151641846,1.0885087251663208,-9.844911575317383,-0.003114860053786512,-0.0050760838314237305,-10.942965852763203,0.11548366066954413,-0.35813659558891653,-817.5154055009054
1730865960.383695,-1.8715403079986572,1.0781447887420654,-9.8873929977417,-0.003185447764550632,-0.004770578094691553,-10.945540536025659,0.11548028937125089,-0.3581375629854092,-817.5558583399561
1730865960.4336674,-1.8715403079986572,1.0781447887420654,-9.8873929977417,-0.0032306096977984065,-0.004444890500068585,-10.948098676489137,0.11492365855980799,-0.35830164492958433,-824.2005532181947
1730865960.4336674,-1.8378441333770752,1.0401469469070435,-9.917705535888672,-0.003250060677177811,-0.0041001304962514,-10.950629321063236,0.11492030573522108,-0.3583026590971217,-824.2403726537625
1730865960.48365,-1.8378441333770752,1.0401469469070435,-9.917705535888672,-0.0032427529188607347,-0.0037370782188034324,-10.953122718693114,0.1143559083044013,-0.3584767893674708,-830.9092987294714
1730865960.48365,-1.7672381401062012,1.032460331916809,-9.951805114746094,-0.003207110801647522,-0.0033562649812757103,-10.955570229470837,0.1143519698938697,-0.3584780279069313,-830.9556004167065
1730865960.5337403,-1.7021394968032837,1.0370874404907227,-9.975760459899902,-0.003141290029782381,-0.0029582282001499797,-10.957964137899065,0.11377647773826179,-0.3586614756679844,-837.6888338119355
1730865960.5838394,-1.65043306350708,1.073177456855774,-10.0149564743042,-0.003043120585902248,-0.0025437087750363077,-10.960297720153237,0.11318782055974656,-0.35885356688740544,-844.51254184868
1730865960.6337297,-1.6014059782028198,1.14634108543396,-10.020565032958984,-0.002910137706874063,-0.0021137622219574654,-10.962565632115417,0.11259801816132994,-0.3590494166805576,-851.2908503749842
1730865960.6836996,-1.5850491523742676,1.22859787940979,-9.987622261047363,-0.0027399806667855594,-0.0016699368260879332,-10.964764407268465,0.11199838663740806,-0.3592509097197122,-858.1284550137601
1730865960.733647,-1.6096011400222778,1.2526041269302368,-9.945744514465332,-0.0025307929773135973,-0.0012143629011320259,-10.966892937010106,0.11139161285966631,-0.3594561968876296,-864.9996915310534
1730865960.7837098,-1.665219783782959,1.2559261322021484,-9.857342720031738,-0.002281542562430921,-0.0007496127379802745,-10.96895265277064,0.11078027502377416,-0.35966344811549295,-871.8819510937611
1730865960.8336103,-1.665219783782959,1.2559261322021484,-9.857342720031738,-0.001992400778515436,-0.0002785586398350387,-10.970947036248972,0.11016523624642743,-0.359871431934717,-878.7733530985286
1730865960.8336103,-1.7471556663513184,1.2027697563171387,-9.769553184509277,-0.001665091250537444,0.00019570622398579386,-10.972880680200648,0.11016219459470052,-0.35987245807322743,-878.8073646632939
1730865960.8836133,-1.7471556663513184,1.2027697563171387,-9.769553184509277,-0.0013030316191891976,0.0006700644313288519,-10.974758378029426,0.10954283130182324,-0.360080025607302,-885.7285366187514
1730865960.8836133,-1.8258168697357178,1.1118991374969482,-9.667461395263672,-0.0009110407579570267,0.001141681327404759,-10.976584303636496,0.10953770296834256,-0.36008173279863037,-885.7858072825926
1730865960.9335773,-1.8815194368362427,1.0185134410858154,-9.608986854553223,-0.000494844514962235,0.0016084537062923028,-10.978361184350481,0.10892074847973755,-0.36028492997113526,-892.6823225403974
1730865960.9835758,-1.8734042644500732,0.954424262046814,-9.58102798461914,-6.088352929017882e-05,0.002069535553387481,-10.98008930949539,0.10829590696224699,-0.36048591759164283,-899.6866322730716
1730865961.033538,-1.8734042644500732,0.954424262046814,-9.58102798461914,0.0003839021163653548,0.002525299212029001,-10.981765201325281,0.10767288512806034,-0.36068071823990744,-906.7024493554673
1730865961.033538,-1.824157476425171,0.9195178747177124,-9.613903045654297,0.0008327177512465422,0.0029765982245396803,-10.983380472216407,0.10766934724408575,-0.3606818072912945,-906.7423984804276
1730865961.0836797,-1.824157476425171,0.9195178747177124,-9.613903045654297,0.0012795755684031629,0.0034242273685507257,-10.984921754733644,0.10704790705078383,-0.3608693012770578,-913.7914715117977
1730865961.0836797,-1.7324042320251465,0.9404146075248718,-9.695297241210938,0.0017197084451650545,0.003868921469595441,-10.98637164108042,0.10704364748085601,-0.360870560171992,-913.8400088375606
1730865961.133535,-1.6441199779510498,0.9858413338661194,-9.814929962158203,0.0021498205714364383,0.00431138864666094,-10.987710085054228,0.10643293722451642,-0.3610465316465562,-920.8426092147112
1730865961.1836119,-1.5686087608337402,1.074684739112854,-9.920032501220703,0.002568004258669019,0.004752089239313387,-10.98891619622207,0.10582011677918911,-0.36121350787752937,-927.964245087217
1730865961.2334654,-1.542607307434082,1.151999592781067,-10.003628730773926,0.0029733269829085515,0.005190872341960302,-10.989970390041371,0.10521710405566279,-0.3613673104063685,-935.0794598071848
1730865961.283573,-1.5542049407958984,1.2301385402679443,-10.041191101074219,0.0033653976550697033,0.005626766033552472,-10.990856615113108,0.10461883560505796,-0.3615083794619651,-942.2599005716472
1730865961.3333614,-1.6225168704986572,1.2406723499298096,-10.066964149475098,0.0037439260258163164,0.006057965696775254,-10.99156411610156,0.10403231907587547,-0.3616342028156238,-949.4330435058835
1730865961.3834236,-1.7253564596176147,1.2138913869857788,-10.027120590209961,0.004108109424701797,0.00648178299667294,-10.992088107609694,0.10345393289349518,-0.36174472487345843,-956.6541410106471
1730865961.4334004,-1.7253564596176147,1.2138913869857788,-10.027120590209961,0.004456040040789697,0.006894704613663885,-10.992429438388811,0.10288832314070036,-0.36183820486825247,-963.8760424530931
1730865961.4334004,-1.8377536535263062,1.1672279834747314,-9.96264362335205,0.00478464538887092,0.007292860899627199,-10.992593905509674,0.10288473502262648,-0.3618387485742385,-963.9224004366339
1730865961.4834306,-1.8377536535263062,1.1672279834747314,-9.96264362335205,0.0050900587778309045,0.007672717824201912,-10.992591517323726,0.10233129624669401,-0.36191399858517903,-971.1685337005333
1730865961.4834306,-1.8791604042053223,1.118408203125,-9.90227222442627,0.005367716902552879,0.00803161615888744,-10.992435616426517,0.1023277720072794,-0.3619144216173339,-971.2153008155465
1730865961.5334456,-1.8703622817993164,1.049418330192566,-9.87574577331543,0.005612282531158872,0.00836799130305033,-10.992141739909949,0.10178996151194887,-0.361969456385204,-978.4578793775056
1730865961.5833516,-1.8703622817993164,1.049418330192566,-9.87574577331543,0.00581807080938794,0.008681196742805231,-10.991726113386862,0.10126323996942782,-0.3620036579491443,-985.7693442629123
1730865961.5833516,-1.7904411554336548,0.9940613508224487,-9.860814094543457,0.005979942678371963,0.008971092319872215,-10.991204166799363,0.10125982073689548,-0.36200381151351757,-985.8175633083442
1730865961.6333067,-1.6464136838912964,0.9628157019615173,-9.86606502532959,0.006094240056114383,0.009237906403164372,-10.990589747600419,0.10075046231574784,-0.36201557349096264,-993.1208820904264
1730865961.683353,-1.5627888441085815,0.9482263922691345,-9.848698616027832,0.00615979384380116,0.009482524972664785,-10.98989500633894,0.10025217926281244,-0.36200408226916436,-1000.5119639137602
1730865961.7333167,-1.5627888441085815,0.9482263922691345,-9.848698616027832,0.006178952873882356,0.009706810534719926,-10.989130475295257,0.09976936655203801,-0.3619685603470042,-1007.9302986649885
1730865961.7333167,-1.562458872795105,0.9341247081756592,-9.841981887817383,0.006158089975280107,0.009913693624192315,-10.98830514327169,0.09976635672607108,-0.36196825775652125,-1007.97738993965
1730865961.783527,-1.5797141790390015,0.9555282592773438,-9.840194702148438,0.0061070933767141825,0.010107010277156707,-10.987426459813891,0.09929941961889256,-0.3619078281755411,-1015.4170565800881
1730865961.8334281,-1.5797141790390015,0.9555282592773438,-9.840194702148438,0.006037702985862266,0.010290998261095462,-10.98650012601868,0.09884951259214972,-0.3618223084328045,-1022.8530884635348
1730865961.8334281,-1.656130313873291,1.0449622869491577,-9.828990936279297,0.005961371898091315,0.010469536402781074,-10.9855297812733,0.09884708321790753,-0.3618217683371317,-1022.8939992992332
1730865961.883437,-1.7408385276794434,1.130565881729126,-9.812065124511719,0.005887718984626924,0.010645352475736319,-10.984516905587363,0.09841050113941356,-0.36170969957655996,-1030.3843619126303
1730865961.933372,-1.7408385276794434,1.130565881729126,-9.812065124511719,0.005823696431185098,0.010819270109466613,-10.98346096083668,0.09798902796768999,-0.3615710052153573,-1037.8933580419916
1730865961.933372,-1.8037424087524414,1.1793253421783447,-9.80042552947998,0.0057731167365486355,0.010989659062397367,-10.98235960125951,0.09798604862870992,-0.36156990983621,-1037.9474737745409
1730865961.9834905,-1.8700915575027466,1.1633671522140503,-9.820185661315918,0.00573667694669024,0.01115246406407774,-10.981209109762236,0.09758077871933633,-0.36140441037137994,-1045.4519746048525
1730865962.0333447,-1.9134926795959473,1.100498914718628,-9.80792236328125,0.005712765221271553,0.011302144384969827,-10.980005424900305,0.09718950364993156,-0.3612110936286853,-1052.9865150640462
1730865962.083408,-1.9134926795959473,1.100498914718628,-9.80792236328125,0.005698687751379321,0.011433172220067313,-10.97874537521205,0.09680914706612732,-0.36098764049686966,-1060.613472067837
1730865962.083408,-1.9817607402801514,0.9967160820960999,-9.799867630004883,0.0056914690648273624,0.01154107352017028,-10.97742714213464,0.09680582745207057,-0.36098552341735407,-1060.6814512039641
1730865962.1332574,-2.009242534637451,0.8998187184333801,-9.762540817260742,0.005687936119365085,0.011622882784970107,-10.97604988908678,0.09644425124842615,-0.3607360423605117,-1068.2436664521413
1730865962.1833553,-2.0146119594573975,0.8520634174346924,-9.732019424438477,0.0056845208425286686,0.01167752258693989,-10.974613011954082,0.09609405977123088,-0.360455751078908,-1075.8902838945064
1730865962.2332752,-2.0146119594573975,0.8520634174346924,-9.732019424438477,0.005677352838973802,0.011705663404445708,-10.973114877432302,0.0957583843797006,-0.3601466765674536,-1083.5558671342988
1730865962.2332752,-1.9653370380401611,0.8578269481658936,-9.763777732849121,0.0056627547725301396,0.011708820292033772,-10.97155143929049,0.09575562620196182,-0.36014395874152627,-1083.6203337473846
1730865962.2832632,-1.8760980367660522,0.9307280778884888,-9.811843872070312,0.0056378389877049465,0.011688500733438752,-10.96991583468494,0.09543610298967721,-0.35980775812177546,-1091.2652693184234
1730865962.3331802,-1.7786275148391724,1.0387083292007446,-9.875558853149414,0.005601189291984299,0.011645631083726387,-10.968199110153346,0.09512853584428844,-0.3594405670307828,-1098.9845610092502
1730865962.3832405,-1.7020138502120972,1.1243410110473633,-9.926508903503418,0.005553739976599513,0.011579768375779082,-10.966391366877875,0.0948328768232175,-0.35904170275508707,-1106.7841035210813
1730865962.4332123,-1.6601722240447998,1.1989141702651978,-9.964488983154297,0.005499300424440462,0.01148841501402987,-10.964483176673545,0.09455239041081782,-0.35861577481941864,-1114.575760464148
1730865962.4832904,-1.6342209577560425,1.2611186504364014,-9.975395202636719,0.0054438216944513685,0.011367383866832153,-10.962467650828795,0.09428530271703392,-0.35816082838067276,-1122.4028017116182
1730865962.5331616,-1.6342209577560425,1.2611186504364014,-9.975395202636719,0.005393749059784098,0.011212019367616817,-10.9603426407167,0.09403303816912972,-0.35768017359302,-1130.217015874538
1730865962.5331616,-1.622498869895935,1.2675787210464478,-9.962905883789062,0.005354869071258346,0.011018131228586395,-10.958111840388863,0.0940307202260364,-0.3576755034810532,-1130.2909182743092
1730865962.5832772,-1.639206886291504,1.2061913013458252,-9.937066078186035,0.005332032758013661,0.01078238843115854,-10.955784602893157,0.09379219772016067,-0.3571681003156022,-1138.1212565197895
1730865962.6331246,-1.6860491037368774,1.1449236869812012,-9.880510330200195,0.0053291205276089874,0.010502665827280194,-10.953375081830607,0.09356608631853905,-0.35663252658332284,-1146.0057961177063
1730865962.6834114,-1.7109571695327759,1.0855287313461304,-9.83228588104248,0.005348937459462329,0.010178396376420708,-10.950900882604374,0.0933510089410741,-0.35606498828468,-1154.003841794321
1730865962.7330935,-1.7109571695327759,1.0855287313461304,-9.83228588104248,0.005393212809965648,0.009810500214371708,-10.94838118600612,0.09314727646620621,-0.35546487533377336,-1162.1249850659415
1730865962.7330935,-1.709753394126892,1.0741137266159058,-9.788422584533691,0.0054628241780925665,0.009400838208953285,-10.945834867227834,0.09314575137680357,-0.3554601217988753,-1162.18807513667
1730865962.7832174,-1.709753394126892,1.0741137266159058,-9.788422584533691,0.005558047481888199,0.008951745384223754,-10.94327934217923,0.09296621857318704,-0.35486968945862285,-1169.8977466772576
1730865962.7832174,-1.6724727153778076,1.0828081369400024,-9.795247077941895,0.005678710649512695,0.008465868539341118,-10.940730146840957,0.09296482551100642,-0.3548648507081995,-1169.9599286166274
1730865962.8330767,-1.6724727153778076,1.0828081369400024,-9.795247077941895,0.005824378800059572,0.00794606360053349,-10.938200871775758,0.09279269045479543,-0.35423135670004585,-1177.9856249114268
1730865962.8330767,-1.6206578016281128,1.0981696844100952,-9.837224006652832,0.005994626928409526,0.007395265121097878,-10.935703310670256,0.09279154582564246,-0.35422688664573376,-1178.041469557352
1730865962.8830912,-1.6206578016281128,1.0981696844100952,-9.837224006652832,0.006189265852924663,0.0068163896682882745,-10.933247793523702,0.09263764158383107,-0.3535883331883001,-1185.9290160051698
1730865962.8830912,-1.5427521467208862,1.13316011428833,-9.84755802154541,0.006408354389944456,0.006212292253070218,-10.930843621925192,0.09263652900286679,-0.35358341785754077,-1185.9890572056127
1730865962.933006,-1.5629488229751587,1.1618047952651978,-9.863628387451172,0.006652111426405063,0.005585687394294513,-10.928499448683148,0.09249682498101928,-0.35292296099800735,-1193.9856574208175
1730865962.9830446,-1.629149079322815,1.215698003768921,-9.845447540283203,0.0069208853964785235,0.004938892250800756,-10.9262234911007,0.09237254058291679,-0.35224221308426257,-1202.0962762840832
1730865963.0340078,-1.629149079322815,1.215698003768921,-9.845447540283203,0.007214965117416721,0.0042734275108799865,-10.924023570206659,0.09226431871809791,-0.3515379527327406,-1210.374000935392
1730865963.0340078,-1.6967530250549316,1.2590280771255493,-9.838217735290527,0.007534146115565648,0.0035896761683297616,-10.921907025684781,0.0922637519265087,-0.35153388072461417,-1210.4215685141746
1730865963.084012,-1.7413307428359985,1.2730633020401,-9.82457160949707,0.007877357922166536,0.0028868410458973677,-10.91988074950615,0.09217708792877946,-0.3508372680975785,-1218.5306892946355
1730865963.1339903,-1.7413307428359985,1.2730633020401,-9.82457160949707,0.008242638814414553,0.002163450537561339,-10.917951670793212,0.092110147292726,-0.35013171510531,-1226.6979350249542
1730865963.1339903,-1.7646113634109497,1.2583575248718262,-9.81188678741455,0.008627422808365492,0.0014182256520217,-10.916127469051382,0.09210984186635832,-0.3501278938010744,-1226.7420739783388
1730865963.1839724,-1.7786732912063599,1.2127102613449097,-9.802888870239258,0.009028795384220481,0.0006506686328423073,-10.914416797522662,0.09206454087332297,-0.34941875014243684,-1234.9374195187124
1730865963.233917,-1.8130278587341309,1.14822256565094,-9.807696342468262,0.009443561853746096,-0.00013879635883752426,-10.912828820672532,0.09204230714062304,-0.34871163396341626,-1243.1290367594925
1730865963.2838762,-1.8130278587341309,1.14822256565094,-9.807696342468262,0.00986823314145599,-0.0009487385419186442,-10.911372574661819,0.09204402295583819,-0.34800302943923384,-1251.380766215498
1730865963.2838762,-1.809478998184204,1.100132703781128,-9.810400009155273,0.010298981555397662,-0.001776515516187988,-10.910056588944668,0.09204409941718868,-0.3479991915140052,-1251.425608767035
1730865963.333905,-1.809478998184204,1.100132703781128,-9.810400009155273,0.010731666653776194,-0.00261817627617774,-10.908888660158476,0.09207148702360303,-0.3472978080642442,-1259.6721835361554
1730865963.333905,-1.797210454940796,1.1131501197814941,-9.829365730285645,0.011162035495871496,-0.003468786233972943,-10.907875430274952,0.09207173479789006,-0.3472935634351035,-1259.7224061733732
1730865963.383851,-1.7991148233413696,1.125964879989624,-9.836786270141602,0.011586007650338084,-0.004323110960558879,-10.907021882860716,0.0921268222672605,-0.3466016665087686,-1267.9859573647527
1730865963.4338167,-1.7991148233413696,1.125964879989624,-9.836786270141602,0.011999860097991907,-0.005176165065621513,-10.90633120284839,0.09221166274379082,-0.34591715828980313,-1276.3298953688425
1730865963.4338167,-1.7826963663101196,1.1695894002914429,-9.845488548278809,0.012400257236028629,-0.006023386819780495,-10.905805032888786,0.09221246985974513,-0.3459116845957457,-1276.397371884587
1730865963.4838102,-1.7767739295959473,1.2048052549362183,-9.856528282165527,0.012784247403557391,-0.006860727480155558,-10.905443822758087,0.09232742317861137,-0.34524799263623596,-1284.6971877665078
1730865963.5337822,-1.8129676580429077,1.1983704566955566,-9.851751327514648,0.013149295360995262,-0.007684826027884283,-10.905247160384873,0.09248141932535092,-0.3445743319129433,-1293.3890237899939
1730865963.5838563,-1.865580439567566,1.1427628993988037,-9.82577133178711,0.013493209844818046,-0.008492931781510917,-10.90521414792756,0.0926578240436487,-0.34396352769052824,-1301.5490533339914
1730865963.633715,-1.881205439567566,1.0834192037582397,-9.824111938476562,0.013813837916273428,-0.009282330617957121,-10.905343708465296,0.0928796755209054,-0.34333914025763274,-1310.2226504949363
1730865963.68373,-1.863053321838379,1.0553536415100098,-9.826824188232422,0.014108740805722471,-0.010049710450889399,-10.90563451038346,0.09312327658089356,-0.3427720647171406,-1318.4513704911315
1730865963.7337158,-1.8265241384506226,1.0528087615966797,-9.850543975830078,0.01437526222550965,-0.010791114023076769,-10.906084399380516,0.09341719440829878,-0.34219941646611074,-1327.176203202942
1730865963.7837036,-1.7715882062911987,1.0776413679122925,-9.877630233764648,0.014611051343500608,-0.011502458737665453,-10.906689773840489,0.09373198488592638,-0.34168211969461604,-1335.4981735457757
1730865963.8336518,-1.7354477643966675,1.0973707437515259,-9.941924095153809,0.014814602968746564,-0.012180027792194771,-10.90744556331864,0.0940894243088378,-0.34118307855131097,-1344.020488068326
1730865963.8837056,-1.689695954322815,1.1317925453186035,-9.966397285461426,0.014985364760826663,-0.012820648670408918,-10.908345923172726,0.09448749075733147,-0.3407109469244712,-1352.6467560500996
1730865963.9335935,-1.689695954322815,1.1317925453186035,-9.966397285461426,0.015123517905695594,-0.013421752066665567,-10.909385105177646,0.09491896124291996,-0.34027615090185,-1361.2135117904754
1730865963.9335935,-1.6389662027359009,1.1293141841888428,-9.971222877502441,0.015229893726738754,-0.013981451664716205,-10.91055795943197,0.0949221576894619,-0.3402731831085825,-1361.274419683152
1730865963.9836588,-1.6623183488845825,1.1505361795425415,-9.938908576965332,0.015306060027617675,-0.014498545771224114,-10.911860030947267,0.09539157155899103,-0.339873088327945,-1369.8695125678762
1730865964.0335605,-1.685981035232544,1.114296793937683,-9.907242774963379,0.015354153638595153,-0.014972315835287636,-10.913287508857529,0.09591892676771724,-0.3394963327695969,-1378.819916342614
1730865964.0836053,-1.685981035232544,1.114296793937683,-9.907242774963379,0.015376382412774893,-0.01540220166444885,-10.91483706481979,0.0964502047441359,-0.33918001454957436,-1387.2328115548125
1730865964.0836053,-1.7127622365951538,1.098321795463562,-9.828071594238281,0.015374634697108655,-0.01578760715266212,-10.916505434025485,0.09645387084082205,-0.339178024739797,-1387.2890377480023
1730865964.1335196,-1.7381293773651123,1.0863145589828491,-9.812661170959473,0.015350355611177478,-0.01612790157553159,-10.918288763084258,0.09704259098186778,-0.3388894058243654,-1396.0343357707582
1730865964.1835907,-1.7381293773651123,1.0863145589828491,-9.812661170959473,0.015304485222704816,-0.016422447457159144,-10.920181987195395,0.09766076803325612,-0.33864485069585615,-1404.6840922219037
1730865964.1835907,-1.7394286394119263,1.1070185899734497,-9.751754760742188,0.0152375113919015,-0.01667066136417618,-10.922178428276009,0.09766462203017941,-0.33864349309738534,-1404.7365083125587
1730865964.2335656,-1.7783422470092773,1.099996566772461,-9.74980354309082,0.015149671872942742,-0.016872197700570767,-10.924269533383594,0.09832471068104093,-0.33843861677281684,-1413.471114531191
1730865964.2834716,-1.775434136390686,1.1180026531219482,-9.734968185424805,0.015041023121780801,-0.017027133545115248,-10.926444714048039,0.09902518342203258,-0.3382750878028266,-1422.2698448966173
1730865964.3334875,-1.775434136390686,1.1180026531219482,-9.734968185424805,0.014911357142195623,-0.01713602659678981,-10.92869142329515,0.0997638425425002,-0.33815408337064806,-1431.105310566228
1730865964.3334875,-1.7961090803146362,1.0978853702545166,-9.74190616607666,0.014760248334305618,-0.017199819387326606,-10.930995508865488,0.09976931216775936,-0.3381533654398342,-1431.169212658405
1730865964.3834748,-1.8024729490280151,1.096219539642334,-9.761283874511719,0.014587202865706313,-0.01721960873386292,-10.933341719543126,0.1005394956574386,-0.3380760344043732,-1439.9692536186533
1730865964.4334664,-1.8024729490280151,1.096219539642334,-9.761283874511719,0.014391716929688743,-0.01719644187611062,-10.935714186353833,0.10134954883179047,-0.33804106524577815,-1448.8407160507802
1730865964.4334664,-1.8615046739578247,1.0873790979385376,-9.789366722106934,0.014173269311177726,-0.017131297260442123,-10.938096764048613,0.10135642076409089,-0.3380409542362824,-1448.9144473155832
1730865964.4834557,-1.8906596899032593,1.113863468170166,-9.796687126159668,0.013931212845241944,-0.017025193902009208,-10.940473294632074,0.10220042826853082,-0.3380489007428388,-1457.796760498625
1730865964.533443,-1.8843986988067627,1.1354656219482422,-9.818350791931152,0.013664492661176026,-0.016879342019182883,-10.942827910986235,0.10308072334103066,-0.33809907369847064,-1466.7266646314727
1730865964.5834439,-1.8843986988067627,1.1354656219482422,-9.818350791931152,0.01337141641301255,-0.016695332887639504,-10.945145362942398,0.10399477690704638,-0.3381910998456667,-1475.684450479954
1730865964.5834439,-1.8520234823226929,1.1645499467849731,-9.829914093017578,0.013049695961462002,-0.016475316555115395,-10.947411275955464,0.10400004756792193,-0.3381917394356853,-1475.7352509652078
1730865964.6334517,-1.8520234823226929,1.1645499467849731,-9.829914093017578,0.012696743879477472,-0.016222059865057467,-10.949612377774864,0.10494170386306935,-0.33832422107955046,-1484.673026802165
1730865964.6334517,-1.8085271120071411,1.176212191581726,-9.861815452575684,0.012310170782052177,-0.015938783610209426,-10.951736854739988,0.10494934857865203,-0.33832543989731567,-1484.7444996757176
1730865964.6834452,-1.7181299924850464,1.1627516746520996,-9.876137733459473,0.01188843051404256,-0.015628842273693877,-10.953774825814106,0.10592004142112897,-0.3384972238756845,-1493.695593639886
1730865964.7333987,-1.6924563646316528,1.1392431259155273,-9.905946731567383,0.0114313840198993,-0.015295479758445663,-10.955718674407741,0.1069486015810761,-0.3387136304700983,-1502.9325539192316
1730865964.7834475,-1.6710063219070435,1.1597439050674438,-9.915834426879883,0.01094034133283837,-0.014941758067953208,-10.957563103130237,0.10796386220766342,-0.338958523451965,-1511.8306728893972
1730865964.8333828,-1.6623401641845703,1.1732234954833984,-9.910504341125488,0.01041758014508937,-0.01457062225009061,-10.959305013464133,0.10905414728234218,-0.33925283605182455,-1521.1739134693305
1730865964.8834436,-1.6623401641845703,1.1732234954833984,-9.910504341125488,0.009865944439516218,-0.014185051202535649,-10.960943308307417,0.11011265218562162,-0.33956686634772554,-1530.060080060983
1730865964.8834436,-1.664509892463684,1.188157320022583,-9.918722152709961,0.009288750553597498,-0.013788191746706103,-10.962478657300185,0.11011838232265013,-0.33956863799977066,-1530.1077272660038
1730865964.933397,-1.664509892463684,1.188157320022583,-9.918722152709961,0.008689716124434982,-0.013383383893952095,-10.96391332232551,0.11122377269381056,-0.3399237096286161,-1539.2229981908038
1730865964.933397,-1.6572636365890503,1.1673773527145386,-9.908549308776855,0.008072777722525779,-0.012973999673062377,-10.965251133203124,0.11123218273292211,-0.33992651055713347,-1539.291779366029
1730865964.9834638,-1.6591688394546509,1.130024790763855,-9.90406608581543,0.0074418951223654516,-0.012563087660143257,-10.96649749366982,0.11235842672249234,-0.34031419114733974,-1548.4403911741238
1730865965.0333724,-1.6591688394546509,1.130024790763855,-9.90406608581543,0.00680094197878181,-0.012153035362326033,-10.967659172876658,0.11350705150333358,-0.34073427352756847,-1557.6539395438854
1730865965.0333724,-1.6374982595443726,1.1253414154052734,-9.897210121154785,0.006153677897041217,-0.011745530480755245,-10.968743817305803,0.11351505292663137,-0.3407372839098921,-1557.717743207322
1730865965.0834715,-1.6542800664901733,1.1127800941467285,-9.890379905700684,0.005503762359078424,-0.011341798638022649,-10.96975936956186,0.11467137076089783,-0.3411838343737244,-1566.897367708154
1730865965.1333466,-1.6624219417572021,1.1077226400375366,-9.87459659576416,0.004854747095362017,-0.010942824494494722,-10.970713602244349,0.11584592069533572,-0.3416601191497626,-1576.146913203828
1730865965.183495,-1.6624219417572021,1.1077226400375366,-9.87459659576416,0.0042099851140722745,-0.01054942172526473,-10.971613808059447,0.11703756093547403,-0.3421656606366611,-1585.4691007542851
1730865965.183495,-1.6803877353668213,1.1172305345535278,-9.872438430786133,0.0035725084567540815,-0.010162245350610735,-10.97246662287965,0.11704392382149546,-0.34216841885559496,-1585.5187302667277
1730865965.2333581,-1.6803877353668213,1.1172305345535278,-9.872438430786133,0.002944955091508933,-0.009781825954102477,-10.973277977976249,0.1182335253207475,-0.3426946396593886,-1594.7825287199437
1730865965.2333581,-1.6642932891845703,1.1443051099777222,-9.851571083068848,0.0023296039431286546,-0.009408638661501913,-10.974053118713961,0.11824271894702491,-0.34269878764229683,-1594.8540081965862
1730865965.2835011,-1.676072597503662,1.1518168449401855,-9.866317749023438,0.0017285267821134686,-0.009043221153864228,-10.97479660925649,0.1194388778434469,-0.34324875366741076,-1604.1509070050204
1730865965.3333554,-1.676072597503662,1.1518168449401855,-9.866317749023438,0.0011437130155325117,-0.008686292817658817,-10.975512373763223,0.12063936707548532,-0.34382099158449836,-1613.4810025502186
1730865965.3333554,-1.688549518585205,1.173169493675232,-9.839729309082031,0.0005770480240255933,-0.008338747362548166,-10.976203860498714,0.12064609766893582,-0.3438242565389771,-1613.5333268229242
1730865965.3832452,-1.7406500577926636,1.1670211553573608,-9.839791297912598,3.016081199488536e-05,-0.008001551188169677,-10.976874201487632,0.12184739870898964,-0.3444169175501339,-1622.885667420849
1730865965.4331973,-1.7592371702194214,1.1434805393218994,-9.807424545288086,-0.0004957831830932928,-0.007675681261849681,-10.977526182971545,0.12305010163199342,-0.3450299644207075,-1632.2805957625899
1730865965.4832108,-1.7919294834136963,1.1425443887710571,-9.786770820617676,-0.0010001575555975129,-0.007362066778012034,-10.978162036317741,0.12425904601677679,-0.34566596942657635,-1641.766404175021
1730865965.5332005,-1.8289555311203003,1.1339582204818726,-9.734051704406738,-0.0014828073163135928,-0.0070614865232568515,-10.97878313055659,0.12546196625964426,-0.3463184887985143,-1651.2567942317175
1730865965.5832748,-1.906752586364746,1.1017496585845947,-9.722082138061523,-0.0019440465072551173,-0.006774491407131305,-10.979389590757421,0.12666727373463488,-0.34699208341212906,-1660.8277789967556
1730865965.6332035,-1.9440362453460693,1.0649313926696777,-9.711519241333008,-0.0023846312293761126,-0.00650136631951373,-10.979979887228412,0.12785441705456113,-0.34767504815749967,-1670.3245693060423
1730865965.6832056,-1.954621434211731,1.0486096143722534,-9.747272491455078,-0.002805576329706575,-0.006242083189718875,-10.980550554516466,0.12904304193866745,-0.34837852118375084,-1679.9125534730385
1730865965.733109,-1.9300211668014526,1.0519165992736816,-9.785317420959473,-0.0032079369055318307,-0.00599630769440295,-10.98109620424637,0.13024449685280134,-0.3491099116426084,-1689.6947288813271
1730865965.7832572,-1.8917458057403564,1.0662336349487305,-9.863221168518066,-0.0035925420230986478,-0.005763544813966481,-10.981609915244963,0.13139912855019942,-0.3498324503191508,-1699.1911919556228
1730865965.8331983,-1.8261340856552124,1.0515388250350952,-9.917787551879883,-0.003959594092325643,-0.005543320252167954,-10.98208402302041,0.1325551422131068,-0.35057562010379795,-1708.8026945250338
1730865965.8832433,-1.8261340856552124,1.0515388250350952,-9.917787551879883,-0.0043083176655406025,-0.005335245608052378,-10.982511081432627,0.13370462114778597,-0.351334743545079,-1718.4727638670734
1730865965.8832433,-1.7325536012649536,1.0188775062561035,-9.973783493041992,-0.004636986940188912,-0.005138941318392319,-10.982884610438807,0.13371402296338836,-0.35134103706174913,-1718.5523453005178
1730865965.9331484,-1.6438817977905273,1.0134690999984741,-9.997303009033203,-0.004943104072430954,-0.004953857898596372,-10.983199558532302,0.13484257135793404,-0.35210669583167536,-1728.1701981322358
1730865965.9832146,-1.6068297624588013,1.0392526388168335,-10.010113716125488,-0.005223298568227009,-0.004779119421238907,-10.983452623754202,0.13597084577143467,-0.3528928982521835,-1737.9211103416797
1730865966.0331244,-1.5930547714233398,1.1113393306732178,-9.983500480651855,-0.005473455153898575,-0.00461363247733487,-10.983642369898716,0.13708316948812477,-0.353689026795678,-1747.677066540309
1730865966.0831685,-1.6152253150939941,1.2080261707305908,-9.939994812011719,-0.005689433037994651,-0.004456480115398896,-10.983769150159782,0.13818260347977204,-0.35449724287303036,-1757.4697329761302
1730865966.1329873,-1.6628810167312622,1.2549554109573364,-9.904179573059082,-0.005867730245797186,-0.004307207304937259,-10.983835164331296,0.13926344099901433,-0.35531323689406735,-1767.2519793889376
1730865966.183079,-1.7237470149993896,1.2498868703842163,-9.840123176574707,-0.006005863242829496,-0.004165822826211888,-10.983844580818786,0.1403360281490507,-0.3561448283227387,-1777.1215697715543
1730865966.232996,-1.7540323734283447,1.1959750652313232,-9.810408592224121,-0.006102679554183716,-0.004032729211206116,-10.983803186285098,0.14138852523571072,-0.3569827701528085,-1786.972598052575
1730865966.282932,-1.7761001586914062,1.1373709440231323,-9.77637004852295,-0.006158314625807194,-0.0039085814287625675,-10.98371750576912,0.14242546994907954,-0.3578303403045975,-1796.848055467268
1730865966.3329697,-1.7739691734313965,1.080772876739502,-9.734260559082031,-0.006173692975573273,-0.003793984703606637,-10.983593780422872,0.1434527882384634,-0.35869233456411576,-1806.806609013654
1730865966.3838212,-1.7863746881484985,1.0190056562423706,-9.72805404663086,-0.006150079659251207,-0.003689183226193096,-10.983436988400832,0.14447681564629722,-0.3595743840016557,-1816.9143153239222
1730865966.4338863,-1.7863746881484985,1.0190056562423706,-9.72805404663086,-0.006088935098352415,-0.0035939683430450077,-10.98324995208505,0.14547397467829154,-0.3604558677561219,-1826.9376475900553
1730865966.4338863,-1.763444423675537,0.9958710074424744,-9.702902793884277,-0.005991873772131589,-0.0035078263646785646,-10.98303272191944,0.14550232727863668,-0.3604812644484168,-1827.2253242173658
1730865966.4838243,-1.7485802173614502,0.980993390083313,-9.72205638885498,-0.005860553622688784,-0.003430042985807954,-10.982782457604307,0.14644973835923764,-0.36134038854150424,-1836.9232249792317
1730865966.5338418,-1.7739217281341553,0.9647471904754639,-9.749009132385254,-0.005696530064679076,-0.0033596453962734586,-10.982493719998358,0.14741557872240024,-0.3622375280429404,-1846.9828019125375
1730865966.5839176,-1.776928424835205,1.0090956687927246,-9.792386054992676,-0.005501250065898054,-0.0032954630486269594,-10.98215891098358,0.14836661082431205,-0.3631422886303785,-1857.061838800269
1730865966.6337254,-1.7719019651412964,1.0469619035720825,-9.85647201538086,-0.005276209882110936,-0.003236419308496888,-10.981768910681819,0.14930013245766888,-0.36405128312722335,-1867.1248090738334
1730865966.6840096,-1.742720127105713,1.0767850875854492,-9.918389320373535,-0.005023051692747164,-0.0031817578813586804,-10.98131419070927,0.15022934549065745,-0.3649767922399094,-1877.3087884301815
1730865966.733826,-1.7308605909347534,1.0838773250579834,-9.983128547668457,-0.004743491514569343,-0.0031310365521790336,-10.980786269854098,0.15113610905343705,-0.3658999008059121,-1887.4072484875965
1730865966.7839155,-1.7244657278060913,1.1198302507400513,-10.016728401184082,-0.0044392403296189325,-0.003084049771300737,-10.98017900276815,0.15203861508632555,-0.36683816023745225,-1897.613821867675
1730865966.8337839,-1.7244657278060913,1.1198302507400513,-10.016728401184082,-0.004112035365343058,-0.0030407972755606134,-10.979489410834987,0.1529248309116399,-0.36777818398768153,-1907.7839604062742
1730865966.8337839,-1.6922295093536377,1.1217204332351685,-10.01152515411377,-0.003763671338602703,-0.0030014373631984657,-10.978718023304948,0.1529317128220403,-0.367785556051611,-1907.8635047701398
1730865966.8839517,-1.6949405670166016,1.091368556022644,-10.003122329711914,-0.0033959116160585468,-0.0029661473756953313,-10.977868778090054,0.15380997449535447,-0.3687346641883415,-1918.0779579077637
1730865966.9338105,-1.6541407108306885,1.079060673713684,-9.937772750854492,-0.003010367893515468,-0.0029349465651329065,-10.976948521193819,0.1546772582006263,-0.3696877996502876,-1928.2842655175111
1730865966.9837117,-1.6971153020858765,1.0559735298156738,-9.882655143737793,-0.0026085687566605223,-0.0029076102774370405,-10.975966075283356,0.15554169006281202,-0.37065277121204854,-1938.5667247413069
1730865967.0336804,-1.7184339761734009,1.0200108289718628,-9.829143524169922,-0.0021922247631397176,-0.0028836915744982774,-10.974930977512212,0.156397960779242,-0.3716225047297424,-1948.8504634474423
1730865967.0837424,-1.7796587944030762,0.9819168448448181,-9.78043270111084,-0.0017634353809694394,-0.002862557975851395,-10.973852166819619,0.1572583528346448,-0.37260981126895876,-1959.2713429180287
1730865967.1336548,-1.7767276763916016,0.9837790727615356,-9.749464988708496,-0.0013247847504795499,-0.0028433577358597047,-10.97273690394521,0.15810409938307712,-0.37359183426274534,-1969.5887872890085
1730865967.1838517,-1.7815088033676147,1.03798508644104,-9.75819206237793,-0.0008794003001757012,-0.002824958647842244,-10.971590170821298,0.15895489487536474,-0.3745900389766026,-1980.029059534938
1730865967.2337184,-1.7815088033676147,1.03798508644104,-9.75819206237793,-0.00043079897601044014,-0.00280602814206564,-10.970414642901638,0.15979960834628898,-0.3755900735082282,-1990.4422598373683
1730865967.2337184,-1.7619465589523315,1.1153185367584229,-9.77953052520752,1.7493451135475158e-05,-0.002785317650665476,-10.969211047753065,0.1598059686410566,-0.3755976346540624,-1990.5208200883017
1730865967.283684,-1.7306779623031616,1.2181533575057983,-9.794438362121582,0.0004622907728810341,-0.0027621685865742967,-10.967978643121022,0.16064295547148613,-0.37659538308130314,-2000.8655417396997
1730865967.3336196,-1.73723566532135,1.2622041702270508,-9.825244903564453,0.0009009935407185291,-0.002737291353802308,-10.966715703334119,0.16149008458367725,-0.37761003424175,-2011.3419038378886
1730865967.3837023,-1.7728885412216187,1.2536513805389404,-9.841352462768555,0.0013317045167758011,-0.002713339933000621,-10.965420201159699,0.16234158023815135,-0.3786333928834257,-2021.8651456272144
1730865967.4336104,-1.7957485914230347,1.2329119443893433,-9.852080345153809,0.0017530587641715726,-0.0026944372174626755,-10.964090997134088,0.16319442982636262,-0.3796605024211851,-2032.3849138999092
1730865967.4835632,-1.8130037784576416,1.187165379524231,-9.869086265563965,0.00216386322948439,-0.0026848859228854986,-10.962729125390261,0.1640529178570246,-0.3806952285927784,-2042.9412919145284
1730865967.5335834,-1.8403993844985962,1.1168467998504639,-9.861696243286133,0.002562854734528582,-0.0026882171326520227,-10.96133822459222,0.1649178060116744,-0.3817372637077197,-2053.5311268101423
1730865967.5836523,-1.8365612030029297,1.1099493503570557,-9.855596542358398,0.0029486545332876556,-0.0027069030223948864,-10.959924014915996,0.16578823826175898,-0.38278442570168875,-2064.1320197110263
1730865967.6335382,-1.8365612030029297,1.1099493503570557,-9.855596542358398,0.0033198170797682997,-0.0027424075475342325,-10.958493439881124,0.166669742553699,-0.3838422851859921,-2074.7995404435146
1730865967.6335382,-1.8015090227127075,1.1125519275665283,-9.858222961425781,0.0036749621476517224,-0.0027954583825577145,-10.957053909145172,0.16667635525429955,-0.3838502090828389,-2074.8792877971864
1730865967.683565,-1.8015090227127075,1.1125519275665283,-9.858222961425781,0.0040129857408925,-0.0028663374944759594,-10.95561286729573,0.16755196744021397,-0.3848970699688772,-2085.393193893583
1730865967.683565,-1.7416749000549316,1.0947171449661255,-9.853496551513672,0.004333304120614332,-0.002954994989488178,-10.954177654888632,0.16755726289467723,-0.38490338689448067,-2085.4565055335474
1730865967.7336876,-1.707353949546814,1.0896289348602295,-9.870576858520508,0.0046361596733753875,-0.0030610290165417366,-10.952755460172739,0.1684615383076286,-0.3859789575377718,-2096.21139893401
1730865967.7836096,-1.6856294870376587,1.0882185697555542,-9.87708854675293,0.004922995612369335,-0.0031836189231954927,-10.95135331191081,0.16936909514882448,-0.3870520507916911,-2106.8910523911054
1730865967.833548,-1.6856732368469238,1.1131680011749268,-9.89499282836914,0.005196604358443794,-0.003321510146620452,-10.949978144191455,0.17029152372628006,-0.3881359362404241,-2117.6248239279453
1730865967.8835711,-1.6620116233825684,1.1451038122177124,-9.884458541870117,0.005460666154919417,-0.0034731491193307064,-10.948636889361214,0.17122940676551962,-0.38923082239204637,-2128.410808414607
1730865967.9334772,-1.6606212854385376,1.1801331043243408,-9.870457649230957,0.005718930765284646,-0.0036369307917054976,-10.947336556028809,0.17218099245849755,-0.39033427501310186,-2139.220968784586
1730865967.9834714,-1.653437852859497,1.1797866821289062,-9.851520538330078,0.005974687170887793,-0.0038113503735203486,-10.946084325616951,0.17314412827437078,-0.39144351522248577,-2150.0242666868685
1730865968.0334425,-1.653437852859497,1.1797866821289062,-9.851520538330078,0.006230638923034878,-0.003994958587007032,-10.94488762758898,0.17412437795832914,-0.3925646754999743,-2160.876186851014
1730865968.0334425,-1.6758476495742798,1.1824043989181519,-9.821070671081543,0.006488911019316836,-0.004186277247107415,-10.9437540479941,0.17412980861192742,-0.3925708652164471,-2160.9359070773235
1730865968.0835173,-1.7237505912780762,1.1566532850265503,-9.81063461303711,0.006750987651174108,-0.004383770657911876,-10.942691053909243,0.17512547275926463,-0.39370155201323287,-2171.8058627779424
1730865968.1334534,-1.7996176481246948,1.1426687240600586,-9.782665252685547,0.007017555461171757,-0.004585808862563505,-10.94170561750349,0.1761399061905226,-0.3948452319687159,-2182.7204048438816
1730865968.1835039,-1.8628112077713013,1.1092867851257324,-9.77823543548584,0.007288440868610228,-0.004790621116737473,-10.940803770483356,0.17717088483695576,-0.39599914577248724,-2193.648322748006
1730865968.2334023,-1.8774480819702148,1.0935637950897217,-9.79169750213623,0.0075627137323484575,-0.004996280533686726,-10.939990171987134,0.17822502242556293,-0.3971704062016951,-2204.651700963069
1730865968.2834685,-1.8534674644470215,1.108945369720459,-9.822172164916992,0.007838877579757462,-0.005200748920627824,-10.939267864824247,0.17929430441585958,-0.3983498508881687,-2215.6395931520206
1730865968.3333826,-1.7973651885986328,1.1064001321792603,-9.855999946594238,0.008115189142507884,-0.005401994915505635,-10.93863836881293,0.18038502071317386,-0.3995441948050582,-2226.670168931084
1730865968.3833833,-1.749116063117981,1.0848197937011719,-9.900351524353027,0.008390128139884628,-0.005598078027705223,-10.938102124453842,0.18149383344458933,-0.4007495373287876,-2237.7029568930225
1730865968.4334073,-1.6887575387954712,1.0780417919158936,-9.944061279296875,0.008662965659265732,-0.005787091235909568,-10.937659118169194,0.18262863462771073,-0.4019741689577745,-2248.8091383068345
1730865968.4834383,-1.660573959350586,1.0784896612167358,-9.943114280700684,0.008934181126558187,-0.0059670583849570635,-10.937309433964908,0.18378006165683505,-0.40320772157873574,-2259.8906021702273
1730865968.5333052,-1.6808581352233887,1.0688133239746094,-9.9386625289917,0.009205227782268404,-0.0061359660021398695,-10.937053488097773,0.18495196102376044,-0.4044541136739808,-2270.979668858736
1730865968.5834394,-1.6925055980682373,1.0484857559204102,-9.91047477722168,0.009477725647000562,-0.00629190198581968,-10.936891874257597,0.18615533202954052,-0.405724657189924,-2282.172532874051
1730865968.6333168,-1.7340891361236572,1.0040960311889648,-9.874168395996094,0.009752842722095213,-0.006433118960894407,-10.936824934968032,0.1873756703728912,-0.40700367501999796,-2293.327665282093
1730865968.6832635,-1.7513102293014526,0.9668171405792236,-9.831408500671387,0.01003115939864629,-0.006557994831820567,-10.936852108765677,0.188624921653816,-0.4083033274576134,-2304.54861701603
1730865968.7332773,-1.7555934190750122,0.9132131338119507,-9.825553894042969,0.010312699728557199,-0.0066648956143052435,-10.936971201082057,0.18990101327471914,-0.4096209548464587,-2315.8091542497255
1730865968.783267,-1.7511773109436035,0.8991687297821045,-9.808719635009766,0.010596951944748047,-0.006751948840631808,-10.937177853508238,0.19119910297464174,-0.41095110197333756,-2327.0609530753663
1730865968.833155,-1.7669599056243896,0.9138646125793457,-9.811017036437988,0.01088293873654834,-0.006817047863660935,-10.937465158783205,0.19252795488440028,-0.4123022111240861,-2338.3738515972937
1730865968.8833268,-1.7647291421890259,0.9623916149139404,-9.817171096801758,0.011169324831787002,-0.006858284966295093,-10.9378233773504,0.19388472284428335,-0.41367074311655017,-2349.7165508672374
1730865968.9331322,-1.774051547050476,0.9942019581794739,-9.836055755615234,0.011454491606068255,-0.006874432994968982,-10.938240131937569,0.19526545463114556,-0.41505211154725885,-2361.0509484485065
1730865968.9830694,-1.7563841342926025,1.0308074951171875,-9.850176811218262,0.011736635448764224,-0.006865073331867736,-10.938701271192013,0.19667128400042352,-0.4164468515619341,-2372.382352028842
1730865969.0331802,-1.7563841342926025,1.0308074951171875,-9.850176811218262,0.012013945757425936,-0.006830471875696356,-10.939191966584339,0.19811839906584128,-0.41787017500193463,-2383.833876221158
1730865969.0331802,-1.7418923377990723,1.052126407623291,-9.863423347473145,0.012284785770234086,-0.006771520244191879,-10.93969747355088,0.19812755380503652,-0.4178791396639682,-2383.9056533844837
1730865969.0830772,-1.7634446620941162,1.1164103746414185,-9.859697341918945,0.012547794368047462,-0.006689854376600828,-10.940203479126884,0.19958484622978012,-0.41929928186275034,-2395.2237615500003
1730865969.1331055,-1.7613576650619507,1.1499154567718506,-9.857751846313477,0.012801868641273676,-0.006588005433989489,-10.940696411540337,0.20109538363480456,-0.42075701063230714,-2406.7363896131187
1730865969.1830616,-1.7668864727020264,1.152148723602295,-9.854114532470703,0.013046037501224008,-0.006469230708526546,-10.941164072058303,0.2026267109009216,-0.4222199893369916,-2418.189226551476
1730865969.2330203,-1.7597706317901611,1.146106243133545,-9.849930763244629,0.013279340541855453,-0.006336961658907295,-10.941596401727306,0.20420769645694783,-0.4237148336070395,-2429.7926538016254
1730865969.2830868,-1.7832831144332886,1.1196283102035522,-9.831854820251465,0.013500802753942196,-0.006194347934243111,-10.94198577497366,0.20580436504602195,-0.4252085583559827,-2441.2933636950675
1730865969.3329446,-1.7911642789840698,1.0579688549041748,-9.824539184570312,0.013709448465040398,-0.006044093861811093,-10.942326665205712,0.20743114097044632,-0.42671411287157873,-2452.795735979295
1730865969.3830001,-1.793712854385376,1.0126854181289673,-9.833224296569824,0.013904283723703878,-0.0058883443517102115,-10.94261501373459,0.20910640112125115,-0.4282474996544184,-2464.4241144547887
1730865969.432937,-1.793712854385376,1.0126854181289673,-9.833224296569824,0.014084283039224798,-0.005728654524974245,-10.942847505044293,0.2108160332100886,-0.4297947751331007,-2476.0747174165667
1730865969.432937,-1.7517714500427246,1.0202561616897583,-9.849518775939941,0.014248458118879868,-0.005566187791344572,-10.943020936897312,0.21082654159519226,-0.42980423166993414,-2476.145675638196
1730865969.4829564,-1.7155946493148804,1.0792349576950073,-9.881749153137207,0.014396005390122597,-0.005401951618694729,-10.94313206159557,0.21254915067825506,-0.4313451275997148,-2487.6715659895185
1730865969.532836,-1.6973638534545898,1.1483683586120605,-9.885079383850098,0.014526394182133159,-0.005236943439236709,-10.943178024575934,0.2143215400333136,-0.4329117050548242,-2499.318181291611
1730865969.5827827,-1.6990910768508911,1.1914793252944946,-9.90003490447998,0.014639328570220647,-0.005072416481975638,-10.943156993336206,0.21613520915067114,-0.4344954717506357,-2511.024286552474
1730865969.6338701,-1.7048535346984863,1.1952179670333862,-9.894710540771484,0.014734697817390625,-0.004910338496510656,-10.943068500832197,0.2180393094402061,-0.4361377791064399,-2523.095455492918
1730865969.6838133,-1.7279154062271118,1.140415906906128,-9.889106750488281,0.014812535641800857,-0.004753698835029805,-10.942913442151076,0.2199194656543406,-0.43773952112922937,-2534.806567088644
1730865969.7338028,-1.727390170097351,1.0967813730239868,-9.850716590881348,0.014872914332560888,-0.004606301829930077,-10.942693887593045,0.22184653992176798,-0.4393613496919069,-2546.60644141962
1730865969.7837937,-1.7448590993881226,1.0502889156341553,-9.854978561401367,0.014915829345379394,-0.004472089024452546,-10.942412813361234,0.22380016420423843,-0.44098567235955277,-2558.3696343977267
1730865969.8337355,-1.7448590993881226,1.0502889156341553,-9.854978561401367,0.014941151836188608,-0.004354416073715427,-10.942073804437875,0.22579990627764407,-0.44262839874718457,-2570.213712707941
1730865969.8337355,-1.7205950021743774,1.0371060371398926,-9.837763786315918,0.014948672915721889,-0.004255728294279723,-10.941680718030844,0.22580944790539892,-0.4426361899095333,-2570.2697657526314
1730865969.8838043,-1.7205950021743774,1.0371060371398926,-9.837763786315918,0.014938258246840178,-0.004177640402443938,-10.941237316826165,0.22784241949540826,-0.44428617695538125,-2582.116601608389
1730865969.8838043,-1.7044275999069214,1.004769206047058,-9.838481903076172,0.014910041414355127,-0.004121057015732605,-10.940747017953845,0.22785236301550715,-0.4442941991033085,-2582.174084852879
1730865969.9337204,-1.7044275999069214,1.004769206047058,-9.838481903076172,0.014864553522982852,-0.004086135664842217,-10.940212837204117,0.2299136295152351,-0.44594737094120385,-2593.9972680654287
1730865969.9337204,-1.6762114763259888,1.0011883974075317,-9.852025985717773,0.014802801589646813,-0.004072196503523687,-10.939637447067035,0.22992310961922485,-0.44595492989599333,-2594.0512250683346
1730865969.9836867,-1.6762114763259888,1.0011883974075317,-9.852025985717773,0.014726354138069496,-0.004077716248094717,-10.939023279865346,0.23202157654206357,-0.4476186395434054,-2605.9045225523437
1730865969.9836867,-1.6579885482788086,0.9812003374099731,-9.872231483459473,0.014637429812351492,-0.004100396645792737,-10.938372657878123,0.23203115017812964,-0.447626187132666,-2605.9581946925314
1730865970.0337353,-1.6788157224655151,1.0039273500442505,-9.869159698486328,0.014538869405388143,-0.004137276757372145,-10.937687889326911,0.23417339312818572,-0.44930592826266463,-2617.880038024548
1730865970.0836577,-1.7302862405776978,0.9892690777778625,-9.866273880004883,0.014433779345700927,-0.004184984587468795,-10.936971213103174,0.2363681014276691,-0.45100871826741434,-2629.918729774062
1730865970.1336935,-1.7561147212982178,1.0005706548690796,-9.84821891784668,0.014324917542065031,-0.004240094350600012,-10.936224587535417,0.23859328801802945,-0.45271770536481803,-2641.953876270267
1730865970.1836424,-1.7561147212982178,1.0005706548690796,-9.84821891784668,0.014214328142693272,-0.00429937507284212,-10.935449485305831,0.240826511350517,-0.4544163804271167,-2653.8692623223214
1730865970.1836424,-1.7367112636566162,1.0267400741577148,-9.844929695129395,0.014103459299163262,-0.004359908932833447,-10.934646803713619,0.24084123555515394,-0.454427527718786,-2653.947300187265
1730865970.2335315,-1.7292639017105103,1.0034098625183105,-9.847564697265625,0.013993452776202623,-0.004419190237129552,-10.933816879553934,0.24312292454103565,-0.4561472292225777,-2665.961317934747
1730865970.283596,-1.7082710266113281,1.0320013761520386,-9.856908798217773,0.013885374052983249,-0.004475189374342054,-10.932959578633733,0.2454449185046581,-0.4578822369174406,-2678.032178788737
1730865970.3336132,-1.7297741174697876,1.0265306234359741,-9.872505187988281,0.013780377388171249,-0.004526372570795283,-10.932074447000694,0.24781903179781395,-0.4596414931994964,-2690.2204133455093
1730865970.3835676,-1.73284912109375,1.026072382926941,-9.879054069519043,0.013679734504474976,-0.004571698294769119,-10.931160935572391,0.2501966447243432,-0.4613893956483094,-2702.2789566266083
1730865970.4335475,-1.7507237195968628,1.0402652025222778,-9.899032592773438,0.013584655767586717,-0.004610529866612747,-10.930218704058628,0.2526274387857928,-0.4631628557075192,-2714.462103095653
1730865970.4835615,-1.7441734075546265,1.067531943321228,-9.886956214904785,0.013496024140407806,-0.004642526687314874,-10.92924792194919,0.25510069435461513,-0.4649540798610098,-2726.714814385312
1730865970.5335526,-1.7646288871765137,1.0706843137741089,-9.89332103729248,0.01341425493576295,-0.004667646100582887,-10.928249459167644,0.2575929140255004,-0.46674632382870584,-2738.922257170354
1730865970.583584,-1.8092890977859497,1.0768513679504395,-9.85693645477295,0.013339306750395422,-0.00468613365317486,-10.927224985952776,0.26011748715222394,-0.46854953031008423,-2751.152273825432
1730865970.6335008,-1.8451093435287476,1.0780317783355713,-9.835271835327148,0.01327062407227111,-0.004698390538530087,-10.926176960421119,0.2626902869681099,-0.4703751043723905,-2763.4815258800572
1730865970.6835158,-1.8778879642486572,1.068177342414856,-9.794242858886719,0.01320696861117763,-0.004704854997833012,-10.925108367461183,0.2652808926947012,-0.47220160208057926,-2775.765035625135
1730865970.7335863,-1.8792659044265747,1.0619271993637085,-9.761591911315918,0.013146480276647603,-0.004705953932745069,-10.924022242544298,0.26791595215008257,-0.47404795748031475,-2788.1301903731132
1730865970.7835293,-1.8781741857528687,1.0342954397201538,-9.767451286315918,0.013087054222821226,-0.004702055883911391,-10.922921165301105,0.2705678173242005,-0.47589492600496,-2800.4482527449804
1730865970.8334446,-1.8452465534210205,1.0448501110076904,-9.792409896850586,0.01302665826965849,-0.00469344179163327,-10.921806901055492,0.27326062343611573,-0.4777594534707366,-2812.8325609448107
1730865970.8834481,-1.7909832000732422,1.0523160696029663,-9.833215713500977,0.012963471529678807,-0.004680329066351097,-10.920680383205617,0.2759843857022283,-0.47963466332715093,-2825.2374189668703
1730865970.9334626,-1.7380390167236328,1.0403714179992676,-9.891928672790527,0.01289612334091247,-0.004662914331784823,-10.91954211203944,0.2787488333806512,-0.4815272882116877,-2837.707426269068
1730865970.9834626,-1.6841381788253784,1.027842402458191,-9.939653396606445,0.012824177583365182,-0.004641368625564112,-10.918392813802882,0.2815502055872783,-0.483434750375035,-2850.225567825884
1730865971.0333781,-1.598343849182129,1.0370818376541138,-9.97574520111084,0.012748529555806966,-0.0046157746104977145,-10.917234112669702,0.2843674444213004,-0.48534284080573864,-2862.6992768784617
1730865971.083417,-1.5712602138519287,1.0332560539245605,-9.993497848510742,0.01267117165294608,-0.004586095608922487,-10.916069019890251,0.28722161963396037,-0.48726594920081145,-2875.2233540750262
1730865971.133399,-1.550557255744934,1.039259433746338,-9.944525718688965,0.012594450920202945,-0.004552222544764126,-10.914902106390011,0.2901097851131928,-0.48920210088008176,-2887.785261906826
1730865971.1834455,-1.5575945377349854,1.0153611898422241,-9.915091514587402,0.012520499359289124,-0.004514010685152019,-10.9137392746985,0.29303288583323256,-0.49115193571385196,-2900.3895917037917
1730865971.233443,-1.6128383874893188,0.9890211224555969,-9.859123229980469,0.012450971726403482,-0.0044712024774710745,-10.912587180920685,0.2959788563489187,-0.49310744757637126,-2912.985353257831
1730865971.283348,-1.6128383874893188,0.9890211224555969,-9.859123229980469,0.01238678666687811,-0.004423237870587859,-10.911452538103523,0.29895364002313907,-0.4950726298207944,-2925.5992347974966
1730865971.283348,-1.700724482536316,0.9786924719810486,-9.800239562988281,0.012327798450082306,-0.004369076889878308,-10.910341529840995,0.29897361575720854,-0.4950857945847623,-2925.6835889240797
1730865971.3333108,-1.7688379287719727,1.0146944522857666,-9.755945205688477,0.01227257194673623,-0.004307190490516784,-10.909259316530951,0.30196208680537306,-0.4970506255663396,-2938.252696149482
1730865971.3833656,-1.7688379287719727,1.0146944522857666,-9.755945205688477,0.012218610182630719,-0.0042357968989451275,-10.908209511283154,0.30500063010233586,-0.4990389819495349,-2950.9314904496237
1730865971.3833656,-1.8208271265029907,1.02140212059021,-9.763900756835938,0.012162992451628494,-0.00415322349451917,-10.907193790906067,0.30502291610094323,-0.4990535309537208,-2951.0241149097233
1730865971.433279,-1.8208271265029907,1.02140212059021,-9.763900756835938,0.012102749571040983,-0.004058150781925542,-10.906211891732642,0.3080679230351496,-0.5010366560411366,-2963.630971406455
1730865971.433279,-1.8217395544052124,1.0340009927749634,-9.765320777893066,0.012034764645381028,-0.003949685478230443,-10.905261883374632,0.3080876074193278,-0.5010494455167513,-2963.712156623593
1730865971.48329,-1.782911777496338,1.0537012815475464,-9.80487060546875,0.011955696152354811,-0.003827368214784912,-10.904340543890893,0.3111710393240156,-0.5030479391404387,-2976.3815796336708
1730865971.5332751,-1.7525897026062012,1.0612386465072632,-9.85537052154541,0.01186222584403767,-0.0036911345670450303,-10.903443933503636,0.3143042124488967,-0.5050688003079095,-2989.1605739181787
1730865971.5832372,-1.7406247854232788,1.1116029024124146,-9.87990665435791,0.011751506861249613,-0.003541279640411339,-10.902568181710958,0.3174616142538051,-0.5070953111922508,-3001.9454430961837
1730865971.633259,-1.770524501800537,1.115897536277771,-9.90289306640625,0.011621507444031273,-0.0033785775723590913,-10.901710188857534,0.3206626223560819,-0.5091396679476416,-3014.8154794073366
1730865971.683197,-1.7900440692901611,1.1545110940933228,-9.899785995483398,0.011471027677246427,-0.003204450230163255,-10.900868103722079,0.3238630971635295,-0.5111735548109431,-3027.5952319377693
1730865971.7331789,-1.7900440692901611,1.1545110940933228,-9.899785995483398,0.011299466719667754,-0.0030208484332197986,-10.900041768347602,0.32711883547742604,-0.5132322506479021,-3040.509223554874
1730865971.7331789,-1.8505797386169434,1.163799524307251,-9.896068572998047,0.011106536253931265,-0.002829890080420655,-10.89923309424001,0.3271405722090202,-0.5132459607449948,-3040.595158045768
1730865971.783353,-1.8505797386169434,1.163799524307251,-9.896068572998047,0.010891942947714388,-0.002633629898135314,-10.898446085522934,0.33041125540118277,-0.5153035801548437,-3053.485212700267
1730865971.783353,-1.8653908967971802,1.1624170541763306,-9.862640380859375,0.010655057712958082,-0.002434042940296393,-10.897686509827984,0.33043255590763154,-0.515316946209995,-3053.5688995175487
1730865971.8332534,-1.84821355342865,1.119704008102417,-9.858514785766602,0.010394735236319053,-0.0022330075376639554,-10.89696141895629,0.3337069266364355,-0.5173663080929157,-3066.3964289608475
1730865971.8832345,-1.8270213603973389,1.114829421043396,-9.805334091186523,0.01010937000674116,-0.0020321438961984277,-10.896278612991422,0.33702933585379485,-0.5194351016573223,-3079.3395058311894
1730865971.9334147,-1.8270213603973389,1.114829421043396,-9.805334091186523,0.009797152957145536,-0.001832619221730971,-10.895646048329013,0.34040237299270315,-0.5215246726755269,-3092.409571798171
1730865971.9334147,-1.793975830078125,1.0453251600265503,-9.822367668151855,0.009456469649366812,-0.0016351033861365678,-10.895071238394753,0.3404259400775555,-0.5215392347493518,-3092.500651218252
1730865971.9832606,-1.7209333181381226,1.0137131214141846,-9.828447341918945,0.009086387218641554,-0.0014397176129339417,-10.894560862069904,0.3437628632312921,-0.5235959841802327,-3105.3670339105374
1730865972.0332992,-1.7209333181381226,1.0137131214141846,-9.828447341918945,0.008687082213548917,-0.0012458584443277312,-10.89412061122648,0.3471669924777502,-0.5256838596487368,-3118.434353673665
1730865972.0332992,-1.6012029647827148,0.9719731211662292,-9.870986938476562,0.008259965280988052,-0.0010522580525307423,-10.89375496972427,0.3471906838339256,-0.5256983546689014,-3118.525100386516
1730865972.0832047,-1.6012029647827148,0.9719731211662292,-9.870986938476562,0.0078076501114150414,-0.0008573219068854373,-10.893466948621601,0.3505696738249675,-0.5277608957560304,-3131.444510386172
1730865972.0832047,-1.5673483610153198,0.9927900433540344,-9.874567985534668,0.007334120961829659,-0.000659329868893917,-10.893258106155063,0.3505919204270392,-0.5277744436050059,-3131.5294164367506
1730865972.133241,-1.5673483610153198,0.9927900433540344,-9.874567985534668,0.006844814596380436,-0.0004565151679433749,-10.893128761776268,0.35402647517473407,-0.5298613752762521,-3144.6185500228867
1730865972.133241,-1.5617990493774414,1.0194441080093384,-9.915316581726074,0.0063460936804708105,-0.00024727249217272037,-10.89307815431243,0.35405047130712347,-0.5298759235920986,-3144.7098667221076
1730865972.1831715,-1.5617990493774414,1.0194441080093384,-9.915316581726074,0.005844355674561668,-3.04431735700301e-05,-10.893104616179231,0.3574617567392476,-0.5319397952862739,-3157.6774812579597
1730865972.1831715,-1.576568603515625,1.0584110021591187,-9.886327743530273,0.005345454006160879,0.00019445825212266536,-10.893205807195894,0.35748408599117043,-0.531953276675385,-3157.7622727030757
1730865972.2332606,-1.631142258644104,1.0728533267974854,-9.91388988494873,0.004854494794993161,0.0004270645530055022,-10.893378848023254,0.3609483013952498,-0.5340405953838018,-3170.907542939231
1730865972.283102,-1.7173388004302979,1.079965353012085,-9.86382007598877,0.004375677049693286,0.0006660675693379117,-10.893620405083746,0.3644098272545996,-0.5361180410958404,-3184.0261870137897
1730865972.3331964,-1.7173388004302979,1.079965353012085,-9.86382007598877,0.003912260888639003,0.0009094392567141913,-10.893926934116312,0.36792323082873246,-0.5382183701502847,-3197.32932979575
1730865972.3331964,-1.82231605052948,1.1077828407287598,-9.826631546020508,0.003466708035171147,0.001154878971917274,-10.89429495240985,0.36794752389828395,-0.5382328640419863,-3197.421278583182
1730865972.383157,-1.8533849716186523,1.1184059381484985,-9.800682067871094,0.003040666123855038,0.001400077720784014,-10.894721066268204,0.3714048941635301,-0.5402916704826395,-3210.506587534474
1730865972.4330823,-1.8533849716186523,1.1184059381484985,-9.800682067871094,0.002634935419543722,0.0016427660015504468,-10.895201836442062,0.37491402472679347,-0.5423733037925828,-3223.7881938159794
1730865972.4330823,-1.8954871892929077,1.0949914455413818,-9.761144638061523,0.0022497322350278504,0.0018808043597130283,-10.895733686123812,0.37493724014277713,-0.5423870485667052,-3223.876068937213
1730865972.4830406,-1.8989217281341553,1.0262970924377441,-9.779446601867676,0.0018848968692898264,0.002112409793208164,-10.896312813563567,0.3784256706664183,-0.5444483761921446,-3237.0851574786193
1730865972.5331557,-1.8536771535873413,1.0082930326461792,-9.78778076171875,0.0015398415134383957,0.0023365381047504357,-10.896935107702841,0.3819545227692249,-0.5465254761075349,-3250.458374201938
1730865972.5831227,-1.783974289894104,1.004658818244934,-9.84261703491211,0.0012136086801677192,0.0025532060693250246,-10.897596144361714,0.38545942968865693,-0.5485803748140418,-3263.7549861215975
1730865972.6330674,-1.7528783082962036,1.0574264526367188,-9.855023384094238,0.0009051273049301978,0.0027633010296634706,-10.898291177251947,0.3889980538114574,-0.5506467976614834,-3277.19681076807
