Timestamp,IMU_Linear_Acc_X,IMU_Linear_Acc_Y,IMU_Linear_Acc_Z,Filtered_X,Filtered_Y,Filtered_Z,Pose_X,Pose_Y,Pose_Z
1776675622.1573427,0.0,0.0095800785347819,9.79084014892578,0.0,1.721513568979468e-08,0.0,0.0,8.114083579851896e-08,0.0
1776675622.1793597,0.0095800785347819,0.0095800785347819,9.80041980743408,8.60756784489734e-09,1.5210993561359753e-07,8.607190456922935e-09,5.172037075338048e-13,8.172939839684467e-08,5.17181031388457e-13
1776675622.2013497,0.0047900392673909,0.0,9.80521011352539,7.175118388435004e-08,6.691844501999384e-07,8.035565693253959e-08,5.895288047686291e-12,8.236957936969011e-08,6.4157028927814814e-12
1776675622.223349,0.0143701173365116,0.0191601570695639,9.80521011352539,3.0947609254552527e-07,2.0203379821550056e-06,3.769107527365704e-07,3.429949224744235e-11,8.317177709189828e-08,3.9933257341455515e-11
1776675622.2453585,0.0047900392673909,0.0047900392673909,9.78604984283447,9.375882993082632e-07,4.83201877357386e-06,1.191785533320019e-06,1.3800680458368947e-10,8.438766345467668e-08,1.6817563735249792e-10
1776675622.2683477,-0.0095800785347819,0.0,9.78604984283447,2.2459933224793e-06,9.883208058113334e-06,2.8834603652577476e-06,4.5530586466463134e-10,8.662516780468008e-08,5.696391082775045e-10
1776675622.2893424,0.0095800785347819,0.0047900392673909,9.79084014892578,4.527592089765488e-06,1.80413632302436e-05,5.765975514005604e-06,1.13243205218863e-09,9.026904395138436e-08,1.4309802833309303e-09
1776675622.3113723,-0.0047900392673909,0.0095800785347819,9.8100004196167,8.026331509515535e-06,3.0197830350872048e-05,1.0076685470066916e-05,2.5857235041929615e-09,9.693928260640768e-08,3.2719840677768014e-09
1776675622.3333392,0.0047900392673909,0.0,9.80521011352539,1.2940898249189717e-05,4.7255208639824046e-05,1.6057263569486412e-05,5.304582408772241e-09,1.0828436502665938e-07,6.690411560062492e-09
1776675622.3553371,0.0,-0.0095800785347819,9.80521011352539,1.9436873564689164e-05,7.010728749560295e-05,2.405234717117403e-05,9.991312180467604e-09,1.2676591633824127e-07,1.2546750522371334e-08
1776675622.3773906,-0.0143701173365116,0.0047900392673909,9.8100004196167,2.763581077685806e-05,9.95741825428936e-05,3.454011781545314e-05,1.7520257346160396e-08,1.5549059002193714e-07,2.1940819246733292e-08
1776675622.3993413,0.0,0.0,9.78604984283447,3.7576279209196434e-05,0.00013636052668560014,4.8100366299213214e-05,2.897532529036275e-08,1.9841785536602695e-07,3.63104482013009e-08
1776675622.4213414,-0.0047900392673909,0.0191601570695639,9.78604984283447,4.918607086392088e-05,0.00018107682695299866,6.532552603362596e-05,4.568470715633448e-08,2.605702127907967e-07,5.7548560384937776e-08
1776675622.4433672,0.0,0.0,9.78604984283447,6.230732000978337e-05,0.0002342840815807808,8.669728567450082e-05,6.918290067926216e-08,3.480138788369283e-07,8.804071208723072e-08
1776675622.4653404,-0.023950194939971,0.0,9.79562950134277,7.671892818155785e-05,0.00029650166499772893,0.00011252162473169533,1.0103044370913116e-07,4.6733914103935904e-07,1.305041654513839e-07
1776675622.4873435,0.0,-0.0095800785347819,9.79084014892578,9.210482525072627e-05,0.0003681495344481157,0.00014295734916256492,1.4309163072029864e-07,6.268727441959913e-07,1.88421591406909e-07
1776675622.5093784,0.0,0.0047900392673909,9.80521011352539,0.00010804127114663682,0.0004494784958308206,0.00017808066747666,1.9739002586871e-07,8.363697330111072e-07,2.659461316959073e-07
1776675622.5323706,0.0047900392673909,0.0,9.8100004196167,0.00012406939813578365,0.000540564442572163,0.00021795809442422698,2.690644168435865e-07,1.1190612568223202e-06,3.724844225986533e-07
1776675622.5543346,0.0,0.0287402346730232,9.78604984283447,0.00013978328224814541,0.0006413785689537509,0.0002627083243283222,3.5402643012460736e-07,1.4628576076019248e-06,5.04223759655799e-07
1776675622.5763793,-0.0191601570695639,-0.0191601570695639,9.8100004196167,0.00015483971899786156,0.0007518739199987792,0.00031249801110965804,4.571401329979293e-07,1.8923398694649488e-06,6.713116577024282e-07
1776675622.5983381,0.0095800785347819,-0.023950194939971,9.79084014892578,0.0001689014105545197,0.0008719556515000799,0.000367498701362891,5.788928236323321e-07,2.4160129468979523e-06,8.779455946449546e-07
1776675622.6203313,-0.0191601570695639,0.0,9.78604984283447,0.00018160180761172187,0.0010013271790174757,0.00042785435934593433,7.224241402604554e-07,3.0554528339418334e-06,1.1336532326556677e-06
1776675622.642384,0.0,0.0047900392673909,9.80041980743408,0.000192558901864162,0.0011394180629980067,0.0004936152493091482,8.88954166676917e-07,3.826125988137805e-06,1.4458113266470669e-06
1776675622.6643505,0.0191601570695639,0.0095800785347819,9.77647018432617,0.00020143470676904843,0.0012854468512222533,0.0005646183046961726,1.0786928994694827e-06,4.740550617356871e-06,1.820790722120659e-06
1776675622.6863372,0.0095800785347819,0.0,9.79562950134277,0.00020807149894443963,0.0014384686984510301,0.0006403624020497288,1.2924287516948115e-06,5.815672762794989e-06,2.266949504034577e-06
1776675622.7083478,0.0,0.023950194939971,9.80521011352539,0.00021260536372048704,0.0015973880808883407,0.0007199714057275518,1.532424197190153e-06,7.0783888986514e-06,2.7970213831714833e-06
1776675622.730347,0.0047900392673909,0.0,9.79084014892578,0.00021543412130043695,0.0017610063977758989,0.0008022883188007838,1.7982482293290513e-06,8.543858729207845e-06,3.419002459927413e-06
1776675622.7523398,0.0,0.0,9.81478977203369,0.00021711786666009754,0.001928059942436965,0.0008859979534438047,2.091015079232895e-06,1.0237014085906597e-05,4.145055245765359e-06
1776675622.7743356,0.0095800785347819,-0.0095800785347819,9.79084014892578,0.00021832241948097615,0.002097180436169132,0.0009697035636061726,2.41108744495072e-06,1.2179996736835214e-05,4.986143082974368e-06
1776675622.7963586,-0.0095800785347819,0.0,9.79084014892578,0.00021979549673404618,0.002266833449714417,0.0010519549419409067,2.7558776093714084e-06,1.4376194827394915e-05,5.944867310327494e-06
1776675622.818338,0.0,0.0143701173365116,9.79562950134277,0.00022232354121455862,0.0024353336104361595,0.0011312221322173253,3.127562742330138e-06,1.6857662218282053e-05,7.036007601931606e-06
1776675622.8403306,-0.0047900392673909,0.0047900392673909,9.79562950134277,0.00022667262546320545,0.00260094641315773,0.001205879328047105,3.526322448962667e-06,1.964306892014471e-05,8.268200870272758e-06
1776675622.862362,-0.0095800785347819,-0.0047900392673909,9.81478977203369,0.00023355099090101262,0.002761976261727842,0.0012742622459733632,3.953990514887332e-06,2.2760692081086578e-05,9.65389085247102e-06
1776675622.884338,0.0,-0.0047900392673909,9.77647018432617,0.00024356460100710702,0.0029167728995353076,0.0013347613769447413,4.409043193551086e-06,2.6210889378919288e-05,1.1192535598036624e-05
1776675622.9063363,0.0,0.0,9.77647018432617,0.0002571200151089372,0.003063745975842694,0.0013858584687783562,4.89526758330049e-06,3.0029561923543944e-05,1.289874377236653e-05
1776675622.9283447,0.0143701173365116,-0.0047900392673909,9.81478977203369,0.00027433549504831106,0.003201450883764999,0.001426110056305404,5.41351994526532e-06,3.422634372773223e-05,1.4774658678021202e-05
1776675622.9503376,0.0191601570695639,-0.0143701173365116,9.8100004196167,0.00029506363370555215,0.0033286478948554646,0.0014542239530805382,5.96633396719309e-06,3.8819170524298535e-05,1.6825267819132782e-05
1776675622.9723325,0.0143701173365116,0.0,9.81478977203369,0.00031900419482045324,0.0034442775622422553,0.0014692308445561938,6.555803706945426e-06,4.381757758251461e-05,1.905088395488201e-05
1776675622.9943247,-0.0143701173365116,0.0095800785347819,9.80041980743408,0.00034576311303543075,0.003547447053333679,0.0014705707821157433,7.185423975058693e-06,4.923831386490958e-05,2.14540718577787e-05
1776675623.0163429,0.0095800785347819,0.0095800785347819,9.78604984283447,0.00037479198810745124,0.0036374946988860166,0.001458024413406433,7.860475601155739e-06,5.51097204516555e-05,2.4041475472368365e-05
1776675623.0383227,0.0047900392673909,0.0047900392673909,9.81478977203369,0.00040533029455403527,0.003714059751575283,0.0014315819625282855,8.580149623572544e-06,6.14034750437862e-05,2.6793854801728836e-05
1776675623.0603383,-0.0047900392673909,-0.0047900392673909,9.79084014892578,0.00043644111078172513,0.003777069472739222,0.0013913770576585837,9.349294377740273e-06,6.813767214939758e-05,2.9711595565680994e-05
1776675623.0823376,0.0047900392673909,0.0047900392673909,9.8100004196167,0.0004670570270581336,0.003826660360948326,0.0013376935178801399,1.017903902520567e-05,7.538375260259714e-05,3.2816739255386824e-05
1776675623.1043189,0.0,-0.0047900392673909,9.819580078125,0.0004959954912170649,0.003863108884694169,0.0012709865342597328,1.106123832653571e-05,8.304445945909193e-05,3.6058124380723676e-05
1776675623.1263258,0.0095800785347819,-0.0095800785347819,9.8100004196167,0.0005220428017900559,0.003886788249774609,0.0011919415224772823,1.20074383896251e-05,9.119502397150376e-05,3.945745223114163e-05
1776675623.148327,-0.0047900392673909,-0.0095800785347819,9.82437038421631,0.0005441857483285934,0.003898113291045121,0.0011015683868518592,1.302004253250936e-05,9.98326661799554e-05,4.3002078505943356e-05
1776675623.1703203,0.0095800785347819,0.0,9.77647018432617,0.0005618838539210108,0.003897493140535639,0.0010012341078005848,1.4115843696860572e-05,0.00010907821298472139,4.672810844742311e-05
1776675623.192322,0.0,-0.0095800785347819,9.80041980743408,0.0005751917409929517,0.003885334103800355,0.0008925519906089006,1.5244084401592406e-05,0.00011848981537992738,5.0447207696171303e-05
1776675623.2143261,0.0191601570695639,-0.0143701173365116,9.81478977203369,0.0005847352706408598,0.0038620506714034833,0.0007772279265697015,1.6460184311547834e-05,0.00012851862600159964,5.4326696711102054e-05
1776675623.236319,0.0,0.0047900392673909,9.77167987823486,0.000591658231154623,0.003828048858919582,0.0006570139885293626,1.774787517002761e-05,0.00013901617835447892,5.8294333457091774e-05
1776675623.2583268,-0.0095800785347819,0.0,9.80521011352539,0.0005975357565722813,0.003783742216557433,0.0005336804550309798,1.910368835280079e-05,0.00014994360819793574,6.232286596723816e-05
1776675623.2803283,-0.0047900392673909,0.0,9.8100004196167,0.0006042172521884101,0.003729612571342113,0.0004089607387014601,2.054117908978581e-05,0.00016139735675253127,6.643442120566081e-05
1776675623.3023274,0.0047900392673909,0.0047900392673909,9.8100004196167,0.0006136843862715085,0.00366624338689584,0.00028459449122259536,2.2046569634079874e-05,0.00017325234446608048,7.057123601714707e-05
1776675623.3243322,0.0,0.0,9.81478977203369,0.0006280095592992772,0.00359431650394784,0.0001624190328110086,2.3627979833344394e-05,0.00018555367181366376,7.473757397436772e-05
1776675623.3463287,-0.0047900392673909,-0.0047900392673909,9.76688957214355,0.0006493527135380332,0.00351459499483826,4.435426512346051e-05,2.5282004613123796e-05,0.00019824948584196017,7.890489364470358e-05
1776675623.368338,0.0,-0.0095800785347819,9.79562950134277,0.0006798916461173239,0.0034278599543670343,-6.775003467091376e-05,2.702428356234064e-05,0.00021142508508643521,8.309017364036917e-05
1776675623.390322,0.0,0.0,9.8100004196167,0.000721666573386859,0.003334787429294318,-0.0001722527136201818,2.8848701251165255e-05,0.0002249893974493335,8.725422115057474e-05
1776675623.4123192,0.0047900392673909,0.0143701173365116,9.79562950134277,0.0007764227300132839,0.003235857868771677,-0.0002676866683157264,3.076589519747183e-05,0.00023896649085018972,9.139598360168904e-05
1776675623.434327,0.0047900392673909,0.0143701173365116,9.819580078125,0.0008455523441508097,0.003131397667219767,-0.0003526466086135381,3.277500363501028e-05,0.0002532841585695906,9.54872706784552e-05
1776675623.4563255,-0.0191601570695639,0.0,9.78604984283447,0.0009301046135360356,0.003021680730775417,-0.0004257456857543204,3.489547073938327e-05,0.00026800223931569805,9.95395762067761e-05
1776675623.4783294,-0.0047900392673909,-0.0191601570695639,9.76688957214355,0.0010307587649032459,0.0029069291390605347,-0.00048568273518343743,3.7134359581131554e-05,0.00028307737664798555,0.00010353623816560773
1776675623.5003238,0.0047900392673909,0.023950194939971,9.80521011352539,0.0011477964469248534,0.0027872282026891355,-0.0005313939269737456,3.950475215643086e-05,0.00029849495307967356,0.00010747080781449817
1776675623.5223284,0.0143701173365116,0.0,9.79562950134277,0.0012811817150187414,0.002662529229905755,-0.0005621105351235702,4.202004036596407e-05,0.0003142296135100889,0.0001113361740376634
1776675623.5443282,-0.0047900392673909,0.0047900392673909,9.8100004196167,0.0014306970989403033,0.0025327439797692823,-0.0005772458021207866,4.470714342338037e-05,0.00033032497859944795,0.00011514360198524123
1776675623.566318,-0.0143701173365116,0.0095800785347819,9.80041980743408,0.0015959836930232365,0.0023977866813500834,-0.0005762714723737026,4.7580690077635383e-05,0.000346734147923326,0.00011888413685467054
1776675623.5883286,0.0047900392673909,0.0095800785347819,9.80521011352539,0.0017764778865986645,0.0022575753535163698,-0.0005586774099147361,5.0640127438210066e-05,0.00036332440160128255,0.00012253349891137158
1776675623.6103265,0.0047900392673909,0.0191601570695639,9.8291597366333,0.001971399004043996,0.0021120803438370046,-0.0005239677757141813,5.3931497968708345e-05,0.0003802103005248028,0.00012612465903395298
1776675623.6323278,0.0095800785347819,-0.0047900392673909,9.80041980743408,0.002179853596626023,0.001961408012756302,-0.0004716624506106219,5.74782156276441e-05,0.00039736456752719943,0.00012966029677486667
1776675623.6543248,0.023950194939971,0.0,9.80041980743408,0.002400968672656776,0.0018058356762038104,-0.00040135453390894216,6.129788064432963e-05,0.00041472805055650273,0.00013313939670071126
1776675623.6763716,0.0047900392673909,0.0095800785347819,9.81478977203369,0.0026339833108351522,0.0016457702303303043,-0.0003128189940123958,6.54427288300864e-05,0.0004323872190217663,0.00013659224502316462
1776675623.6983256,-0.0047900392673909,0.0047900392673909,9.80521011352539,0.0028782521480307573,0.001481719904927875,-0.00020605140557569988,6.98893961404039e-05,0.0004501048212897292,0.00013998831560116926
1776675623.720325,0.0,-0.0047900392673909,9.79084014892578,0.0031331481644522883,0.0013142989524873765,-8.124245852615935e-05,7.471170845571857e-05,0.00046804235864955054,0.00014337687740035218
1776675623.7423265,0.0,0.0047900392673909,9.81478977203369,0.0033979672704822677,0.0011441956006641094,6.121146200276758e-05,7.992961624324357e-05,0.0004861314702321742,0.0001467647886346406
1776675623.7643244,0.0047900392673909,0.0,9.819580078125,0.00367191740692112,0.0009721263826056423,0.00022072328876042858,8.558293205123057e-05,0.0005043734609353474,0.00015017440855994414
1776675623.7863185,0.0,0.0,9.8100004196167,0.00395415373183333,0.0007988224732606155,0.000396616497022993,9.181442901330066e-05,0.0005230580984951676,0.00015368471537817888
1776675623.8083255,0.0047900392673909,-0.0047900392673909,9.78125953674316,0.004243805188853863,0.0006250175085778857,0.0005881735110794197,9.829467427802493e-05,0.0005411164155040707,0.0001571196368875439
1776675623.8303478,0.0047900392673909,0.0047900392673909,9.80521011352539,0.004539989163862782,0.000451423887474252,0.0007945440542721075,0.0001054336087175828,0.0005596068982695396,0.00016070751963965485
1776675623.85232,0.0143701173365116,0.0,9.81478977203369,0.0048418373944962186,0.0002787383245110124,0.0010146649661820339,0.00011313230411144904,0.0005781223397889978,0.00016440104797154945
1776675623.8743217,0.0047900392673909,-0.0047900392673909,9.80521011352539,0.005148535421858785,0.00010768506655029294,0.0012473027612453955,0.00012141535689912842,0.0005966195779534715,0.00016822250228698858
1776675623.896337,0.0,0.0191601570695639,9.81478977203369,0.005459334301164011,-6.0935304105602976e-05,0.0014911181706262872,0.00013039651372700794,0.0006152395961242481,0.00017223512141482765
1776675623.9183207,0.0,-0.0047900392673909,9.8100004196167,0.005773508476504921,-0.00022620158185248092,0.0017446883848077717,0.0001400148500484375,0.000633754320522014,0.00017642453476793022
1776675623.9403298,0.0143701173365116,0.0047900392673909,9.77167987823486,0.00609031582237938,-0.00038706222881389717,0.0020064932030498584,0.00015054958907765434,0.0006525771556947033,0.00018092526958647542
1776675623.9623342,-0.0095800785347819,0.0143701173365116,9.78604984283447,0.006409007370590768,-0.0005423724320694776,0.0022748148519173804,0.00016146818572167963,0.0006707030930827526,0.00018552689515806991
1776675623.984326,0.023950194939971,0.0095800785347819,9.8100004196167,0.006728848968228944,-0.0006909059091214631,0.002547639065002349,0.00017337110035243282,0.0006890796286055162,0.0001905005495557674
1776675624.0063264,0.0047900392673909,0.0047900392673909,9.81478977203369,0.007049148495198202,-0.0008313409039593587,0.00282274369765562,0.00018610408185933453,0.0007073580941328615,0.00019579763768975102
1776675624.028329,0.0,0.023950194939971,9.82437038421631,0.0073692874545422705,-0.0009622761724068819,0.003097924035329675,0.00019970386652663,0.0007255206271137363,0.00020145063299474054
1776675624.0503273,-0.0047900392673909,-0.0191601570695639,9.77647018432617,0.0076886869954605015,-0.001082267983836017,0.0033711291049004985,0.0002142186536134572,0.0007435649437451533,0.00020749666646720786
1776675624.072324,-0.0095800785347819,0.0095800785347819,9.78125953674316,0.008006718696218306,-0.0011899060719662569,0.0036403830328161644,0.00022966184714893716,0.0007614480764702987,0.0002139580185590679
1776675624.094321,-0.0143701173365116,0.0143701173365116,9.81478977203369,0.008322625542322725,-0.0012838915889120828,0.0039036497503011454,0.00024609537351333066,0.0007791871436148946,0.00022087669935306158
1776675624.1163213,0.0,0.0,9.819580078125,0.008635461208166545,-0.0013630210837381463,0.0041589568997914515,0.0002636047744367053,0.0007968169913030748,0.00022830432006586948
1776675624.138327,0.0,-0.0143701173365116,9.80041980743408,0.008944080161174449,-0.0014261683616990858,0.004404720963323843,0.0002824778446109892,0.0008145463945718269,0.00023637922488137987
1776675624.1603231,0.0047900392673909,0.0095800785347819,9.819580078125,0.00924720557468867,-0.001472359419588803,0.00463991190160221,0.0003018127464750025,0.0008315194629427411,0.00024472675521336636
1776675624.1823225,0.0191601570695639,0.0095800785347819,9.79084014892578,0.009543532410409006,-0.0015008091752702235,0.004863997529438978,0.0003225866145796377,0.0008485876813703297,0.0002537790457486844
1776675624.2043328,-0.0047900392673909,0.0143701173365116,9.79084014892578,0.009831816090871718,-0.0015108434609925124,0.0050768132767806265,0.00034457018902307534,0.0008655021792762274,0.0002634492825121315
1776675624.2263205,0.0047900392673909,0.0095800785347819,9.79562950134277,0.010110896205643156,-0.001501814927500538,0.005278413040983795,0.00036784264593274003,0.0008822890273088492,0.0002737829943350906
1776675624.2483292,0.0047900392673909,0.0,9.82437038421631,0.010379660466162701,-0.0014730965669817598,0.005468996052969073,0.00039209701706102707,0.000898717160103517,0.0002846517822700829
1776675624.2703261,0.0095800785347819,-0.0047900392673909,9.79084014892578,0.010637035851577482,-0.0014241454794594768,0.005648959299703127,0.0004177376726833102,0.0009150525199672313,0.00029624417323859706
1776675624.2923675,0.0143701173365116,-0.0143701173365116,9.80521011352539,0.010882033054089389,-0.0013545996070622305,0.005818930923906526,0.00044475692611973443,0.0009312664607434481,0.00030856527853273443
1776675624.3143227,0.0095800785347819,0.0143701173365116,9.80041980743408,0.011113796844013618,-0.0012643409164720411,0.00597970515889784,0.00047324787139092994,0.0009473963109962171,0.0003216656234789916
1776675624.3363214,0.0,-0.0047900392673909,9.81478977203369,0.011331626350791974,-0.0011534818619291782,0.006132176161203574,0.000503229644754537,0.0009634379315883979,0.00033556187701221953
1776675624.3583264,0.0191601570695639,0.0047900392673909,9.80041980743408,0.011534978097550342,-0.0010223556362155713,0.006277297463657044,0.0005337345154565395,0.000978906180407575,0.0003498077681645785
1776675624.3803215,0.0,0.0,9.78604984283447,0.011723493014313469,-0.0008715741774415135,0.006415994754140664,0.0005668276058832716,0.0009948420130536106,0.0003653754784461211
1776675624.4023325,-0.0047900392673909,-0.0143701173365116,9.78125953674316,0.01189700463424791,-0.0007020825422764253,0.006549022894455959,0.0006006783671853535,0.001010353568980331,0.00038141253192309105
1776675624.4243207,-0.0047900392673909,-0.0047900392673909,9.79084014892578,0.012055466556495854,-0.0005151792018238862,0.006676846306607036,0.0006353860741101623,0.0010255403139980974,0.000397966057233879
1776675624.4463482,0.0047900392673909,0.0095800785347819,9.819580078125,0.01219887246587494,-0.0003124983423253148,0.0067996483962215765,0.0006722427065282413,0.0010409797469109374,0.00041565925116493615
1776675624.4683213,0.0,-0.0047900392673909,9.79562950134277,0.012327252555648564,-9.591688241945492e-05,0.006917476340586409,0.0007104631702910735,0.001056345133364583,0.00043412454732477446
1776675624.4903276,0.0,0.0,9.77647018432617,0.012440704677764598,0.0001325454830567048,0.007030344126102187,0.0007501836948164703,0.0010717150809373649,0.00045343411972405967
1776675624.5123377,0.0143701173365116,0.0143701173365116,9.80041980743408,0.01253941150464496,0.0003707751070172368,0.007138174118943355,0.0007915583347459991,0.0010871693872051644,0.0004736706273105249
1776675624.534321,-0.0095800785347819,-0.0047900392673909,9.80521011352539,0.012623654168237693,0.0006166166599395262,0.007240740107471804,0.0008343343274735222,0.0011026382904950898,0.0004947178463847445
1776675624.556372,0.0,0.0,9.819580078125,0.01269379686017379,0.0008679148334533125,0.0073377630050335,0.0008787710909160957,0.0011182424216233278,0.0005167109285424748
1776675624.5783305,-0.0047900392673909,0.0047900392673909,9.819580078125,0.012750195278548516,0.0011225164764029336,0.007429096232853246,0.0009245661482441092,0.0011339041260335155,0.0005395075432724763
1776675624.600328,-0.0047900392673909,-0.0047900392673909,9.80041980743408,0.012793024349799585,0.0013783037161834485,0.007514911713001997,0.0009719811988257909,0.001149743162736736,0.0005632452455521166
1776675624.622325,-0.0095800785347819,0.0047900392673909,9.79562950134277,0.012822086985748046,0.0016332615883974907,0.007595789250799615,0.0010209640526194954,0.0011657704166462015,0.0005879062135239387
1776675624.644326,0.0,0.0,9.80521011352539,0.01283672549021519,0.001885518147968352,0.007672653747793933,0.0010714883750066516,0.0011820070091474162,0.0006134854310982834
1776675624.6663318,0.0,0.0191601570695639,9.819580078125,0.012835877371757114,0.00213337359740746,0.007746691433958255,0.0011246501717237058,0.001198827462143342,0.0006405510254416305
1776675624.688324,-0.0191601570695639,0.0191601570695639,9.79562950134277,0.012818175799197288,0.0023753627039761766,0.007819343825892434,0.001177153856067515,0.0012152258415212335,0.0006674297179776663
1776675624.7104023,0.0047900392673909,0.0095800785347819,9.81478977203369,0.012782005145546817,0.0026103230723665835,0.007892290072849473,0.001232541285947066,0.0012323439226574983,0.0006959416228328609
1776675624.7323294,0.0,0.0,9.819580078125,0.012725556650409491,0.0028373856259500843,0.007967393678194044,0.001288788018132186,0.0012495817171309439,0.0007250591707283407
1776675624.7543607,0.0191601570695639,0.0047900392673909,9.79562950134277,0.012646952506788862,0.003055877515608388,0.008046675454963601,0.0013472210598708984,0.001267375688623644,0.0007554828263559443
1776675624.7763255,0.0,0.0143701173365116,9.80521011352539,0.012544387837529255,0.0032652421711240626,0.008132257304135275,0.0014074322295210841,0.0012856284824030607,0.0007870198643343167
1776675624.7983286,-0.0143701173365116,-0.0095800785347819,9.79084014892578,0.012416182822136811,0.003465026454573399,0.008226243092482311,0.0014684224575240335,0.0013040669550553935,0.0008191628324799911
1776675624.8203285,0.0047900392673909,0.0095800785347819,9.8100004196167,0.012260753596141549,0.0036548689063828697,0.008330577708775884,0.0015322000552875574,0.0013233272254785412,0.0008529942882042538
1776675624.842321,0.0,0.0047900392673909,9.79084014892578,0.012076673784283287,0.0038344847091170437,0.00844683773133392,0.0015968717965115433,0.0013428660425716396,0.000887537903429225
1776675624.8643308,0.0191601570695639,0.0,9.79562950134277,0.011862876680403613,0.004003691045735595,0.008575971097378062,0.001661297950877179,0.0013623661438403397,0.0009221996220433042
1776675624.8863273,0.0,0.0,9.79084014892578,0.01161881919026166,0.004162419028659731,0.008718147641424282,0.001728330446130504,0.0013827185295627095,0.0009585422952505211
1776675624.9083285,0.0047900392673909,-0.0047900392673909,9.79084014892578,0.011344494839186096,0.004310675289165539,0.008872774840592691,0.0017969186427236824,0.0014036341521453401,0.000996039704881708
1776675624.9303207,0.0,0.0,9.819580078125,0.011040348358535243,0.004448500006682996,0.009038610973457635,0.0018667635463950592,0.0014250499228860237,0.0010345673448067618
1776675624.9523249,0.0095800785347819,-0.0047900392673909,9.80041980743408,0.01070718929487732,0.004575948228933955,0.009213942745533311,0.0019379130969444142,0.0014470081233968893,0.0010741927495273426
1776675624.974486,-0.0095800785347819,0.0,9.78604984283447,0.010346140043889819,0.004693086869041834,0.009396738293064427,0.002012157084267733,0.0014700953135188969,0.0011159736316624386
1776675624.9963222,0.0,0.0047900392673909,9.77647018432617,0.009958574793377108,0.004800005033980069,0.009584652845340654,0.0020840696966756543,0.0014926448542141285,0.0011568878895153072
1776675625.0183618,0.0095800785347819,0.0143701173365116,9.79562950134277,0.009546055630113983,0.004896852741003761,0.009774961153616086,0.0021593117622676406,0.0015164541900078818,0.0012001942431574737
1776675625.0403302,-0.0047900392673909,0.0,9.82437038421631,0.009110318528586812,0.004983894607882785,0.009964618222517128,0.0022349243257253396,0.001540620045448282,0.0012442554334074342
1776675625.0624492,0.0095800785347819,0.0047900392673909,9.78604984283447,0.008653284495792439,0.005061519577991439,0.010150497266834061,0.0023125070686638807,0.0015656818326361093,0.0012900598311378288
1776675625.0844026,-0.0047900392673909,0.0,9.78604984283447,0.008177065968893634,0.005130195927274014,0.01032963754022486,0.0023904864775564838,0.001591159645559397,0.0013367367896381756
1776675625.1063766,0.0047900392673909,0.0,9.80521011352539,0.007683973268790103,0.00519042337053951,0.010499368365795566,0.002469151552846088,0.0016171697870288626,0.0013845042684190686
1776675625.128378,-0.0143701173365116,0.0143701173365116,9.79084014892578,0.007176486443927106,0.00524271769220589,0.010657365215041351,0.0025493026870591334,0.0016440056726199836,0.001433909158545901
1776675625.1504166,-0.0095800785347819,0.0,9.819580078125,0.006657172130036813,0.0052876317531124675,0.01080170322686705,0.0026303003756854085,0.0016714836561125064,0.0014846221784344555
1776675625.1723964,0.0,0.0,9.78125953674316,0.006128597711975697,0.005325768345963839,0.010930886179462572,0.002711715455212752,0.0016994823134917631,0.001536425689386959
1776675625.1943872,-0.0047900392673909,0.0,9.81478977203369,0.005593308757107163,0.005357742902279923,0.01104381962119149,0.002793832023174829,0.001728123138024589,0.001589550414706495
1776675625.216393,-0.0047900392673909,-0.0191601570695639,9.78604984283447,0.005053847476710485,0.005384121296923781,0.011139749637579254,0.002876715744291324,0.0017574560743876786,0.001644095358193238
1776675625.2383802,0.0,-0.0143701173365116,9.80041980743408,0.004512749794201006,0.005405345904472308,0.011218207445924708,0.00296035374873561,0.0017875049309066253,0.001700110722381027
1776675625.2603745,-0.0095800785347819,0.0143701173365116,9.80041980743408,0.003972524262813809,0.005421691383493869,0.01127896375078487,0.0030442976558122223,0.0018181340993637296,0.0017573478153404863
1776675625.2823675,-0.0143701173365116,0.0047900392673909,9.78125953674316,0.003435615817230508,0.005433341000205412,0.01132199179779063,0.003128674062485508,0.0018494133448021105,0.001815939571518845
1776675625.3053813,0.0,0.0,9.8100004196167,0.0029043441863607915,0.0054405127157930505,0.01134740370936604,0.0032173593010998355,0.0018828411121155793,0.001878704617064677
1776675625.3263726,-0.0095800785347819,-0.0095800785347819,9.82437038421631,0.0023808517180902568,0.005443466707824623,0.011355360536998784,0.0032991622351594666,0.001914192394126108,0.0019377028591722426
1776675625.3483696,-0.0143701173365116,-0.0047900392673909,9.81478977203369,0.0018670685038757204,0.005442407858444869,0.011346047145467745,0.0033842022540399065,0.0019473298112543333,0.002000192841771744
1776675625.3703735,-0.0095800785347819,-0.0143701173365116,9.8100004196167,0.001364671183511069,0.00543740792299852,0.011319698091341712,0.0034698561817481915,0.0019812875721246736,0.002064359601617704
1776675625.3923771,0.0047900392673909,0.0,9.81478977203369,0.0008750757447683492,0.00542838845737098,0.011276584655328978,0.0035555964260821768,0.0020158831882324305,0.00212985653720244
1776675625.414374,0.0143701173365116,0.0095800785347819,9.79562950134277,0.00039951964161093765,0.0054151642059488275,0.011216969045220137,0.0036413773051473543,0.002051119518634613,0.002196685213932957
1776675625.436377,0.0143701173365116,0.0,9.81478977203369,-6.0802724674581293e-05,0.005397537332351067,0.011141061424004287,0.003727238515931583,0.0020870345199914867,0.0022649130075792136
1776675625.458372,0.0,0.0,9.819580078125,-0.0005046555619861031,0.00537536479945889,0.011049018619364102,0.003813053455811871,0.002123596244271815,0.002334473732477079
1776675625.4803731,0.0,-0.0047900392673909,9.79562950134277,-0.0009307904791926959,0.0053485461685165245,0.010940995463620196,0.0038985489891028373,0.0021607048388231653,0.0024051705410970603
1776675625.5023785,0.0095800785347819,0.0,9.79562950134277,-0.001338028002529114,0.005316982728039189,0.010817145484507774,0.00398424256444148,0.0021986045194606557,0.002477461552305178
1776675625.5243728,-0.0143701173365116,-0.0143701173365116,9.80041980743408,-0.001725305351399773,0.0052805515248035804,0.010677539872114953,0.0040695954283075046,0.002237076343439522,0.0025509213388151724
1776675625.5463712,0.0191601570695639,0.0,9.78125953674316,-0.002091682039608682,0.005239083763506592,0.01052211711698832,0.0041547578694131546,0.0022762024299762445,0.00262569769910776
1776675625.5683777,0.0191601570695639,0.0,9.78604984283447,-0.0024362622217065253,0.0051923644198566985,0.010350689490211545,0.004239810360431292,0.0023160368992691796,0.0027018846989912905
1776675625.5903761,-0.0143701173365116,0.0143701173365116,9.80041980743408,-0.002758055929469172,0.005140188623255509,0.01016297193149791,0.004324477568839404,0.0023564649781409883,0.0027792526156395253
1776675625.6123722,0.0,-0.0047900392673909,9.8100004196167,-0.0030559709648728286,0.0050824397018968655,0.00995866839747252,0.004408578266987029,0.002397407431061845,0.0028576386241974177
1776675625.634383,0.0047900392673909,0.0191601570695639,9.80521011352539,-0.0033289330512515742,0.005019124359994481,0.009737605932017848,0.004492580125688903,0.002439102490025634,0.002937487121633156
1776675625.656452,-0.0047900392673909,0.0047900392673909,9.79084014892578,-0.003575941214573215,0.004950379587929106,0.009499808547245747,0.004576326856736914,0.002481486755220569,0.0030186643272887004
1776675625.6784506,-0.0095800785347819,0.0143701173365116,9.80041980743408,-0.0037960718073302546,0.004876485550875198,0.00924545876417889,0.004659266778141422,0.002524283819333228,0.003100627576711044
1776675625.7004802,0.0,0.0143701173365116,9.819580078125,-0.003988520644059342,0.004797870395231432,0.008974850273272219,0.00474206918620913,0.002567842381319705,0.0031840304972186274
1776675625.7224524,0.0,0.0,9.81478977203369,-0.004152629565746115,0.0047150951347162745,0.00868844116036344,0.004823808854517493,0.002611673693306103,0.0032679224359646805
1776675625.744451,-0.0047900392673909,0.0,9.79562950134277,-0.0042878649629799846,0.004628800211833659,0.008386927163694487,0.004905327160536376,0.002656224110976338,0.0033531418661828377
1776675625.7664492,0.0,0.0047900392673909,9.83395004272461,-0.004393803070635633,0.004539624435347861,0.00807122760041195,0.004986367310794222,0.002701355841383166,0.003439407869612808
1776675625.7884514,0.0,0.0143701173365116,9.80521011352539,-0.0044701426479289786,0.004448178920646153,0.007742478988372179,0.0050666762162432395,0.002746920831407367,0.0035264195847335895
1776675625.8104448,-0.0047900392673909,0.0095800785347819,9.80041980743408,-0.004516736371729431,0.004355106760730131,0.007402095385956791,0.005146605081935779,0.002793110899141239,0.003614524181153934
1776675625.832448,0.0,0.0095800785347819,9.80521011352539,-0.004533637640567397,0.004261150135817021,0.0070517768352404775,0.005225840857209671,0.0028397363165702265,0.003703339594972493
1776675625.8544521,-0.0047900392673909,0.0095800785347819,9.78125953674316,-0.004521129643281753,0.004167158295567579,0.0066934261308496295,0.005304872164743777,0.0028870765194063883,0.0037933763479123354
1776675625.876451,0.0095800785347819,0.0095800785347819,9.79084014892578,-0.00447970876094189,0.0040740581082677856,0.006329027396739472,0.005383189634144841,0.0029348158983826113,0.003884011503509926
1776675625.8984466,0.0047900392673909,0.0,9.82437038421631,-0.0044100292878840475,0.003982818967397371,0.005960566817920932,0.005461000632921721,0.0029830634253663305,0.003975429134511556
1776675625.9204507,0.0,-0.0047900392673909,9.80521011352539,-0.0043128460255069485,0.003894396082029733,0.005590089062415196,0.005538051200501997,0.0030316413598118668,0.004067269132783994
1776675625.9424434,0.0,0.0095800785347819,9.79084014892578,-0.0041890030396274135,0.00380966471485751,0.005219782018857112,0.0056146781970147636,0.003080740953619989,0.004159868648331593
1776675625.9644504,0.0,0.0,9.79562950134277,-0.004039457358619875,0.0037294035198885706,0.004851912266038136,0.00569080568097715,0.0031302943513126427,0.004253073542527959
1776675625.9864557,0.0095800785347819,0.0,9.81478977203369,-0.003865280308186769,0.003654315487496515,0.0044887077487085385,0.0057667338288623585,0.0031804789667267998,0.004347189468656877
1776675626.008461,0.0143701173365116,0.0,9.80041980743408,-0.0036676096448050722,0.003585024632133736,0.004132352006049653,0.005841980038677035,0.003230953036737795,0.004441548055361729
1776675626.0304585,0.0,0.0095800785347819,9.77167987823486,-0.0034475905912309864,0.0035220779963223677,0.003784995657799102,0.005916735388315831,0.003281815573690312,0.004536308497239128
1776675626.0524585,-0.0047900392673909,-0.0095800785347819,9.79562950134277,-0.003206389921257308,0.003466008127715639,0.003448648966365901,0.005991182564229742,0.003333165162682042,0.004631626281307995
1776675626.0744538,0.0,0.0,9.8100004196167,-0.002945284741971585,0.0034173944683176596,0.0031250867378018847,0.006065284663339238,0.003384950741988723,0.004727377576359469
1776675626.0964572,0.0,0.0191601570695639,9.78604984283447,-0.002665718817888892,0.003376880002264069,0.0028159026796729875,0.006138938751426474,0.003437071044338089,0.004823347476607231
1776675626.1185856,0.0047900392673909,0.0047900392673909,9.79084014892578,-0.002369278905806273,0.003345209942669369,0.002522569499741613,0.006212780495736659,0.003489951687454546,0.004920287831890783
1776675626.140448,0.0143701173365116,0.0,9.80041980743408,-0.002057629217883787,0.00332326706121431,0.0022464042080332204,0.006285491621462345,0.003542614582891818,0.005016380610971724
1776675626.1624491,0.0,0.0095800785347819,9.8100004196167,-0.0017324412067089893,0.0033120261792244925,0.0019885653692946394,0.006358361895508511,0.0035959581441771886,0.00511324081308321
1776675626.1845784,0.0,0.0,9.79562950134277,-0.0013953675460747293,0.0033124878888133747,0.0017501249187973713,0.006431471803201271,0.003650020628886542,0.005210900893177394
1776675626.206458,-0.0191601570695639,0.0047900392673909,9.79562950134277,-0.0010480926512294114,0.0033256470697090833,0.0015320991216841882,0.006503688097172685,0.0037039309627274596,0.0053077617201632826
1776675626.2284484,0.0143701173365116,0.0,9.819580078125,-0.0006924001498536086,0.003352465480472165,0.0013354229863029928,0.0065761842854615725,0.003758531980630411,0.005405312011706811
1776675626.2505853,0.0047900392673909,0.023950194939971,9.8100004196167,-0.00033015054374225194,0.0033938610564511183,0.001160976029449255,0.006649136002555106,0.003813936069867454,0.005503712116888823
1776675626.2724457,0.0,-0.0047900392673909,9.8100004196167,3.6821442075671065e-05,0.0034507029189831655,0.0010096298061515955,0.006720968054891518,0.003868914220082369,0.005600756341092585
1776675626.294463,0.0,0.0095800785347819,9.81478977203369,0.00040676883122726666,0.003523686497707844,0.0008821799020315163,0.006793410808459598,0.00392475987273506,0.005698703412560769
1776675626.316456,0.0047900392673909,0.0191601570695639,9.80041980743408,0.0007780332488187119,0.003613121439929887,0.0007791979554953697,0.006865814825610272,0.003980951660025203,0.0057966017296372935
1776675626.3384519,0.023950194939971,0.0,9.79562950134277,0.0011490713412268816,0.003718850586575986,0.0007009210316947152,0.0069383418218622005,0.004037591270953731,0.005894598369941221
1776675626.3604486,0.023950194939971,0.0047900392673909,9.79084014892578,0.0015185455632817468,0.0038402900306564783,0.0006471828369799025,0.007011235563730901,0.004094849310030278,0.005992953687021225
1776675626.38346,0.0047900392673909,0.0095800785347819,9.8100004196167,0.0018854081294908827,0.0039764554901460135,0.000617390118490776,0.0070877481227755255,0.004155284159685812,0.0060959746366824495
1776675626.4044518,0.0095800785347819,0.0047900392673909,9.82437038421631,0.0022488747012472925,0.004126002818301187,0.0006106068090181742,0.007157237014526292,0.004210449005700695,0.006189291128138965
1776675626.4264464,0.0,0.0,9.80521011352539,0.002608313293265219,0.004287293159468072,0.000625720181654346,0.007230675675022291,0.004269017559322375,0.006287599818145884
1776675626.4484499,0.0047900392673909,0.0047900392673909,9.80521011352539,0.002963152886328576,0.004458431081288778,0.0006615412787314994,0.007304624028119423,0.0043282533113373975,0.006386216825158608
1776675626.4714577,0.0143701173365116,0.0,9.79562950134277,0.0033128528812137875,0.004637292401482139,0.0007167752486280849,0.00738230174084631,0.004390740001151366,0.0064893535254023724
1776675626.4925902,0.0,-0.0047900392673909,9.80041980743408,0.0036569202366105646,0.004821560311380569,0.0007899548973704308,0.007453883100457906,0.0044485468402485195,0.006583946177071161
1776675626.5144548,0.0,0.0,9.78604984283447,0.003994915195597131,0.005008763943332167,0.000879434334821512,0.007528592667687056,0.004509094428207435,0.006682176045395614
1776675626.5364487,0.0,0.0095800785347819,9.80521011352539,0.00432640850057361,0.005196366010936654,0.0009834854677606875,0.007604188981591722,0.004570569444227175,0.006781024166492573
1776675626.558447,-0.0047900392673909,-0.0047900392673909,9.79562950134277,0.00465093669663792,0.005381904013578905,0.0011004677534448973,0.0076804827209176795,0.004632810440000749,0.006880198554352912
1776675626.5804534,0.0047900392673909,0.0287402346730232,9.81478977203369,0.004967990812072429,0.0055631020075152145,0.0012289676472272114,0.00775793814647451,0.004696189351236936,0.0069802582080170025
1776675626.6024501,0.0,0.0143701173365116,9.79084014892578,0.005277033532382764,0.005737951665051301,0.0013678502770068915,0.007834474429248645,0.00475899075184448,0.007078494293225283
1776675626.6244504,0.0047900392673909,0.0,9.80041980743408,0.0055775317610318,0.005904770466028911,0.0015162315643004838,0.007912600926671839,0.0048232619778729785,0.007178105060458571
1776675626.6464512,0.0,0.0095800785347819,9.80041980743408,0.005868980327877691,0.006062162144806989,0.0016734088669132924,0.007991308255195428,0.004888165447579534,0.007277765891001572
1776675626.6684525,0.0,0.0431103520095348,9.8100004196167,0.006150904977914693,0.006208959085299557,0.0018388260290120553,0.008070651726707331,0.004953735994842683,0.007377525099591448
1776675626.6904519,0.0,0.0143701173365116,9.81478977203369,0.006422852034497657,0.006344287701330202,0.002012102405725481,0.00815099976405522,0.005020267833980113,0.007477822187358212
1776675626.7124512,0.0095800785347819,0.0,9.80521011352539,0.0066843883939716265,0.006467625326339897,0.0021930726869948828,0.008231772328981401,0.0050872693499449725,0.007577915966785487
1776675626.734466,0.0047900392673909,0.0143701173365116,9.77647018432617,0.006935131800287845,0.0065786940746808565,0.0023817492026011263,0.008313484061164868,0.005155155384623838,0.007678431559766207
1776675626.7564557,0.0095800785347819,-0.0095800785347819,9.82437038421631,0.007174776295916865,0.006677316500169749,0.0025781843729162364,0.00839602237973299,0.005223820663324234,0.007779216053253894
1776675626.7784503,0.0047900392673909,-0.0095800785347819,9.8291597366333,0.007403057281491394,0.00676333951972956,0.002782379184567718,0.008479563388294257,0.0052933994745922,0.00788047285655101
1776675626.8004835,0.0095800785347819,0.0,9.82437038421631,0.007619678645029307,0.006836582744518962,0.0029943394532733723,0.008564111975148206,0.005363883396529325,0.007982197497141087
1776675626.822448,-0.0047900392673909,0.0,9.78125953674316,0.007824264561025585,0.006896829686509469,0.00321411478434289,0.008649450826386334,0.005435078057779014,0.008084124581352974
1776675626.8444507,-0.0095800785347819,0.0143701173365116,9.8100004196167,0.008016324252452661,0.006943889908408789,0.0034416717225369984,0.008735864105574956,0.005507206946638993,0.008186592301289488
1776675626.8664503,0.0,-0.0047900392673909,9.80041980743408,0.008195206735236764,0.006977673264853973,0.0036767482952371026,0.008823218019564092,0.005580144588477137,0.008289442423388207
1776675626.8884523,0.0047900392673909,0.0047900392673909,9.80521011352539,0.008360103663378258,0.0069982088890101785,0.003918849603223086,0.008911517750059307,0.0056538811962050265,0.008392686633642297
1776675626.91045,-0.0095800785347819,-0.0143701173365116,9.78604984283447,0.008510114577972957,0.007005599777063153,0.004167294433771903,0.00900106529218413,0.005728654706947534,0.008496683441085034
1776675626.9334722,0.0095800785347819,0.0,9.79562950134277,0.008644299827701908,0.006999957660639596,0.004421201431406849,0.009095777768217883,0.005807720147953894,0.008605942548500044
1776675626.954462,0.0047900392673909,0.0095800785347819,9.80041980743408,0.008761718118384606,0.006981382188879734,0.0046794673147962885,0.009182762524201615,0.005880303284812837,0.008705655495684554
1776675626.97645,0.0,0.0,9.8100004196167,0.008861480704828955,0.006950012398196153,0.004940820526987298,0.009275502090322128,0.005957642403190881,0.008811338677390085
1776675626.9984493,0.0,0.0095800785347819,9.8100004196167,0.008942788902741163,0.006906095834900237,0.005203929755080618,0.009369110564948744,0.006035646058708231,0.008917397292159974
1776675627.0214505,0.0095800785347819,0.0,9.81478977203369,0.009004974165733192,0.006850033017718788,0.00546748888438379,0.009468095288199958,0.006118051976816712,0.009028922456571156
1776675627.042448,0.0143701173365116,0.0047900392673909,9.8100004196167,0.00904759143182119,0.006782404644168888,0.005730250799368286,0.009559489338695432,0.00619405825310969,0.0091313671544124
1776675627.0644453,0.0,0.0,9.78604984283447,0.009070504770148874,0.006703966495458029,0.005991008746212853,0.009656352953879942,0.006274519585556139,0.009239435413770885
1776675627.086454,-0.0047900392673909,0.0143701173365116,9.79084014892578,0.009073870593279347,0.0066156254881672115,0.0062485075984875585,0.009754319382904076,0.006355790954108287,0.009348249748094804
1776675627.1094484,0.0,-0.0047900392673909,9.79084014892578,0.009058038282828475,0.006518430043774665,0.006501339801389683,0.00985791145692506,0.006441605706557044,0.009462834928978077
1776675627.1304493,-0.0095800785347819,0.0047900392673909,9.79084014892578,0.009023463595691802,0.006413546804198987,0.006747920065004043,0.009953637081599116,0.006520785772221039,0.009568327611597757
1776675627.1534557,0.0047900392673909,0.0143701173365116,9.78604984283447,0.008970672631396902,0.006302221654167302,0.0069865230100013085,0.01005937105661449,0.006608107167001829,0.009684465615461862
1776675627.1744485,-0.0095800785347819,-0.0047900392673909,9.80521011352539,0.008900256180632534,0.006185770873656917,0.007215330843253925,0.010156924884943033,0.006688542274653917,0.00979130516452203
1776675627.19645,0.0047900392673909,0.0095800785347819,9.79562950134277,0.008812872661112678,0.006065572082049106,0.007432506261236451,0.010260463122336076,0.006773772219430389,0.009904417865454257
1776675627.2184532,0.0,-0.0047900392673909,9.80041980743408,0.008709253951958625,0.00594302062955796,0.007636277306695637,0.010364733972193034,0.006859459386193314,0.010018084891462688
1776675627.241453,0.0143701173365116,0.0,9.79084014892578,0.008590230778612196,0.00581949159769912,0.007824975378125303,0.010475243751058684,0.006950114490204004,0.010138333396507493
1776675627.2624452,-0.0047900392673909,0.0143701173365116,9.78604984283447,0.00845676570231186,0.005696350050275385,0.007997015775787684,0.010576923430822442,0.00703338336401393,0.010248815214672226
1776675627.2845922,-0.0047900392673909,0.0047900392673909,9.8100004196167,0.008309936122284589,0.005575019304610132,0.008150872733457482,0.01068530068758288,0.007121990008632045,0.010366451091990726
1776675627.3064508,0.0095800785347819,0.0095800785347819,9.79562950134277,0.008150870680901782,0.005457041604260209,0.00828511461584195,0.010793010961566443,0.007209905693230483,0.010483276947284504
1776675627.3294566,-0.0047900392673909,0.0143701173365116,9.78125953674316,0.007980720018432879,0.005344075567098766,0.008398455277245247,0.010907583377966334,0.007303269883369316,0.010607493748835356
1776675627.3504794,0.0095800785347819,-0.0047900392673909,9.80041980743408,0.00780066991215997,0.005237861441913128,0.00848972806595608,0.011012990760962698,0.007389033965465832,0.010721760477856866
1776675627.3724487,0.0,0.0,9.80041980743408,0.007611947146201382,0.005140155093841963,0.00855785470714333,0.011124418963348719,0.007479569072770405,0.010842574526753612
1776675627.3944569,0.0,0.0,9.79084014892578,0.007415810492594594,0.005052636221072129,0.008601887650364619,0.011236612369115018,0.007570604040555053,0.010964270549702912
1776675627.4164512,0.0191601570695639,-0.0095800785347819,9.79562950134277,0.007213542042470724,0.004976847484590595,0.008621041013658055,0.011349719410817215,0.0076622691571150495,0.011087039400851142
1776675627.4384503,0.0,0.0,9.819580078125,0.007006464730148578,0.004914164969460072,0.008614694175802583,0.01146386129099958,0.007754674055224604,0.011211040540144863
1776675627.4614496,0.023950194939971,0.0047900392673909,9.8100004196167,0.00679597322036048,0.0048657913646325155,0.008582458104147112,0.011583969512796272,0.00785181907029833,0.011341666134020753
1776675627.4824507,0.0,0.0047900392673909,9.79084014892578,0.006583549875500586,0.004832790106234819,0.008524238036538475,0.011694542252971547,0.007941186370069605,0.011462068605835108
1776675627.5044491,0.0047900392673909,0.0,9.79084014892578,0.006370767796248074,0.004816115198284591,0.008440141506445661,0.011811014722049732,0.008035273607780094,0.011589064538480381
1776675627.5265815,0.0,0.0,9.8100004196167,0.006159265565659713,0.004816589712150145,0.008330312075799904,0.011928933424190583,0.008130499306772768,0.011717827055634811
1776675627.5485861,0.0047900392673909,0.0,9.8100004196167,0.005950702530525711,0.004834866885158789,0.008194895689943207,0.012046994797819222,0.008225832418409714,0.011846945871734188
1776675627.5704472,-0.0047900392673909,0.0047900392673909,9.79562950134277,0.005746723896799144,0.0048714200531038065,0.008034119974582206,0.012164777021839785,0.0083209556712001,0.011975964955387174
1776675627.5924451,0.0047900392673909,-0.0047900392673909,9.79084014892578,0.005548930257119632,0.004926557270207757,0.007848309117042302,0.012285328264674813,0.008418356664499357,0.012108231891975105
1776675627.6144462,0.0047900392673909,0.0047900392673909,9.80041980743408,0.0053588598595150135,0.005000430969671203,0.007637813720918902,0.012404336628411606,0.008514577803678997,0.0122390171904778
1776675627.6364512,-0.0143701173365116,0.0047900392673909,9.80041980743408,0.005177981917088795,0.005093047691038157,0.007402976937810929,0.012524889437356771,0.008612142417429162,0.012371707980277258
1776675627.6595826,0.0,0.023950194939971,9.8100004196167,0.005007656349082859,0.005204316565299769,0.0071441791333527955,0.012652957973986877,0.008715924840637046,0.01251289003262872
1776675627.6804442,0.0143701173365116,0.0,9.80041980743408,0.004849100000006443,0.005334125854190255,0.00686190128320861,0.012768087653284622,0.00880936701100268,0.012639988155958506
1776675627.702447,-0.0047900392673909,0.0095800785347819,9.79084014892578,0.004703431995911011,0.005482369215858217,0.0065567388707905,0.012890538695074037,0.008908932010195466,0.01277533748295642
1776675627.724447,0.0095800785347819,0.0143701173365116,9.8100004196167,0.0045716953641192415,0.005648894559989975,0.0062293606268756605,0.013013883508155816,0.00900944178806739,0.012911828621639627
1776675627.7464476,0.0,0.0,9.79084014892578,0.004454733468522254,0.005833417991633295,0.005880481166510336,0.013137063889288605,0.009110066371267425,0.013048265753074202
1776675627.7684536,0.0143701173365116,0.0047900392673909,9.78125953674316,0.004353022319388049,0.006035422167241171,0.005510845712635872,0.013261013340280086,0.009211601040506605,0.013185653334862575
1776675627.790452,-0.023950194939971,0.023950194939971,9.79562950134277,0.004266592491936903,0.006254098749634415,0.005121169281302558,0.013385927939012863,0.009314243625032588,0.013324176076231587
1776675627.812447,0.0,0.0191601570695639,9.83395004272461,0.00419499816321794,0.006488415238582717,0.004712132654420007,0.013511016302176623,0.009417379473848497,0.013462918776665202
1776675627.833472,-0.0047900392673909,0.0191601570695639,9.81478977203369,0.004137305272544939,0.006737239334200771,0.00428454280416761,0.01363105998161452,0.0095167147934439,0.013596052735290857
1776675627.8574522,-0.0143701173365116,0.0,9.78604984283447,0.004092147996611868,0.006999385876048431,0.0038394758968194535,0.013768573275510673,0.009630974771945654,0.013748491886257727
1776675627.8784616,0.0191601570695639,0.0,9.80521011352539,0.004057825564590786,0.007273558827691058,0.0033782013278706334,0.013889293084671708,0.009731721845681713,0.013882209374075602
1776675627.900495,-0.0047900392673909,0.0,9.80521011352539,0.004032419437805119,0.0075582652416211,0.0029020326384259316,0.014016753288842668,0.009838573974825618,0.01402323324669636
1776675627.9224503,-0.0191601570695639,0.0143701173365116,9.79084014892578,0.00401388776871861,0.007851797007576228,0.002412290301073949,0.014144197696017137,0.00994593676952016,0.014164022720741477
1776675627.9434495,-0.0095800785347819,0.0047900392673909,9.80521011352539,0.004000044852134767,0.008152300616858007,0.0019103039120320206,0.014266279037751094,0.010049301933812283,0.01429863319881288
1776675627.966461,0.0,-0.0047900392673909,9.8100004196167,0.0039885423375261115,0.00845785201763651,0.0013974391626386574,0.01440080235630526,0.010163825740876375,0.014446612933129264
1776675627.9874513,-0.0095800785347819,0.0095800785347819,9.79084014892578,0.003977028747498857,0.008766479001656925,0.0008752530633201083,0.014523885409021057,0.010269211942325681,0.014581634852471392
1776675628.010372,0.0095800785347819,0.0,9.81478977203369,0.003963389538681396,0.009076181891069455,0.00034568281556686777,0.014658794806828985,0.010385419352839702,0.01472915793147801
1776675628.031403,-0.023950194939971,0.0095800785347819,9.82437038421631,0.003945871728034192,0.009384982703086166,-0.00018886411314439908,0.01478279934522162,0.010492903502797125,0.014864268907990572
1776675628.05345,0.0,0.0047900392673909,9.79084014892578,0.003923057223286994,0.009690967772458068,-0.0007254965412778049,0.014913416216016266,0.010606845172537533,0.015006021925033452
1776675628.0754526,-0.0047900392673909,-0.0047900392673909,9.80041980743408,0.0038937939946491057,0.009992302776491739,-0.0012609303678579196,0.01504482700838153,0.010722262407651974,0.015147999285618309
1776675628.098451,0.0,0.0,9.80041980743408,0.0038571868521657606,0.010287211228517279,-0.0017916713042581897,0.01518208243096428,0.010843685062032383,0.015295551229707193
1776675628.1194525,0.0,0.0047900392673909,9.80521011352539,0.0038126215616206827,0.010573948047731412,-0.002314140159452853,0.01530810326410471,0.010955981974829342,0.015430312997657427
1776675628.1414468,-0.0047900392673909,0.0,9.80521011352539,0.003759760853229246,0.010850816620131223,-0.0028247049193484888,0.015440220054826322,0.011074577523098006,0.015570811848124425
1776675628.1634464,0.0143701173365116,0.0143701173365116,9.79562950134277,0.0036985250790761903,0.01111621394562827,-0.003319706593604116,0.0155728243470603,0.011194532066775481,0.015710979908348365
1776675628.186453,0.0095800785347819,0.0047900392673909,9.80521011352539,0.003629102967543017,0.011368677519618498,-0.0037955182647717214,0.015712488859194653,0.01132190302992523,0.015857645674109272
1776675628.2084653,0.0,-0.0095800785347819,9.75251960754395,0.003551987626977232,0.011606915841469525,-0.004248687576489598,0.01584628236993382,0.01144493841817949,0.015997179767354385
1776675628.2304494,-0.0143701173365116,0.0047900392673909,9.81478977203369,0.003467973100321924,0.011829811666845253,-0.004676230013009536,0.015980215222817267,0.01156912776857706,0.01613587777052476
1776675628.251456,0.0,0.0095800785347819,9.82437038421631,0.003378091477173382,0.012036449348229547,-0.005075861284309399,0.016108397028216016,0.0116889696868262,0.01626767296412571
1776675628.2744505,-0.0047900392673909,0.0,9.80521011352539,0.0032835518202119236,0.012226179394626101,-0.005445912314638566,0.01624956889544307,0.011822098684461296,0.0164117242030106
1776675628.29647,-0.0143701173365116,0.0047900392673909,9.78125953674316,0.003185707074316039,0.012398640520285812,-0.005785169268789795,0.016384836619456868,0.011950805706973254,0.01654864785179731
1776675628.3174663,-0.0191601570695639,0.0191601570695639,9.78604984283447,0.003085993373250462,0.01255373658249522,-0.00609292710446346,0.01651456052714862,0.012075311340132153,0.0166789291122633
1776675628.3394814,-0.0047900392673909,0.0143701173365116,9.80041980743408,0.002985842287573331,0.01269164853106456,-0.006369094263238926,0.01665069234532177,0.012207117570445116,0.01681454625342218
1776675628.36245,-0.0047900392673909,0.0,9.78604984283447,0.002886652930303808,0.012812854239072503,-0.00661415406434504,0.01679295373647595,0.012346136669152328,0.01695505533592884
1776675628.3844676,0.0,0.0,9.8100004196167,0.0027898367114269538,0.012918064221168852,-0.006829043362497483,0.016929889539400177,0.012481201090392418,0.01708912501173705
1776675628.406447,0.0047900392673909,-0.0095800785347819,9.8100004196167,0.0026968672193560476,0.013008095219329592,-0.007015022446767751,0.01706693137501823,0.01261761140532556,0.01722213575858903
1776675628.4284484,0.0047900392673909,0.0047900392673909,9.80041980743408,0.002609307967547812,0.013083774297610942,-0.007173543183567326,0.017204128189928378,0.012755431877111038,0.017354129835631185
1776675628.4514637,0.0047900392673909,-0.0095800785347819,9.80041980743408,0.002528795124183701,0.013145904401454604,-0.007306142961836397,0.017348188607870383,0.012901510251369172,0.017491470700223402
1776675628.4714525,-0.0047900392673909,-0.0143701173365116,9.80521011352539,0.002456913325557495,0.013195235151872037,-0.007414314405054188,0.0174738722626533,0.013030101208738643,0.017610242556087202
1776675628.4944475,0.0191601570695639,0.0,9.81478977203369,0.0023950167092776546,0.013232404026121435,-0.007499308761189685,0.017618394746703285,0.013179293921896415,0.01774561183841729
1776675628.5164468,0.0,0.0,9.8100004196167,0.0023441563821957117,0.013257922040096818,-0.007561984510307716,0.01775709256954079,0.01332381106345747,0.017874317857712096
1776675628.5384603,-0.0047900392673909,0.0143701173365116,9.82437038421631,0.0023051035496069313,0.01327224907844852,-0.007602769560434849,0.017896071431773363,0.013469934844662053,0.018002104555390273
1776675628.560609,-0.0143701173365116,0.0,9.819580078125,0.002278324576442392,0.01327588845588486,-0.0076216731914072,0.018036263198440993,0.013618663594999247,0.01812981693403088
1776675628.5814476,0.0047900392673909,-0.0047900392673909,9.8100004196167,0.0022639243413209702,0.013269414845456623,-0.007618318794261298,0.01816817614092435,0.013759824034619976,0.01824890404480827
1776675628.6044536,-0.0047900392673909,0.0,9.79562950134277,0.002261666872751869,0.013253423757343546,-0.007592045735806031,0.018314420499008176,0.013917688715739463,0.01837971148569744
1776675628.6264503,0.0,0.0047900392673909,9.82437038421631,0.002271057211621649,0.01322848390163711,-0.0075420559069801826,0.01845403843931055,0.01406973204026659,0.0185034084334137
1776675628.6473627,0.0,0.0095800785347819,9.8100004196167,0.0022914055320354602,0.013195157140542034,-0.007467484602055318,0.018587279544424188,0.014216031819929732,0.018620389415985143
1776675628.67045,-0.0143701173365116,0.023950194939971,9.8100004196167,0.0023218540340798396,0.013154066940257395,-0.007367393466710971,0.018734948491016,0.014379526866308045,0.018748836698623126
1776675628.692448,0.0,0.0047900392673909,9.80521011352539,0.0023613677267203307,0.013105959760519629,-0.007240848093165683,0.018875611217248168,0.014536570182840861,0.01887003258053765
1776675628.7144492,0.0,0.0095800785347819,9.79562950134277,0.0024087120146554677,0.013051682155950022,-0.007087187021996391,0.019016860067550916,0.014695529365258192,0.018990616960935413
1776675628.7364674,0.0,-0.0095800785347819,9.8100004196167,0.0024624668353223056,0.012992060738717033,-0.006906350762406059,0.019158348741602074,0.014856004151582839,0.019110306358926573
1776675628.7583745,0.0,0.0047900392673909,9.81478977203369,0.0025210717678291385,0.012927778637827132,-0.006699012080233617,0.019298883101348367,0.01501660799477331,0.01922812326512764
1776675628.7794542,0.0143701173365116,0.0095800785347819,9.81478977203369,0.0025828797651748035,0.012859336634049348,-0.006466466772007599,0.019435096695246252,0.015173403748419053,0.0193413301848484
1776675628.8024552,0.0095800785347819,0.0,9.81478977203369,0.0026462348412311146,0.012787099628916592,-0.006210472775994821,0.019584002068463238,0.01534605438104921,0.019464005337524525
1776675628.8244662,0.0,0.0047900392673909,9.8291597366333,0.0027095433484423644,0.012711346174143379,-0.005933133176817176,0.01972708154475829,0.015513149513405605,0.019580851218191184
1776675628.8464487,-0.0143701173365116,0.0095800785347819,9.81478977203369,0.0027712614705314408,0.01263228130935739,-0.005636791819997173,0.01986976297416362,0.015680923878984086,0.019696402897083368
1776675628.8684568,0.0,0.0191601570695639,9.79084014892578,0.002829811763821296,0.0125500697944626,-0.005323979452730564,0.020013154605179148,0.015850657977598746,0.01981159255830189
1776675628.8904521,0.0,-0.0047900392673909,9.79562950134277,0.002883543838022588,0.012464890569699235,-0.004997476411170041,0.02015687107902628,0.016021881612530535,0.019926140420079955
1776675628.9124465,-0.0095800785347819,0.0047900392673909,9.80041980743408,0.002930776072995552,0.012376931088886916,-0.004660400095419084,0.020300831722257613,0.01619447945023665,0.0200400186450512
1776675628.9344554,0.0,0.0047900392673909,9.79562950134277,0.00296984968613511,0.012286300566304012,-0.004316144329761818,0.020445155803613595,0.016368576293650204,0.02015335955361779
1776675628.9564507,0.0095800785347819,0.0047900392673909,9.80521011352539,0.002999205545841076,0.01219289703279416,-0.003968120399090194,0.02059022637220731,0.016544622334844928,0.02026649939833751
1776675628.9784527,-0.0143701173365116,-0.0143701173365116,9.79084014892578,0.0030175008375613807,0.012096258452962232,-0.0036194447752480596,0.02073526265300889,0.01672165496206494,0.020378869228847237
1776675629.0004838,0.0,0.023950194939971,9.80041980743408,0.003023654733804831,0.011995479808446018,-0.0032727834966446213,0.020880883692724072,0.016900414091145195,0.020490991068107766
1776675629.0224488,-0.0047900392673909,0.0047900392673909,9.80521011352539,0.003016803002173347,0.011889282117753397,-0.0029303574144594327,0.021026541377641324,0.01708021330209495,0.02060248530450129
1776675629.0445812,-0.0047900392673909,0.0191601570695639,9.79562950134277,0.0029962661584784092,0.011776171047853504,-0.0025939679063338404,0.02117378175488873,0.01726295874353989,0.020714572257911904
1776675629.0665805,0.0,-0.0095800785347819,9.83395004272461,0.0029615466171513255,0.011654536354792123,-0.002264992522130416,0.021320268435047893,0.017445741635281637,0.02082551544770077
1776675629.0874512,0.0047900392673909,0.0095800785347819,9.79562950134277,0.0029123331679710446,0.011522652657063894,-0.0019443553947577452,0.021459763283853694,0.017620687561709446,0.020930678101506683
1776675629.1104558,-0.0095800785347819,-0.0095800785347819,9.80521011352539,0.002848511511027403,0.011378656819854945,-0.001632537099980905,0.021613705242633313,0.01781474093455681,0.021046233631015328
1776675629.132448,0.0,0.0095800785347819,9.80041980743408,0.0027701452611307185,0.01122056182301921,-0.0013296826791693182,0.02176109068586306,0.018001487431240658,0.021156423787038185
1776675629.1544614,-0.0095800785347819,-0.0047900392673909,9.819580078125,0.002677427715885301,0.011046305823901759,-0.0010357014633127987,0.02190922210338076,0.018190109833459325,0.021266781691387942
1776675629.1753628,-0.0095800785347819,-0.0095800785347819,9.8100004196167,0.0025706394483459615,0.010853830562975203,-0.0007502943115356498,0.02205001871296503,0.018370245602474612,0.021371355342815902
1776675629.1984708,-0.0095800785347819,0.0,9.819580078125,0.0024501113017366405,0.010641222478768076,-0.0004730223418846719,0.022206035341324957,0.018570811429848906,0.02148691981776102
1776675629.2204468,0.0,0.0143701173365116,9.8100004196167,0.0023162052943709608,0.010406922481266238,-0.00020344885905978477,0.022354620763300286,0.01876274725251636,0.021596719029909527
1776675629.2424593,0.0047900392673909,0.0047900392673909,9.78604984283447,0.002169345360940941,0.010149909484501077,5.8731485530089784e-05,0.022503931081244804,0.018956513577742726,0.02170684442514749
1776675629.2650528,0.0,-0.0047900392673909,9.80521011352539,0.0020100770562154063,0.009869747248058103,0.0003135889183080895,0.022658007263993783,0.019157390501988978,0.02182031337519159
1776675629.2864873,0.0047900392673909,0.0095800785347819,9.80521011352539,0.0018390993864017674,0.009566505717789735,0.0005609078308541581,0.022803153148534018,0.019347471687836654,0.02192708980620448
1776675629.3084629,0.0047900392673909,0.0,9.80521011352539,0.0016572595921570438,0.009240671213407256,0.0008002421328478134,0.022952831529977468,0.019544335337431905,0.022037128817665723
1776675629.3304465,0.0,0.023950194939971,9.83395004272461,0.001465537977569207,0.00889311685237553,0.0010310299504445516,0.02310253967163833,0.019742083868164124,0.022147161688000856
1776675629.3524609,0.0047900392673909,0.0143701173365116,9.81478977203369,0.0012650243849443986,0.008525119904566315,0.001252722935248023,0.02325278524253054,0.0199413777109959,0.02225760633260535
1776675629.37447,-0.0047900392673909,-0.0095800785347819,9.8100004196167,0.0010568834826733995,0.00813835394886742,0.0014648747574508214,0.023403122094085863,0.02014161489881177,0.022368179259564656
1776675629.395456,-0.0095800785347819,0.0,9.83874034881592,0.0008423066173506832,0.007734773412101225,0.0016671421945547128,0.023546644430108392,0.020333528511893746,0.02247383750071784
1776675629.4183853,0.0095800785347819,0.0,9.79562950134277,0.0006224657277406761,0.007316451035090285,0.0018592679321506361,0.023703336458449638,0.020543874571693092,0.022589345799110542
1776675629.4414537,0.0,0.0,9.8100004196167,0.0003985298149365218,0.006885489166326034,0.0020410350939785845,0.02386154406746023,0.02075710823279141,0.022706180714688263
1776675629.4629154,0.0,-0.0047900392673909,9.80521011352539,0.0001717256724629144,0.006443986123686234,0.0022121552779527463,0.024008748036363672,0.020956264579413828,0.022815118590646243
1776675629.4848218,0.0,-0.0047900392673909,9.79084014892578,-5.665069043002531e-05,0.0059939980193820805,0.0023721876513354686,0.024158713791911177,0.021159887270855715,0.022926367882064196
1776675629.5064652,0.0047900392673909,-0.0095800785347819,9.79562950134277,-0.0002852646626626963,0.005537497193432069,0.0025205069948802438,0.024306466119219702,0.021361208440372488,0.023036276983697257
1776675629.528678,0.0047900392673909,-0.0143701173365116,9.79562950134277,-0.0005127530372116701,0.005076332597893429,0.0026562793541247067,0.024458664472226475,0.021569300308707726,0.023149845195327246
1776675629.5504746,0.0,-0.0143701173365116,9.80521011352539,-0.0007377207486066092,0.004612188058679497,0.00277848761431854,0.024607127493517744,0.021772964779492386,0.023261005612091535
1776675629.5724585,0.0,-0.0047900392673909,9.80041980743408,-0.0009587608599492591,0.004146560833821308,0.0028860121641579735,0.024757665640163306,0.02198014323837696,0.023374137341132244
1776675629.5944617,0.0191601570695639,0.0095800785347819,9.78604984283447,-0.0011744768479705853,0.003680805083468819,0.002977692845736926,0.024907877236253293,0.02218752365228489,0.023487475528341
1776675629.6164753,0.0047900392673909,0.0,9.79562950134277,-0.0013834592401009511,0.003216234261512793,0.0030523226652252613,0.025058140930429258,0.022395607982239277,0.023601335436079555
1776675629.6384614,0.0047900392673909,-0.0047900392673909,9.78604984283447,-0.0015842582582113874,0.0027541904961767283,0.003108618149299365,0.025208010830377124,0.022603756994117232,0.02371540585589543
1776675629.6604564,0.0,0.0,9.83874034881592,-0.0017754395257292134,0.002296033435695711,0.0031452735991898944,0.025357646481457545,0.02281216805254096,0.023829830636038676
1776675629.6824753,0.0,0.0,9.79562950134277,-0.001955722505783617,0.001843129721720934,0.003161146162941989,0.02550738960849041,0.023021295002604584,0.023944893134303973
1776675629.70447,-0.0047900392673909,-0.0047900392673909,9.78604984283447,-0.002124122833538594,0.0013968861372144334,0.0031554032603043408,0.02565638145555365,0.023229912691577776,0.024059949302384104
1776675629.7264528,0.0047900392673909,0.0095800785347819,9.79562950134277,-0.002280018599358899,0.0009587720271570975,0.003127455346173735,0.025805303469882628,0.023438947572627027,0.02417553671718546
1776675629.7484574,-0.0095800785347819,0.0,9.78125953674316,-0.002423133878183545,0.000530323679429012,0.0030768104965444446,0.025953922673795142,0.023648046542856856,0.024291484874000388
1776675629.7705965,0.0095800785347819,0.0,9.78125953674316,-0.0025534950774973985,0.00011314189116798319,0.003003006395092664,0.02610364457810082,0.023859165646174612,0.024408904165996483
1776675629.792457,0.0,0.0,9.78125953674316,-0.002671377484601277,-0.00029114210119326155,0.0029055743826261653,0.026250712037061908,0.02406697445699692,0.024524843746098694
1776675629.8144562,-0.023950194939971,0.0,9.79084014892578,-0.002777265515756291,-0.0006809142535707247,0.0027840268571210107,0.026398344420851823,0.02427598668496275,0.02464183014042522
1776675629.8364658,0.0047900392673909,0.0095800785347819,9.80041980743408,-0.00287187659088019,-0.0010545975549337238,0.0026379120006603265,0.026545580956901724,0.02448481664518547,0.024759100582768208
1776675629.8585176,0.0095800785347819,0.0047900392673909,9.8100004196167,-0.0029561610940887755,-0.0014106394386199062,0.00246692495779527,0.026693086775513204,0.024694380957479774,0.024877177686646105
1776675629.8804562,-0.0095800785347819,-0.0095800785347819,9.79084014892578,-0.0030312001207740786,-0.001747510570349063,0.00227100953611821,0.026839542322983148,0.02490277652255676,0.024994990320719744
1776675629.9024575,-0.0047900392673909,0.0047900392673909,9.81478977203369,-0.003098133841823227,-0.0020637649585486047,0.0020504074485872548,0.026985811192417712,0.025111203198408896,0.025113211912368507
1776675629.9244642,-0.0047900392673909,0.0,9.78604984283447,-0.003158185527025909,-0.0023581255202587783,0.0018057139122550693,0.027131772619063167,0.02531946368090844,0.025231724373675834
1776675629.9464626,0.0047900392673909,0.0191601570695639,9.78604984283447,-0.0032126673961031605,-0.0026295126610939275,0.0015379291442479425,0.02727722929883956,0.025527252001421644,0.02535034188286703
1776675629.9684615,0.0095800785347819,0.0,9.79562950134277,-0.0032629149585271513,-0.002877006837873144,0.001248410818402895,0.027422580269149746,0.025735116227187948,0.025469362118367513
1776675629.990464,0.0,0.0143701173365116,9.83395004272461,-0.003310204473771193,-0.003099811425120252,0.0009388289047615173,0.027567266873946197,0.025942237481996998,0.025588296338812894
1776675630.0124938,-0.0047900392673909,-0.0143701173365116,9.80041980743408,-0.003355725966492363,-0.003297267875107192,0.0006112476826339263,0.02771197321428396,0.026149577939773398,0.02570767354573395
1776675630.03446,-0.023950194939971,0.0,9.8100004196167,-0.0034006424778339674,-0.0034689193006719457,0.0002681853015499703,0.027855418169420592,0.026355286706231166,0.025826399114504076
1776675630.0564618,-0.0047900392673909,0.0,9.79084014892578,-0.003446187342769285,-0.0036145669233515034,-8.748875746141205e-05,0.02799892206459065,0.026561245155348846,0.025945526537813398
1776675630.0784678,0.0287402346730232,-0.0095800785347819,9.77647018432617,-0.0034936676859643008,-0.0037342679893595035,-0.00045274543337061213,0.02814161942920696,0.0267662033671178,0.026064298947279463
1776675630.1004658,0.0,0.0,9.80521011352539,-0.0035443107664487918,-0.003828309715577514,-0.0008245709711920275,0.028284530566358268,0.02697162282010654,0.026183526654325696
1776675630.1224682,0.0191601570695639,-0.0047900392673909,9.79562950134277,-0.0035991122812054975,-0.003897193199992005,-0.0012000350307913414,0.028426926718008196,0.027176456220068212,0.026302563363162865
1776675630.1444616,-0.0095800785347819,0.0095800785347819,9.80041980743408,-0.0036588131019950616,-0.003941604331851485,-0.0015762501411102463,0.028568634279866546,0.027380456409076732,0.026421223460746164
1776675630.1664836,0.0143701173365116,0.0143701173365116,9.79562950134277,-0.003723907947105155,-0.003962369601865958,-0.0019503427521861878,0.028710212348436334,0.027584435316596906,0.026539936070520978
1776675630.188462,-0.0095800785347819,0.0047900392673909,9.80521011352539,-0.0037946166261740833,-0.003960412452849032,-0.0023194732448879813,0.028851219173971793,0.02778776755625464,0.026658293014824853
1776675630.2104585,0.0,0.0,9.80521011352539,-0.003870884285219065,-0.003936740675202249,-0.002680845616557657,0.02899139058412996,0.027990085601884592,0.026776035290714505
1776675630.2324605,-0.0143701173365116,0.0047900392673909,9.79562950134277,-0.003952449455826677,-0.003892477450060678,-0.0030317040010099452,0.02913141042520528,0.028192394295788268,0.02689370217627292
1776675630.2544951,0.0047900392673909,0.0095800785347819,9.82437038421631,-0.0040389215970026105,-0.003828877324423345,-0.0033693395961501256,0.029271041306848912,0.028394372823831573,0.027011061256106708
1776675630.276467,-0.0191601570695639,0.0047900392673909,9.79562950134277,-0.004129818490559083,-0.0037472903776908724,-0.0036910848312146343,0.02940993206658198,0.028595537123249037,0.02712778651104574
1776675630.298455,-0.0095800785347819,-0.023950194939971,9.79084014892578,-0.004224599303167121,-0.003649147342094566,-0.003994331219944402,0.02954799124353978,0.028795780135684804,0.027243772922285157
1776675630.3205898,-0.0095800785347819,0.0191601570695639,9.79562950134277,-0.004322715131080058,-0.003536009958214776,-0.004276631655952113,0.029687319385986483,0.028998183291350423,0.027360758506201146
1776675630.3424976,-0.0047900392673909,0.0431103520095348,9.78604984283447,-0.004423626437608718,-0.0034095339514398516,-0.004535808505867573,0.02982380019316699,0.029196796539906037,0.02747526507596283
1776675630.3644614,0.0,0.0,9.79084014892578,-0.00452677066905058,-0.0032712721573009236,-0.004769996323921534,0.02996047610937434,0.029396075326100425,0.027589827272230596
1776675630.3864594,0.0047900392673909,0.0,9.78604984283447,-0.004631513831372977,-0.003122572531046198,-0.004977680059628734,0.030096929150826932,0.029595450374413405,0.02770407729089714
1776675630.4085348,0.0047900392673909,0.0143701173365116,9.78125953674316,-0.004737106310128594,-0.0029646785153055683,-0.005157801959915526,0.030233470754569943,0.029795418843627408,0.027818261594131623
1776675630.4304724,0.0,0.0143701173365116,9.79562950134277,-0.0048426644241561555,-0.0027987933636529237,-0.005309895089891858,0.030367940874853144,0.029992850966219273,0.027930565777624854
1776675630.4524608,0.0,0.0191601570695639,9.80041980743408,-0.004947195649468736,-0.002626018421208352,-0.005434099762095966,0.030502492320546304,0.030190942172229694,0.028042783028145737
1776675630.474453,0.0095800785347819,0.0,9.79562950134277,-0.0050496391525431065,-0.002447305749115165,-0.005531041315248519,0.03063634476031684,0.03038858666874714,0.02815425862209612
1776675630.4966452,0.0,-0.0047900392673909,9.80521011352539,-0.005148880143752036,-0.0022635096444632674,-0.0056016990250134305,0.030771255122465122,0.030588429929321002,0.028266452947099483
1776675630.5184586,0.0,-0.0095800785347819,9.78604984283447,-0.0052437591042093275,-0.0020755042830688684,-0.005647333416642973,0.0309026847793192,0.030783779703409633,0.02837559639357453
1776675630.5404975,0.0,-0.0047900392673909,9.79084014892578,-0.005333111023502332,-0.001884278551594775,-0.005669468138640228,0.031035043027620158,0.030981219770787632,0.028485358058259122
1776675630.5625157,0.0095800785347819,-0.0047900392673909,9.80521011352539,-0.005415799520744099,-0.0016909543426525022,-0.0056698880534433215,0.031166654078944908,0.031178300973225995,0.028594352959559893
1776675630.5844774,0.0,0.0,9.78604984283447,-0.0054907117792177655,-0.0014967481958443986,-0.005650590682253117,0.03129709560740882,0.03137442321248213,0.028702241363453635
1776675630.6064587,-0.0095800785347819,-0.0047900392673909,9.80041980743408,-0.0055567633307081555,-0.001302919687638677,-0.005613720023849331,0.03142697960362495,0.03157053914310901,0.028809540507177864
1776675630.6284547,-0.0143701173365116,0.0,9.78125953674316,-0.005612971391826061,-0.0011107349825538657,-0.005561529141113752,0.03155672543523058,0.03176732286568651,0.028916607409220585
1776675630.650469,0.0,0.0095800785347819,9.80521011352539,-0.00565855530909101,-0.0009214350621759381,-0.005496320173939681,0.03168529844821932,0.03196323790251741,0.029022600351502593
1776675630.672458,0.0,0.0,9.81478977203369,-0.005692963998709913,-0.0007361867869783464,-0.005420314216683953,0.03181362205515774,0.03215972092409786,0.029128293218952488
1776675630.6944656,0.0,0.0,9.819580078125,-0.005715819459441051,-0.0005560501375181679,-0.005335480491085878,0.03194104715523631,0.032355808016026694,0.02923316371338935
1776675630.716501,0.0,0.023950194939971,9.8100004196167,-0.005726858519132759,-0.0003819725406527361,-0.005243414942492119,0.032068003026670996,0.03255218466876235,0.029337577549345288
1776675630.7384565,0.0,0.0095800785347819,9.80041980743408,-0.005725912460069538,-0.00021474604681107247,-0.005145344213588614,0.03219377603699058,0.03274776534105701,0.029440959994996744
1776675630.7604845,0.0,0.0,9.78604984283447,-0.005712901766003087,-5.4959405808873444e-05,-0.00504224476644202,0.03231928408140091,0.03294399516251859,0.02954407709317669
1776675630.7824593,0.0047900392673909,0.0095800785347819,9.78125953674316,-0.005687826498489123,9.696311517342584e-05,-0.004935011060966807,0.032443486338376855,0.03313925951693996,0.029646084579365167
1776675630.8043208,-0.0095800785347819,0.0,9.80041980743408,-0.00565075733857214,0.0002406884232068894,-0.004824581581996173,0.032566162844102436,0.03333320524452625,0.029746812354941636
1776675630.826456,0.0095800785347819,0.0,9.80041980743408,-0.005601840170887375,0.00037593742198520553,-0.004711941453257197,0.032690452657588305,0.03353082319595586,0.029848846723722972
1776675630.8485258,-0.0047900392673909,0.0,9.78125953674316,-0.005541294842544805,0.0005024573978299565,-0.004598050381793702,0.032813484141575484,0.033727576147033395,0.029949838167894836
1776675630.869449,0.0,0.0047900392673909,9.819580078125,-0.005469391732608832,0.0006200071480385202,-0.0044838071037590545,0.032929523232105136,0.033914200965358444,0.030045087307445224
1776675630.892462,0.0,-0.0191601570695639,9.79562950134277,-0.005386418351108558,0.0007283660103625575,-0.004370019435253041,0.033056211870019954,0.034119139517577377,0.0301490817163849
1776675630.9144616,0.0,0.0047900392673909,9.78125953674316,-0.00529263786866749,0.0008273243215171322,-0.004257370876949714,0.03317699464278047,0.03431569134667858,0.03024823674781701
1776675630.9364529,0.0095800785347819,-0.0047900392673909,9.80041980743408,-0.005188249919944597,0.0009166711408972567,-0.004146475141646107,0.03329698076539532,0.03451208480237458,0.03034674990381402
1776675630.9584506,0.0,0.0,9.8100004196167,-0.005073366757637478,0.0009962228442319397,-0.004037931493815641,0.03341624487285492,0.034708426802345746,0.03044468480405601
1776675630.9804676,-0.0047900392673909,-0.0047900392673909,9.81478977203369,-0.004948019986107552,0.0010658516071830487,-0.003932250992728394,0.0335351844401657,0.03490535935360212,0.030542368900683136
1776675631.0024495,0.0,0.0047900392673909,9.78604984283447,-0.004812210423553282,0.0011254875965566796,-0.0038297645109243517,0.03365366644129829,0.03510264972981225,0.03063969263897664
1776675631.024456,0.0095800785347819,-0.0047900392673909,9.8291597366333,-0.004665946632527678,0.0011751246142468496,-0.003730632707889356,0.03377135044637169,0.03529970797211244,0.03073637454213683
1776675631.0464594,-0.0143701173365116,-0.0095800785347819,9.76209926605225,-0.004509238932516911,0.0012148156541578997,-0.0036349037590419474,0.033888112788061774,0.035496293524903556,0.03083230965264008
1776675631.0687306,0.0,0.0,9.78604984283447,-0.004342115961000195,0.0012446383994229346,-0.003542615274592582,0.0340062167346284,0.035696208546028584,0.03092935289876002
1776675631.0904593,0.0,-0.0047900392673909,9.8100004196167,-0.004164668763699487,0.0012646743494319392,-0.003453919572119454,0.03412071537948259,0.03589103132263281,0.0310234333974051
1776675631.1124654,0.0,-0.0191601570695639,9.79084014892578,-0.003977057419265631,0.0012750040661500708,-0.003369059329579999,0.03423626725219461,0.03608863211155724,0.031118371269292802
1776675631.1344624,0.0,-0.0095800785347819,9.81478977203369,-0.003779511572093718,0.0012756559026454487,-0.0032882079131807923,0.034351526609191545,0.036286692508610364,0.03121305154195686
1776675631.15646,0.0047900392673909,-0.0095800785347819,9.80521011352539,-0.0035723601757712293,0.0012665417334817713,-0.0032113431802972374,0.03446609466635905,0.036484483809502755,0.031307136079233175
1776675631.1784627,0.0,0.0,9.78604984283447,-0.003356042562017927,0.0012474685801220076,-0.003138211582804605,0.034580180126605777,0.03668231669031338,0.031400784428518014
1776675631.2004597,0.0,-0.0047900392673909,9.79562950134277,-0.0031310948506955176,0.0012182102566021874,-0.003068399593397326,0.034693988150981375,0.0368804982684806,0.03149415169932167
1776675631.2226598,-0.0095800785347819,0.0,9.79084014892578,-0.002898154270109681,0.001178568846151107,-0.003001448094159526,0.034808466024766074,0.037080637555546296,0.03158799952985715
1776675631.2444582,0.0718505829572678,-0.0143701173365116,9.80521011352539,-0.002657918301673726,0.0011283923590006855,-0.002936894271760356,0.034920522145362703,0.037277264061115395,0.031679779135200474
1776675631.2664795,0.0910107418894768,-0.0143701173365116,9.8100004196167,-0.002410880878329818,0.0010675420572890794,-0.00287422997834632,0.035033167092156765,0.0374755905216589,0.031771941199072014
1776675631.2884636,0.153281256556511,0.0095800785347819,9.78604984283447,-0.002156835371239128,0.0009958561944321386,-0.0028128500024640736,0.03514578988179282,0.03767449005624476,0.03186396701087654
1776675631.310458,0.182021483778954,0.0191601570695639,9.82437038421631,-0.0018943539725749868,0.0009132101546866615,-0.0027520527256320124,0.0352580140388164,0.037873234116985004,0.03195553065637201
1776675631.3324542,0.182021483778954,0.0,9.80041980743408,-0.0016204176422749841,0.00081965334036368,-0.002691046554924121,0.035369985842216255,0.038072012252768,0.032046732740759136
1776675631.3545163,0.205971673130989,0.0,9.80521011352539,-0.0013301061138039556,0.000715476003383178,-0.002628965544950777,0.03548212447476797,0.038271497711306245,0.03213789360404643
1776675631.376491,0.177231445908546,0.0,9.8100004196167,-0.0010160167165967034,0.0006011984600300588,-0.0025650217951224945,0.035593778681682044,0.038470453797726206,0.03222846173653155
1776675631.3986,0.153281256556511,-0.0047900392673909,9.79562950134277,-0.0006676338412824795,0.0004775762045814431,-0.0024987332915588014,0.03570594027319555,0.038670562402892066,0.03231921606427149
1776675631.4204633,0.158071294426918,0.0047900392673909,9.77647018432617,-0.00027138056770913946,0.0003456053925823948,-0.002430070811367503,0.03581668903458185,0.03886830056635822,0.032408577188690654
1776675631.4424624,0.134121090173721,-0.023950194939971,9.78125953674316,0.00018868494243921724,0.00020648107494088393,-0.0023595470128317825,0.03592828626562682,0.0390675956300208,0.03249833796901555
1776675631.4644597,0.114960938692093,0.0047900392673909,9.81478977203369,0.0007300846719278193,6.15157119874905e-05,-0.0022882335417642985,0.03603973455443238,0.039266541870957614,0.03258765368481623
1776675631.4865923,0.0574804693460464,-0.0047900392673909,9.79084014892578,0.0013711597053110802,-8.791916665452683e-05,-0.0022176218231553116,0.036152302448948896,0.039467255431058286,0.03267748811172813
1776675631.5085907,0.0191601570695639,-0.0095800785347819,9.80041980743408,0.002130230220961436,-0.00024039227397570773,-0.002149438708199037,0.036264259608729164,0.039666481233533474,0.0327664003099025
1776675631.5305882,0.0287402346730232,-0.0047900392673909,9.8100004196167,0.003024767277602533,-0.00039442210548598183,-0.002085550697118502,0.03637643824783654,0.03986550839388885,0.03285498501160965
1776675631.5525825,0.0383203141391277,0.0143701173365116,9.79084014892578,0.0040708302174593735,-0.0005484993967751477,-0.0020279056444830563,0.036489062674830784,0.040064508728272566,0.03294333455953163
1776675631.5745897,-0.0287402346730232,-0.0095800785347819,9.81478977203369,0.005282818650332645,-0.0007010600548703959,-0.0019784767767450457,0.036602368020696815,0.040263636154290704,0.033031531619747034
1776675631.5965872,-0.0383203141391277,0.0191601570695639,9.80041980743408,0.006673000212323999,-0.0008504680921284838,-0.0019391877903328295,0.03671643767612195,0.04046273968583751,0.03311952236490886
1776675631.6185937,-0.0526904314756393,0.0047900392673909,9.80041980743408,0.008250248020126284,-0.000995063269541983,-0.0019117539445899635,0.03683123531536908,0.04066142753552729,0.03320714588031674
1776675631.6405888,-0.0718505829572678,0.0,9.79562950134277,0.010018542145439412,-0.0011332329830887442,-0.0018975184509022313,0.036947185632348535,0.04086007021885174,0.033294575935831114
1776675631.6625845,-0.105380862951279,-0.0287402346730232,9.81478977203369,0.011976307518397575,-0.0012635167562305813,-0.0018973946477321103,0.037064386325989546,0.041058434188418716,0.033381717807228414
1776675631.684588,-0.114960938692093,0.0,9.80521011352539,0.014116606301180973,-0.0013847456725970073,-0.0019118601464716291,0.03718338607449227,0.04125700828894295,0.0334687917743948
1776675631.7065828,-0.110170900821686,-0.0095800785347819,9.819580078125,0.01642760432397209,-0.001496106321589614,-0.00194094374919736,0.03730434374551142,0.0414555813128711,0.03355570810947087
1776675631.7285786,-0.0910107418894768,-0.0095800785347819,9.80041980743408,0.018893168458167738,-0.001597088072054858,-0.0019842367803907823,0.03742697439649349,0.041653213918050144,0.03364205758752863
1776675631.7505863,-0.124541014432907,0.0,9.79562950134277,0.021493587804063977,-0.0016874135856263213,-0.0020409682990844592,0.037552322702149754,0.041851092256125766,0.03372835783006651
1776675631.772594,-0.0910107418894768,0.0143701173365116,9.8291597366333,0.024206260145031105,-0.0017669730340939818,-0.0021101080045601876,0.03768066289818173,0.04204910573473825,0.03381455652369682
1776675631.7945929,-0.134121090173721,-0.0143701173365116,9.81478977203369,0.027006273750657346,-0.001835736339140641,-0.0021903839628346867,0.03781176567296667,0.04224638345974502,0.033900269636428455
1776675631.8165853,-0.105380862951279,0.0047900392673909,9.82437038421631,0.02986691654293204,-0.001893720945841758,-0.00228022369223545,0.03794643710420541,0.0424436269177604,0.033985795392365695
1776675631.8385835,-0.105380862951279,0.0047900392673909,9.82437038421631,0.03276012749001632,-0.0019410070826989601,-0.0023777344181546787,0.03808519821375914,0.04264105640909241,0.03407121990395432
1776675631.8605952,-0.134121090173721,-0.0143701173365116,9.78125953674316,0.03565686456399734,-0.0019777027142745124,-0.002480760059740841,0.0382271234671461,0.04283689553166282,0.034155765986701274
1776675631.882582,-0.105380862951279,0.0,9.78125953674316,0.0385273682974228,-0.0020039049467266766,-0.002587050165372666,0.038374078784687404,0.043033260510336485,0.034240337079966314
1776675631.9045825,-0.143701165914536,-0.0287402346730232,9.80041980743408,0.041341424777638636,-0.0020197320609541295,-0.002694487447640158,0.03852610895001063,0.04322969734526597,0.03432472413716455
1776675631.9265974,-0.0814306661486626,-0.0143701173365116,9.79562950134277,0.04406873326722088,-0.0020253978593833327,-0.0028011771692572664,0.03868328373455367,0.04342584753764212,0.03440876028808733
1776675631.9485781,-0.0670605450868607,0.0095800785347819,9.8100004196167,0.04667940597310834,-0.0020212477931012473,-0.0029053750770121644,0.038845658142009895,0.043621397517897564,0.03449229918141932
1776675631.9705863,-0.100590817630291,-0.0143701173365116,9.81478977203369,0.04914454395002245,-0.0020076889730663338,-0.003005386741794945,0.03901401837583211,0.04381693183133104,0.03457557794944479
1776675631.9925854,-0.0862207040190697,0.0047900392673909,9.77647018432617,0.05143664666268492,-0.001985095500114587,-0.0030995213206604327,0.03918842490172299,0.044012178970652766,0.03465846792782288
1776675632.014577,-0.0335302725434303,-0.0287402346730232,9.79562950134277,0.0535298276671025,-0.001953805912447106,-0.0031861609440533584,0.039369100797034345,0.044207102250374296,0.034740941499675666
1776675632.0365808,-0.0574804693460464,-0.0287402346730232,9.76209926605225,0.05540010790250646,-0.0019142117581563397,-0.003263910141910421,0.03955650126156877,0.044401935075730134,0.03482308553045844
1776675632.0585842,-0.0574804693460464,-0.0047900392673909,9.78604984283447,0.057025740387486624,-0.0018668621282968085,-0.0033317122772090627,0.03975070872062081,0.04459654052402772,0.034904830938733054
1776675632.0805979,-0.0622705072164536,-0.0047900392673909,9.80521011352539,0.05838737157282623,-0.0018124899858468577,-0.003388841702422,0.03995176564114586,0.04479079329689767,0.03498611525525407
1776675632.1025884,-0.0287402346730232,0.0,9.79084014892578,0.05946821164529171,-0.001752014734708855,-0.003434717206594312,0.040160242056265213,0.044985100518933174,0.0350670993441761
1776675632.1245959,-0.023950194939971,-0.0095800785347819,9.79084014892578,0.06025435973891054,-0.0016866191571559119,-0.0034686822093707944,0.04037577976234511,0.045179025569001864,0.035147592984202856
1776675632.1465917,-0.0047900392673909,-0.0143701173365116,9.80041980743408,0.06073508301156441,-0.001617828099998204,-0.003489940219489738,0.04059849534556832,0.04537262797260011,0.03522761493700656
1776675632.168577,-0.0191601570695639,-0.0095800785347819,9.80041980743408,0.060902883646549444,-0.0015475229117485967,-0.0034975755791669784,0.04082867250907138,0.04556613025433524,0.035307252035322215
1776675632.1905818,-0.0047900392673909,0.0,9.80041980743408,0.06075339191202644,-0.0014778966469719506,-0.003490551725084241,0.041066143039162624,0.04575939664113027,0.0353864447802457
1776675632.2125833,0.0095800785347819,0.0,9.79562950134277,0.060285192928420765,-0.001411346427070726,-0.003467720602220524,0.041311178508237296,0.04595268018546622,0.03546529491554131
1776675632.2345817,0.0287402346730232,-0.0095800785347819,9.78604984283447,0.05949970087267281,-0.0013503566650946988,-0.003427880242459583,0.041563396772866794,0.04614574074512655,0.03554370474957577
1776675632.2565813,0.0335302725434303,0.0,9.83395004272461,0.05840109911373152,-0.001297440425095629,-0.0033698252221559437,0.04182264694306559,0.046338562920621246,0.03562167151553821
1776675632.278585,0.023950194939971,-0.0047900392673909,9.80521011352539,0.0569962449658369,-0.0012551135553979787,-0.00329229580087318,0.04208851305739726,0.046530969881067016,0.035699130485270215
1776675632.3005972,0.0335302725434303,-0.0143701173365116,9.8100004196167,0.05529446214342965,-0.0012258667819291932,-0.0031938933980178025,0.04236184541268979,0.04672370864863898,0.03577639072565808
1776675632.3225904,0.0335302725434303,0.0,9.80521011352539,0.05330732064189971,-0.0012121234766282619,-0.003073123568170691,0.042641795642074154,0.04691632186875598,0.03585327983957344
1776675632.3445783,0.0335302725434303,0.0047900392673909,9.78604984283447,0.05104857929386998,-0.0012160954077331306,-0.002928563938289893,0.04292712006556976,0.047108152911325196,0.03592955300132357
1776675632.3665817,0.0479003898799419,-0.0143701173365116,9.80041980743408,0.04853422685312598,-0.0012395580675465979,-0.002759054352470274,0.04321884843529822,0.047300099145484865,0.03600558753567992
1776675632.3885782,0.0622705072164536,0.0,9.79084014892578,0.04578241528924857,-0.0012837500785327135,-0.0025638130375877028,0.043516343918121744,0.04749193696285833,0.03608131783999134
1776675632.4105754,0.0479003898799419,-0.0191601570695639,9.80041980743408,0.04281325786571291,-0.0013494353518510311,-0.0023424410312318017,0.04381916996341867,0.04768360029613012,0.03615674557242216
1776675632.43258,0.0526904314756393,0.0047900392673909,9.8100004196167,0.03964853931858916,-0.001436986660049542,-0.0020948616491022563,0.04412736263362868,0.047875331668445174,0.036231997825972924
1776675632.4545755,0.0622705072164536,0.0191601570695639,9.81478977203369,0.036311370891006355,-0.0015463962102331159,-0.0018212225933916446,0.04444033244310291,0.04806698883288438,0.03630705451192177
1776675632.4765763,0.0574804693460464,-0.0047900392673909,9.79562950134277,0.03282587481835286,-0.0016772157592940462,-0.0015218018459739729,0.04475668782344473,0.04825796623955077,0.036381719254618215
1776675632.4985843,0.0479003898799419,0.0191601570695639,9.80041980743408,0.02921690530321672,-0.001828532614812486,-0.0011969996071661741,0.04507722130837183,0.04844898930245768,0.03645632034333771
1776675632.520591,0.0431103520095348,0.0,9.79084014892578,0.025509734194468763,-0.0019990240037927056,-0.0008474032671676296,0.04540197229972444,0.04864031176912514,0.03653100500062165
1776675632.5425837,0.0287402346730232,0.0095800785347819,9.80041980743408,0.02172970131494071,-0.002187025894063446,-0.0004738359740445091,0.04572880029575866,0.04883091678589865,0.03660542852578476
1776675632.564584,0.0287402346730232,0.0143701173365116,9.819580078125,0.017901907490563564,-0.0023905833410714367,-7.735181277543966e-05,0.04605772030248765,0.04902106748696794,0.036679749391406245
1776675632.587589,0.0143701173365116,0.0287402346730232,9.8291597366333,0.014051033392729813,-0.0026074374032632715,0.00034080579995738404,0.046403888188252244,0.04921967401358066,0.036757519378113196
1776675632.608578,0.0335302725434303,0.0287402346730232,9.81478977203369,0.01020126292465516,-0.0028349413857763324,0.0007792507364319429,0.04672250880270424,0.04940134669805648,0.036828845918221685
1776675632.630589,0.0095800785347819,0.0191601570695639,9.84353065490723,0.006376197203796884,-0.0030700130789073554,0.0012364916641902557,0.04705464984572486,0.04958982675114427,0.036903100847916544
1776675632.6524482,0.0047900392673909,0.0143701173365116,9.79562950134277,0.0025986884444707545,-0.0033092044936671944,0.0017109614477610014,0.04738521057190575,0.049776727875637194,0.03697705814691934
1776675632.6744475,-0.0047900392673909,0.0143701173365116,9.80041980743408,-0.001109396308697057,-0.0035488491981184914,0.0022009748237135198,0.04772231333219977,0.049966859406420434,0.037052698143175446
1776675632.6965814,-0.0143701173365116,0.023950194939971,9.82437038421631,-0.0047274162005455245,-0.003785187819177665,0.0027046215125301914,0.04805629475872073,0.05015498417186059,0.03712801544376263
1776675632.7185814,-0.0670605450868607,0.0191601570695639,9.78604984283447,-0.008236193971997511,-0.004014421956754946,0.0032197394201606147,0.048389517601149706,0.050342651511850973,0.03720369763955259
1776675632.7405918,-0.0479003898799419,0.0335302725434303,9.78125953674316,-0.011618302791459617,-0.004232723990128005,0.0037439261768097954,0.048721508499343195,0.050529802784141056,0.03727979495407521
1776675632.7625842,-0.0718505829572678,0.0191601570695639,9.80041980743408,-0.014858317611023873,-0.0044362438397681555,0.00427447564454451,0.049052359660564794,0.050716691371531966,0.037356486108266446
1776675632.7845829,-0.0526904314756393,0.023950194939971,9.81478977203369,-0.01794289900713715,-0.004621143258593098,0.0048083851610500414,0.049379568264959865,0.050902093062604986,0.03743333857359928
1776675632.8065772,-0.0814306661486626,0.0335302725434303,9.819580078125,-0.02086087055403979,-0.0047836488119230485,0.00534253483554527,0.04970526631649361,0.05108739838476998,0.0375109991231831
1776675632.8284495,-0.100590817630291,0.0095800785347819,9.79562950134277,-0.02360365018745526,-0.004920081355441693,0.005873873057416688,0.05002519190040781,0.051270347970124336,0.03758858260273888
1776675632.8504531,-0.1197509765625,0.0287402346730232,9.82437038421631,-0.026165940894970617,-0.0050268867295549715,0.00639947161211983,0.050345871645559585,0.05145484621152399,0.037667817933941077
1776675632.872588,-0.105380862951279,0.0335302725434303,9.79562950134277,-0.02854609326664218,-0.005100675699281197,0.006916516794643706,0.05066539363499045,0.05163998751542515,0.037748412543245916
1776675632.894598,-0.110170900821686,0.0335302725434303,9.79562950134277,-0.030745916263363513,-0.005138210954467171,0.007422293635629818,0.05097872977872759,0.05182300984058552,0.037829226851927834
1776675632.9165869,-0.124541014432907,0.023950194939971,9.80521011352539,-0.03277024381646798,-0.005136379429856438,0.007914138632725665,0.05128817957960936,0.05200538539400734,0.037910958142108354
1776675632.9385846,-0.1197509765625,0.0143701173365116,9.79562950134277,-0.03462653006513512,-0.00509224285579484,0.008389413682038388,0.05159658362267565,0.0521889563224525,0.03799450815343453
1776675632.9605913,-0.114960938692093,0.0335302725434303,9.80041980743408,-0.0363244936888608,-0.0050031368038365095,0.008845532768929822,0.0518949226366875,0.052368463536631986,0.03807751796234963
1776675632.9825876,-0.134121090173721,0.0287402346730232,9.81478977203369,-0.03787575510905812,-0.004866710572839998,0.009280002982860129,0.05219203399744213,0.05254933274927528,0.038162528092798756
1776675633.0045922,-0.105380862951279,0.0335302725434303,9.81478977203369,-0.03929348367646969,-0.004680890419071822,0.009690498690155758,0.052482986619742406,0.05272870821500662,0.0382482497246298
1776675633.0265923,-0.110170900821686,0.0335302725434303,9.78604984283447,-0.04059204360853194,-0.004443842610544873,0.010074932753475619,0.052770218750911806,0.052908215778908724,0.038335493002543686
1776675633.0485961,-0.1197509765625,0.023950194939971,9.8100004196167,-0.04178665086587127,-0.0041539667933122235,0.01043143819755846,0.053052329234055395,0.05308711814685636,0.038423936201316296
1776675633.0705876,-0.0862207040190697,0.0143701173365116,9.81478977203369,-0.04289315035331396,-0.0038099107427276707,0.010758351473486385,0.053329071369525645,0.053265379951679515,0.03851358113337411
1776675633.092588,-0.0814306661486626,0.0287402346730232,9.79084014892578,-0.04392783707852873,-0.0034106029567753304,0.011054287564470229,0.053600774378811326,0.05344334112837242,0.03860461351874562
1776675633.1145937,-0.0862207040190697,0.0191601570695639,9.80041980743408,-0.04490716565181076,-0.002955269719117847,0.01131817146213096,0.05386724950078291,0.05362101558015085,0.03869705094117178
1776675633.1365902,-0.0670605450868607,0.0335302725434303,9.80041980743408,-0.04584743278875485,-0.0024434170953170214,0.011549171821386806,0.05412819794632504,0.05379834222528288,0.0387908621372439
1776675633.1585844,-0.0526904314756393,0.0,9.8100004196167,-0.04676450947484494,-0.0018748219692834333,0.011746668486678952,0.054383471355287066,0.053975360054019934,0.03888605817408266
1776675633.180582,-0.0191601570695639,0.0143701173365116,9.80041980743408,-0.04767354107262456,-0.001249586654043669,0.011910283470981737,0.05463286903101451,0.0541520736114119,0.03898262237830232
1776675633.2025893,-0.0047900392673909,0.0143701173365116,9.78125953674316,-0.04858858964015611,-0.0005682164685086627,0.012039874886155637,0.054876668590909186,0.054328838470647206,0.03908072417487885
1776675633.2245905,0.0191601570695639,0.0335302725434303,9.8100004196167,-0.04952228793111292,0.00016839197597295533,0.012135460638047761,0.05511450168385867,0.05450555944572651,0.039180278550728594
1776675633.2465901,0.0335302725434303,0.0143701173365116,9.79084014892578,-0.05048556841041175,0.0009590512671709278,0.0121971694332745,0.05534616556588636,0.05468225945816446,0.03928125453143227
1776675633.2685814,0.0191601570695639,0.0143701173365116,9.78125953674316,-0.051487507388779934,0.0018023460858059951,0.012225241312724094,0.055571772794011855,0.05485921392937008,0.039383758398950745
1776675633.290583,0.0095800785347819,0.023950194939971,9.80521011352539,-0.052535230951435884,0.002696590421496928,0.012219971146415428,0.0557909166156458,0.05503630393584679,0.03948766123324996
1776675633.3125813,0.0335302725434303,0.0143701173365116,9.80041980743408,-0.05363365170225329,0.0036397173352412343,0.012181600074049994,0.05600370429110062,0.055213828297541595,0.03959306956524122
1776675633.3345873,0.0383203141391277,0.0191601570695639,9.79084014892578,-0.054785027625874366,0.004629169022439042,0.012110237286260265,0.05621003176787175,0.05539193733498613,0.0396999979920168
1776675633.357587,0.0574804693460464,0.0047900392673909,9.79084014892578,-0.05598872548164698,0.005661844737072854,0.012005812879212409,0.05641875293684005,0.05557898006997871,0.039813451281646796
1776675633.3786068,0.0622705072164536,0.0047900392673909,9.80041980743408,-0.057241330168090736,0.006734103111200292,0.011868062056476331,0.05660257034144101,0.05575027997567601,0.03991830277947721
1776675633.4005804,0.0526904314756393,-0.0095800785347819,9.78125953674316,-0.058536910286526585,0.00784176793362706,0.011696557757518792,0.0567881063218083,0.055930414991746426,0.04002942553988253
1776675633.4225965,0.0670605450868607,0.023950194939971,9.79562950134277,-0.059867350022696615,0.008980154380925153,0.011490749653336966,0.056966889931295506,0.056111978523050554,0.04014220559795463
1776675633.444625,0.0622705072164536,0.0095800785347819,9.8100004196167,-0.06122270884441322,0.010144185813507066,0.011250008154226823,0.05713827859060935,0.05629464728814254,0.040256330710925034
1776675633.466589,0.0574804693460464,-0.0047900392673909,9.80041980743408,-0.06259155860796725,0.011328547571638386,0.010973728143426863,0.057301642706191175,0.05647801918829018,0.040371426582783254
1776675633.4885895,0.0718505829572678,0.0095800785347819,9.79562950134277,-0.06396130704414693,0.012527750011291677,0.010661430479931077,0.05745769339962922,0.05666320484829033,0.04048806324456162
1776675633.5106425,0.0622705072164536,0.0,9.82437038421631,-0.0653184937105247,0.013736139763809942,0.010312795750713784,0.05760633692635093,0.05685051279947815,0.040606305682412525
1776675633.532582,0.0479003898799419,-0.0047900392673909,9.80521011352539,-0.06664902956253799,0.014947948872625747,0.009927739023816641,0.05774632029279124,0.05703868310342577,0.04072522148543291
1776675633.5545912,0.0622705072164536,0.0,9.8100004196167,-0.06793836482557886,0.016157354105458377,0.009506587213112545,0.05787861003523671,0.05722934919680142,0.04084570090890228
1776675633.5765893,0.0479003898799419,-0.0047900392673909,9.8100004196167,-0.0691715944676309,0.017358531385957762,0.009050233521657833,0.05800239534626887,0.05742174187114299,0.04096711279067952
1776675633.5985837,0.0143701173365116,0.0047900392673909,9.80521011352539,-0.07033363467402536,0.01854572272287225,0.008560166925673057,0.05811823143439058,0.05761715877446065,0.04109012584462282
1776675633.6205857,0.0191601570695639,-0.0191601570695639,9.78604984283447,-0.07140957825740948,0.019713291457336718,0.008038386288807191,0.058224833698982834,0.05781376807803523,0.041213437170622993
1776675633.6426258,0.0095800785347819,0.0,9.8100004196167,-0.07238509441261715,0.020855736810898765,0.007487256029113697,0.05832286959763166,0.058013042500421746,0.04133782103860037
1776675633.6648617,0.0,-0.0047900392673909,9.76209926605225,-0.07324671048792027,0.02196770384773968,0.006909369644764077,0.05841318902119635,0.05821749924433374,0.04146467965336644
1776675633.686595,-0.0143701173365116,0.0,9.80041980743408,-0.0739820114339416,0.02304404106203138,0.006307425696412413,0.058492322039437064,0.058419137705496255,0.04158891538376742
1776675633.708631,-0.0047900392673909,0.0047900392673909,9.8100004196167,-0.0745798181845583,0.024079880419453078,0.005684158801992909,0.05856393932383,0.05862729461593858,0.041716138968086465
1776675633.7296457,-0.023950194939971,-0.0047900392673909,9.79084014892578,-0.07503031100564245,0.025070696651770155,0.005042395560239881,0.05862356988101367,0.0588279033567845,0.04183766177095595
1776675633.7525945,-0.0143701173365116,0.0,9.80521011352539,-0.07532509108627607,0.026012330877048163,0.004385116723026614,0.058679316423955324,0.05905048623847224,0.04197113875746793
1776675633.7745974,-0.0287402346730232,0.0,9.79084014892578,-0.07545729586447873,0.026900983507663987,0.0037154161850639572,0.05872358363657389,0.05926784006547434,0.042100016406265234
1776675633.797604,-0.0383203141391277,-0.0095800785347819,9.82437038421631,-0.07542193851193071,0.02773319393973442,0.003036441664539831,0.05875997324190293,0.05949801448132647,0.042234834141810756
1776675633.8196516,-0.0574804693460464,0.0,9.80041980743408,-0.07521638514720856,0.028505809124278945,0.002351393656390652,0.05878554972057961,0.059722582954083184,0.04236465533659992
1776675633.8405979,-0.0431103520095348,-0.0143701173365116,9.78125953674316,-0.0748406104034815,0.02921595586251208,0.0016635135161656245,0.05880147489365829,0.059941094026725025,0.04248929678028422
1776675633.86259,-0.0574804693460464,-0.0143701173365116,9.80521011352539,-0.07429710105561407,0.029861020779254597,0.0009759763194030013,0.05880916797560941,0.06017104490182036,0.0426186273777208
1776675633.8856122,-0.0622705072164536,-0.023950194939971,9.81478977203369,-0.07359060700279396,0.030438611117946653,0.000291807502909971,0.058807729878064534,0.060414231843526,0.042753315790030035
1776675633.9065905,-0.0718505829572678,-0.0047900392673909,9.79084014892578,-0.07272791498910351,0.030946521162009903,-0.00038607166392219563,0.0587978651403491,0.06064349345600721,0.042878306697145714
1776675633.9296017,-0.0766406282782555,-0.0143701173365116,9.78125953674316,-0.07171766459716253,0.0313827597096791,-0.0010548318471571543,0.0587781903361619,0.06089419486142803,0.04301276294585477
1776675633.9506,-0.0718505829572678,-0.0047900392673909,9.81478977203369,-0.07057015810255109,0.03174562031870458,-0.001711829226259487,0.05875191308145298,0.061128486953777206,0.04313631718815383
1776675633.9725933,-0.0622705072164536,-0.023950194939971,9.819580078125,-0.06929711896616905,0.03203372229309738,-0.002354611197420059,0.05871614364288896,0.0613776096552338,0.043265466817114455
1776675633.9945843,-0.0574804693460464,-0.0191601570695639,9.79084014892578,-0.06791138715671945,0.03224598744136312,-0.002980800021464773,0.05867205539761288,0.061630804277819404,0.043394391089778696
1776675634.0165937,-0.0526904314756393,-0.0143701173365116,9.79084014892578,-0.06642662828752081,0.03238159258076576,-0.003588055060948934,0.058619668409879144,0.061888722384391526,0.043523322564756356
1776675634.0385945,-0.0718505829572678,-0.0095800785347819,9.78604984283447,-0.06485719504755953,0.032439970760620246,-0.004174123696584403,0.0585595940168498,0.062149354925793494,0.0436511845028433
1776675634.0605845,-0.0958007797598839,-0.0143701173365116,9.79562950134277,-0.06321816627845309,0.03242086227782701,-0.004736837745046343,0.05849166378656407,0.062414404681617644,0.04377875148487372
1776675634.0825813,-0.0670605450868607,-0.0191601570695639,9.78604984283447,-0.06152539795838106,0.03232434259270989,-0.0052740722625048,0.0584163583222042,0.06268278325812335,0.04390543774087724
1776675634.1045778,-0.0910107418894768,-0.0095800785347819,9.78604984283447,-0.0597954151423716,0.032150804285479395,-0.005783750400205085,0.058333511837540215,0.06295578586978492,0.044031797071514
1776675634.1265845,-0.0335302725434303,-0.0287402346730232,9.8100004196167,-0.058045139501899,0.03190093016837715,-0.00626387006458638,0.05824342859773804,0.06323296518913578,0.04415756034176884
1776675634.1485977,-0.0574804693460464,-0.0287402346730232,9.78604984283447,-0.05629152323021163,0.031575650432469814,-0.006712488490297304,0.05814647641871202,0.06351379815821928,0.04428244840305668
1776675634.1695786,-0.0383203141391277,-0.0191601570695639,9.81478977203369,-0.054551185142084624,0.031176078001639483,-0.007127688498250597,0.05804765960225775,0.06378542066216016,0.044400880452909165
1776675634.1935937,-0.0479003898799419,-0.0143701173365116,9.8100004196167,-0.05284016060093194,0.030703494916445428,-0.007507555457712873,0.05792757632237755,0.0640997610331928,0.044535126838335604
1776675634.214596,-0.0718505829572678,-0.0431103520095348,9.8100004196167,-0.05117378991273909,0.030159386371599067,-0.007850142115087222,0.05781662224342328,0.06437774354618989,0.04465141201152575
1776675634.237585,-0.0431103520095348,0.0,9.80521011352539,-0.049566699933134124,0.029545437169272142,-0.008153462333437663,0.05768812300531947,0.0646874716063452,0.04477837749123469
1776675634.258585,-0.0095800785347819,-0.023950194939971,9.81478977203369,-0.04803269304873578,0.0288635306127829,-0.008415561139870995,0.05756549127731638,0.06497282725488504,0.0448930103970138
1776675634.2805846,-0.0287402346730232,-0.023950194939971,9.76209926605225,-0.04658434830445142,0.028115775164343607,-0.008634683115798056,0.05743204971213358,0.06527376326808786,0.045011558480915786
1776675634.3025904,-0.0095800785347819,-0.0191601570695639,9.80041980743408,-0.04523255579401362,0.027304472405196546,-0.00880953501192851,0.05729180166553033,0.06558083788450327,0.04513013889671182
1776675634.3245976,-0.0047900392673909,0.0,9.79562950134277,-0.04398631507460775,0.026432078468372953,-0.008939461336654648,0.05714678753576602,0.06588976506545605,0.045247101286981124
1776675634.3475919,-0.0383203141391277,0.0095800785347819,9.80041980743408,-0.04285277395125879,0.02550127647723943,-0.009024388669097374,0.05698949918584287,0.06621623382510461,0.04536827116663448
1776675634.3696022,-0.0095800785347819,-0.0287402346730232,9.77647018432617,-0.04183738996334497,0.024515077572062324,-0.009064703172243348,0.056833592248580485,0.06653203357056152,0.04548320751679453
1776675634.3906014,0.0,-0.0383203141391277,9.80041980743408,-0.040944100255692145,0.02347675967204671,-0.00906122326649853,0.056680421048771565,0.06683553709812101,0.04559165966411024
1776675634.4125962,-0.0143701173365116,0.0047900392673909,9.80041980743408,-0.040175385435317915,0.0223896819984363,-0.00901517995742237,0.05651520488302769,0.06715612723826204,0.04570418351704484
1776675634.4345913,0.0,-0.0047900392673909,9.78125953674316,-0.03953231236879068,0.021257241644230897,-0.008928134780402207,0.05634482736035118,0.06748000721361465,0.04581584708483537
1776675634.4566104,0.0,0.0,9.79562950134277,-0.03901463686768643,0.020083002779826328,-0.008801927360570743,0.056169558188817026,0.06780663140676697,0.04592651525698289
1776675634.4785957,-0.0095800785347819,-0.0479003898799419,9.79562950134277,-0.03862091367700676,0.018870738229257108,-0.00863866576402663,0.05599022211776819,0.06813444836769975,0.04603573678474982
1776675634.500592,0.0,-0.0095800785347819,9.79084014892578,-0.03834858622476508,0.01762429271679475,-0.008440679925075854,0.05580632062963847,0.06846433153771998,0.04614388480269233
1776675634.5235894,0.0,0.0,9.80521011352539,-0.03819400284467944,0.016347494326896552,-0.00821045274988821,0.055608980721788825,0.06881165533249763,0.046255959378738803
1776675634.5446162,-0.0095800785347819,-0.0047900392673909,9.81478977203369,-0.03815237110162016,0.01504426714479105,-0.007950541597227315,0.055423957950054545,0.06913135172635591,0.046357597854509304
1776675634.5666237,0.023950194939971,0.0,9.80041980743408,-0.03821778138819136,0.013718771106184979,-0.007663475254242566,0.05522565235665315,0.06946788554692072,0.04646312398383654
1776675634.5895884,0.0095800785347819,-0.0047900392673909,9.80521011352539,-0.03838328975206281,0.012375412408863319,-0.0073516959048021266,0.05501322705104195,0.06982164047811344,0.04657254674285
1776675634.6095917,0.0,0.0095800785347819,9.80521011352539,-0.03864101194809244,0.01101879540090184,-0.007017574423057692,0.05482368964966865,0.07013160405570464,0.046667250637499116
1776675634.6326163,0.0047900392673909,0.0191601570695639,9.78604984283447,-0.03898229970034309,0.009653711286140594,-0.006663444671867296,0.054603044272264895,0.07048589662980591,0.04677427159577237
1776675634.6546967,-0.0047900392673909,0.0143701173365116,9.82437038421631,-0.039397972243890286,0.008285170941679323,-0.006291627679092507,0.05438537827392981,0.07082871111206988,0.04687668437676725
1776675634.6765893,0.0047900392673909,0.0095800785347819,9.81478977203369,-0.03987850633229243,0.006918410011795368,-0.005904390956619543,0.054165137307616795,0.07116900086585606,0.04697733815130467
1776675634.697598,0.0,0.0,9.81478977203369,-0.040414171817068925,0.005558805651918486,-0.005503840365327736,0.05394874171829275,0.07149706378281427,0.04707352364518178
1776675634.7196436,-0.0047900392673909,-0.0335302725434303,9.8100004196167,-0.04099514117650735,0.004211706241664967,-0.005091868015273926,0.053716961133332373,0.07184170065924163,0.04717377052581672
1776675634.741617,0.0,0.0335302725434303,9.78125953674316,-0.04161160163090865,0.0028822452023866095,-0.0046702216068964676,0.05348126766950933,0.07218517029854953,0.047272963991160044
1776675634.765594,-0.0383203141391277,0.0191601570695639,9.79084014892578,-0.04225389404747127,0.0015753114845733808,-0.004240663129176486,0.05321769596066766,0.0725611397408638,0.047380842660548525
1776675634.7866056,-0.0095800785347819,0.0047900392673909,9.80041980743408,-0.04291269015675224,0.00029567494770862203,-0.0038051110454251987,0.05298187510231164,0.07289045730863661,0.04747482444494539
1776675634.807589,-0.0095800785347819,0.0143701173365116,9.80041980743408,-0.04357912690529916,-0.0009519778382334794,-0.003365641812748942,0.05273961225230202,0.0732219942362295,0.04756905007537012
1776675634.8296106,-0.0095800785347819,0.0191601570695639,9.8291597366333,-0.04424480797865635,-0.002163122990760592,-0.0029243675937943364,0.052484711432652764,0.07356359718929907,0.04766582047143889
1776675634.8514588,-0.0191601570695639,-0.0047900392673909,9.78125953674316,-0.04490176560529631,-0.003333450663129816,-0.0024833093306181318,0.05222495673894916,0.07390428809573968,0.04776210391821652
1776675634.8746018,0.0095800785347819,0.0,9.79084014892578,-0.04554247075658287,-0.004458926335252053,-0.002044392255300994,0.05194242257796741,0.07426660882435723,0.047864350133774713
1776675634.8956132,-0.0287402346730232,-0.0143701173365116,9.78125953674316,-0.0461598411041982,-0.005535907036873505,-0.001609571199186342,0.051680553893733806,0.07459500011791977,0.047956970896788846
1776675634.917597,-0.0191601570695639,0.0095800785347819,9.819580078125,-0.046747272642061286,-0.006561225129628371,-0.0011809009360444927,0.051401942142428846,0.07493678841122356,0.04805340780498285
1776675634.9396207,-0.0287402346730232,0.0047900392673909,9.80521011352539,-0.04729874246656957,-0.007532170148416181,-0.0007604341340329899,0.051116882884188204,0.0752786456672425,0.04814998747834621
1776675634.9615943,-0.0095800785347819,0.0,9.8100004196167,-0.047808884363600306,-0.008446409955720234,-0.00035006461155443467,0.050827227089894,0.07561817695434808,0.0482461151238415
1776675634.9846008,-0.0335302725434303,0.0143701173365116,9.8100004196167,-0.048272992755912736,-0.00930192142199548,4.8557651489950166e-05,0.05051645809584797,0.07597399670457944,0.04834716180304613
1776675635.0056026,0.0047900392673909,0.0095800785347819,9.78604984283447,-0.048687042962848044,-0.010096895449065377,0.00043406667783730255,0.05022802130189123,0.07629671223709701,0.048439152108541085
1776675635.0287654,-0.0335302725434303,0.0095800785347819,9.83395004272461,-0.04904772902059512,-0.010829608364264292,0.0008054207194118606,0.04990342411855411,0.07665155157098665,0.048540761849305364
1776675635.0506043,-0.023950194939971,0.0095800785347819,9.8100004196167,-0.04935248114274014,-0.011498365300600081,0.001161963393886804,0.04959176985618799,0.07698427785297768,0.04863655117193883
1776675635.0725975,-0.0143701173365116,0.0143701173365116,9.79562950134277,-0.049599478211489495,-0.012101526874525719,0.0015034671795522692,0.049271532764020964,0.0773183823935819,0.048733307199086
1776675635.0946019,-0.0191601570695639,0.0095800785347819,9.819580078125,-0.04978760814844707,-0.012637541657167841,0.0018300664822397713,0.048945039016555045,0.07765123768189726,0.04883033713713843
1776675635.1165893,-0.0287402346730232,0.0287402346730232,9.77647018432617,-0.04991637983770437,-0.013104957315955948,0.002142132026609307,0.04861301688712017,0.07798203005037808,0.048927459295216774
1776675635.137593,-0.0287402346730232,0.0095800785347819,9.79562950134277,-0.04998588503127649,-0.013502413484787475,0.0024401527892736327,0.04829046924942135,0.07829627777961595,0.049020421540236274
1776675635.1606123,-0.0287402346730232,0.0143701173365116,9.79084014892578,-0.0499968027882401,-0.013828653612519478,0.0027246213831861182,0.04793006029331227,0.0786395089534662,0.049122798344888634
1776675635.1828673,-0.0047900392673909,0.0143701173365116,9.83395004272461,-0.04995035352422713,-0.01408258285587327,0.002996022737711311,0.04757381737311853,0.07897096456793704,0.04922255345584724
1776675635.203587,-0.0335302725434303,0.0095800785347819,9.79084014892578,-0.049848184703969296,-0.014263325528560428,0.0032549536050993358,0.04723961366594644,0.07927519686649019,0.04931493404037228
1776675635.226746,-0.023950194939971,0.023950194939971,9.80521011352539,-0.04969228141511571,-0.014370246931303097,0.0035021664948608313,0.046858699962865215,0.07961440979763629,0.049418914636526125
1776675635.2476132,-0.0383203141391277,0.0287402346730232,9.79562950134277,-0.049484954863909025,-0.014402931649394645,0.003738398213149323,0.04650898914619994,0.07991910940611728,0.04951323751110044
1776675635.2705975,-0.0335302725434303,0.0,9.77647018432617,-0.04922884956643389,-0.014361146570822027,0.003964120996004728,0.046118488209049256,0.08025213396696187,0.04961737337702583
1776675635.292598,-0.0191601570695639,0.023950194939971,9.80041980743408,-0.04892691443900948,-0.014244868752741597,0.0041793903664415,0.04573775306055323,0.0805698794136677,0.04971778874702842
1776675635.3136058,-0.0143701173365116,0.0,9.80521011352539,-0.048582308955512396,-0.014054359247487592,0.004383850320298807,0.04536867523686059,0.08087169197944855,0.04981415895479231
1776675635.3366015,-0.0287402346730232,0.0,9.8291597366333,-0.048198276694609375,-0.013790218913505743,0.004576893714148025,0.04495714635953905,0.08120140823501422,0.04992057595893758
1776675635.3586128,-0.0287402346730232,0.0143701173365116,9.8100004196167,-0.04777809164106467,-0.013453432359278957,0.004757875091963388,0.04456093969379604,0.08151243354836513,0.05002207672584878
1776675635.3805869,-0.023950194939971,0.0,9.79084014892578,-0.04732508402479815,-0.0130453709197873,0.004926210524755208,0.04415738129045325,0.0818231280558992,0.05012457538030755
1776675635.402615,-0.0335302725434303,0.0,9.80041980743408,-0.04684265578988908,-0.012567760588374841,0.005081307171430017,0.04374731635284563,0.08213288382893094,0.050227883332200685
1776675635.423605,-0.0191601570695639,0.0,9.8100004196167,-0.046334261162887774,-0.012022680621678331,0.0052224697201567576,0.04335141106446332,0.08242658175750468,0.05032688029482518
1776675635.445599,-0.023950194939971,0.0,9.77167987823486,-0.045803366369114605,-0.011412570738205976,0.005348896011034599,0.04293131696165999,0.08273280546858434,0.0504311898774701
1776675635.4676015,-0.0143701173365116,-0.0047900392673909,9.79084014892578,-0.04525340069434991,-0.01074023236508835,0.005459675298650917,0.042505041227205706,0.08303817423682185,0.050536319740968005
1776675635.4905906,0.0,0.0047900392673909,9.78125953674316,-0.044687726591307285,-0.010008880517175153,0.005553788851388134,0.042050664387426315,0.08335810253617872,0.05064764970985049
1776675635.5126147,-0.023950194939971,-0.0047900392673909,9.79084014892578,-0.04410962630000956,-0.009222216204689243,0.0056301986784306505,0.041616312255818806,0.08365889748083224,0.050753422163274726
1776675635.5345953,-0.0095800785347819,0.0,9.81478977203369,-0.04352230694685713,-0.008384433273422386,0.005687979862116117,0.04117523488116111,0.08395964653589694,0.05086023031045667
1776675635.5567546,0.0,0.0,9.8100004196167,-0.04292890834839402,-0.007500160568949472,0.0057264581080495,0.040724433552253914,0.08426245506580698,0.05096881165287537
1776675635.5785995,0.0095800785347819,0.0,9.78125953674316,-0.042332439845281344,-0.006574379727566233,0.0057453025757301475,0.04027421794770966,0.08456057256819226,0.051076705904524636
1776675635.599612,-0.023950194939971,-0.023950194939971,9.80041980743408,-0.04173568784013613,-0.0056123617392160475,0.005744471844864041,0.03983692932327257,0.0848463039420793,0.05118101405458373
1776675635.6225934,-0.0095800785347819,-0.0095800785347819,9.81478977203369,-0.04114123310506318,-0.004619663002450713,0.005724113213719428,0.03935399459221121,0.08515780016540568,0.05129568664968812
1776675635.644604,-0.0191601570695639,0.0,9.819580078125,-0.04055155250021199,-0.003602115714032973,0.005684595659078468,0.03888569451964746,0.08545608181879161,0.051406389234621
1776675635.666608,0.0143701173365116,-0.0191601570695639,9.79084014892578,-0.03996904908582799,-0.002565735854942557,0.005626595429841792,0.03841341060772092,0.08575342581468301,0.051517566436695215
1776675635.6886055,0.0,0.0,9.8100004196167,-0.03939596086235491,-0.001516618124202127,0.005551061532318399,0.03793607144819185,0.08605068390934692,0.051629479789485254
1776675635.7109096,-0.0143701173365116,-0.0047900392673909,9.81478977203369,-0.038834249462874684,-0.00046087258381236,0.005459105363615043,0.03744712613752071,0.08635203807177255,0.05174366129952108
1776675635.7326007,0.0047900392673909,-0.0191601570695639,9.80521011352539,-0.03828555078557145,0.0005954112377937499,0.005351917585578663,0.03696385978611559,0.08664703491294279,0.05185608281088879
