Timestamp,IMU_Linear_Acc_X,IMU_Linear_Acc_Y,IMU_Linear_Acc_Z,Filtered_X,Filtered_Y,Filtered_Z,Pose_X,Pose_Y,Pose_Z
1739326269.5467613,0.01846330799162388,0.6945131421089172,-10.021926879882812,2.9247899383732172e-08,1.244548649605054e-06,-6.213114783787775e-09,0.9800000191208853,2.456000091662295,-1.006894221966197e-11
1739326269.5967665,0.007384650409221649,0.6804640889167786,-10.022266387939453,2.4847531602659944e-07,1.098399186509537e-05,-5.520304157904744e-08,0.9784165604574944,2.4591669151702464,-1.2823505653713925e-11
1739326269.646769,-0.01953684724867344,0.6891283988952637,-10.030141830444336,1.0394037995543903e-06,4.889645404302228e-05,-2.5439320885041984e-07,0.9781262307357416,2.459747562938661,-4.109114395757632e-11
1739326269.6968546,-0.03750932589173317,0.684061586856842,-10.023992538452148,2.9106661245527113e-06,0.00014987904068548458,-8.194032436063024e-07,0.9779926187857764,2.46001497094477,-1.0491506641687784e-09
1739326269.7467446,-0.03750932589173317,0.684061586856842,-10.023992538452148,6.251466323289811e-06,0.0003625039312419671,-2.082614663441731e-06,0.977937974441316,2.4601249404948806,-4.745748102616191e-09
1739326269.7968717,-0.05396217852830887,0.6866337060928345,-10.008875846862793,1.1125659921612408e-05,0.000746283390028031,-4.452906341030223e-06,0.9779865146890533,2.460027273097125,-1.6262190036030464e-09
1739326269.8467267,-0.042450033128261566,0.6892576813697815,-10.006542205810547,1.7181718945358315e-05,0.0013691867311147977,-8.326979227488937e-06,0.9779795940921975,2.460041784269704,-5.503923128236651e-09
1739326269.8969088,-0.014067274518311024,0.699812114238739,-10.003129959106445,2.368115936642101e-05,0.002305414682554286,-1.3986983971152583e-05,0.9779721426594143,2.4600582350409206,-1.4589035906187973e-08
1739326269.946751,-0.014067274518311024,0.699812114238739,-10.003129959106445,2.9670687517727044e-05,0.0036334205142014814,-2.1534150050974783e-05,0.9761083465382742,2.463783752040362,-2.529577593160589e-09
1739326269.9970973,0.066153883934021,0.7226426005363464,-10.005481719970703,3.427818719953325e-05,0.005434155695098966,-3.087549649292176e-05,0.9759418543360561,2.464120681098757,-2.4795582678235485e-08
1739326270.047261,0.066153883934021,0.7226426005363464,-10.005481719970703,3.711240690143414e-05,0.007789530098993759,-4.17472830813934e-05,0.9758769095485268,2.464256691709963,-5.875582991857604e-08
1739326270.0967195,0.1217101588845253,0.7432952523231506,-10.030953407287598,3.877834266184575e-05,0.01078110885648884,-5.377469652410402e-05,0.9721012105741131,2.4641728234045894,-1.3642706024384883e-07
1739326270.1467938,0.1411658227443695,0.749549150466919,-10.041687965393066,4.152346756294915e-05,0.014489090975150972,-6.65987193446989e-05,0.9717674370539837,2.4642057421680392,-1.894478801160023e-07
1739326270.196621,0.15921346843242645,0.762637734413147,-10.041034698486328,4.986626252149546e-05,0.018991490444987883,-8.004992511586745e-05,0.9714320824335452,2.464241518540267,-2.545502659540364e-07
1739326270.2967584,0.153282031416893,0.7474147081375122,-10.05876350402832,7.08564926937381e-05,0.02436330204236861,-9.428096287777449e-05,0.9704447492746152,2.4643684497164844,-5.31357054837686e-07
1739326270.3467457,0.12061364203691483,0.7492493987083435,-10.039311408996582,0.00011383969318613416,0.030675564908965433,-0.00010981862834085455,0.9697509226515878,2.4679038657176537,-1.0197626451115628e-07
1739326270.396623,0.09176028519868851,0.7419864535331726,-10.042362213134766,0.00018988968892432682,0.037994431054323013,-0.00012753552751111242,0.9694718327759108,2.468201532679707,-6.582944297737164e-08
1739326270.4471676,0.04410984367132187,0.7357285618782043,-10.036469459533691,0.00031106439308166217,0.04638034571901893,-0.0001485495274387022,0.9689949135661925,2.4687398529733326,-2.3948866058957283e-07
1739326270.4967494,0.008749215863645077,0.7275271415710449,-10.034972190856934,0.0004896011055797462,0.05588735919640974,-0.00017411076722573284,0.9682543765762974,2.4696654748844096,-7.891786440544616e-07
1739326270.546693,-0.04053928330540657,0.7253067493438721,-10.025117874145508,0.0007371435492712825,0.0665625592556946,-0.00020551092323926979,0.9677134274566811,2.4654696936340454,-2.626222656181053e-07
1739326270.5970407,-0.05850691348314285,0.730259895324707,-10.025046348571777,0.0010640655955540925,0.07844564263717768,-0.00024399540074233477,0.9669933405322093,2.466707462333916,-4.537839085537871e-07
1739326270.6467674,-0.06932259351015091,0.7152873873710632,-10.018284797668457,0.0014789768096286251,0.0915686346358596,-0.0002906804139088956,0.966442793639444,2.46764053697881,-1.1185403496928108e-06
1739326270.696653,-0.07400314509868622,0.7052590250968933,-10.023153305053711,0.001988325315092535,0.10595567004355985,-0.00034648998903740374,0.966146595769614,2.467142648026779,-3.251483301976645e-07
1739326270.7966535,-0.07437840104103088,0.696427583694458,-10.015457153320312,0.002595785235278772,0.12162272653806706,-0.0004121067884350391,0.9646833239956228,2.4709857712606067,-2.046202222823267e-06
1739326270.996688,-0.007570846006274223,0.6897034049034119,-10.003026962280273,0.00330162229583634,0.13857737951553822,-0.00048791782041054775,0.9645177223448075,2.4713243002491185,-2.4986381517571137e-06
1739326271.0466285,0.016371142119169235,0.6964786052703857,-10.003381729125977,0.004102757373720606,0.15681875694986022,-0.0005739470942539288,0.9642154646750014,2.471282909553338,-8.975201998902498e-07
1739326271.0965812,0.042113471776247025,0.6931954622268677,-10.021678924560547,0.004993553350933393,0.1763377319668996,-0.0006698240336870195,0.9637701444974706,2.4720068388044183,-1.8649139219983195e-06
1739326271.1467519,0.042113471776247025,0.6931954622268677,-10.021678924560547,0.005966667147186372,0.19711725052102413,-0.0007748566914286244,0.9633606330087421,2.472813786916143,-3.2842623977177684e-06
1739326271.1966825,0.09846765547990799,0.7230433225631714,-10.0404052734375,0.007013670644052009,0.21913273225499938,-0.0008881875343326523,0.9628579584628607,2.474054183806286,-8.685450324605158e-07
1739326271.2465253,0.12417177855968475,0.7266796827316284,-10.047486305236816,0.008125598768950429,0.2423525759369436,-0.001008962196574366,0.9625307447154816,2.4748064889760153,-1.9001170763670638e-06
1739326271.2967043,0.15358838438987732,0.732335090637207,-10.05586051940918,0.009293531468666053,0.2667387459349975,-0.0011364836524847752,0.9622496179114997,2.475556955946732,-3.203299559903167e-06
1739326271.3465705,0.16436585783958435,0.7322107553482056,-10.060758590698242,0.010509102166467204,0.29224732434130185,-0.0012703310485554678,0.9619080652449529,2.4756621831747907,-1.100646307481483e-06
1739326271.3965604,0.1694338470697403,0.7310299873352051,-10.064165115356445,0.011764815071284861,0.31882898210894195,-0.0014104254538396233,0.9615518871466127,2.4763983858747296,-2.696171751048725e-06
1739326271.447141,0.15685667097568512,0.734461784362793,-10.050878524780273,0.013054364035152845,0.3464294369710842,-0.0015570116356915928,0.9613585556041911,2.476889804106534,-3.955835344296019e-06
1739326271.496726,0.1411793828010559,0.7261927723884583,-10.041261672973633,0.01437335352004625,0.3749899792503962,-0.0017104876309418952,0.9610684410768221,2.4772709143542277,-1.1724288894816912e-06
1739326271.546549,0.08937379717826843,0.7302552461624146,-10.035544395446777,0.015720128194412864,0.40444802957852394,-0.0018711263327883857,0.9608261519760573,2.4778148765748877,-2.473601751883379e-06
1739326271.5966654,0.040312353521585464,0.7302747368812561,-10.02230167388916,0.01709581672779391,0.434737623462442,-0.0020388560216630163,0.9605790960823882,2.478519004425219,-1.1063966329341532e-06
1739326271.6465242,0.040312353521585464,0.7302747368812561,-10.02230167388916,0.018503544011392783,0.4657898253680921,-0.0022131570515246933,0.9602584148647424,2.4798280620503332,-1.4855628601351752e-06
1739326271.6966028,-0.05242655426263809,0.7380915880203247,-10.010720252990723,0.019947503920126394,0.4975331381131301,-0.002393018667236726,0.95995301076591,2.4808178976900734,-4.063533723985334e-06
1739326271.7467225,-0.09635894745588303,0.7283464074134827,-10.006062507629395,0.021432109003546182,0.5298939218673073,-0.002576921275788888,0.9596420451978348,2.482202355125905,-8.413315588967005e-06
1739326271.7965648,-0.12590384483337402,0.722207248210907,-10.002944946289062,0.022961130316485567,0.5627967883322221,-0.0027628330691097476,0.959351300976347,2.481770726453996,-2.6246521207932743e-06
1739326271.8472488,-0.13659009337425232,0.7138996124267578,-10.002653121948242,0.024537015008610177,0.5961649370320208,-0.0029482302038026254,0.9589122746768245,2.483598354083305,-4.736357605716351e-06
1739326271.8965993,-0.13004279136657715,0.704379677772522,-9.997797966003418,0.02616057412857801,0.629920450381302,-0.0031301502101209544,0.9587789241845001,2.484318362568389,-7.1767220600794545e-06
1739326271.9464529,-0.13004279136657715,0.704379677772522,-9.997797966003418,0.027830989679405834,0.6639845871885264,-0.0033052593636446878,0.958576117046305,2.4842222920018426,-3.1186718249084667e-06
1739326271.9964488,-0.046213991940021515,0.6882222890853882,-10.001794815063477,0.029545837342338847,0.6982780591706896,-0.0034699727086647324,0.9583557668930826,2.485404637944605,-7.333548716219169e-06
1739326272.0472882,0.0038710522931069136,0.6856927275657654,-10.004405975341797,0.031300755881361234,0.7327212164725585,-0.0036207316115347814,0.9581118328243142,2.4874546336127272,-1.5479448939697702e-05
1739326272.0965352,0.0038710522931069136,0.6856927275657654,-10.004405975341797,0.03308901321949827,0.7672341857904064,-0.0037543654644106653,0.9579669788114548,2.485812666049576,-3.30612655890523e-06
1739326272.146476,0.11651462316513062,0.6788040399551392,-10.026430130004883,0.034901661588790545,0.8017371279956645,-0.003868321001964847,0.9578139733018601,2.4869930114293233,-7.792839199082176e-06
1739326272.1964703,0.14577661454677582,0.6877319812774658,-10.025642395019531,0.036728399578876275,0.8361506384942099,-0.003960749377115865,0.9576615541093174,2.4873155748217424,-4.198599575158891e-06
1739326272.246387,0.1698923408985138,0.7058045268058777,-10.028827667236328,0.03855864672988833,0.8703962111773275,-0.004030554248249257,0.9575293633266201,2.4891503413835654,-1.1016386869572028e-05
1739326272.2965758,0.1862080693244934,0.7094138860702515,-10.029805183410645,0.04038234971882027,0.904396752067737,-0.004077390544295442,0.9574633435745649,2.4883228226905825,-3.536837447798861e-06
1739326272.3465576,0.17274363338947296,0.7313418388366699,-10.029427528381348,0.04219038502339441,0.9380771109673318,-0.004101604903029547,0.9573947756143365,2.4898936624419683,-9.069498075139754e-06
1739326272.3963954,0.1349937915802002,0.7401875853538513,-10.027229309082031,0.04397463056077634,0.9713645806331449,-0.004104152234905476,0.957358778182186,2.491902041917303,-1.659659573376574e-05
1739326272.4464967,0.08458821475505829,0.7470301985740662,-10.017468452453613,0.04572772755603272,1.0041893449487416,-0.004086492288827761,0.9573574553446109,2.4912538554576993,-7.906155414896115e-06
1739326272.4964254,0.08458821475505829,0.7470301985740662,-10.017468452453613,0.04744262880097516,1.0364848404899578,-0.004050460118076853,0.9573799911795325,2.4909854073922286,-3.751509138344763e-06
1739326272.546752,-0.010908814147114754,0.765127420425415,-10.018908500671387,0.04911224514382384,1.0681880790444545,-0.003998115996989811,0.9574304599308364,2.4923574634373478,-8.239456251857875e-06
1739326272.5964427,-0.03847985342144966,0.753372073173523,-10.025917053222656,0.05072942060601092,1.0992400808265101,-0.003931580399262402,0.9574982638808948,2.492248581565243,-3.4826137696347044e-06
1739326272.646372,-0.075781911611557,0.742132306098938,-10.024394035339355,0.05228703905080414,1.129586318415296,-0.003852895299533257,0.9576612020315506,2.4947880426647684,-1.0826384838163304e-05
1739326272.6964827,-0.0716271847486496,0.7392581105232239,-10.030472755432129,0.05377795805965657,1.1591768718670397,-0.003763971849486686,0.9577841813984437,2.496875875794367,-1.7146070638992873e-05
1739326272.7465005,-0.05692571401596069,0.725893497467041,-10.043753623962402,0.05519487504898827,1.1879663015242603,-0.003666623653732975,0.9579211856796594,2.493678479919507,-3.6054423827620375e-06
1739326272.796446,-0.032946206629276276,0.718952476978302,-10.03471565246582,0.0565304008688608,1.215913453521485,-0.003562639055846626,0.9581255380809234,2.495343368726107,-8.14738335167872e-06
1739326272.8472493,0.004959456622600555,0.7003092169761658,-10.04233169555664,0.05777737175008015,1.242981265408431,-0.0034538350674967852,0.9584552094452645,2.4954181062527354,-4.964309491181898e-06
1739326272.8963645,0.036110881716012955,0.6981768012046814,-10.046332359313965,0.058929285877120326,1.26913656305104,-0.003342070792326704,0.9586995075565631,2.4956601898076975,-3.223162414989656e-06
1739326272.946376,0.06310538202524185,0.6897039413452148,-10.04687213897705,0.059980760858717216,1.294349877800279,-0.0032292572000427663,0.9590839654214542,2.497982631429193,-8.522646384000658e-06
1739326272.9963367,0.09022344648838043,0.6924316883087158,-10.036977767944336,0.06092792006476988,1.318595317122012,-0.003117362188466441,0.9599594797772091,2.5055077348511903,-2.608727837839638e-05
1739326273.046346,0.08617022633552551,0.6823710203170776,-10.027687072753906,0.0617686442122255,1.341850483856288,-0.003008359382408581,0.9608048461328654,2.4995462181900123,-8.604128813042407e-06
1739326273.096317,0.08947262912988663,0.6875145435333252,-10.021137237548828,0.06250269236895177,1.3640963447492185,-0.0029041171639893784,0.962046133427355,2.5020303814179,-1.095029778733196e-05
1739326273.1464636,0.08947262912988663,0.6875145435333252,-10.021137237548828,0.063131791159314,1.3853169154036051,-0.0028062861387275744,0.9629071569420556,2.501234602417071,-7.568626080611686e-06
1739326273.196362,0.03935031220316887,0.6902192831039429,-10.021907806396484,0.0636596615947105,1.4054988740741945,-0.0027162391212739393,0.9632517326653529,2.5026476505521593,-1.0284584479621313e-05
1739326273.3472934,0.00040407624328508973,0.704058825969696,-10.007440567016602,0.0640917237874509,1.4246313954487246,-0.0026350553612641903,0.9667614427271745,2.512062494134515,-2.1197944333048997e-05
1739326273.5463564,0.02365664392709732,0.734849750995636,-9.992849349975586,0.06443448906421483,1.442706269646222,-0.002563482113117227,0.9688059510390692,2.5250888062948857,-4.405978521903935e-05
1739326273.6964252,0.07996517419815063,0.7154048085212708,-10.004491806030273,0.06469510693559816,1.4597181403426451,-0.0025018540697698374,0.9700806660434689,2.5097035091390283,-1.4674454238753594e-05
1739326273.7464426,0.07767564803361893,0.7137026190757751,-10.010129928588867,0.06488136653439541,1.4756646598463452,-0.0024500638127186985,0.9707365481025055,2.50577794095258,-6.102099876388982e-06
1739326273.7962582,0.06146014481782913,0.7178259491920471,-10.026836395263672,0.06500187527327946,1.4905464699799091,-0.0024076576750328422,0.9714140640355541,2.507327289744943,-8.439349338656666e-06
1739326273.8464172,0.055957481265068054,0.7168484926223755,-10.026644706726074,0.06506601480727392,1.504367111206841,-0.0023740078155347847,0.9727989701504928,2.5061806132374054,-4.484748193011898e-06
1739326273.8963146,0.03145449981093407,0.7339360117912292,-10.039729118347168,0.06508365506792566,1.517132971476174,-0.0023484734441727795,0.973642675436969,2.5080780272672034,-7.187972345089642e-06
1739326273.9462726,0.03328365832567215,0.7422635555267334,-10.045735359191895,0.0650648110186928,1.5288532861376225,-0.002330522686577456,0.9743202446841176,2.5099439290936663,-9.889019140384766e-06
1739326273.9963021,0.01405140571296215,0.7433961033821106,-10.045417785644531,0.06501927582360857,1.5395402095165422,-0.0023198027206605843,0.9753495805358647,2.5062720088298933,-2.686788946980207e-06
1739326274.0461907,0.002204206306487322,0.7496613264083862,-10.051224708557129,0.06495611787337943,1.5492089904970139,-0.0023161089220076056,0.9770366655752238,2.5079060414475762,-3.239634334792643e-06
1739326274.0963082,-0.0019099470227956772,0.7446226477622986,-10.059534072875977,0.06488311972515559,1.5578781443785814,-0.0023192899290359996,0.9781030484033877,2.5077247356529178,-2.2399235072983248e-06
1739326274.1462095,-0.008915628306567669,0.7385463714599609,-10.050106048583984,0.0648064617158173,1.5655694146111965,-0.0023292070465833936,0.9793319537139001,2.5083533561629667,-2.1070606178554214e-06
1739326274.1963162,-0.007855125702917576,0.7177843451499939,-10.048439025878906,0.06473071883354009,1.5723074860266486,-0.0023457381208283196,0.9813982294198607,2.512296205784183,-7.2532328799099e-06
1739326274.2462134,-0.007525481749325991,0.7064292430877686,-10.04662799835205,0.06465898979591186,1.5781195689722902,-0.002368749057439853,0.9829185210104502,2.516476909259854,-1.297436017566625e-05
1739326274.2963085,-0.007525481749325991,0.7064292430877686,-10.04662799835205,0.06459305974333378,1.583034964178825,-0.002398051232838361,0.9837572359611358,2.509001662193057,-2.123548657400122e-06
1739326274.3463013,0.01666181907057762,0.6946702003479004,-10.026954650878906,0.06453359610483145,1.5870846912076138,-0.002433366048436199,0.9846827830822278,2.5102132536922186,-3.8139524214723627e-06
1739326274.3963282,0.026191741228103638,0.6873264908790588,-10.001502990722656,0.06448040448180742,1.5903011901972195,-0.002474236342695663,0.9859244850325197,2.5094064032554932,-1.8269354424471161e-06
1739326274.4461951,0.034530386328697205,0.7058480978012085,-10.00294303894043,0.0644327310615135,1.5927180695765937,-0.002519857289421183,0.9873611978838565,2.511366412445173,-4.515318936571561e-06
1739326274.496215,0.040003735572099686,0.7026157379150391,-9.996407508850098,0.06438952713855473,1.5943699348588078,-0.002568926778015552,0.9886782365392378,2.5138685593317525,-8.114740226185412e-06
1739326274.5462532,0.040003735572099686,0.7026157379150391,-9.996407508850098,0.06434964843596597,1.5952922548996515,-0.0026196529672919814,0.9900591132657085,2.5171695604058217,-1.3001559902288527e-05
1739326274.5962667,0.048510488122701645,0.7159780859947205,-9.990939140319824,0.06431205104781999,1.5955211210872844,-0.0026699667986119047,0.9918275295711005,2.5107121496083864,-2.9098049105636715e-06
1739326274.6462283,0.04747205227613449,0.70998215675354,-9.993782997131348,0.06427598482360691,1.5950929441964612,-0.0027178135174757917,0.9206561638691169,2.510828397507019,-2.4402777359839105e-06
1739326274.6962545,0.04747205227613449,0.70998215675354,-9.993782997131348,0.06424109792357256,1.5940442546867173,-0.002761327197651235,0.9202617244990523,2.5115981782736907,-3.1545216455985326e-06
1739326274.7461364,0.048144809901714325,0.7047764658927917,-9.9989595413208,0.06420742947630723,1.5924115927665414,-0.002798871049162235,0.9198736255233133,2.5133155977852084,-5.872047713386349e-06
1739326274.7963233,0.044004522264003754,0.6962186694145203,-10.000530242919922,0.0641753522764591,1.5902313917460489,-0.0028290508411706597,0.9195896546689906,2.511841916045223,-2.975600855269124e-06
1739326274.846094,0.043111901730298996,0.7007560133934021,-10.000743865966797,0.0641455042747182,1.5875398427827214,-0.0028507352438120197,0.919200465468936,2.5143768471617665,-7.140797555504501e-06
1739326274.8962169,0.031444985419511795,0.706380307674408,-10.004229545593262,0.06411870621751312,1.5843727859363292,-0.0028630653545823866,0.9186708010082227,2.5208228345634853,-1.8110752610812516e-05
1739326274.9462025,0.03285954147577286,0.7054631114006042,-10.015849113464355,0.06409586286511926,1.58076565981214,-0.002865463555920353,0.9186082509047249,2.51182942423555,-2.590739214945284e-06
1739326274.9962506,0.04270875081419945,0.7091996073722839,-10.018325805664062,0.0640778814224221,1.5767534799385308,-0.002857668638616142,0.9178499447974161,2.511807706234844,-2.1564455476435104e-06
1739326275.046341,0.04029244929552078,0.7267512679100037,-10.023941040039062,0.0640656557042987,1.5723708204959843,-0.002839786416314577,0.9176785024816214,2.5132196324667015,-4.576084211093221e-06
1739326275.096133,0.041174281388521194,0.7342554330825806,-10.040421485900879,0.06406009499493209,1.5676518609323014,-0.0028122926852379437,0.9163446952470218,2.5131335329858633,-3.8444143083209465e-06
1739326275.1462624,0.05441369488835335,0.7289654612541199,-10.044360160827637,0.06406214977909722,1.5626305382070396,-0.0027759316187308757,0.9161241917560758,2.5147138320514615,-6.547071214256134e-06
1739326275.1962476,0.06406638026237488,0.7216168642044067,-10.046126365661621,0.06407285698291221,1.5573406721642158,-0.0027315615067671365,0.9157142856480689,2.5195023455975893,-1.4809355203305019e-05
1739326275.246106,0.05295828357338905,0.7285430431365967,-10.0467529296875,0.06409341038954311,1.5518159133741654,-0.0026800666046914376,0.9153052254898679,2.5135294558313266,-3.872818356268708e-06
1739326275.29627,0.039934974163770676,0.7263404726982117,-10.047616958618164,0.06412516620086194,1.5460895763868197,-0.0026223493351481084,0.9138854858907672,2.5137295831147717,-3.5272210589230006e-06
1739326275.3461885,0.025006894022226334,0.7280440330505371,-10.042905807495117,0.06416952148077812,1.5401944861136985,-0.0025593331837341134,0.9135315329256855,2.515478930804995,-6.328027922687981e-06
1739326275.3961718,0.014833017252385616,0.7217757105827332,-10.055472373962402,0.06422771878125443,1.5341628438107158,-0.0024919551573879995,0.9129466447758319,2.513371117795028,-2.4528096900414142e-06
1739326275.4462323,0.0157488901168108,0.7228091955184937,-10.04085922241211,0.06430067255284956,1.5280260830888261,-0.0024211661857155924,0.9127283343413388,2.5149745979492857,-4.972675766844794e-06
1739326275.4961894,0.0157488901168108,0.7228091955184937,-10.04085922241211,0.06438888117571467,1.5218147283947787,-0.0023479195534941147,0.9123930215307335,2.519742120737944,-1.2439970038832616e-05
1739326275.5461996,0.011357917450368404,0.7204491496086121,-10.03916072845459,0.06449242477307728,1.515558277609877,-0.0022731220908253982,0.9118032032609055,2.513439481104886,-2.1435258006535726e-06
1739326275.5961134,0.02197234518826008,0.7295306921005249,-10.04832649230957,0.06461100505465914,1.509285113632059,-0.002197593088974962,0.9116904919289142,2.5148845596560343,-4.308136307163666e-06
1739326275.6461966,0.020896144211292267,0.7250328063964844,-10.045130729675293,0.06474399188119032,1.5030224373171546,-0.002122072682377242,0.9104578034887731,2.5137290541638015,-2.1069272979040526e-06
1739326275.6962333,0.03201153129339218,0.7285317778587341,-10.039006233215332,0.06489044553239504,1.4967961946924453,-0.0020472353318744204,0.9093860392593176,2.514588014756961,-2.9559483003528894e-06
1739326275.7460947,0.037207603454589844,0.710732102394104,-10.02336597442627,0.06504912873160994,1.4906309735849683,-0.0019736450012044285,0.9091410359273422,2.5170998574931525,-6.337308881780654e-06
1739326275.7961624,0.0349251814186573,0.7073543071746826,-10.01601505279541,0.06521856664217937,1.4845498747354613,-0.0019016493727843419,0.9089965637603257,2.519434375548013,-9.456544456555936e-06
1739326275.8463304,0.041861362755298615,0.703119158744812,-9.993541717529297,0.06539713883154966,1.4785743834301457,-0.001831248448901267,0.9082044689263598,2.514297570785297,-2.0434862920653967e-06
1739326275.896167,0.02367030642926693,0.6984164118766785,-9.979256629943848,0.06558313802697172,1.472724279293468,-0.0017619523435431887,0.9067612800587355,2.514423165610794,-1.770936159739358e-06
1739326275.9462247,0.02367030642926693,0.6984164118766785,-9.979256629943848,0.06577476545522942,1.467017597714325,-0.0016926488054046958,0.9059740171362247,2.517558458604436,-5.364007863226441e-06
1739326275.9970737,0.0035826668608933687,0.6933435797691345,-9.964773178100586,0.06597006724877438,1.4614706253938872,-0.0016215345711798985,0.9054821702953252,2.5207841096670585,-9.049688567192058e-06
1739326276.047059,0.0035826668608933687,0.6933435797691345,-9.964773178100586,0.0661668453493359,1.456097915215732,-0.0015461203877710431,0.9055315061776648,2.5152792238235318,-2.370905446462658e-06
1739326276.0962043,-0.004372213035821915,0.7019431591033936,-9.963675498962402,0.06636258568516305,1.4509123239982387,-0.0014632767949126315,0.9051510864345702,2.520831419071439,-8.231470844019289e-06
1739326276.1470482,0.001890266314148903,0.7005773186683655,-9.972936630249023,0.06655443916694889,1.4459250902118805,-0.0013693268975798738,0.9049861988820421,2.52697248115489,-1.4551735132588651e-05
1739326276.197065,0.009025843814015388,0.7011627554893494,-9.991517066955566,0.06673926382113332,1.4411459146791121,-0.0012602609303244095,0.9048404041573248,2.5159488141739974,-2.6511209950238312e-06
1739326276.2470253,0.020231027156114578,0.7043536901473999,-10.00515079498291,0.06691370693176195,1.4365829658137361,-0.0011321633955776584,0.9038448440911553,2.515408260577448,-1.81648156620492e-06
1739326276.2970188,0.03235561028122902,0.713574230670929,-10.028542518615723,0.06707432218149717,1.432242849104397,-0.0009817507420457644,0.9036693153104152,2.5179035297729335,-3.83275556733095e-06
1739326276.347186,0.05149387568235397,0.7041642665863037,-10.044218063354492,0.06721774118445227,1.4281306530554994,-0.0008067701113495026,0.9025695544524691,2.5149091366098326,-1.0948917638845918e-06
1739326276.3972988,0.05149387568235397,0.7041642665863037,-10.044218063354492,0.0673408806819186,1.4242500497919601,-0.0006061837294296998,0.9023412723443016,2.5163076772952877,-1.967079428704099e-06
1739326276.4972785,0.10908342897891998,0.7295171618461609,-10.075292587280273,0.06744115538795595,1.4206033937618998,-0.00038022404379681066,0.901147966647935,2.517102161437245,-1.5059717310662699e-06
1739326276.54693,0.11478395015001297,0.7332947254180908,-10.094095230102539,0.06751673760785219,1.4171918776625607,-0.00013042251277904507,0.9010682254454345,2.5184107867600978,-1.924187923359079e-06
1739326276.5971162,0.11248959600925446,0.7252997159957886,-10.075139045715332,0.06756682407904974,1.4140157404083744,0.0001403560563474407,0.9000960256984573,2.5151412018012174,-4.800335154686995e-07
1739326276.6470935,0.1126536950469017,0.7218387722969055,-10.068120002746582,0.06759173433095934,1.4110743966770538,0.0004279954548632956,0.8992188418859339,2.514871564791738,-1.358457743812985e-07
1739326276.6970499,0.09545167535543442,0.7274256348609924,-10.055548667907715,0.06759279609145771,1.4083664600013006,0.0007273967776074791,0.8983750913629067,2.5205815094195043,1.638627182229953e-06
1739326276.7470157,0.061729129403829575,0.7292587757110596,-10.037650108337402,0.0675720960262752,1.405889761429153,0.0010328282803614933,0.8982097976345911,2.5228200471924302,2.5443074785566588e-06
1739326276.7973118,0.041336674243211746,0.7332218885421753,-10.027616500854492,0.06753214778190145,1.4036414445144139,0.0013382986585349357,0.8980183752380939,2.516054514409562,8.397543629846756e-07
1739326276.847278,0.017945056781172752,0.7273121476173401,-10.024002075195312,0.06747558697206099,1.4016181541991215,0.0016379816570927456,0.8978899548246795,2.519471593496704,3.6395816114782993e-06
1739326276.8972292,-0.0073006413877010345,0.7303900122642517,-10.016189575195312,0.0674049520796258,1.3998162381858246,0.0019266051615407674,0.8970334042556992,2.5155696640931726,1.2026596745057115e-06
1739326276.94711,-0.03710088133811951,0.7332954406738281,-10.010842323303223,0.06732244651828889,1.3982318459627998,0.002199667792321215,0.896094000008744,2.514983759418246,9.911636871094236e-07
1739326276.9970105,-0.062023576349020004,0.7236104011535645,-10.008536338806152,0.06722963180329838,1.3968609308928799,0.002453499793214955,0.895801755359499,2.5163357584340367,2.9628444153139715e-06
1739326277.0471866,-0.06724503636360168,0.7179239392280579,-10.00152587890625,0.06712714650377183,1.3956992056962878,0.0026852639177707416,0.895545004761342,2.51834909979212,6.1565199257490656e-06
1739326277.0971873,-0.06724503636360168,0.7179239392280579,-10.00152587890625,0.0670145624787985,1.394742066149735,0.0028929371786047316,0.8949515659551729,2.5154318668973574,2.5152829163648126e-06
1739326277.1470401,-0.0792105570435524,0.7213793992996216,-9.98376750946045,0.06689040388272835,1.3939845296239624,0.0030752899845195238,0.8939307210135798,2.51491638679714,2.0895706662747216e-06
1739326277.1972294,-0.0792105570435524,0.7213793992996216,-9.98376750946045,0.066752248114501,1.393421230585056,0.0032318841415360884,0.8935884305458036,2.5164012433599816,5.343511546183858e-06
1739326277.247155,-0.04768727347254753,0.7109318971633911,-9.987839698791504,0.0665968678683614,1.393046442612108,0.0033630694649052807,0.8933515607648671,2.5180062053788066,8.941394874203453e-06
1739326277.2972248,-0.022636953741312027,0.7103390693664551,-9.988394737243652,0.06642049723545243,1.3928540722956397,0.0034699218194811053,0.893013940296429,2.51464816777484,2.0534089547258617e-06
1739326277.3468556,0.008451608009636402,0.7108034491539001,-9.980412483215332,0.06621922134608656,1.3928376100332958,0.0035540895359048746,0.8928286683634569,2.5158841439515442,5.085942369874294e-06
1739326277.3968441,0.0352868027985096,0.6972777247428894,-9.988784790039062,0.06598932983970095,1.3929900378700395,0.0036175326267053635,0.8926890212207571,2.5175046629613047,9.124459993133417e-06
1739326277.4469235,0.06922190636396408,0.6933081746101379,-9.996101379394531,0.06572758650895894,1.393303708879459,0.0036622092219613916,0.8921265805305414,2.5147127048530353,3.0036739194841552e-06
1739326277.4967937,0.10032832622528076,0.6872696280479431,-9.994637489318848,0.06543152972505274,1.3937702645907677,0.0036898508270686867,0.8914611919349547,2.5145099724731486,3.0613198417920128e-06
1739326277.5471816,0.11536845564842224,0.6773169636726379,-10.018976211547852,0.0650998123495557,1.3943806278937956,0.0037018637951263017,0.8912878385158296,2.516704215276877,8.999299845158515e-06
1739326277.5969226,0.11607678979635239,0.692992627620697,-10.023839950561523,0.06473244331962771,1.3951250486878377,0.003699252681759704,0.8905975633415765,2.5144472812433762,3.557051032356909e-06
1739326277.647223,0.11607678979635239,0.692992627620697,-10.023839950561523,0.06433083415782781,1.3959932126145707,0.003682527473964961,0.8904598856023398,2.515998359719205,7.793001725090006e-06
1739326277.6971977,0.12155947089195251,0.7011226415634155,-10.063925743103027,0.06389768592590958,1.396974417608878,0.003651632381978146,0.8903298677700759,2.518979756815186,1.582864468445187e-05
1739326277.746838,0.12390028685331345,0.7138785123825073,-10.066306114196777,0.06343682365089191,1.3980577704924835,0.003605855356293747,0.8897758406731714,2.5146614949999906,4.937038104363342e-06
1739326277.7967858,0.1043083593249321,0.7350278496742249,-10.0822114944458,0.06295302349283152,1.3992323956829198,0.003543702137320274,0.88902884118646,2.5137396643358683,3.223112637137071e-06
1739326277.8471553,0.0971517413854599,0.747485339641571,-10.093660354614258,0.06245178656928591,1.4004876795411687,0.0034628189435364533,0.8880574434819034,2.5133741343139895,3.168790417387269e-06
1739326277.8971865,0.08183320611715317,0.7572270631790161,-10.087488174438477,0.0619391139664163,1.401813556778804,0.0033600935759186133,0.8875354199591373,2.5131260514124083,3.1292827893873926e-06
1739326277.946729,0.06737682968378067,0.7779303789138794,-10.096100807189941,0.06142146104917756,1.4032008643801088,0.0032321004993417016,0.8873055671003756,2.514819244173767,7.5203599304304394e-06
1739326277.9967446,0.04475352168083191,0.7771404981613159,-10.085508346557617,0.06090579809614868,1.4046417006083456,0.0030757400718617904,0.8869716937509939,2.5205822172149794,2.155310100078136e-05
1739326278.0471406,0.03872381150722504,0.7704465985298157,-10.072254180908203,0.06039949159006795,1.4061295937306926,0.002888645859369429,0.8869724288445794,2.51261507320733,2.697771400641043e-06
1739326278.0968103,0.003431755118072033,0.7617964148521423,-10.046504020690918,0.05990998153328101,1.407659403917302,0.0026693215961550954,0.8859590964675058,2.511741146686288,1.71823954564551e-06
1739326278.1468687,-0.02278921753168106,0.7450716495513916,-10.023045539855957,0.05944440008707048,1.409227071011724,0.0024172649141359147,0.8853285213096977,2.5114380502957396,1.7721434571819485e-06
1739326278.1968257,-0.047951504588127136,0.7164222598075867,-9.993398666381836,0.05900917529643099,1.4108292984147044,0.002133152549296297,0.884877633841499,2.5113312780214962,1.8076870288850993e-06
1739326278.2467709,-0.07472224533557892,0.6942561864852905,-9.962713241577148,0.05860966018833786,1.4124631841077804,0.0018190413810264443,0.8846200949196319,2.5128568794971433,4.427932586940514e-06
1739326278.296842,-0.08705224096775055,0.6802414655685425,-9.9497709274292,0.05824984665857564,1.4141258395690328,0.0014785456547306878,0.8843939154187941,2.51534567248303,8.192587799502201e-06
1739326278.3467607,-0.10662912577390671,0.6710646152496338,-9.937824249267578,0.05793218497582953,1.415814085991258,0.0011169278591716173,0.8843049583289323,2.511789564426441,2.3804289516676138e-06
1739326278.396756,-0.10870525240898132,0.6618292927742004,-9.922911643981934,0.05765750998844906,1.4175242753787016,0.0007410658048572551,0.8842493807092596,2.5136788595414417,4.1811745072734695e-06
1739326278.4471676,-0.08654840290546417,0.6661540865898132,-9.940960884094238,0.05742494176924605,1.4192521375894844,0.0003591824716352645,0.8837805875125141,2.510981922768788,1.2539615497375988e-06
1739326278.496797,-0.0625506043434143,0.6695714592933655,-9.9491548538208,0.05723153817541681,1.4209924871589046,-1.991235891004484e-05,0.8836868448867808,2.512699012677272,1.9944863760367263e-06
1739326278.546792,-0.0625506043434143,0.6695714592933655,-9.9491548538208,0.05707189570070687,1.4227388957239637,-0.0003878663730175338,0.8836220960454453,2.5156486804307794,2.6750206677039474e-06
1739326278.5972586,0.023599442094564438,0.6924328207969666,-10.00218391418457,0.056938249781361534,1.4244836485039583,-0.0007374878886734962,0.8836020616854527,2.5209550640990614,2.9025195035715616e-06
1739326278.6471624,0.06923896819353104,0.7016883492469788,-10.003734588623047,0.056821218818019305,1.426218033424332,-0.0010630323024973416,0.8836123900327487,2.5233761704481217,2.7290937388744486e-06
1739326278.6967793,0.12530706822872162,0.7094635367393494,-10.040692329406738,0.056710855273519295,1.4279327455309192,-0.0013603940171720275,0.8826876139746244,2.5097835446124828,-1.5404304101774353e-07
1739326278.7468162,0.14643052220344543,0.7257810235023499,-10.057991027832031,0.05659762591163536,1.4296182511607507,-0.0016272675101746624,0.8825411377530884,2.5112992206662135,-1.532669652142571e-06
1739326278.7967536,0.16633206605911255,0.726059079170227,-10.079255104064941,0.05647310550453362,1.4312650856680975,-0.0018632503741087608,0.8824129323647376,2.514226406212778,-4.555658765211825e-06
1739326278.847159,0.1907535344362259,0.7371826171875,-10.097819328308105,0.05633036948347357,1.4328640919066187,-0.0020698951846482632,0.8819151847861755,2.5095697953397407,-1.3387590724226283e-06
1739326278.8967075,0.1648598164319992,0.7417872548103333,-10.089132308959961,0.05616416144919993,1.4344066009171361,-0.0022506776584379617,0.8818458752622447,2.5113163137354486,-3.7745938786932917e-06
1739326278.946631,0.15555395185947418,0.7511528134346008,-10.094098091125488,0.0559708411296144,1.4358845745435533,-0.002410841005322702,0.8818083573816076,2.514008359323296,-7.731918489074817e-06
1739326278.9967358,0.1194770485162735,0.7514952421188354,-10.090046882629395,0.055748287698914455,1.4372907995186792,-0.0025569936105187055,0.8812008146747106,2.5094456731304207,-2.8731864545483946e-06
1739326279.0466907,0.07587036490440369,0.7662614583969116,-10.07356071472168,0.05549616596954507,1.4386192699338556,-0.002696275230313424,0.8811620038308012,2.5110651764893395,-5.757521536894242e-06
1739326279.0966394,0.037225306034088135,0.7702184915542603,-10.06760025024414,0.05521634893305612,1.439865659850783,-0.0028353117854759136,0.8803163629760318,2.5086153537759563,-2.6113406232130656e-06
1739326279.1466541,0.0037921699695289135,0.7665433883666992,-10.05114459991455,0.05491277921447565,1.4410275582054903,-0.0029795399446607973,0.8796565990723522,2.5082257797871854,-2.85080012405822e-06
1739326279.1966567,-0.03624005615711212,0.7522644996643066,-10.03896713256836,0.05459075754171033,1.442104365995137,-0.003133017109550051,0.8794680189937987,2.5109456666517866,-8.74311633577102e-06
1739326279.2466424,-0.03624005615711212,0.7522644996643066,-10.03896713256836,0.05425618597181452,1.443097019632443,-0.003298404757307349,0.8794000174761019,2.5128114106082946,-1.2809441516118681e-05
1739326279.2966251,-0.07552417367696762,0.7146141529083252,-10.000919342041016,0.05391501135955944,1.4440076614148583,-0.0034769738996277867,0.8788771926672169,2.508850741253397,-6.150778849367834e-06
1739326279.3466144,-0.06783924251794815,0.6995279788970947,-9.993257522583008,0.05357284698450271,1.444839262167692,-0.0036685878075865173,0.8781030546898906,2.5074323740042512,-4.553367092714532e-06
1739326279.3966382,-0.06783924251794815,0.6995279788970947,-9.993257522583008,0.053234740333892916,1.4455952238561083,-0.0038716629108259413,0.8778779562756438,2.510293428377419,-1.234349424937223e-05
1739326279.4471538,-0.05124684050679207,0.6754396557807922,-9.978354454040527,0.05290511519406084,1.4462790679847661,-0.004083206085306115,0.8775460650306003,2.506231840696142,-2.9715228383917535e-06
1739326279.496616,-0.034506164491176605,0.6732581257820129,-9.977404594421387,0.05258787922109743,1.4468942304249912,-0.004298940320296827,0.87747404552044,2.5071902819966736,-5.800600135446856e-06
1739326279.5465963,-0.007252339273691177,0.6707007884979248,-9.967416763305664,0.05228651916952558,1.447443837772068,-0.004513556069875809,0.8774038106550448,2.5090058197937393,-1.122014912875345e-05
1739326279.596589,0.009839670732617378,0.6745856404304504,-9.970549583435059,0.05200392513012751,1.4479303521827271,-0.004721278574402547,0.8769016961147719,2.506126886188511,-5.1831605707859505e-06
1739326279.6471477,0.022411571815609932,0.6714613437652588,-9.969470977783203,0.05174205047449963,1.4483552042648504,-0.004916610144250802,0.8768655610051855,2.507593277303923,-1.010995779305852e-05
1739326279.6967895,0.045769333839416504,0.6809327602386475,-9.983853340148926,0.05150183753722367,1.4487186785049528,-0.005094789232494839,0.8761772304054939,2.505472025687678,-4.905070115194523e-06
1739326279.7467153,0.04308769851922989,0.6830891966819763,-10.00513744354248,0.05128347147757642,1.449020072172486,-0.00525192162989321,0.8760442263763321,2.5073411710495273,-1.17836062772769e-05
1739326279.797197,0.055425915867090225,0.6984593868255615,-10.008376121520996,0.05108667100596284,1.4492579501146934,-0.005385062253368461,0.8754146337660904,2.505238711476728,-6.017166125608253e-06
1739326279.8471582,0.06148935481905937,0.7199684977531433,-10.024285316467285,0.050910883263972515,1.4494304241423073,-0.005492310614047308,0.8752674717761734,2.5070392141537994,-1.3059001601212737e-05
1739326279.896577,0.07376144081354141,0.7297589182853699,-10.028337478637695,0.05075543261106566,1.4495354654377182,-0.005572856932502177,0.8751266526148077,2.510265922443862,-2.5582490602705488e-05
1739326279.946495,0.08180807530879974,0.7380627989768982,-10.050054550170898,0.05061966374453467,1.4495712040693745,-0.005626991803711876,0.8747741760863752,2.504525590193157,-6.120408699418701e-06
1739326279.996545,0.08265364170074463,0.7440908551216125,-10.059377670288086,0.05050306575547708,1.4495361466793022,-0.005656119012107653,0.8741963835692924,2.5037347590398866,-5.223932224991896e-06
1739326280.0464892,0.08369989693164825,0.7562168836593628,-10.06102180480957,0.050405343864507346,1.4494293112084602,-0.0056627649986338595,0.8740828340659349,2.5057249448340464,-1.356508883889333e-05
1739326280.0965192,0.08811670541763306,0.7604290246963501,-10.057900428771973,0.050326518581272114,1.4492504039044045,-0.0056504449632871195,0.8736014906478443,2.503017292943348,-5.218651501024005e-06
1739326280.1465566,0.08811670541763306,0.7604290246963501,-10.057900428771973,0.05026724235148737,1.4490001953695177,-0.005623207185748824,0.8734894483717482,2.5047464739629492,-1.2714071513310341e-05
1739326280.1971853,0.08296062052249908,0.756606936454773,-10.066533088684082,0.05022922321160589,1.448680947195651,-0.0055850296948852405,0.8734152074846994,2.5071926793213533,-2.2922691867140007e-05
1739326280.246506,0.0730237290263176,0.7429289817810059,-10.06755542755127,0.0502153644559335,1.448296526069647,-0.005539486583043409,0.8730039218743821,2.503446968530841,-1.056926605426712e-05
1739326280.2966235,0.05435657501220703,0.74286288022995,-10.041550636291504,0.0502295438787061,1.4478521719020734,-0.00548971351166459,0.8729939329151815,2.5049700884085913,-1.6753825850521883e-05
1739326280.3464828,0.03123336099088192,0.7305668592453003,-10.049043655395508,0.05027624262062354,1.447354168874744,-0.00543838905685088,0.8723407626266809,2.5014213551264084,-5.553320439818891e-06
1739326280.3965194,0.03123336099088192,0.7305668592453003,-10.049043655395508,0.05036015570503068,1.446809552360851,-0.00538767124676737,0.8717103364354043,2.5007055391345197,-5.154028382661381e-06
1739326280.4464824,-0.03507483750581741,0.7259488105773926,-10.038103103637695,0.050485819520188005,1.4462258618589598,-0.005339188610963858,0.871507890147426,2.502517142084508,-1.3018696085067799e-05
1739326280.4972246,-0.05782267451286316,0.7123039364814758,-10.027078628540039,0.050657196022369254,1.4456109312468672,-0.005294054343839737,0.8713659509932364,2.5049091367134118,-2.2836433087760857e-05
1739326280.5464544,-0.06711495667695999,0.7106872797012329,-10.024744987487793,0.05087721419118922,1.444972689780748,-0.00525283557331367,0.870979433118703,2.5002687828656085,-6.520753793344584e-06
1739326280.5964868,-0.0779031291604042,0.7022520303726196,-10.01065444946289,0.05114745536656541,1.444318970674785,-0.005215507688208416,0.8701448580626611,2.4991273444130027,-5.279567243321103e-06
1739326280.6464906,-0.06591980904340744,0.698011040687561,-10.002201080322266,0.05146794714408008,1.4436572969219807,-0.005181472296728598,0.8695325971505825,2.49863088215021,-5.653457953077061e-06
1739326280.6972764,-0.06591980904340744,0.698011040687561,-10.002201080322266,0.051836741902692676,1.4429945480402524,-0.005149725497204443,0.8688978135632304,2.49769978232309,-4.503328056270182e-06
1739326280.746698,-0.01757582649588585,0.6804217100143433,-9.973925590515137,0.05224943661079843,1.442336577284747,-0.00511910714833931,0.8686482412541007,2.4992512086989245,-1.1185837606632586e-05
1739326280.7964067,0.006305493880063295,0.6785392761230469,-9.96239948272705,0.052699241542885786,1.4416879906706408,-0.0050883835511199346,0.8684409115768825,2.5016297193143893,-2.074854276449965e-05
1739326280.8464563,0.006305493880063295,0.6785392761230469,-9.96239948272705,0.05317761480909436,1.441052122346368,-0.005056122654805411,0.8683341994936903,2.497707731505081,-7.256264615161961e-06
1739326280.896443,0.07177712023258209,0.6827787756919861,-9.969877243041992,0.053674969118980786,1.4404311189261962,-0.005020585793181093,0.8676093190645852,2.496030993000277,-4.221645861519756e-06
1739326280.9464672,0.10522077232599258,0.6796297430992126,-9.960186958312988,0.054181322814647354,1.4398260833854326,-0.00497974897498084,0.8670633982591401,2.495472035048051,-4.491260111732507e-06
1739326280.9964862,0.1156531423330307,0.6900672912597656,-9.987969398498535,0.05468697214906236,1.4392372383388405,-0.004931394421568709,0.8667864918987368,2.497004689452369,-1.1214043037796864e-05
1739326281.0471346,0.12514713406562805,0.6982340216636658,-9.99204158782959,0.05518302169021811,1.4386640987961612,-0.004873250045446145,0.8665286258730036,2.4957573900705605,-6.984946143471293e-06
1739326281.0964384,0.11498534679412842,0.7152619957923889,-10.026734352111816,0.055661628552155326,1.4381056776969796,-0.00480319925939006,0.8664288700333512,2.497262469609454,-1.2636617793365062e-05
1739326281.146383,0.11316612362861633,0.7322568893432617,-10.04723834991455,0.05611602201111354,1.4375607285404683,-0.004719547260278139,0.8663374812054814,2.499755340816803,-2.1684339569689473e-05
1739326281.1964035,0.11316612362861633,0.7322568893432617,-10.04723834991455,0.056540573953128115,1.4370280221487126,-0.0046212466993372486,0.8661626698518508,2.4950182315083955,-6.103240332037225e-06
1739326281.2464807,0.08683266490697861,0.7730645537376404,-10.080906867980957,0.05693128758742633,1.4365066793695629,-0.004507929561307913,0.8661336492445264,2.497204999306382,-1.3681082931499228e-05
1739326281.2964537,0.0662970021367073,0.778035581111908,-10.089702606201172,0.05728644968268281,1.435996541721664,-0.004379810111426178,0.8657113616052627,2.4940350202201227,-4.793895447902931e-06
1739326281.3463974,0.05475584417581558,0.7870482206344604,-10.088351249694824,0.05760673700881781,1.4354984492750433,-0.004237673051484931,0.8652462226653955,2.493343308909721,-4.217069452311004e-06
1739326281.396467,0.027063747867941856,0.7803557515144348,-10.085413932800293,0.05789475111271768,1.4350143099746921,-0.0040829082885727175,0.865153864134977,2.4950209261273755,-9.835936498448996e-06
1739326281.4471889,0.003963449038565159,0.7623535990715027,-10.071938514709473,0.05815442998214465,1.4345469764796448,-0.003917443920599423,0.8650928444566405,2.4980673076825215,-1.9407675705720867e-05
1739326281.4963076,-0.01838080957531929,0.7579138278961182,-10.059320449829102,0.05839049835375457,1.434099997487374,-0.0037435774014024214,0.8647263971490684,2.492650240574895,-4.305970133300472e-06
1739326281.5462942,-0.0304087046533823,0.7319584488868713,-10.04056453704834,0.05860797608281211,1.4336773115406047,-0.0035637525138464405,0.8641972240399314,2.491444903147277,-3.6298553708877933e-06
1739326281.5962968,-0.06267073005437851,0.7144235372543335,-10.023655891418457,0.05881177968927966,1.4332829284249857,-0.003380311928081864,0.8638443850435059,2.4908037111067416,-3.614034688574026e-06
1739326281.6463342,-0.08835732936859131,0.7006740570068359,-10.004278182983398,0.05900637847493044,1.4329206114628434,-0.003195252090508119,0.8634985645279036,2.4909545139416807,-4.877778332673744e-06
1739326281.6963575,-0.10549233108758926,0.6950415372848511,-9.993946075439453,0.05919546566124828,1.432593609407148,-0.0030100062161015338,0.8634549999004613,2.492415987368197,-8.597739622126425e-06
1739326281.7463882,-0.10198639333248138,0.6742864847183228,-9.984225273132324,0.059381514636842755,1.432304427616069,-0.002825343634195206,0.8634323006977098,2.494502223380819,-1.3625078345242109e-05
1739326281.796434,-0.10198639333248138,0.6742864847183228,-9.984225273132324,0.05956495845970256,1.432054513866064,-0.0026415143056599776,0.8630234654650426,2.490079541412911,-4.064255094605194e-06
1739326281.8462484,-0.0657714307308197,0.662574827671051,-9.963382720947266,0.05974329938950636,1.4318439141163735,-0.002458540625924625,0.8630129914013398,2.492795961589778,-9.677288877039869e-06
1739326281.896292,-0.02928113378584385,0.6607571840286255,-9.967756271362305,0.05991097035568069,1.4316711326238722,-0.00227636501678602,0.8625203580559345,2.488992871050549,-3.0222141764212276e-06
1739326281.9462383,0.005068120546638966,0.6668164730072021,-9.971526145935059,0.060060038223291416,1.4315332290378457,-0.0020948195172993504,0.8624727151227662,2.4903607953253646,-5.619348522315836e-06
1739326281.9962945,0.04127001762390137,0.6687542796134949,-9.964592933654785,0.06018114992551486,1.4314260261178275,-0.0019136027705214092,0.8617669001566375,2.488182168852857,-2.6465733424755165e-06
1739326282.0462956,0.09006095677614212,0.6750153303146362,-9.981327056884766,0.060264398350689787,1.431344359567641,-0.0017323137276311724,0.8616487065777935,2.4897231873535395,-5.141269285538228e-06
1739326282.0962014,0.11484770476818085,0.6918721199035645,-9.995641708374023,0.060300096358175265,1.4312823446925016,-0.0015505273647961068,0.8615431783173948,2.492723304548249,-9.495269529876375e-06
1739326282.1462135,0.15128202736377716,0.7077241539955139,-10.00234317779541,0.060279434035946954,1.4312336673119266,-0.0013679325232815558,0.860675762045277,2.485998173788746,-1.2915361522737861e-06
1739326282.1963105,0.18369337916374207,0.7255959510803223,-10.018230438232422,0.06019498747678648,1.43119190647668,-0.0011844909774228144,0.8604541216330198,2.4874246533612334,-3.208203314380886e-06
1739326282.246284,0.20197705924510956,0.7472038865089417,-10.033262252807617,0.060041099615228806,1.4311508604176193,-0.0010005729076515634,0.8603208326683167,2.489174956518223,-5.1592535382767686e-06
1739326282.2963622,0.2147674858570099,0.7649338841438293,-10.051137924194336,0.05981441374549806,1.43110493226562,-0.0008170260380374755,0.8598878942762166,2.4854773250272517,-1.447498081852022e-06
1739326282.3463027,0.18820233643054962,0.7751866579055786,-10.054302215576172,0.05951501987588284,1.43104970353067,-0.0006350662132856557,0.8597984079986389,2.4878401514653072,-3.1402037054014295e-06
1739326282.3963585,0.1673087477684021,0.7808219194412231,-10.061698913574219,0.05914773549881104,1.4309825353509384,-0.0004560305494134264,0.8597675738573124,2.491394923413493,-5.250393470845582e-06
1739326282.4462907,0.13101793825626373,0.7787236571311951,-10.07181167602539,0.05872232595691323,1.4309028214816166,-0.0002812337107272451,0.8592362098808747,2.484318538308947,-8.571616553938131e-07
1739326282.496319,0.0753815770149231,0.7734084129333496,-10.075247764587402,0.05825258422637962,1.4308118485726091,-0.00011200201999467832,0.8591941060606292,2.485685814761505,-1.3322238314768e-06
1739326282.5461996,0.020430538803339005,0.7614398002624512,-10.063356399536133,0.05775504229466399,1.4307124900625106,5.0259604136729054e-05,0.8583572522106687,2.4833396200917255,-3.9883455322403786e-07
1739326282.5962007,-0.032880689948797226,0.7518945336341858,-10.046921730041504,0.05724768462211184,1.4306088546032072,0.00020409431763813326,0.8575963584293664,2.4827236844235077,-8.007148667404936e-08
1739326282.646191,-0.09902404993772507,0.7440938949584961,-10.040006637573242,0.05674874316764835,1.4305059263058,0.00034812954289167836,0.8574656072481159,2.4840490255973884,7.660834481364717e-08
1739326282.6962335,-0.09902404993772507,0.7440938949584961,-10.040006637573242,0.056275668374281385,1.4304092454706223,0.00048123760572061426,0.8573401183645738,2.4862320555842627,4.4856704451594907e-07
1739326282.7462401,-0.19362854957580566,0.7056571245193481,-10.03139591217041,0.05584434497078366,1.4303246332358786,0.0006026315532086543,0.8568013108598431,2.4814454957502408,2.8630800654356586e-07
1739326282.7962887,-0.21226531267166138,0.6977738738059998,-10.012974739074707,0.05546847584748957,1.4302578907625825,0.0007119153056189746,0.8567190480577774,2.483349532983447,1.0474719397581126e-06
1739326282.8462286,-0.21226531267166138,0.6977738738059998,-10.012974739074707,0.055158699188752144,1.4302144195192423,0.0008091193078379925,0.8560145729626603,2.4803927061874944,5.58260974069953e-07
1739326282.8962426,-0.1894509196281433,0.6678622364997864,-9.987316131591797,0.05492093472842559,1.4301987544466699,0.0008946573652021914,0.8552521564603023,2.479450507323051,7.074439425944537e-07
1739326282.9461358,-0.15443475544452667,0.6582975387573242,-9.977095603942871,0.054754647297632256,1.430214083157284,0.0009692387457213839,0.8550804404868331,2.4809867911168713,1.7884422659489552e-06
1739326282.9962611,-0.08851215988397598,0.6426063776016235,-9.97618293762207,0.05465254816188158,1.4302619348293601,0.0010338754177959169,0.8549319092920634,2.4834843627023746,3.5434726056766723e-06
1739326283.046173,-0.03359857574105263,0.6503034234046936,-9.979589462280273,0.054601843608189815,1.4303421242719845,0.0010899420455532621,0.8545808660305466,2.4784000594887354,1.1275515186613156e-06
1739326283.096144,0.043757155537605286,0.6525284051895142,-9.975540161132812,0.05458596320179106,1.4304528776092513,0.001139164676606718,0.854517328310672,2.4806198374623505,2.9554919602502398e-06
1739326283.1461544,0.12085320055484772,0.6569215059280396,-9.985916137695312,0.054586224408818225,1.4305910634297174,0.0011835491989780486,0.8538262095037347,2.4771584918582104,1.0139530620707083e-06
1739326283.196241,0.19013045728206635,0.670385479927063,-9.994824409484863,0.05458338264165577,1.430752471826628,0.0012252819199397732,0.853704821252767,2.478771095645084,2.500154534431074e-06
1739326283.246157,0.23964089155197144,0.6929693818092346,-10.017227172851562,0.054558988152492695,1.4309321202163126,0.0012665800753017212,0.8529523508582162,2.476341529810046,1.2760058141166121e-06
1739326283.2962048,0.26864540576934814,0.723859429359436,-10.025845527648926,0.05449642647660316,1.4311246168764087,0.001309489970070903,0.8527737221962086,2.4782425195392395,3.1933637645855857e-06
1739326283.3461654,0.28842854499816895,0.7509612441062927,-10.048317909240723,0.054381572402295256,1.43132458751387,0.0013556732055784724,0.8522335253790854,2.475316949856188,1.4217182650038571e-06
1739326283.3961458,0.29162049293518066,0.7744124531745911,-10.05955696105957,0.05420353976522401,1.4315271777160419,0.0014062582191998862,0.8512815834666972,2.473879713240315,1.1596653562024233e-06
1739326283.4461515,0.29162049293518066,0.7744124531745911,-10.05955696105957,0.05395644018888167,1.4317286658042385,0.0014618588151726654,0.850689251271231,2.473088237974361,1.315024113995084e-06
1739326283.4961874,0.22969715297222137,0.8093643188476562,-10.078729629516602,0.053641516617702674,1.4319270303247986,0.0015227257283823837,0.8503253670608583,2.4754490683173738,4.361409165088629e-06
1739326283.5461388,0.22969715297222137,0.8093643188476562,-10.078729629516602,0.05326770996540452,1.432122225739226,0.0015888325448147902,0.8501439520486697,2.472116089441046,1.2484021423556464e-06
1739326283.5961363,0.17339205741882324,0.8025751709938049,-10.071308135986328,0.052850495735535505,1.4323161550306076,0.001659849052969185,0.8500166416964374,2.4734012275402217,2.929491992707491e-06
1739326283.6461108,0.017947295680642128,0.7737717628479004,-10.02803897857666,0.05241017338239767,1.432512424809668,0.0017351840174522398,0.8499033857797873,2.4757526199672,5.898472474529458e-06
1739326283.6961575,-0.05990149825811386,0.7527979016304016,-10.016118049621582,0.05196992149363906,1.4327159118070905,0.0018142172808560302,0.8487188367034058,2.4705360867572925,1.4660806330936253e-06
1739326283.7461975,-0.14772841334342957,0.7386151552200317,-10.015296936035156,0.05155368778727548,1.432932236419558,0.001896611888441641,0.8485264279520353,2.4716868944956345,3.2815782299202807e-06
1739326283.796123,-0.22293730080127716,0.7137917876243591,-9.987689971923828,0.05118436190813097,1.4331672753352924,0.0019825263371290474,0.8477195759857702,2.469662727503194,2.131527658216185e-06
1739326283.8461246,-0.26623037457466125,0.6922075748443604,-9.98267650604248,0.050882433787872036,1.433426750801389,0.002072724199961981,0.8469158617448381,2.4689772571022326,1.76624328202256e-06
1739326283.8960676,-0.29327186942100525,0.6868827939033508,-9.984684944152832,0.05066510256909897,1.4337158806079855,0.0021686481337370466,0.8465749427875385,2.471056536915267,5.227166143219133e-06
1739326283.9461355,-0.2803270220756531,0.6671033501625061,-9.976101875305176,0.0505453380417855,1.4340390180852007,0.0022723473065350383,0.8463945670839269,2.4729497568963525,8.296838625035907e-06
1739326283.9960551,-0.2803270220756531,0.6671033501625061,-9.976101875305176,0.05052993063427855,1.4343991203896886,0.002386117566425883,0.8460497751095213,2.468680653942423,2.509563206162863e-06
1739326284.046051,-0.1695571094751358,0.6457550525665283,-9.992708206176758,0.05061723410775324,1.4347971544946794,0.0025120074551384297,0.845929176449407,2.4709646740956215,6.503675455542989e-06
1739326284.0960352,-0.08598951995372772,0.629934549331665,-9.998588562011719,0.0507968419097479,1.4352318065388694,0.0026514860713354555,0.8450010078775769,2.468423818509989,3.630641772132923e-06
1739326284.1460786,0.009073399938642979,0.6439286470413208,-9.997618675231934,0.0510514643532118,1.4356995420193415,0.0028053260109992314,0.8444104154382394,2.467143320392809,1.9662094460004134e-06
1739326284.1960087,0.10337985306978226,0.6455737948417664,-10.013351440429688,0.05135940837187574,1.4361948487165133,0.0029735868535599643,0.8442316309001874,2.468616629362768,5.046550239220377e-06
1739326284.2459724,0.19576075673103333,0.6504761576652527,-10.030999183654785,0.051696806327078064,1.4367105896022956,0.0031556083658614846,0.8440721565179099,2.47111557999334,1.0312391763084994e-05
1739326284.296221,0.2753444314002991,0.6640632152557373,-10.040435791015625,0.05203954153362017,1.4372383909410114,0.003349958365159525,0.84348517625738,2.4669916064673254,3.776519102555106e-06
1739326284.3460324,0.3128335773944855,0.6993921995162964,-10.03287410736084,0.052364812603889074,1.4377690420435845,0.003554379088067769,0.8424176103533705,2.465726420330964,3.1674854774211044e-06
1739326284.3960884,0.31832218170166016,0.7208787798881531,-10.04365062713623,0.05265220184820846,1.4382929630990247,0.003765819860800087,0.8413984198899336,2.464538540894496,2.464535876279072e-06
1739326284.4459684,0.31832218170166016,0.7208787798881531,-10.04365062713623,0.05288417081547368,1.438800694612379,0.003980539322686583,0.8408508841923539,2.4658323842105316,7.063679163415754e-06
1739326284.496166,0.271473228931427,0.7560664415359497,-10.031968116760254,0.05304658515391852,1.43928334462007,0.0041942738599164454,0.8405398669226123,2.464495745084116,4.689748199373821e-06
1739326284.5459309,0.2221253365278244,0.7812924981117249,-10.032327651977539,0.053130351055248264,1.4397331239922886,0.004402585018662973,0.8403480940841931,2.465908314251014,9.312361749439555e-06
1739326284.5960736,0.1536889374256134,0.8006556630134583,-10.018434524536133,0.05313347275533026,1.4401439750602567,0.004601318534475215,0.8401335669874949,2.4685526870003014,1.7850906417594926e-05
1739326284.645936,0.08779994398355484,0.8100725412368774,-10.014656066894531,0.053061410778124256,1.440511987782855,0.0047869171626148226,0.8400088293403134,2.463781946241127,5.026227326137096e-06
1739326284.6959836,0.08779994398355484,0.8100725412368774,-10.014656066894531,0.05292563156978066,1.4408354640398582,0.004956528437094597,0.8391835989217141,2.4630850477355537,5.344262462669893e-06
1739326284.74592,0.003909687511622906,0.8097193837165833,-10.013984680175781,0.052741877065042374,1.4411147672845042,0.005108010012379101,0.8390025044868812,2.465454124779556,1.4186548092059391e-05
1739326284.7960362,-0.13391344249248505,0.7819032669067383,-10.009056091308594,0.05252863320290918,1.4413520526516284,0.005239889413521008,0.8384186043008546,2.461828379958781,4.1696318421564605e-06
1739326284.8459542,-0.17951996624469757,0.7590404748916626,-10.002130508422852,0.0523054625934074,1.4415508766141252,0.005351320941556224,0.8382512971350575,2.463318049697827,1.0357019036576227e-05
1739326284.895984,-0.20044994354248047,0.7395626306533813,-10.00666332244873,0.0520913859093941,1.4417157102934854,0.00544206113817112,0.8381142482873307,2.4657216549381613,1.9973683435702793e-05
1739326284.9459162,-0.20946523547172546,0.7026676535606384,-9.994057655334473,0.05190383107387658,1.4418514374614828,0.005512441985564091,0.8374061609901398,2.461367279948342,5.923481132060822e-06
1739326284.9960287,-0.18373434245586395,0.679835319519043,-10.000438690185547,0.05175824039635949,1.441962882543336,0.005563335048690407,0.8362230165791981,2.4599344991472116,5.07664324329049e-06
1739326285.045888,-0.14997462928295135,0.6588932275772095,-9.998311042785645,0.051667711280580064,1.4420543140445559,0.005596074300408796,0.8356762894487074,2.461225963578607,1.2351137259155536e-05
1739326285.0960126,-0.10769728571176529,0.6444669961929321,-9.99874210357666,0.0516417753744425,1.4421288488091721,0.0056122645734438,0.8355872016295652,2.4594836119925927,5.9268972864654265e-06
1739326285.1458864,-0.0443507581949234,0.6206600666046143,-10.010616302490234,0.05168481125479834,1.4421878804225836,0.0056135238184401425,0.8351807256992693,2.4639202601180097,2.5392250712792957e-05
1739326285.196042,0.013781078159809113,0.6250430941581726,-10.017500877380371,0.051795750040859165,1.4422307992120644,0.0056012913629834606,0.8350646864910112,2.4665093359571637,3.6278828919329045e-05
1739326285.2458758,0.06463178247213364,0.6286503672599792,-10.022879600524902,0.05196924225891126,1.4422550625232946,0.0055767199337139976,0.8347798027817678,2.458841027287976,5.578336910769104e-06
1739326285.2962615,0.11406099796295166,0.6457770466804504,-10.038411140441895,0.052197138234121754,1.442256482299712,0.005540599162763618,0.8347012274355784,2.459928200423683,1.0162205582689464e-05
1739326285.345913,0.1620212197303772,0.6685922145843506,-10.03874397277832,0.05246973674021095,1.4422296342460206,0.005493287725484108,0.8339395170736308,2.457980130457732,4.928338696726477e-06
1739326285.3959293,0.19869934022426605,0.6968247294425964,-10.056018829345703,0.052776814456653096,1.4421683443295232,0.00543465549907332,0.8329293007319873,2.4574616499131685,5.35778291156458e-06
1739326285.4459248,0.20648011565208435,0.7199180126190186,-10.058752059936523,0.05310842524177493,1.4420662082058924,0.0053640396261049154,0.8326848946315116,2.4589505100500695,1.1790109298383765e-05
1739326285.4961863,0.20720979571342468,0.7512157559394836,-10.057657241821289,0.05345540287842762,1.44191708979528,0.005280224123795929,0.8324291332459176,2.4616798978399728,2.2977644670276794e-05
1739326285.545847,0.20720979571342468,0.7512157559394836,-10.057657241821289,0.05380955969782079,1.441715543593173,0.0051814741252638255,0.832188793439473,2.4659659850519517,3.9963348132461996e-05
1739326285.595948,0.1592869609594345,0.7718665599822998,-10.039173126220703,0.054163952661636844,1.4414571980116742,0.005065685449281548,0.831748063462694,2.4566405403318674,5.645379224119408e-06
1739326285.6458225,0.1592869609594345,0.7718665599822998,-10.039173126220703,0.054513820949681054,1.441139261020931,0.004930716144014803,0.830803105179635,2.455714756695713,4.272258991978056e-06
1739326285.6959696,0.06939972937107086,0.776638388633728,-10.006420135498047,0.054857786931114656,1.4407610542934868,0.004774817237447679,0.830540690052117,2.4575217136997036,1.1282964825037768e-05
1739326285.7460825,0.03339524567127228,0.7742743492126465,-9.984161376953125,0.05519804107421092,1.4403242021085336,0.004596983605450784,0.829266090283714,2.456390632710594,9.620679944381851e-06
1739326285.795875,-0.018367506563663483,0.7506572008132935,-9.978499412536621,0.05553937116061784,1.4398324107166913,0.004397189769516389,0.8291299665638583,2.4574250742964403,1.3347354711010645e-05
1739326285.8458235,-0.05408278852701187,0.7405763268470764,-9.970510482788086,0.0558879700451905,1.4392910576560778,0.004176522760388912,0.8289215542759424,2.4595963657998947,2.087751262309399e-05
1739326285.8961272,-0.07534860074520111,0.719482958316803,-9.958260536193848,0.056250501803216814,1.4387067233841917,0.003937195460396634,0.8284252994475843,2.454577739119597,5.820116107259097e-06
1739326285.9458916,-0.0960063710808754,0.695455014705658,-9.955063819885254,0.056633430265397265,1.4380867239900463,0.0036824938901840903,0.8275001493785024,2.453854206358338,5.244797128726104e-06
1739326285.9958289,-0.09059188514947891,0.6789988875389099,-9.955759048461914,0.057042594629949796,1.437438668436224,0.003416698150785695,0.8273434078043699,2.4555999503620787,1.0284733582860564e-05
1739326286.0458796,-0.08235055953264236,0.682200014591217,-9.966545104980469,0.05748301901009791,1.4367700769038503,0.003144946485965339,0.8262383360418504,2.4524986548476213,3.630713532053945e-06
1739326286.0960453,-0.06389413774013519,0.6708627939224243,-9.99437427520752,0.05795893239263083,1.4360881318851035,0.0028730053399312096,0.825871998360711,2.454208194661711,8.283460564961052e-06
1739326286.1458757,-0.0373237319290638,0.6751251816749573,-10.013100624084473,0.05847374452681341,1.4353994812311717,0.002606904307628074,0.8255829879461068,2.456610438796491,1.4105882414153814e-05
1739326286.1957638,-0.020056216046214104,0.6811829805374146,-10.035704612731934,0.05902953868943074,1.4347098960285674,0.0023524291028531176,0.8250855054397523,2.4524406181762033,4.699299479650583e-06
1739326286.2457867,0.008646330796182156,0.6882612109184265,-10.057867050170898,0.05962631297575045,1.4340238881456648,0.0021145972362482126,0.8238999745055394,2.45099216269308,2.617455989796007e-06
1739326286.2972538,0.042140837758779526,0.699364423751831,-10.083602905273438,0.06026179720961629,1.4333446145628972,0.001897272836236748,0.8221492572873814,2.451270394031461,3.932975709786433e-06
1739326286.3457348,0.06251265108585358,0.7016041874885559,-10.092938423156738,0.060931970425918275,1.4326740776201312,0.0017029378271428317,0.8216530147825396,2.4507712318166748,3.370621530161082e-06
1739326286.3968031,0.06251265108585358,0.7016041874885559,-10.092938423156738,0.06163171738531107,1.4320133789171767,0.0015325882758416918,0.8213677781544841,2.4531543385955827,6.588121704599185e-06
1739326286.4467573,0.10542477667331696,0.7296968102455139,-10.090364456176758,0.06235532359258776,1.4313629296986046,0.001385775368772106,0.8212395185972268,2.4547620143501634,8.634882429643857e-06
1739326286.4961834,0.11172279715538025,0.7402848601341248,-10.079658508300781,0.06309687425548371,1.4307226822887245,0.0012607802524822603,0.8209136401222584,2.449510817374462,2.1483314075913352e-06
1739326286.5467374,0.11172279715538025,0.7402848601341248,-10.079658508300781,0.06385060752810884,1.4300923949342925,0.001154860263298195,0.8207777607108337,2.451399394476736,4.138396279895068e-06
1739326286.5958388,0.11061960458755493,0.7478048801422119,-10.057353019714355,0.06461113049836516,1.4294718321799185,0.0010645146561872483,0.8197831603301675,2.4487870725558083,1.6833914198193506e-06
1739326286.6457696,0.0974588543176651,0.7516291737556458,-10.009332656860352,0.06537345925369584,1.428860863775997,0.0009857981991543772,0.8189566433955209,2.4475676316437602,1.0020156604204032e-06
1739326286.697187,0.07900667935609818,0.7443007230758667,-9.982142448425293,0.06613304575156972,1.4282595728790042,0.0009147297662634908,0.8186884046778767,2.448989244729684,2.2115143883455357e-06
1739326286.7458215,0.06422175467014313,0.7353811860084534,-9.967520713806152,0.06688602124148058,1.4276684876265193,0.0008476812702502403,0.8185244260445891,2.4504886559914723,3.371127486547288e-06
1739326286.795866,0.06422175467014313,0.7353811860084534,-9.967520713806152,0.06762955958758524,1.4270888317411787,0.0007815916953401711,0.817545700384795,2.4477020812068306,1.3321478288591339e-06
1739326286.8466923,0.04538324102759361,0.7070493698120117,-9.950396537780762,0.0683619917893957,1.4265225581784033,0.0007140425612017892,0.8174330242438026,2.4491845069154428,2.2477263328830017e-06
1739326286.8957386,0.04538324102759361,0.7070493698120117,-9.950396537780762,0.0690826140406308,1.4259721370178027,0.0006433024877104161,0.8164998948069037,2.4464992667858776,8.111488368642831e-07
1739326286.9456944,0.009355733171105385,0.6839717626571655,-9.96040153503418,0.06979139941363337,1.4254402643613888,0.0005683434855122753,0.8162834490561116,2.447695860101383,1.4699864719652225e-06
1739326286.995808,0.009355733171105385,0.6839717626571655,-9.96040153503418,0.07048869520659277,1.4249296074566689,0.000488776028527149,0.8154510188415127,2.4459350847849595,6.748088679086662e-07
1739326287.0466647,-0.03959224745631218,0.6733860969543457,-9.982516288757324,0.07117490360682144,1.424442612294932,0.00040470250045257126,0.8151643974840819,2.447861305042142,1.4626121471027291e-06
1739326287.0972135,-0.05539470911026001,0.6765679717063904,-10.000564575195312,0.07185014550553351,1.423981382516372,0.00031651364007390277,0.8148726447043108,2.4519624894186864,2.8842371961830308e-06
1739326287.1467202,-0.050578873604536057,0.6866965293884277,-10.022367477416992,0.07251394961046541,1.4235476400700764,0.00022463113684705163,0.8135565317604365,2.44443345260286,2.8586112578649423e-07
1739326287.1967394,-0.04057320952415466,0.697876513004303,-10.0252046585083,0.07316511016732061,1.4231427778841883,0.00012924361913973207,0.8123509453535216,2.444339940892298,2.858251529408432e-07
1739326287.2467957,-0.03513403981924057,0.7127494812011719,-10.053926467895508,0.07380167431536756,1.4227679634899555,3.016929926226014e-05,0.8121706271525304,2.4451926445324843,3.9841737023799416e-07
1739326287.2967386,-0.01999681070446968,0.7127010226249695,-10.053433418273926,0.07442075827140131,1.422424186398952,-7.303681222438689e-05,0.8107747431938995,2.443438774239998,1.1905868612991649e-07
1739326287.346672,0.0012249433202669024,0.7302541732788086,-10.065337181091309,0.07501825235269134,1.4221122348619595,-0.00018084031831861133,0.810310300412228,2.4449163329046435,8.301486277668037e-08
1739326287.397246,0.0012249433202669024,0.7302541732788086,-10.065337181091309,0.0755888366939658,1.4218327156336743,-0.00029360234272556257,0.8096141710362644,2.449298117690354,-3.0728315887262526e-07
1739326287.4467502,0.05647045373916626,0.7465535402297974,-10.051142692565918,0.07612635733858586,1.4215861533109524,-0.000411597413669882,0.8096039027261924,2.442845216568737,-5.157780626093063e-08
1739326287.49678,0.05647045373916626,0.7465535402297974,-10.051142692565918,0.07662432719989838,1.4213731023514495,-0.0005350098230015078,0.8094652193997295,2.4440330664641112,-3.341008220649561e-07
1739326287.5466743,0.10250100493431091,0.7651652097702026,-10.049221992492676,0.07707642937882724,1.4211942397018391,-0.0006638725702095854,0.8081245349556665,2.442425321054561,-3.4914648736477277e-07
1739326287.597203,0.11647835373878479,0.766565203666687,-10.040135383605957,0.07747696482603467,1.4210504473896397,-0.0007980187613714434,0.8068095647300754,2.4422873130129017,-7.013692081347531e-07
1739326287.64659,0.11937791854143143,0.7661488056182861,-10.028193473815918,0.07782120286192243,1.4209428720100405,-0.0009370424020899461,0.8064867168198177,2.443885279328149,-1.636426460280287e-06
1739326287.6967072,0.1173933744430542,0.752110481262207,-10.034993171691895,0.07810556922874076,1.420872911495117,-0.001080241992884077,0.8060745477951953,2.4475013541614503,-3.91917556908126e-06
1739326287.7466736,0.11450646817684174,0.7442916035652161,-10.02493953704834,0.07832764265529622,1.420842101185332,-0.001226585942694372,0.805864775742101,2.4415023424072264,-7.483462387521051e-07
1739326287.7965994,0.09429344534873962,0.7228687405586243,-10.012186050415039,0.07848614279719315,1.420851937823524,-0.001374746623412679,0.8033988956622309,2.441005830072508,-1.4284007128000304e-06
1739326287.8466074,0.08143901824951172,0.7081282734870911,-10.005731582641602,0.07858116865947659,1.4209036965430426,-0.00152321600906376,0.8028195845081494,2.4418093942210426,-2.3949500663825483e-06
1739326287.8971913,0.06667128205299377,0.6909672021865845,-9.995783805847168,0.07861454130090753,1.420998253714807,-0.0016704430865170945,0.802821791781051,2.4405462712755304,-1.5009052726403429e-06
1739326287.9465747,0.03934388607740402,0.6845232844352722,-9.988360404968262,0.0785897994196202,1.4211359158007855,-0.0018148757191633663,0.802419081163097,2.442351116007468,-3.7578027752606937e-06
1739326287.996599,0.014152886345982552,0.6708080768585205,-9.996542930603027,0.07851178201788354,1.4213162836942925,-0.001954909094781736,0.8019417784603341,2.4464236839868017,-8.980483100073751e-06
1739326288.0465567,-0.01765107735991478,0.6707947254180908,-9.988600730895996,0.07838607391156258,1.421538177950621,-0.0020888544284355876,0.80216016765381,2.439847761064547,-1.374867898544498e-06
1739326288.096645,-0.05895606055855751,0.6548426151275635,-9.990897178649902,0.07821845594916815,1.4217996169657316,-0.0022149558084891005,0.802003951566553,2.4418855080179225,-4.386056626106505e-06
1739326288.1465929,-0.09036935120820999,0.6472431421279907,-9.985832214355469,0.0780143688288861,1.4220978163633426,-0.0023314080537258897,0.8008864777988274,2.4393438320983507,-1.6231214429262426e-06
1739326288.1966035,-0.10867474973201752,0.6544173955917358,-9.983149528503418,0.077778433856102,1.4224291993893208,-0.0024363606055492664,0.8005679456101525,2.4414282076878875,-5.200319362818739e-06
1739326288.2465558,-0.0958474725484848,0.6590606570243835,-9.991107940673828,0.07751414230185859,1.4227894678331183,-0.0025279233732267005,0.7994487550881605,2.438954568142811,-2.066533455732438e-06
1739326288.296819,-0.0820007249712944,0.6658531427383423,-9.986547470092773,0.07722381437004973,1.4231737612306719,-0.0026041960494436168,0.7991477316733032,2.4406442422385917,-5.248184430356067e-06
1739326288.3465474,-0.05192720517516136,0.677334189414978,-9.984919548034668,0.07690868830446768,1.4235768192493743,-0.0026633358925956417,0.7989098366154205,2.443011219032368,-9.678811785492827e-06
1739326288.3966095,-0.017722245305776596,0.6944760680198669,-9.998061180114746,0.07656880582325018,1.4239930420951061,-0.0027036860676897057,0.7970127339928917,2.4386164625801183,-3.0758374699474886e-06
1739326288.4465573,0.010279562324285507,0.7182450294494629,-10.014968872070312,0.0762027953859731,1.4244165241672322,-0.002723969371471996,0.7968183033826144,2.4397079394512486,-5.256228842169087e-06
1739326288.4965994,0.049007952213287354,0.7312451004981995,-10.023808479309082,0.07580803821073796,1.4248412349319848,-0.0027234852481467556,0.7965229484389214,2.442357757358397,-1.0484082534663348e-05
1739326288.5465214,0.08780613541603088,0.7548314332962036,-10.035158157348633,0.07538125495443125,1.4252613312481013,-0.002702246460715523,0.7956525926232867,2.438645993506434,-3.936729946539955e-06
1739326288.5965266,0.12793821096420288,0.7779362201690674,-10.045750617980957,0.07491918600239222,1.4256714729689852,-0.0026610538536504173,0.7954954377522062,2.440960668602867,-8.462562573987227e-06
1739326288.646466,0.13942411541938782,0.7949787378311157,-10.061939239501953,0.074419183310831,1.4260671050478173,-0.0026015402770687064,0.7954013800831496,2.4438233637247766,-1.3969450741629686e-05
1739326288.6965678,0.17036087810993195,0.7943680286407471,-10.057604789733887,0.07387963889114886,1.4264446783857907,-0.002526196437737752,0.7943650036194738,2.4377560869978403,-2.738811580925914e-06
1739326288.7465084,0.16805171966552734,0.8054513931274414,-10.069401741027832,0.07330022775233348,1.4268017495210898,-0.0024383516390117056,0.7942315907415847,2.4394957841564304,-5.958850928713774e-06
1739326288.7971663,0.16805171966552734,0.8054513931274414,-10.069401741027832,0.07268198494198491,1.427136968208544,-0.0023421016705316884,0.7927702745474826,2.4381492936778595,-3.468590924393604e-06
1739326288.846489,0.14111429452896118,0.7746522426605225,-10.07254409790039,0.0720272034105867,1.4274499813628505,-0.0022422147088375947,0.7915082118897724,2.437712310251624,-2.721521831838732e-06
1739326288.896533,0.10660611093044281,0.7570520043373108,-10.050924301147461,0.07133928053651081,1.427741279187005,-0.0021439462617629094,0.7912686567224744,2.439144738534044,-5.049055074422884e-06
1739326288.946509,0.10660611093044281,0.7570520043373108,-10.050924301147461,0.07062283731560891,1.4280121371625587,-0.0020526146915263357,0.7910392091395679,2.4412656071516188,-8.404833673092763e-06
1739326288.9967804,0.0747387632727623,0.7230647206306458,-10.040288925170898,0.06988404708683982,1.4282646833207673,-0.0019730537970068843,0.7898524757231505,2.437553730683104,-2.712540857602323e-06
1739326289.0464845,0.04036528244614601,0.704889714717865,-10.018474578857422,0.06913062531823283,1.4285018074570524,-0.001909251911153643,0.789638589416572,2.439496409871259,-5.553007297419099e-06
1739326289.0965183,0.005458486266434193,0.6851969957351685,-10.005204200744629,0.06837130655727859,1.4287268058675928,-0.0018641968903954033,0.7883544893043701,2.4372700160869942,-2.395905786370099e-06
1739326289.146495,-0.054665688425302505,0.6417968273162842,-9.963921546936035,0.06761511917078161,1.4289429537351048,-0.0018397404852021808,0.7870092138454323,2.436699761511591,-1.7669159406968146e-06
1739326289.1971512,-0.07583149522542953,0.6346703171730042,-9.958209037780762,0.06687066490422339,1.429153106244802,-0.0018364232709778801,0.7865727275524914,2.438718644737629,-4.497143871842858e-06
1739326289.246463,-0.0969274714589119,0.6361661553382874,-9.951233863830566,0.06614550750126424,1.4293593826856559,-0.0018533377342934087,0.7861086743790805,2.4426902819386704,-9.776595630409851e-06
1739326289.2964823,-0.10742415487766266,0.6411492228507996,-9.955421447753906,0.06544579050419709,1.429563049243466,-0.0018881341511394621,0.7853752009196593,2.436736337801335,-2.165363920753208e-06
1739326289.346364,-0.1086958795785904,0.6391351222991943,-9.966768264770508,0.06477609033290592,1.4297645909867887,-0.0019371865988832343,0.7852279511889559,2.438177285069451,-4.115055832245201e-06
1739326289.39718,-0.10866847634315491,0.6445977091789246,-9.965079307556152,0.06413943424238835,1.4299638461250088,-0.001995852836879891,0.7837939821396583,2.436169057837056,-1.8733390046936634e-06
1739326289.4463282,-0.08489558100700378,0.6663788557052612,-9.991847038269043,0.06353727394491815,1.430160070532324,-0.002058819106988685,0.7833719022062618,2.438174055743232,-4.789829018087236e-06
1739326289.4964566,-0.050815925002098083,0.6843466758728027,-9.997583389282227,0.06296910909640115,1.4303518291509913,-0.002120612001573114,0.7822620306758074,2.4358315144484943,-1.913978535051743e-06
1739326289.5464208,-0.050815925002098083,0.6843466758728027,-9.997583389282227,0.06243199455653199,1.4305368288951832,-0.002176176369506945,0.781888079146497,2.43750283560574,-4.487517167474439e-06
1739326289.5971453,0.04533887654542923,0.7138485908508301,-10.024054527282715,0.061920603311873344,1.4307119583827705,-0.0022212378538971796,0.7815122351085485,2.4403216877169553,-8.826067117394651e-06
1739326289.6463847,0.0905502662062645,0.7423838376998901,-10.033059120178223,0.06142800215008947,1.4308735871944513,-0.0022524429568619125,0.7796923469560681,2.4349116659659313,-1.7158204541127537e-06
1739326289.6964023,0.1381833255290985,0.7640572786331177,-10.045953750610352,0.06094672941696132,1.4310179912909469,-0.0022674597074873303,0.778005235152799,2.43455779685124,-1.9151740595323855e-06
1739326289.7463589,0.18391254544258118,0.7883369326591492,-10.049310684204102,0.06046976747060108,1.431141779912931,-0.0022650535154048164,0.7773744052530454,2.4362537458584725,-4.881286821954108e-06
1739326289.7963448,0.18391254544258118,0.7883369326591492,-10.049310684204102,0.059991234939271644,1.4312422296532599,-0.002245083880046791,0.7765999096466831,2.434320893384982,-2.335217068564355e-06
1739326289.8462934,0.22729948163032532,0.8041086196899414,-10.060230255126953,0.05950679111024307,1.4313174771945245,-0.0022084332750093106,0.7761370857012806,2.4366663647241813,-6.290308797738349e-06
1739326289.8963947,0.2120925635099411,0.8064126968383789,-10.058080673217773,0.05901381509644318,1.4313665907654192,-0.0021569127381046273,0.775871366663865,2.4388735499166936,-9.900288833909959e-06
1739326289.946324,0.18303842842578888,0.8097468018531799,-10.06003475189209,0.058511383466475234,1.4313895730218227,-0.0020931646001989468,0.775574505168258,2.4341420862169003,-2.612073908068707e-06
1739326289.9963737,0.1332361400127411,0.798819363117218,-10.048857688903809,0.05800015789100167,1.4313874246773666,-0.0020204859941455313,0.7754081281471811,2.436176652736388,-5.75399365465821e-06
1739326290.0463583,0.08226719498634338,0.7823739647865295,-10.04316234588623,0.05748253641253154,1.431362458262338,-0.001942458379393528,0.7741345938425427,2.4336396003378615,-2.312977841262239e-06
1739326290.096348,0.022663021460175514,0.7559708952903748,-10.027778625488281,0.05696292519410821,1.4313186713612764,-0.0018624684775634952,0.7731254651353701,2.4331489039369063,-2.021800941427583e-06
1739326290.1463094,-0.03573492914438248,0.7240250706672668,-10.017610549926758,0.05644742698166484,1.431261681984411,-0.0017833605341225187,0.7728299979191922,2.4349408490072877,-4.547878762426354e-06
1739326290.196304,-0.08839549124240875,0.703668475151062,-10.01032829284668,0.055942904682183714,1.4311981981577315,-0.0017072768340029645,0.7724834639111474,2.4387915321460194,-9.701635807486549e-06
1739326290.2462268,-0.13816618919372559,0.6722379326820374,-10.002890586853027,0.055455975021427906,1.4311353928757207,-0.001635589271773859,0.7716616374429425,2.433531251463932,-2.753676669092282e-06
1739326290.2963107,-0.1532355099916458,0.6479225754737854,-9.988656044006348,0.054992222551528525,1.431080364081721,-0.0015688687001792945,0.771551662649788,2.4351134686793032,-4.6725477999550746e-06
1739326290.3462932,-0.15914657711982727,0.6279911994934082,-9.990739822387695,0.054555711850895666,1.4310396795723146,-0.0015068726891090919,0.7705860488110896,2.432248930513931,-1.4032346134215576e-06
1739326290.3962803,-0.13305093348026276,0.6110497117042542,-9.979114532470703,0.05414885356258006,1.4310190206312692,-0.001448556802016764,0.7702485557280622,2.4340611322491856,-3.49116984708248e-06
1739326290.4463065,-0.10357794910669327,0.6054540872573853,-9.973458290100098,0.05377260370228919,1.4310229469821056,-0.0013921139485422187,0.7699432821818473,2.4370898143821407,-6.795853566421747e-06
1739326290.4962318,-0.10357794910669327,0.6054540872573853,-9.973458290100098,0.05342687172879046,1.431054792002612,-0.0013350232279954527,0.7697321889563576,2.4403321701527485,-1.0219869697785193e-05
1739326290.5462172,-0.0067689926363527775,0.6276150345802307,-9.985836029052734,0.05311083405912625,1.4311165330097735,-0.001274193347795237,0.769071753968358,2.4323100873147183,-1.604963284852901e-06
1739326290.596335,0.05111655592918396,0.6404147148132324,-9.992438316345215,0.052822901243567005,1.4312083333134362,-0.0012063604569890404,0.7672575124151505,2.431974883285369,-1.3621220427287746e-06
1739326290.6462605,0.1088101789355278,0.6727147698402405,-9.998241424560547,0.05256064368472688,1.4313279703486261,-0.0011286263953580646,0.7663109356356925,2.431561221161803,-1.0569585224624572e-06
1739326290.6962762,0.14661966264247894,0.699303388595581,-10.006891250610352,0.0523211680846337,1.4314708178213227,-0.0010388053184470609,0.7657500224681042,2.4333392113285535,-2.5642120405369723e-06
1739326290.746235,0.17813117802143097,0.7387186288833618,-10.029716491699219,0.05210181557509082,1.4316304520852516,-0.0009355312238511738,0.7647291049773538,2.4316975250601316,-1.1961295277004464e-06
1739326290.796338,0.18089817464351654,0.7714622020721436,-10.048544883728027,0.051900728811205804,1.4317994321879155,-0.0008183320646188377,0.7643083975985808,2.433492360251014,-2.4604196026853347e-06
1739326290.8462539,0.1820252537727356,0.7882896065711975,-10.054254531860352,0.05171711391170335,1.431970006195488,-0.0006877420479071514,0.7639002898610739,2.4362261161626733,-4.231747520339838e-06
1739326290.896247,0.16087491810321808,0.8145096302032471,-10.058534622192383,0.05155122866987838,1.4321346750583654,-0.0005453681231552441,0.7633651069092148,2.431539629231754,-1.0078656340143798e-06
1739326290.9462647,0.12827134132385254,0.8166506886482239,-10.052311897277832,0.05140415122506915,1.4322865863397243,-0.00039384569325693545,0.7617488771225823,2.431185069668722,-6.540949733196043e-07
1739326290.9962747,0.07573611289262772,0.8276057243347168,-10.039905548095703,0.051277362028468144,1.432419773470873,-0.0002366854010711948,0.7613236365571326,2.4331289940161662,-1.2680886950329663e-06
1739326291.0461955,0.03972604125738144,0.8110270500183105,-10.034186363220215,0.051172183014994044,1.432529248360957,-7.804077353518453e-05,0.7599631276749681,2.4313297737439608,-4.4132659518497196e-07
1739326291.0962367,-0.013251998461782932,0.7977767586708069,-10.028419494628906,0.05108921404023621,1.4326111130781651,7.759197070637576e-05,0.7595733843769517,2.433224496240211,-6.436395144557121e-07
1739326291.1462486,-0.06007957458496094,0.7743715047836304,-10.027313232421875,0.05102792238133544,1.43266301330749,0.00022576041346423684,0.7592063442162299,2.435998410885595,-7.600675504737876e-07
1739326291.1962147,-0.08968205004930496,0.7497202157974243,-10.012711524963379,0.05098636768145601,1.4326847320342706,0.0003624521215445392,0.758496598187735,2.431282241544526,-4.948366478960756e-08
1739326291.2461662,-0.10852262377738953,0.7166584730148315,-10.012287139892578,0.05096097312885657,1.432678251859123,0.00048434390446951494,0.7564695823104749,2.4309754500958625,2.0722086176319482e-07
1739326291.296302,-0.10852262377738953,0.7166584730148315,-10.012287139892578,0.05094640040405533,1.4326472348950572,0.0005888784800772769,0.7555980501082816,2.4329596810694714,8.136442353004485e-07
1739326291.346164,-0.08359967172145844,0.6568057537078857,-10.009446144104004,0.050935647476705204,1.4325963971074982,0.0006742464431199311,0.7551182573979681,2.430989194059403,4.916108165415503e-07
1739326291.3961945,-0.05031276494264603,0.6419680714607239,-10.003220558166504,0.05092040861532328,1.4325309343795833,0.0007393353582774304,0.7547260477499951,2.432862989235941,1.3078035183520816e-06
1739326291.446241,-0.016252387315034866,0.6209249496459961,-10.01016902923584,0.05089164309598585,1.4324559716635652,0.0007836804265127529,0.7543384752045869,2.4357840628061744,2.668435504869227e-06
1739326291.4962516,0.019082888960838318,0.6143246293067932,-10.00365161895752,0.050840227683332906,1.4323761415078111,0.0008074081616109523,0.7540300517940844,2.431118121219839,8.307312325698536e-07
1739326291.5461528,0.04397161304950714,0.6056339144706726,-10.004253387451172,0.050757568763632674,1.4322953543355177,0.0008111673404216047,0.7538381882150952,2.4332576717889407,1.9841644561097117e-06
1739326291.5962548,0.04397161304950714,0.6056339144706726,-10.004253387451172,0.050636078071105435,1.4322167063065547,0.0007960672247700757,0.7525619786848824,2.430668236546348,7.566110868106057e-07
1739326291.64617,0.0978083461523056,0.6521179676055908,-10.007257461547852,0.050469560836146274,1.432142367951597,0.0007635865590540795,0.7510672192430802,2.4304678678521405,7.238545369431665e-07
1739326291.6961672,0.11825404316186905,0.6666205525398254,-9.994046211242676,0.05025377681068584,1.432073242359734,0.0007153940009468449,0.750504824053754,2.4330177449059307,2.090989467894195e-06
1739326291.7461965,0.12431260198354721,0.6962127089500427,-10.008691787719727,0.04998712185528534,1.4320085699025271,0.0006531449927234112,0.7502062532180614,2.4351442773250183,3.1961839625390904e-06
1739326291.7961605,0.11953623592853546,0.7303661108016968,-10.005105018615723,0.049670938066364745,1.4319459727325943,0.0005783627392386892,0.7493360170328597,2.4305787363114075,8.309831128084296e-07
1739326291.846162,0.10949406027793884,0.7576290369033813,-10.006180763244629,0.04930929686129288,1.4318819797636104,0.0004923956309615267,0.74757223560267,2.430255579594764,6.390794080641993e-07
1739326291.896157,0.0931859165430069,0.7905817031860352,-10.031595230102539,0.04890853160753235,1.431812667172886,0.0003963869888585455,0.7468555093364782,2.4324506687185234,1.4422078556669926e-06
1739326291.9460664,0.0684056207537651,0.812770664691925,-10.024710655212402,0.048476700070755316,1.4317342133441016,0.00029120826681255723,0.7463622017445783,2.434741561402085,2.1957429392395727e-06
1739326291.996106,0.04204021021723747,0.8186371326446533,-10.031888961791992,0.04802300878467743,1.4316433275452765,0.0001773771544686041,0.7463032215079703,2.430501091263842,5.410379869463095e-07
1739326292.0460513,0.01610739715397358,0.8153890371322632,-10.042119026184082,0.04755722737131908,1.4315374987230787,5.5021374517378035e-05,0.7460500024424163,2.4323683080944516,8.619525320864997e-07
1739326292.0961497,0.006379387807101011,0.798149585723877,-10.035439491271973,0.04708915069323487,1.4314150319450984,-7.612463157835497e-05,0.745726775005224,2.4364300431128294,1.3067290591004621e-06
1739326292.1460698,-0.02228357084095478,0.7796103954315186,-10.023170471191406,0.046628166722480435,1.4312749017282025,-0.00021668964157869533,0.7450624079522319,2.4300712764423746,1.9615352215400876e-07
1739326292.1960745,-0.05120181292295456,0.7489570379257202,-10.024860382080078,0.04618279052558534,1.431116587326012,-0.00036753306948753125,0.7437061256597085,2.4297354238982374,-3.786814087200767e-08
1739326292.2460997,-0.05120181292295456,0.7489570379257202,-10.024860382080078,0.045759902154203266,1.430940162190253,-0.0005295083112653985,0.7433289908584794,2.4314876846046047,-4.2687738976958595e-07
1739326292.2960982,-0.07073520869016647,0.6950898766517639,-10.020197868347168,0.045363911175775595,1.4307465529535786,-0.0007032369267253894,0.7418701065918962,2.4302647688391685,-5.472963245232301e-07
1739326292.3459725,-0.08007971942424774,0.6670675873756409,-10.020514488220215,0.04499638745446386,1.4305374878732486,-0.0008889971800992569,0.7415472465625954,2.431872090026656,-1.2679717536055755e-06
1739326292.3961053,-0.06776031851768494,0.6563056111335754,-10.008890151977539,0.04465618914322658,1.4303150435885903,-0.0010867029789992815,0.7411563280410396,2.4347615806752683,-2.7683608034308245e-06
1739326292.4460087,-0.07008939981460571,0.6440262794494629,-10.011725425720215,0.04433979776674486,1.4300811837950016,-0.0012958960088063308,0.740484736589468,2.430004336786643,-9.353298331275961e-07
1739326292.4961762,-0.040042366832494736,0.635692298412323,-10.01634407043457,0.044041745403058906,1.429837503798607,-0.0015157465787421092,0.7402265060390998,2.4322597930780203,-2.8040862285783045e-06
1739326292.5459526,-0.006077165715396404,0.6407330632209778,-10.016565322875977,0.04375513167223875,1.4295851207071164,-0.0017451011438293163,0.7390410676649268,2.4297361403257622,-1.302072303854209e-06
1739326292.5960696,0.03745102509856224,0.6438995003700256,-10.002344131469727,0.043472247700226015,1.429324663233948,-0.0019825491673660742,0.7376677998999167,2.429430867403008,-1.4229416039857215e-06
1739326292.646004,0.07946428656578064,0.6516478657722473,-10.00633430480957,0.043185277166110814,1.4290563510201453,-0.0022264438343615467,0.7372623955955201,2.431157203954376,-3.7580642392216804e-06
1739326292.6961684,0.1432405710220337,0.6783259510993958,-10.014837265014648,0.0428870059353305,1.4287801418753272,-0.0024749008083250488,0.7368408126880232,2.434030939995537,-7.92912446286209e-06
1739326292.7459247,0.18359901010990143,0.685495138168335,-10.016030311584473,0.04257171914966982,1.4284958835005996,-0.0027258609958434286,0.736015690293099,2.429731464404755,-2.5814043099674178e-06
1739326292.7960744,0.2009681910276413,0.7053667306900024,-10.021288871765137,0.042236596394270506,1.4282033308462205,-0.0029772250760496223,0.735797651712086,2.431573297002696,-5.9243041205032205e-06
1739326292.8459313,0.2009681910276413,0.7053667306900024,-10.021288871765137,0.04188313670042827,1.4279020429644849,-0.003226988291325332,0.7346073646349132,2.429580263546229,-2.92837545062134e-06
1739326292.8961794,0.2098224014043808,0.7255297303199768,-10.02079963684082,0.04151764978169317,1.4275913743530402,-0.0034733193640045065,0.7333536065164586,2.429392831381301,-2.9281685093031753e-06
1739326292.945958,0.15544182062149048,0.7589414715766907,-10.023404121398926,0.04115075581224199,1.427270647026993,-0.003714583389560457,0.7329834355298773,2.4312160134098244,-7.250521341964966e-06
1739326292.9959338,0.15544182062149048,0.7589414715766907,-10.023404121398926,0.040796477773868946,1.4269394207733859,-0.003949342867971315,0.732616775724157,2.434065231464021,-1.4294970525608886e-05
1739326293.045898,0.06130452826619148,0.7891879081726074,-10.024843215942383,0.04047120779684729,1.4265977531294054,-0.004176359243425675,0.7318479088890524,2.4296448657320497,-4.103399810970931e-06
1739326293.0959547,0.0046994430013000965,0.7940021753311157,-10.033416748046875,0.040192560571492966,1.4262463855309624,-0.004394600851616532,0.7300876074224912,2.429460498460653,-4.023737380144828e-06
1739326293.1460104,-0.0463157556951046,0.787090003490448,-10.024320602416992,0.03997814567565153,1.425886845621596,-0.004603258823357586,0.7287801936241013,2.429344531555544,-3.976049780300868e-06
1739326293.1960285,-0.09471875429153442,0.7764145135879517,-10.027386665344238,0.0398444499984778,1.4255214198106865,-0.004801747202983619,0.7281389425924488,2.431476815068547,-1.076484001563024e-05
1739326293.2460234,-0.09471875429153442,0.7764145135879517,-10.027386665344238,0.039806025578243656,1.4251529881571252,-0.004989673465750234,0.7274506160249652,2.4295539647378774,-5.00181789274313e-06
1739326293.2959828,-0.15188416838645935,0.7485559582710266,-10.015013694763184,0.039874715113330066,1.4247848814396662,-0.005166784549807465,0.7270129434920423,2.43143251875049,-1.1451319643353855e-05
1739326293.3459506,-0.1510859727859497,0.7241567969322205,-10.007274627685547,0.04005827287450963,1.4244209228304698,-0.005332850713690049,0.7265831947033637,2.4342520149799647,-2.1351414754430052e-05
1739326293.3960075,-0.13325364887714386,0.697881817817688,-9.997346878051758,0.04035875079384397,1.4240655064756318,-0.005487488247016992,0.725411024334851,2.429079088075298,-3.8647496874237655e-06
1739326293.4459112,-0.09924961626529694,0.6692602634429932,-9.994298934936523,0.040772000406257204,1.4237234178989158,-0.005630014000463888,0.7241321930473869,2.4292437199742998,-4.676958827804159e-06
1739326293.4958696,-0.09924961626529694,0.6692602634429932,-9.994298934936523,0.04128847089081076,1.4233994345475474,-0.005759387313960475,0.7236091044170181,2.431146325783428,-1.2139097970211774e-05
1739326293.5459833,-0.006991670001298189,0.6468945145606995,-9.996569633483887,0.041894406480168705,1.4230979724034385,-0.005874225573438255,0.7227941919388328,2.4299067350959422,-7.567657958741263e-06
1739326293.5958936,0.03825981542468071,0.6355271339416504,-9.990370750427246,0.04257309973246873,1.4228228612771623,-0.005972862317205208,0.722550036674925,2.431541786064205,-1.4245023900845899e-05
1739326293.6460938,0.10238315165042877,0.642263650894165,-10.002575874328613,0.043306237208125896,1.4225771946090795,-0.006053416664517953,0.7222716526501559,2.434322122262189,-2.5710611070002707e-05
1739326293.6958685,0.10238315165042877,0.642263650894165,-10.002575874328613,0.044075128557133456,1.4223632723615305,-0.0061138766055221245,0.7216914432196475,2.4297773355716545,-7.334749957065657e-06
1739326293.7459667,0.17062824964523315,0.6628463268280029,-10.035114288330078,0.044861610981620045,1.422182671700222,-0.006152228917109768,0.7214691233927473,2.4323752932534406,-1.8387268228507726e-05
1739326293.79585,0.17062824964523315,0.6628463268280029,-10.035114288330078,0.045648684521843896,1.422036408451918,-0.006166651352969756,0.7205710133886868,2.429426747020071,-6.034040874120459e-06
1739326293.8459322,0.17250286042690277,0.689893901348114,-10.037426948547363,0.046421237885758734,1.421925044371927,-0.006155708792088342,0.7191924058217846,2.429240439127617,-5.309337761723129e-06
1739326293.8961465,0.17250286042690277,0.689893901348114,-10.037426948547363,0.047167315675093135,1.421848546292885,-0.006118455248190441,0.7187422349462084,2.431253967468735,-1.3997358155399239e-05
1739326293.9459164,0.1323593705892563,0.724712610244751,-10.040836334228516,0.04787950638132583,1.421806020135643,-0.006054436448860969,0.7183418270833999,2.4342039504341733,-2.6692040142012427e-05
1739326293.995933,0.10310955345630646,0.7389981150627136,-10.032784461975098,0.048555310415977826,1.4217957128850036,-0.005963653762437291,0.7179157378339037,2.42966485926316,-7.116858149664027e-06
1739326294.0459218,0.0727422907948494,0.752525806427002,-10.024622917175293,0.04919637106873617,1.4218153319898714,-0.005846497035403516,0.7166862715484836,2.429260767715854,-5.320445797394808e-06
1739326294.096179,0.027760734781622887,0.7572404146194458,-10.015766143798828,0.04980738669559069,1.4218623921517899,-0.005703629654441858,0.7161604903006672,2.4310679318743884,-1.2779519026594453e-05
1739326294.1458805,0.008536781184375286,0.762014627456665,-10.009011268615723,0.05039511595317668,1.4219344347716327,-0.005535848349836149,0.7152752600301249,2.429757619259887,-7.139547839650305e-06
1739326294.1958082,0.008536781184375286,0.762014627456665,-10.009011268615723,0.05096754191083002,1.422029142155158,-0.00534396168981056,0.7150316968725268,2.4314423316346727,-1.3765815996699031e-05
1739326294.2458146,-0.02584807388484478,0.7812466621398926,-10.011490821838379,0.0515332669863973,1.4221444018275151,-0.005128721945933926,0.7147662759704162,2.4343148368992784,-2.4849571043724295e-05
1739326294.2958188,-0.02584807388484478,0.7812466621398926,-10.011490821838379,0.05210107747191449,1.4222783779521293,-0.00489081788500573,0.7138273021967134,2.429703115093369,-6.4908698836823825e-06
1739326294.345841,-0.05056348070502281,0.7741847634315491,-10.019041061401367,0.05267957486088148,1.4224295804887381,-0.004630906751760994,0.7135357128782243,2.4327260899448904,-1.710080562918676e-05
1739326294.395845,-0.0452243909239769,0.7679367065429688,-10.013063430786133,0.05327668101938281,1.4225969417193651,-0.004349673548186287,0.7124233053502426,2.4291967136851866,-4.270430215365747e-06
1739326294.4458303,-0.0476020909845829,0.7657831907272339,-10.019939422607422,0.0538986932801038,1.422780047885948,-0.004047923547318196,0.7120972132335557,2.430936903390816,-9.790554803171367e-06
1739326294.4961886,-0.031055087223649025,0.7364623546600342,-10.019619941711426,0.05454919907624562,1.4229794496887855,-0.0037266813337199028,0.710766651502769,2.4294391966391107,-4.430613820870939e-06
1739326294.5459602,-0.022407634183764458,0.723529040813446,-10.017606735229492,0.055228683046837306,1.4231966794175008,-0.0033872414813599823,0.7102658321779095,2.432145368053261,-1.1707734514639446e-05
1739326294.5957873,-0.016085321083664894,0.6891168355941772,-10.019269943237305,0.05593489029988788,1.4234339062755597,-0.003031154561614265,0.7100251673898247,2.4341963109651457,-1.697755586312162e-05
1739326294.645763,0.007780249696224928,0.6658875942230225,-10.017864227294922,0.05666339103125106,1.4236934769487921,-0.0026601832818105987,0.7093043525581562,2.429565130723056,-4.1975923129775975e-06
1739326294.6961133,0.007780249696224928,0.6658875942230225,-10.017864227294922,0.05740810597152775,1.4239775016662355,-0.0022762593788386775,0.7080466150089142,2.4292466426041055,-3.0539265934534204e-06
1739326294.745858,0.04926108196377754,0.6332689523696899,-10.004718780517578,0.058161806201354166,1.4242875562296544,-0.0018814324373694958,0.7077668755822695,2.431045383190355,-6.150218215303566e-06
1739326294.795826,0.06945927441120148,0.618114709854126,-10.01742172241211,0.05891661756933918,1.424624478940927,-0.0014777998228096305,0.7062685340102701,2.429361712732379,-2.6561646456374732e-06
1739326294.845849,0.08314958214759827,0.6091951727867126,-10.004716873168945,0.05966453239912421,1.424988192412081,-0.0010674470467586946,0.7058699619308262,2.431394546730072,-5.0494136111655964e-06
1739326294.8961556,0.09438396990299225,0.6198505759239197,-10.009846687316895,0.060397837399963065,1.4253776009166832,-0.0006524142632277415,0.7054905854633053,2.434532077557429,-8.171139951212369e-06
1739326294.945778,0.09416953474283218,0.6415695548057556,-10.011933326721191,0.06110950973864242,1.425790549733821,-0.00023467375967472454,0.7049827902482989,2.430478851382327,-2.1887625008504537e-06
1739326295.0459678,0.08904694020748138,0.6746132969856262,-10.010185241699219,0.06179382358234501,1.4262236573613887,0.00018387271210712407,0.703371735798268,2.4326270961205334,-1.0535458119953474e-06
1739326295.1458645,0.05791230499744415,0.7165719270706177,-10.002663612365723,0.06244698586379437,1.426672146934643,0.0006013885185298367,0.7022129771954381,2.4312954048155735,1.583794003024443e-08
1739326295.245852,0.01075180433690548,0.7612993121147156,-10.013808250427246,0.06306722678971037,1.4271301026763932,0.001016119437926894,0.7009772792817741,2.4304186518733517,7.592475955948728e-07
1739326295.2961607,-0.015102554112672806,0.7868912816047668,-10.021353721618652,0.06365427126162287,1.427591136717846,0.0014263952337889728,0.6992232776340118,2.429355056104442,1.0129743264084398e-06
1739326295.3457391,-0.02000563219189644,0.8091765642166138,-10.02446174621582,0.06420865871388648,1.4280490632804246,0.0018305725135941866,0.6982208768876715,2.4288017564548263,1.28978781116628e-06
1739326295.395808,-0.03423657640814781,0.8254039883613586,-10.023279190063477,0.06473125703930989,1.4284983694340103,0.0022269642695956016,0.6972875009514408,2.429019589256115,2.3355239744422413e-06
1739326295.4457793,-0.030501719564199448,0.8331229090690613,-10.038918495178223,0.0652230038323435,1.4289344962114061,0.0026138021069993375,0.6970848039271089,2.4303795173398104,4.351032954262319e-06
1739326295.4961517,-0.024882234632968903,0.8360552191734314,-10.045035362243652,0.06568479628703995,1.4293539718100499,0.0029891967596115134,0.6968126658004431,2.4332129190934757,8.93957779620157e-06
1739326295.5456834,0.002030993578955531,0.8378168344497681,-10.051626205444336,0.06611750622488016,1.429754424829371,0.003351069837273254,0.6958532844689198,2.428743492656163,2.886904100615911e-06
1739326295.5957365,0.02367403730750084,0.8290538787841797,-10.050477981567383,0.06652213120446557,1.4301345083194028,0.0036970995939165853,0.6946231796606299,2.428448456369709,2.9653016735902107e-06
1739326295.6456504,0.04132898151874542,0.8070728182792664,-10.045722961425781,0.06689998875044008,1.4304938918235302,0.0040247574110440125,0.6934860983683677,2.4284157219348717,3.3878744547863702e-06
1739326295.6961236,0.06636375933885574,0.7716069221496582,-10.049386024475098,0.06725277658068834,1.4308335640246548,0.004331488055659648,0.6929976037921397,2.4302935555596523,8.52677809745084e-06
1739326295.7457857,0.08435966074466705,0.734965980052948,-10.043643951416016,0.06758252240703533,1.4311562110102296,0.004614950500602639,0.6920662522586204,2.428569958021083,4.388117407242375e-06
1739326295.7957554,0.0988408550620079,0.6975089907646179,-10.042739868164062,0.0678916236966945,1.4314660833170534,0.004873164645721616,0.6916700599511846,2.4305698421948354,1.0635710993948275e-05
1739326295.845716,0.10810833424329758,0.6471318006515503,-10.01922607421875,0.06818298593111614,1.4317683345112755,0.005104568495252908,0.6913217967818078,2.4334308608996302,1.989394099704538e-05
1739326295.8961759,0.09209157526493073,0.5939680337905884,-9.998744010925293,0.06846010072998718,1.4320682277048906,0.00530811123116463,0.6910618895832971,2.428867974318251,5.761251998392599e-06
1739326295.9456658,0.09209157526493073,0.5939680337905884,-9.998744010925293,0.06872697965846018,1.4323704219871405,0.005483410653833294,0.6899366221780127,2.428588885867171,4.894782125863477e-06
1739326295.9957628,0.05168953537940979,0.516793966293335,-9.958381652832031,0.06898795261940774,1.4326784310372327,0.005630902517025595,0.6896671147310874,2.4306988606704505,1.2738609599580188e-05
1739326296.04569,0.02070055715739727,0.5026408433914185,-9.938434600830078,0.0692473445201181,1.4329942197329302,0.005751983187271889,0.6886534329558364,2.428741047188117,5.3877378217708914e-06
1739326296.0961564,-0.01622903347015381,0.5125822424888611,-9.93840503692627,0.06950904400071334,1.433317900050982,0.0058491685962893634,0.6883584897812435,2.430832166050528,1.3526735873683907e-05
1739326296.1456945,-0.04391522705554962,0.5386034250259399,-9.957809448242188,0.06977604735576826,1.4336477065137774,0.005926141970040773,0.6881310052706501,2.433647485397072,2.4675804899631846e-05
1739326296.19563,-0.05962324142456055,0.5818503499031067,-9.968230247497559,0.0700499993112077,1.4339801570281332,0.0059875024300217496,0.6875170814629139,2.429527437261001,8.483390831836888e-06
1739326296.245605,-0.07336696237325668,0.6537806391716003,-9.99374771118164,0.07033062832574336,1.4343099226911982,0.006038153248684077,0.6861790389030613,2.428711164036444,4.905013542686131e-06
1739326296.2956226,-0.07336696237325668,0.6537806391716003,-9.99374771118164,0.07061522118039301,1.4346295489078866,0.006082566461508633,0.6856947681694342,2.4304970189662827,1.2199092164807368e-05
1739326296.3455765,-0.041589200496673584,0.7854554057121277,-10.059532165527344,0.07089852958596599,1.4349297445264892,0.0061242668571554046,0.684759445533443,2.4291076870268733,6.27392343505756e-06
1739326296.3956597,-0.005097325425595045,0.8526431918144226,-10.087986946105957,0.07117320724019394,1.435200408330128,0.006165500960421286,0.684389147977422,2.43219441450751,1.924892212784747e-05
1739326296.445659,0.02763870730996132,0.9043815732002258,-10.106306076049805,0.07143053730131178,1.4354319500386188,0.0062069067502622845,0.6842630017734523,2.4339882714433605,2.6842205558058305e-05
1739326296.4955459,0.02763870730996132,0.9043815732002258,-10.106306076049805,0.07166118071082855,1.4356163701588793,0.006247293167589481,0.6838392646524829,2.4295497307517877,7.860140968065379e-06
1739326296.545705,0.06037580594420433,0.9421646595001221,-10.125187873840332,0.07185576157672637,1.4357478136029211,0.006283654483716341,0.6837484021802643,2.431524401634733,1.6333265464071648e-05
1739326296.5955741,0.11388330906629562,0.9397450685501099,-10.096982955932617,0.07200532091548993,1.435822724909501,0.00631134949158896,0.6825109612200762,2.429862652370841,8.884414190295141e-06
1739326296.6457183,0.11960958689451218,0.9178408980369568,-10.080126762390137,0.07210178966623562,1.4358397968108367,0.006324408419150385,0.6814618849719205,2.4291644951886933,5.545260972728172e-06
1739326296.6955657,0.10484103113412857,0.8641470670700073,-10.033706665039062,0.0721383948189632,1.4357996748915174,0.0063160013902932854,0.6811846965595171,2.430921550749423,1.3138299784847959e-05
1739326296.745578,0.07149946689605713,0.7985016703605652,-10.019871711730957,0.07210986706768349,1.4357045378184068,0.006279065123006076,0.6809161144282001,2.4340069732447445,2.6538773808733333e-05
1739326296.795588,0.04801388084888458,0.7218689918518066,-9.96898078918457,0.07201263477537218,1.435557975687704,0.0062070583589977114,0.6798879249302586,2.4299111871728662,8.305960779492467e-06
1739326296.8455293,0.01724071428179741,0.6541265249252319,-9.964781761169434,0.07184501882199987,1.4353650299458778,0.0060947052880682626,0.6782268777184394,2.429273777046293,5.492204766485506e-06
1739326296.8955035,-0.0004142062971368432,0.6045105457305908,-9.947627067565918,0.07160709491336589,1.4351317355555524,0.0059384749426609346,0.6775756695755678,2.430899179379276,1.2385176145284454e-05
1739326296.945583,0.009636436589062214,0.5595411658287048,-9.94491958618164,0.07130025446910349,1.4348642005495988,0.005736716083176203,0.6768479266171451,2.433805904727832,2.4538482428056733e-05
1739326296.9955213,0.01810014247894287,0.5324782729148865,-9.949915885925293,0.0709268499455606,1.4345677789516171,0.005489580552823834,0.6770956581456989,2.4296039228389117,6.613243439483839e-06
1739326297.0455105,0.03249498829245567,0.5393455028533936,-9.967884063720703,0.0704900713796012,1.434246568416543,0.005198824311461249,0.6768411636258272,2.4316823662803744,1.4699890058513623e-05
1739326297.096199,0.0609639547765255,0.5562798976898193,-10.001015663146973,0.06999396728258427,1.4339032576665842,0.004867476685321131,0.6766398504700559,2.4345847845140867,2.5651828248764497e-05
1739326297.1455338,0.08653310686349869,0.5767194628715515,-10.029983520507812,0.06944354958588037,1.4335393036501776,0.004499381720593337,0.6759075587425684,2.4298747167870367,6.897684545798941e-06
1739326297.1954894,0.09176749736070633,0.6303581595420837,-10.052990913391113,0.06884493593186404,1.4331553309923537,0.004098682430416655,0.6747642493915671,2.4292127295850086,4.1479316900344904e-06
1739326297.2455378,0.08512333780527115,0.6789513230323792,-10.074265480041504,0.06820541064812827,1.4327516813177277,0.0036693568476811335,0.6744291468285962,2.431395629063749,1.057790577363105e-05
1739326297.2955525,0.05789900943636894,0.7224611043930054,-10.079608917236328,0.06753327787049294,1.4323289924932452,0.003214932119774347,0.6731855209473424,2.4293040873765226,3.78220648014798e-06
1739326297.3455236,0.020766152068972588,0.7564079761505127,-10.079780578613281,0.06683746091160822,1.431888549894896,0.0027385031015616425,0.6728405702204835,2.431141137488886,8.160125429456665e-06
1739326297.3954415,-0.011946494691073895,0.7787072658538818,-10.070537567138672,0.06612692193973127,1.4314323789415175,0.002242983747169294,0.6725386439813248,2.4338576309169375,1.4062451852718792e-05
1739326297.4455059,-0.07073576748371124,0.7844647765159607,-10.043333053588867,0.06541004289960638,1.4309633192446878,0.00173135052053523,0.6717650485533451,2.429563527079682,3.2844460876623766e-06
1739326297.4955163,-0.11215918511152267,0.7899730801582336,-10.015300750732422,0.06469403070259078,1.4304851197425437,0.0012068346118783175,0.6715860557102434,2.4316432960505536,6.236287588350069e-06
1739326297.5455263,-0.14218942821025848,0.7737754583358765,-9.9893159866333,0.06398437381204741,1.4300024146331398,0.0006731630278680599,0.6702830031774911,2.4295988474213313,2.090734938064781e-06
1739326297.5954585,-0.15276125073432922,0.7539868950843811,-9.976330757141113,0.06328446098335062,1.4295205370783284,0.0001348135476405713,0.669084941216168,2.429453435168914,1.1305633142447194e-06
1739326297.6455982,-0.13493303954601288,0.7390502095222473,-9.972079277038574,0.06259547695358045,1.4290452081986067,-0.00040282707804219437,0.6687849347860985,2.4312162483065016,1.536413999308048e-06
1739326297.6955395,-0.08482290804386139,0.7299079895019531,-9.97519588470459,0.06191663234223159,1.4285821900808753,-0.0009334577697346151,0.6684806043939253,2.4341917898839776,1.5493632722065347e-06
1739326297.7454906,-0.007668694946914911,0.7292341589927673,-9.980850219726562,0.0612457565905386,1.4281370094826915,-0.0014499978459336024,0.6675714869690841,2.4296535145109184,-7.83744763575124e-08
1739326297.7953982,0.06927372515201569,0.7327181696891785,-9.999239921569824,0.06058020959782076,1.427714802373982,-0.0019448184899254076,0.6673787654169716,2.4316461611987004,-1.607531887799787e-06
1739326297.8465264,0.13926585018634796,0.7487667798995972,-10.03095531463623,0.05991801588612564,1.4273203041413969,-0.002410100040995719,0.6661602379307051,2.429992788369305,-1.8908612040522334e-06
1739326297.8963342,0.20893511176109314,0.7626363635063171,-10.054224967956543,0.05925913915272485,1.4269580151360808,-0.0028383983204478174,0.6651328369864693,2.4291997819073483,-1.4965108008537783e-06
1739326297.9454925,0.2489621639251709,0.7806293368339539,-10.080760955810547,0.05860664473477674,1.426632474344328,-0.0032233054076097616,0.6648151834577117,2.430883343004411,-4.585048047382988e-06
1739326297.995429,0.26400768756866455,0.7909297347068787,-10.0856351852417,0.05796734441263281,1.4263484857500868,-0.0035599207852668757,0.6645126981348582,2.433609020615639,-1.0090209514451844e-05
1739326298.0454035,0.25931671261787415,0.7956081628799438,-10.09087085723877,0.0573517999038478,1.4261112258843938,-0.0038450269544719824,0.6636472542744121,2.4302163408610884,-4.774236272495374e-06
1739326298.0954494,0.20847748219966888,0.7832081317901611,-10.062925338745117,0.05677384683036053,1.4259262390820906,-0.004077035796607931,0.6619539864687787,2.4291441330416785,-2.6557716353046805e-06
1739326298.145449,0.14639295637607574,0.7396870851516724,-10.046347618103027,0.05624974367446432,1.4257992814186038,-0.004255742973908475,0.6604963590822507,2.4292106048968054,-3.2094220792216426e-06
1739326298.1964028,0.06665260344743729,0.719048798084259,-10.014616012573242,0.055797011529148635,1.425735971048169,-0.0043819338197393295,0.6596796955385898,2.4310448438904735,-8.565260881361512e-06
1739326298.2454174,0.0005765344831161201,0.6781384348869324,-9.984172821044922,0.05543312760957814,1.4257413188016108,-0.004456926255490089,0.6592694199638709,2.4297889538843855,-5.271431865348641e-06
1739326298.2963805,-0.06860844790935516,0.6421551704406738,-9.975107192993164,0.05517427494071012,1.4258192610682383,-0.004482129622450684,0.6588934071459797,2.4315125465089937,-1.0573186765736213e-05
1739326298.3464086,-0.12829618155956268,0.6062547564506531,-9.960799217224121,0.05503428361490347,1.425972235890873,-0.004458703927378405,0.6584819243034725,2.434352459934511,-1.9356123415054305e-05
1739326298.3963168,-0.16450805962085724,0.6001304388046265,-9.969183921813965,0.05502354993537771,1.426200706705256,-0.00438743704953667,0.657479425577909,2.4291015970948426,-3.3650570523609168e-06
1739326298.4463694,-0.16168752312660217,0.5954272747039795,-9.967585563659668,0.05514750592176845,1.426502488395721,-0.0042689341022662895,0.6563172584254869,2.429559647971016,-4.740658597382809e-06
1739326298.4963777,-0.14390410482883453,0.6175376176834106,-9.989291191101074,0.055405141472280595,1.4268721351195468,-0.004103999422737442,0.6560035181499142,2.4311672130315194,-9.554824945866328e-06
1739326298.5463998,-0.0922841876745224,0.6415082216262817,-10.009661674499512,0.055788760539063495,1.4273009424867482,-0.0038939530731661055,0.6551092329549658,2.4295933583828404,-4.667459300273781e-06
1739326298.5962827,-0.044519297778606415,0.6865189075469971,-10.041586875915527,0.0562850370159728,1.4277775958151402,-0.003640842252591706,0.654765785671045,2.4315651092023067,-1.012608507523487e-05
1739326298.6463664,0.0025582648813724518,0.7395846843719482,-10.072545051574707,0.05687651490030012,1.4282890818668623,-0.0033476640377193556,0.6543370400929454,2.435909196286529,-2.1631549285481046e-05
1739326298.696246,0.038097839802503586,0.7863220572471619,-10.072627067565918,0.057543041616073064,1.4288216576721522,-0.003018588907294494,0.6542353092190546,2.429260078893371,-3.4205104209477488e-06
1739326298.7463782,0.07897689193487167,0.8153331875801086,-10.06435489654541,0.05826300383437393,1.4293617712393147,-0.0026590509027363714,0.6540977865621328,2.430949353648629,-7.247631027605993e-06
1739326298.7963066,0.09523037821054459,0.8398610353469849,-10.073602676391602,0.05901433462787003,1.4298967943107441,-0.002275632244640101,0.6532294596767086,2.429418404953536,-3.047863613962348e-06
1739326298.846312,0.09705653786659241,0.8356185555458069,-10.048405647277832,0.05977527125659507,1.430415487349628,-0.001875823141432897,0.6518257756546267,2.430126859901613,-3.5421018964511963e-06
1739326298.89637,0.08366802334785461,0.8179301023483276,-10.028261184692383,0.06052481760469324,1.4309081750068844,-0.0014677202529446605,0.6516538800293846,2.4312628926986197,-5.143568473934386e-06
1739326298.9463873,0.06125995144248009,0.7693891525268555,-10.002482414245605,0.061243118276281074,1.4313667709483555,-0.0010596118069045085,0.6513120297593715,2.4347122446989395,-9.46688592495745e-06
1739326298.9963436,0.038435280323028564,0.7131784558296204,-9.978582382202148,0.06191219398796214,1.431784943393042,-0.0006594292589157929,0.6508629926781943,2.429655422861366,-2.029519768069985e-06
1739326299.0463061,0.038435280323028564,0.7131784558296204,-9.978582382202148,0.06251686246528809,1.4321583251644738,-0.0002742068093168599,0.6497129354059922,2.4293363149487175,-1.0772493034247502e-06
1739326299.096248,0.03645364195108414,0.6101382374763489,-9.954216003417969,0.06304512194073202,1.4324843122607942,9.025240157517042e-05,0.6490222326017429,2.432638137816745,-1.9580458405429168e-06
1739326299.1463904,0.05973081290721893,0.5774219632148743,-9.952129364013672,0.06348796655315671,1.4327613581146847,0.0004294955586553218,0.648503683183037,2.429253466323761,-4.4432795545540345e-07
1739326299.196344,0.08430511504411697,0.5626192092895508,-9.968867301940918,0.06383915990455455,1.4329881199139722,0.0007404248215817106,0.648301889476572,2.4306238689055646,-2.703960087071085e-07
1739326299.2463717,0.11857619136571884,0.5781636834144592,-9.99598503112793,0.0640951771923842,1.4331628841818835,0.0010211560533478533,0.6481029258860144,2.43289741424209,3.6795686800441864e-07
1739326299.2964585,0.11857619136571884,0.5781636834144592,-9.99598503112793,0.06425522667928872,1.4332834374241077,0.0012707131506002405,0.647035299380681,2.4300698222340027,8.719710769390675e-07
1739326299.3463752,0.14933840930461884,0.6920682787895203,-10.062698364257812,0.06432122069520453,1.4333473021430492,0.0014886525558359541,0.6469234815630127,2.431563660961257,1.9966764227715374e-06
1739326299.3971357,0.14125116169452667,0.7664148211479187,-10.082881927490234,0.06429764537442736,1.4333523577590896,0.0016746329007112626,0.6455893152977743,2.42957428340259,1.1906897102021745e-06
1739326299.4464107,0.110672727227211,0.837391197681427,-10.089762687683105,0.06419130911344888,1.4332978055023031,0.0018279569082915285,0.6452521139206654,2.431521233684154,3.2707596036784524e-06
1739326299.496256,0.110672727227211,0.837391197681427,-10.089762687683105,0.0640109595365316,1.4331851398242725,0.001947355716726907,0.6440783517932114,2.429853701232487,2.0378369409968603e-06
1739326299.5463707,0.018990634009242058,0.9133139848709106,-10.090873718261719,0.06376685838347279,1.4330188832670325,0.002031252018449806,0.6437938514385145,2.4315317578097715,4.202692651927918e-06
1739326299.596241,0.018990634009242058,0.9133139848709106,-10.090873718261719,0.06347028811452703,1.43280706799597,0.002078269076243025,0.6434836569320379,2.4343751417623074,7.98782016844326e-06
1739326299.646209,-0.06673149019479752,0.8874356150627136,-10.037099838256836,0.06313287415152079,1.4325613306645044,0.00208758771144441,0.6428036538102412,2.4297400077679625,2.2673120904475323e-06
1739326299.6962864,-0.06673149019479752,0.8874356150627136,-10.037099838256836,0.06276582738038064,1.4322964896263788,0.002059161347137927,0.6415487850880403,2.4295189913141257,2.0886205887829205e-06
1739326299.746241,-0.13811713457107544,0.7671151161193848,-9.968453407287598,0.06237928483749855,1.4320297188501347,0.0019939725629799718,0.6412904681952717,2.431360909309621,4.7030474232657865e-06
1739326299.7962694,-0.1493227630853653,0.7002809047698975,-9.955233573913574,0.06198179157149133,1.4317794022878474,0.0018943395446650308,0.6397986736905265,2.4296039713891746,2.213648189708109e-06
1739326299.846216,-0.15040071308612823,0.6226897239685059,-9.951838493347168,0.06157994707175153,1.4315637397804233,0.0017641761562208205,0.6393829448353722,2.431743387405032,5.061738253183954e-06
1739326299.8962808,-0.15040071308612823,0.6226897239685059,-9.951838493347168,0.06117830731774531,1.4313994654306585,0.001609052657978557,0.6390500948689192,2.434479988761085,8.579221237935648e-06
1739326299.946226,-0.05682091414928436,0.516237199306488,-9.966471672058105,0.06077961849169081,1.4313009766974714,0.0014360084060261603,0.6386954786655429,2.4297216216113577,2.1432328626858054e-06
1739326299.996224,-0.05682091414928436,0.516237199306488,-9.966471672058105,0.06038538413126358,1.4312797551357366,0.0012532283891596913,0.6385277079863536,2.431944766311792,4.505950610025835e-06
1739326300.0461915,0.05699875205755234,0.47923052310943604,-10.01136302947998,0.05999654688149726,1.4313436329269764,0.001069563789708706,0.6373457919733244,2.4295206781816554,1.5752153457454521e-06
1739326300.096224,0.11422158777713776,0.5081085562705994,-10.029829978942871,0.05961397306359682,1.4314954537106603,0.0008937012601699997,0.6360573807949859,2.4298223539014505,1.4976497041414642e-06
1739326300.1461737,0.1690293550491333,0.5690693259239197,-10.060548782348633,0.05923882587753492,1.4317317185651974,0.0007331386827570613,0.6358265815938773,2.431444551779364,2.5867951051124863e-06
1739326300.1971285,0.20048083364963531,0.6424039602279663,-10.075177192687988,0.058873061993763035,1.432042587384969,0.0005934881000851287,0.6355882059081517,2.4340211996897314,4.168827426230074e-06
1739326300.2461183,0.21132273972034454,0.7271536588668823,-10.083026885986328,0.058519916549247465,1.4324133353383557,0.0004782523318526076,0.6345616844591513,2.429837674568191,1.0888950037784818e-06
1739326300.296181,0.1868923306465149,0.787204384803772,-10.081500053405762,0.05818410295366988,1.4328262299432704,0.0003888566263512646,0.6328979370249306,2.4294349133242563,6.612732092256329e-07
1739326300.346186,0.16798441112041473,0.8502858877182007,-10.076321601867676,0.05787164248163966,1.4332622188904747,0.0003248198654372543,0.6318028889419868,2.429426267385368,4.969807127724992e-07
