Timestamp,IMU_Linear_Acc_X,IMU_Linear_Acc_Y,IMU_Linear_Acc_Z,Filtered_X,Filtered_Y,Filtered_Z,Pose_X,Pose_Y,Pose_Z
1731474136.1591787,-0.33983662724494934,0.4336758553981781,-9.985615730285645,-3.5325100415874405e-05,-0.00010303753604381448,3.4276930763147316e-05,2.054822165563202,6.700192253360093,0.7353678807704174
1731474136.2091148,-0.3425276577472687,0.41691985726356506,-9.980188369750977,-4.6604228778962994e-05,-0.0001402211372853253,4.5829000086828003e-05,2.0552009214290483,6.701332986445987,0.7354622119815518
1731474136.25901,-0.34130141139030457,0.4240894317626953,-9.983531951904297,-5.966594065025531e-05,-0.0001852284474185159,5.982649598583839e-05,2.1256204557452785,6.702257382290406,0.7644996248147642
1731474136.3090398,-0.3349152207374573,0.42120271921157837,-9.987563133239746,-7.452593687666323e-05,-0.00023839007143791884,7.655550834544982e-05,2.1256687651521835,6.702507407738541,0.764518798052041
1731474136.3588867,-0.27416113018989563,0.43637028336524963,-9.988398551940918,-9.12826274032166e-05,-0.0002998246308934147,9.62963365881105e-05,2.1831891720336905,6.702548366971165,0.7853649509158898
1731474136.408835,-0.46316227316856384,0.3740302622318268,-9.99268913269043,-0.00011018701280646512,-0.0003694573692256519,0.0001192831957178925,2.1833563124783186,6.703496863164988,0.7854311629244151
1731474136.4588637,-0.7430660724639893,0.23497319221496582,-10.004386901855469,-0.0001310358298114369,-0.000446773408389482,0.00014565820390167786,2.1853640014883156,6.714890240398216,0.7862265354796276
1731474136.5088224,-0.1835746020078659,0.5284029841423035,-9.957141876220703,-0.0001519433109394339,-0.0005303647833723605,0.00017545190350412825,2.1908763958155903,6.746172919467049,0.7884107274507193
1731474136.5587819,-0.32869449257850647,0.37620213627815247,-10.047292709350586,-0.00016936531658230184,-0.0006180356714800759,0.00020860692987070112,2.1963970499311123,6.777503317378472,0.7905988322335608
1731474136.6086814,-0.3212164640426636,0.5026140809059143,-9.98022747039795,-0.0001797208328302121,-0.0007075373686870241,0.00024493464093870314,2.2468913811960474,6.8088659316558875,0.809044053953242
1731474136.6586556,-0.3097893297672272,0.373074471950531,-9.942727088928223,-0.00018045908168738535,-0.0007970482820695477,0.00028408292668338634,2.2518328953749287,6.8401620430921275,0.8110106587606288
1731474136.7085814,-0.3097893297672272,0.373074471950531,-9.942727088928223,-0.00017000256963792715,-0.0008850626145097569,0.0003257777987159703,2.2875570467848276,6.871277676137706,0.8242661398536937
1731474136.7085814,-0.36415764689445496,0.45885133743286133,-10.01577377319336,-0.00014753475016467753,-0.0009700567157374642,0.0003701093581227644,2.2875915689670494,6.871524870666357,0.8242802086075692
1731474136.7586725,-0.3174515664577484,0.43460458517074585,-9.97563648223877,-0.0001127963745510447,-0.001050445325187124,0.0004174419563751445,2.291958546824389,6.902794116461244,0.8260604567814183
1731474136.808501,-0.3174515664577484,0.43460458517074585,-9.97563648223877,-6.589692584984352e-05,-0.001124870551801601,0.0004681499663656072,2.3189693949154275,6.933846995729097,0.8363076703425013
1731474136.808501,-0.37348827719688416,0.42250683903694153,-9.971975326538086,-7.271259830210128e-06,-0.0011923530192408296,0.0005225661652418856,2.319002224487585,6.934118804238001,0.8363216083017121
1731474136.858473,-0.3333224654197693,0.4560640752315521,-10.020543098449707,6.241355855453833e-05,-0.0012522261042083964,0.0005810291913292256,2.3227505034009384,6.965150042847557,0.8379136464540256
1731474136.9084017,-0.3716474175453186,0.4254069924354553,-9.993083000183105,0.00014244426779937754,-0.0013041062923052514,0.0006437812693053456,2.3441459464327528,6.997754810665852,0.8459471087478837
1731474136.9583972,-0.30855798721313477,0.4505065679550171,-9.975634574890137,0.0002321357896290046,-0.0013479086698614422,0.0007108421690866226,2.3473443786204107,7.027818603251122,0.847329726096434
1731474137.0092394,-0.33945232629776,0.44332513213157654,-10.006049156188965,0.0003307419674956225,-0.001383835032483694,0.0007820513343129924,2.362587709612475,7.0596316460464115,0.8533234729580503
1731474137.0592687,-0.30693483352661133,0.45724576711654663,-9.974886894226074,0.0004373106074491321,-0.0014123740723554024,0.0008571615024388799,2.3654273353625297,7.090785671182573,0.8546122175157571
1731474137.1091747,-0.3404017686843872,0.42924872040748596,-9.97957992553711,0.0005506075043231536,-0.0014343047210929444,0.0009358826781376323,2.3771524665514616,7.122046053775521,0.8591591994730488
1731474137.159192,-0.33027854561805725,0.4503231644630432,-9.993732452392578,0.0006691588028235756,-0.0014506363857404903,0.001017933665047527,2.379643044268592,7.153304446896513,0.8603241883006147
1731474137.2090607,-0.3312438130378723,0.4298307001590729,-9.984983444213867,0.0007913561983898062,-0.0014625148048767874,0.0011030573891601528,2.3821375572589223,7.184585654083623,0.8614928165946355
1731474137.2591295,-0.32849225401878357,0.44427555799484253,-9.991825103759766,0.0009155304136843033,-0.0014711547558295093,0.0011909774821799854,2.391090592162508,7.215799509972769,0.8648843442794941
1731474137.308942,-0.32849225401878357,0.44427555799484253,-9.991825103759766,0.0010399667493375833,-0.0014778086516263396,0.0012813691581990353,2.393273825751124,7.246915621847858,0.8659271363166803
1731474137.308942,-0.3466336131095886,0.43178790807724,-9.988767623901367,0.0011629266650204566,-0.0014837586462266852,0.0013738523375596509,2.3932909954850192,7.247160170039274,0.8659353449112358
1731474137.3589773,-0.3226473927497864,0.4400995373725891,-9.986501693725586,0.0012827062029780617,-0.0014902929891844367,0.0014679983793198267,2.4003029567839773,7.278265818504214,0.8686129352797284
1731474137.4088914,-0.3401765823364258,0.42628738284111023,-10.006254196166992,0.001397676428561225,-0.0014986521577987238,0.0015633410445573077,2.4021997861670723,7.309479559840749,0.869544110471787
1731474137.4588525,-0.32638588547706604,0.4399968981742859,-9.992179870605469,0.001506279483942322,-0.0015099824619730726,0.0016593506385524943,2.4073883612563214,7.340707674224378,0.8715387731701051
1731474137.50879,-0.3352645933628082,0.4304140508174896,-9.980989456176758,0.0016070218852591335,-0.0015253193539803435,0.0017554133216321549,2.409029490066306,7.37187226212372,0.8723689359979343
1731474137.5588923,-0.33292460441589355,0.43939563632011414,-9.997173309326172,0.0016984829408624468,-0.0015455944609635967,0.0018508824848439832,2.410683624811546,7.4032012551924495,0.873208103607984
1731474137.6086698,-0.3363683819770813,0.4308415949344635,-9.980420112609863,0.0017793337988415737,-0.001571646627958276,0.0019451405818238184,2.414738711301255,7.434748140330686,0.8745623769526637
1731474137.6586838,-0.3302421271800995,0.4421899914741516,-9.979595184326172,0.001848358464333454,-0.0016042277975540664,0.0020376281401371,2.4161834099271067,7.465530708326305,0.8752952871147492
1731474137.7086177,-0.3302421271800995,0.4421899914741516,-9.979595184326172,0.0019044534826877866,-0.0016440211114671,0.0021278866278666275,2.4187418568133077,7.496706399808972,0.8762755772828255
1731474137.7086177,-0.3371421694755554,0.43059173226356506,-9.996553421020508,0.0019466144671696035,-0.0016916663471430089,0.002215583612205634,2.418790714500469,7.497927676439683,0.8763014116696162
1731474137.758543,-0.3301190137863159,0.4375700056552887,-9.977168083190918,0.0019739403683349294,-0.0017477511439406223,0.00230047241701786,2.4199948970451164,7.52796667094153,0.8769396550577724
1731474137.8085432,-0.34019094705581665,0.43010377883911133,-9.982741355895996,0.0019856525188505624,-0.0018127720826899639,0.002382356529116116,2.4212499056402668,7.55914825188619,0.8776080029131778
1731474137.8584952,-0.33192288875579834,0.43809831142425537,-9.991263389587402,0.0019811101924108575,-0.0018871125893988147,0.0024611008319579543,2.422510017774554,7.590329071129613,0.8782824754602354
1731474137.9083514,-0.34595686197280884,0.4304082989692688,-9.981121063232422,0.0019598251838982574,-0.0019710451463822495,0.0025366275193476353,2.4237701252828483,7.622058162908187,0.8787089133740302
1731474137.9583144,-0.3420066237449646,0.443705290555954,-9.989968299865723,0.001921486909753918,-0.0020647448305911014,0.00260888909891623,2.424792985470783,7.652635430356617,0.8792866500106509
1731474138.0092392,-0.34163692593574524,0.42966023087501526,-9.989768028259277,0.0018659902363154918,-0.00216831063343215,0.0026778526679006854,2.4250980542358467,7.684395160765316,0.8784267219623609
1731474138.0592258,-0.33824580907821655,0.44014066457748413,-9.97556209564209,0.0017934337852410674,-0.0022817787064688734,0.0027434936180880144,2.4259082532326266,7.715566799294712,0.8788225098586783
1731474138.1091983,-0.341629296541214,0.4363786280155182,-9.98953914642334,0.0017040861454477585,-0.0024051234817813348,0.0028058125657374313,2.4267247513500645,7.746806328154749,0.8792261871467684
1731474138.1591976,-0.3402191698551178,0.43175989389419556,-9.978646278381348,0.0015983556866283784,-0.002538260093643427,0.0028648614738565727,2.4275438454298457,7.777980943715829,0.8796361985974201
1731474138.209059,-0.3476492762565613,0.432100772857666,-9.985774040222168,0.0014767828401380926,-0.0026810352356926768,0.0029207449344693746,2.428363941486175,7.809041690312086,0.8800519904318252
1731474138.2590916,-0.33999305963516235,0.4344528317451477,-9.983550071716309,0.0013400458664597562,-0.002833206046338534,0.002973609607384667,2.4279059510371455,7.840270206802713,0.8791841229769514
1731474138.3088815,-0.34422069787979126,0.4327370822429657,-9.9750337600708,0.0011889568732709956,-0.0029944377194706644,0.003023640880406835,2.4285555586266576,7.871279119897437,0.8794998787247976
1731474138.3589008,-0.3437175154685974,0.44072937965393066,-9.988846778869629,0.0010244411397657381,-0.003164324657605805,0.003071070044325928,2.4292149886826593,7.902616267674899,0.8798267247183378
1731474138.4087975,-0.34332624077796936,0.4315757751464844,-9.98684024810791,0.0008475187389306493,-0.0033424186323973747,0.003116165029945256,2.427909614964764,7.933612482983282,0.8785997164883936
1731474138.458818,-0.33988749980926514,0.436118483543396,-9.992659568786621,0.00065928869193442,-0.0035282435484460927,0.0031591824449895395,2.4283703781793875,7.964668701717385,0.8788165672855961
1731474138.5087607,-0.33988749980926514,0.436118483543396,-9.992659568786621,0.0004609005015642475,-0.003721292421305269,0.0032003146802884494,2.4288332069322385,7.995761003253451,0.879041660226761
1731474138.5087607,-0.3460216820240021,0.428290456533432,-9.99396800994873,0.00025352645288951757,-0.003921022956987978,0.003239660062594773,2.4288372304155406,7.996030918606229,0.8790436495406823
1731474138.5588555,-0.32766076922416687,0.4385663866996765,-9.993430137634277,3.834500128772988e-05,-0.004126851911332913,0.003277213053036587,2.4274803306270014,8.027105373879259,0.8775831939903116
1731474138.6086557,-0.3306537866592407,0.4353063106536865,-9.987985610961914,-0.00018350013216850408,-0.004338157735156301,0.003312875092440217,2.4277788925470505,8.058346992398237,0.8776942032930215
1731474138.6586676,-0.3333236277103424,0.4373985528945923,-9.995209693908691,-0.00041096528146126695,-0.004554305110576003,0.0033464817485727885,2.426589006506327,8.089129986210894,0.876110622164538
1731474138.7086084,-0.3319365978240967,0.4339129328727722,-9.97912311553955,-0.0006431337897724362,-0.004774665523555857,0.0033778340021059505,2.425483690470252,8.120177106171388,0.8757576770835663
1731474138.758562,-0.333381712436676,0.4398839473724365,-9.9823637008667,-0.0008791968490916931,-0.004998619866890117,0.0034067427723890246,2.425518458797798,8.151238071529859,0.8757496268147931
1731474138.8085184,-0.3302189111709595,0.438150554895401,-9.991358757019043,-0.0011184341559391563,-0.0052255649128599676,0.0034330766379456427,2.42555059948041,8.18215360287003,0.8757501012656186
1731474138.8586066,-0.3308621346950531,0.44120118021965027,-9.983616828918457,-0.0013602095409979455,-0.005454931273403081,0.0034567643043175,2.425579897711903,8.213312968079064,0.8757592207583544
1731474138.8586066,-0.3308621346950531,0.44120118021965027,-9.983616828918457,-0.0016039717810737704,-0.005686200420793692,0.0034777697057435707,2.424970336933302,8.223031905882284,0.8754263539366236
1731474139.2399957,-0.3376094102859497,0.43933042883872986,-9.987139701843262,-0.001849244297788526,-0.005918912741734218,0.0034960917016553347,2.423620424078316,8.449694359855725,0.8752809935545358
1731474139.2900891,-0.3423849642276764,0.43753117322921753,-9.985186576843262,-0.002095587218275799,-0.006152661070640638,0.0035117689391266603,2.4235303888812223,8.480568887369191,0.8753527619711762
1731474139.3398674,-0.34360605478286743,0.4366273581981659,-9.992426872253418,-0.002342537775350279,-0.006387069099567585,0.00352486315432263,2.4228322314371322,8.511284291493345,0.8751112826882032
1731474139.389985,-0.3389294445514679,0.4368346929550171,-9.979833602905273,-0.002589565304211852,-0.00662176803107316,0.003535439406994993,2.4226983733043133,8.54227040942039,0.8751882421316928
1731474139.4397805,-0.3331068754196167,0.42958614230155945,-9.990646362304688,-0.002836076598227583,-0.0068563775844376704,0.003543566471223809,2.4225547765594766,8.573864193579396,0.8752759329044092
1731474139.4898527,-0.335146963596344,0.4248596131801605,-9.98840618133545,-0.0030814649600080964,-0.007090474983285337,0.0035493235254908362,2.4224108634070434,8.603927805019882,0.8753680552469429
1731474139.539713,-0.3328384459018707,0.4296468496322632,-9.984148025512695,-0.0033251585743279666,-0.007323551625290398,0.003552791256515891,2.421782169804562,8.634729064275412,0.8750861514457993
1731474139.5897124,-0.3308675289154053,0.4361976087093353,-9.986226081848145,-0.0035666438458478874,-0.007555001241416767,0.0035540499049309675,2.420745526514901,8.665994975759212,0.874903802189263
1731474139.639718,-0.3300713300704956,0.44613346457481384,-9.986385345458984,-0.0038054787732990747,-0.007784174442748027,0.0035531933095899176,2.4204961208307365,8.696454515960397,0.8749934103142936
1731474139.6895943,-0.3355879783630371,0.4400116503238678,-9.9830961227417,-0.004041300575819689,-0.008010469644415609,0.0035503354524738604,2.4202358162724518,8.727044867197156,0.8750922124999576
1731474139.7396622,-0.3371192514896393,0.4425605237483978,-9.980547904968262,-0.004273808711910075,-0.008233393246809023,0.0035456168433665777,2.4199613742469985,8.75804349915502,0.8752013487955714
1731474139.789675,-0.33719924092292786,0.4419511556625366,-9.980554580688477,-0.00450272700781285,-0.00845256523805072,0.0035392243954148507,2.419680111755152,8.788561003286173,0.8753176622000782
1731474139.8395355,-0.3354564905166626,0.445912629365921,-9.973817825317383,-0.004727776033249515,-0.00866770767580552,0.0035314146424033333,2.4193837075944824,8.819441864622076,0.875444322608121
1731474139.8896139,-0.3405797779560089,0.44538143277168274,-9.989174842834473,-0.004948666775561036,-0.008878645994426237,0.003522523512595038,2.418979048733304,8.849837185290397,0.875097102983787
1731474139.9394777,-0.33414551615715027,0.4462050497531891,-9.99086856842041,-0.005165099947498588,-0.00908531517400499,0.003512932856535117,2.4186673277333006,8.880551199758028,0.8752170040795625
1731474139.9894018,-0.3440423011779785,0.44702938199043274,-9.984944343566895,-0.005376763467678324,-0.009287757985234412,0.0035030000581992423,2.418141680803829,8.911046355469624,0.8749611543894129
1731474140.0392613,-0.32870543003082275,0.43953606486320496,-9.982325553894043,-0.00558333397498793,-0.009486110021478804,0.0034930231207726996,2.417800584394303,8.941709183663711,0.875077818289158
1731474140.089296,-0.34796392917633057,0.4402678906917572,-9.993621826171875,-0.0057844854460705405,-0.009680564184552147,0.0034832575271022135,2.4174452608619594,8.972346169523654,0.875203218693024
1731474140.1402464,-0.33399584889411926,0.432169646024704,-9.98773193359375,-0.0059798900518576725,-0.009871317804223168,0.0034739181775742334,2.4170685706525066,9.003495210398777,0.8753397677471566
1731474140.1902158,-0.339699923992157,0.42898687720298767,-9.98838996887207,-0.006169210433836689,-0.010058514780762225,0.003465157228442614,2.416836381182132,9.03400402461966,0.8750305807151165
1731474140.2401154,-0.34191736578941345,0.42445263266563416,-9.988052368164062,-0.006352103441928035,-0.010242188041997235,0.00345706298161308,2.416458697379051,9.064531688592396,0.8751575773576642
1731474140.2900033,-0.32970547676086426,0.4250764548778534,-9.985917091369629,-0.006528231444501213,-0.010422214024393854,0.0034496788139491232,2.4160796198839227,9.09486692118816,0.8749225725316208
1731474140.3400288,-0.32910072803497314,0.4251329004764557,-9.99003791809082,-0.006697291531292788,-0.010598296545470214,0.0034430178651617123,2.415435430617129,9.12548201534819,0.8747767485306551
1731474140.3900661,-0.3384392559528351,0.42610400915145874,-9.983735084533691,-0.006859062144362238,-0.010769981591199242,0.0034370701176910535,2.4149941730929383,9.15584233664122,0.8748905316773791
1731474140.439955,-0.3377346694469452,0.435489296913147,-9.978569030761719,-0.007013407599859668,-0.010936697219043749,0.0034318187507911056,2.4145364216985787,9.186126789746535,0.8750126505704833
1731474140.4899478,-0.33423569798469543,0.4322376847267151,-9.991771697998047,-0.007160237319864833,-0.011097815665990513,0.00342726883484718,2.4146303822129775,8.999781078801988,0.8749302068706577
1731474140.5398195,-0.3368098735809326,0.4413033127784729,-9.979137420654297,-0.007299483415319606,-0.011252720962753489,0.0034234543121906768,2.414199351846762,9.02840132744596,0.8750565846877544
1731474140.5896668,-0.32903242111206055,0.43979355692863464,-9.979314804077148,-0.007431111236270228,-0.011400864316808599,0.0034204311412338656,2.413746226767796,9.057259517098963,0.8751925413769883
1731474140.6397073,-0.33598414063453674,0.4474576413631439,-9.982017517089844,-0.007555138346639631,-0.011541809490428948,0.0034182951016528346,2.413270329828903,9.086345873110961,0.8753382589697598
1731474140.6897366,-0.341476172208786,0.44930747151374817,-9.990230560302734,-0.00767163495551604,-0.011675273947455746,0.003417189610375323,2.4135469172721433,8.977814595543919,0.8752019192716731
1731474140.7397206,-0.3397352695465088,0.44789478182792664,-9.97748851776123,-0.007780687799222983,-0.011801160863656162,0.003417274257370067,2.4130912716452753,9.006002582508573,0.8753486505329914
1731474140.7895658,-0.3330007493495941,0.44037196040153503,-9.997563362121582,-0.007882364064611964,-0.011919559110605878,0.0034186933332518016,2.4126175291047876,9.034067178391657,0.8755034533535911
1731474140.8395772,-0.03880907967686653,0.5903394818305969,-9.978856086730957,-0.007976988307278155,-0.01203083034672648,0.0034215570029212847,2.412122059491719,9.062207707293817,0.8756674399921073
1731474140.8895676,-0.0758434385061264,0.5316457748413086,-10.008713722229004,-0.008066163951158577,-0.01213600814453197,0.003425914852599292,2.4117152448915267,8.987587671379705,0.8754795764356195
1731474140.9393978,0.48951706290245056,0.8079436421394348,-9.981762886047363,-0.0081545486534814,-0.012237503199914204,0.0034317205865788993,2.4111793402050776,9.014673962203144,0.8756387416278194
1731474140.9892786,0.7771492004394531,0.6103816628456116,-10.015816688537598,-0.00825248845798046,-0.012339897511157862,0.0034388006804967806,2.4104624959513896,8.970189743681537,0.8754239147067562
1731474141.0394018,0.1431780755519867,0.499295175075531,-10.044015884399414,-0.008378666974000797,-0.012450161423481976,0.0034467819767529232,2.4098600334858418,8.996983318784167,0.875575480453845
1731474141.0892773,0.413790225982666,0.48516714572906494,-9.909783363342285,-0.008560111617009512,-0.012576664474081239,0.0034550315164269636,2.4092419823438296,9.023506213535029,0.875734238366756
1731474141.1401522,0.038903508335351944,0.3011943995952606,-9.996171951293945,-0.008829326977640228,-0.012727573948873605,0.0034628579023643813,2.4082846301450718,8.988479874245163,0.8755001020838141
1731474141.1902132,0.22217567265033722,0.33590275049209595,-10.001534461975098,-0.009221272067564715,-0.01290948710325783,0.0034698050713888435,2.4075871224249012,9.01472942613116,0.8756511335673642
1731474141.2402446,0.017560504376888275,0.20069876313209534,-9.97430419921875,-0.00977134403266713,-0.013126429085223068,0.0034756191680828654,2.405971371687041,8.984747795494314,0.8754575749185679
1731474141.2901216,-0.7728275656700134,-0.02461777999997139,-9.977519989013672,-0.010513220486565772,-0.0133789949468845,0.003480097775077484,2.4051431798355587,9.010142665548937,0.8756003484663771
1731474141.3400016,-1.2074174880981445,-0.021463442593812943,-10.009428024291992,-0.01147457646713076,-0.013663261110316445,0.0034830949718365747,2.4038969598394826,8.985509079591552,0.8754316164206442
1731474141.3900766,-0.23980385065078735,0.27316224575042725,-9.937684059143066,-0.012671991742719987,-0.013970101373580646,0.003484540865104707,2.4029657612505595,9.010661873853556,0.8755711745507676
1731474141.4400213,-0.7082184553146362,0.12128511071205139,-10.163931846618652,-0.014109964450095536,-0.014286076124051047,0.003484327265537429,2.4020056337466076,9.035658520508507,0.8757187551957749
1731474141.4898539,-0.29287877678871155,0.4290388226509094,-9.929959297180176,-0.015784159220616205,-0.014595366637612498,0.0034819820708947872,2.4022901644919,9.006425382846292,0.8755138481677082
1731474141.5398967,-0.5628702044487,0.09986446797847748,-10.001678466796875,-0.017684447721258267,-0.014881379995254164,0.003476517321049113,2.4013719352244087,9.030928884839195,0.8756556983117215
1731474141.5897396,-0.3513105511665344,0.46714502573013306,-10.08678913116455,-0.019796394391707002,-0.015127602030331033,0.003466699646518867,2.4004111471580285,9.055283121917805,0.8758055624192461
1731474141.6397777,-0.5107159614562988,0.16161222755908966,-9.946783065795898,-0.022102163522031152,-0.015318045943224064,0.0034511759609501293,2.3986649455753977,9.023637619048575,0.8756988933214803
1731474141.6896517,-0.4068586826324463,0.43703973293304443,-9.962201118469238,-0.02458116814025745,-0.01543761905378152,0.0034284945227122735,2.3975134424520825,9.04725676916811,0.875852308975024
1731474141.7396317,-0.49801453948020935,0.2526971399784088,-10.004266738891602,-0.027210549528834165,-0.01547241149611583,0.0033974332228849154,2.396291451141712,9.070959919247887,0.8760150220251688
1731474141.789641,-0.37864023447036743,0.4197238087654114,-9.953781127929688,-0.029965629813996614,-0.015409939095994939,0.0033572227358402177,2.394998270982745,9.094620786214767,0.8761861423039368
1731474141.8394883,-0.42949461936950684,0.29616859555244446,-9.941106796264648,-0.03282049590285981,-0.01523934740977695,0.003307529636625741,2.394441307825751,9.058232081457284,0.8759839321250186
1731474141.8893626,-0.41107162833213806,0.3372349739074707,-10.000696182250977,-0.035748644728469725,-0.01495144034950745,0.003248499817345296,2.3911986282810678,9.023119392388734,0.8758134465770526
1731474141.9393225,-0.3805420398712158,0.7001015543937683,-9.957939147949219,-0.038723475925326184,-0.014538855378795798,0.0031807266511715677,2.3895030596027262,9.045407553842566,0.8759636028105444
1731474141.9893405,-0.4000968039035797,0.667378306388855,-9.877378463745117,-0.041718675262546856,-0.013997155943857514,0.0031051778181949014,2.3864283060336753,9.011930436640299,0.875810684137508
1731474142.0393183,-0.4872780740261078,1.1421082019805908,-9.997286796569824,-0.044708472127897164,-0.013326826973034101,0.0030233420209300086,2.3843630780206913,9.033590263212583,0.8759545972011414
1731474142.0892508,-0.4453103244304657,0.9864438772201538,-9.849359512329102,-0.0476675752788941,-0.012535339233353524,0.0029373732490041915,2.382206197830349,9.05497699051768,0.8761043076884346
1731474142.139246,-0.5104879140853882,0.7967690229415894,-10.028023719787598,-0.05057096189584152,-0.011638120561994984,0.00285002018471694,2.3814123031707357,9.023761531581256,0.8759095242826107
1731474142.1901712,-0.3782177269458771,0.7711344957351685,-9.996058464050293,-0.05339391123699348,-0.010657371069701879,0.0027643303680086307,2.3791033125357366,9.045052786681604,0.8760533747284156
1731474142.2401364,-0.4499201774597168,0.7072227597236633,-10.010408401489258,-0.05611239723897154,-0.009619526009522235,0.0026831309535477964,2.378967234180348,9.013299635587245,0.8758808404657141
1731474142.2900872,-0.3696022629737854,0.713841438293457,-10.044113159179688,-0.058703627658659,-0.008553158395574568,0.0026086076008038014,2.376651062030498,9.033498375199649,0.8760135921818968
1731474142.3400176,-0.42195576429367065,0.5679761171340942,-9.984193801879883,-0.0611464426174072,-0.007487626186148765,0.0025421819820823305,2.3741711394648064,9.0537945244496,0.8761535739829547
1731474142.3899982,-0.30900314450263977,0.6061761379241943,-10.027217864990234,-0.06342158303766679,-0.006451905089128837,0.0024845786046756944,2.371557444032092,9.073902499544932,0.8762986188129115
1731474142.4399173,-0.36433690786361694,0.5541598200798035,-9.993165969848633,-0.06551199977252076,-0.005473562964373256,0.002435982247156121,2.3734881006771937,9.039967967913071,0.8760374190736699
1731474142.4898849,-0.3449501693248749,0.5600143671035767,-10.049895286560059,-0.06740311495663082,-0.004578125118648194,0.002396137435513073,2.370923679288358,9.059489376997966,0.8761700088760495
1731474142.5398262,-0.3187732696533203,0.5636372566223145,-10.002037048339844,-0.06908286748400398,-0.00378878857050255,0.0023643355838527283,2.3717016781888565,9.024885396310507,0.875957011379094
1731474142.5898345,-0.30297085642814636,0.5662887096405029,-10.012564659118652,-0.07054169274441081,-0.0031263370117887096,0.002339428420283764,2.3712473160397436,8.992049588258208,0.875817837420279
1731474142.6396751,-0.3056734502315521,0.5174658894538879,-10.006267547607422,-0.07177258392598508,-0.0026091491364776957,0.0023199573779467512,2.368577988974839,9.010368094620226,0.8759299444665182
1731474142.689624,-0.32618317008018494,0.5069574117660522,-9.982719421386719,-0.07277107346992541,-0.0022531102467819282,0.0023043234578026444,2.365747225005485,9.028556294066341,0.8760470352634016
1731474142.7396877,-0.273434042930603,0.514680802822113,-9.964303016662598,-0.07353506335329461,-0.002071427005934214,0.002290966172148159,2.3627008408535355,9.046941215963468,0.8761712113817681
1731474142.7895157,-0.2996521592140198,0.5227103233337402,-9.985552787780762,-0.07406467743354253,-0.0020745790151826546,0.002278562722868192,2.3643098236772957,9.013007839846905,0.8759512234321151
1731474142.8395174,-0.3358599841594696,0.5379204750061035,-9.958097457885742,-0.07436213402259716,-0.0022704993301498047,0.002266145543491109,2.361228170247292,9.030866845919888,0.8760667246152511
1731474142.8894358,-0.336078017950058,0.4931144118309021,-9.98670482635498,-0.074431432407591,-0.00266482461976752,0.0022531061863358525,2.35816772095721,9.048225814907497,0.8758813095246726
1731474142.939421,-0.33337661623954773,0.5128029584884644,-10.005820274353027,-0.07427792631797543,-0.0032610276056148305,0.0022391170661801726,2.3547276857470067,9.066043075251597,0.8759894784152884
1731474142.989331,-0.3498041331768036,0.4721747934818268,-9.94282341003418,-0.07390802610522659,-0.004060430906744988,0.0022240069172633804,2.3511766865627832,9.08347823586794,0.8761008939239753
1731474143.0392566,-0.32534632086753845,0.5132566094398499,-9.986802101135254,-0.07332903667229697,-0.0050622362640560595,0.0022077457668325056,2.3473745239486337,9.101227030686804,0.8762199538382294
1731474143.0892653,-0.3674081265926361,0.5218324065208435,-10.014200210571289,-0.0725490347179821,-0.00626368978576478,0.0021904873398412884,2.3435934646535634,9.11863508185219,0.8759696460010084
1731474143.1392438,-0.40713658928871155,0.5078936219215393,-9.99518871307373,-0.07157667069926592,-0.007660389241401685,0.0021724309648291267,2.339425220321933,9.136388377880442,0.8760789187003751
1731474143.1901145,-0.3748840391635895,0.5032426118850708,-9.95654582977295,-0.07042083575415976,-0.009246556236876603,0.002153666864408043,2.3353919058933608,9.154023334972658,0.8760312926779357
1731474143.2401328,-0.41319382190704346,0.513997495174408,-10.000679969787598,-0.06909037914067812,-0.011015166951717245,0.002134256000956663,2.3313944559398263,9.171500569640749,0.8760888459722079
1731474143.2901106,-0.4174082279205322,0.5009680390357971,-9.988465309143066,-0.06759398002433406,-0.01295805360695675,0.002114338813638424,2.326785395073621,9.189008039635517,0.8762151713256021
1731474143.3401623,-0.4119400978088379,0.5024043917655945,-9.968817710876465,-0.06594004970239584,-0.01506603042499187,0.0020941016502445,2.321990918264048,9.206547293681801,0.8763472678427341
1731474143.3899338,-0.3861069083213806,0.4877097010612488,-9.973749160766602,-0.06413669722235801,-0.017328988838797212,0.002073776165461557,2.3170909414414522,9.223843699941053,0.8764829933771482
1731474143.4400024,-0.3813762664794922,0.4656544327735901,-10.00214672088623,-0.06219186685834581,-0.01973593490557008,0.00205369691780943,2.3124069161458936,9.241264377448221,0.8768903905504268
1731474143.489819,-0.3586125075817108,0.4547431170940399,-9.964475631713867,-0.060113569746808655,-0.02227496335673385,0.0020342686611128005,2.3072174674822747,9.258454390953672,0.8770674035605551
1731474143.5397732,-0.3363964855670929,0.4302753210067749,-9.970362663269043,-0.0579101093232368,-0.02493319489386496,0.0020159276418670524,2.3018204307364103,9.27578424601407,0.8772515283370855
1731474143.5897393,-0.3230259418487549,0.4246014356613159,-10.018203735351562,-0.055590295782625164,-0.027696727891303768,0.00199916361586405,2.296685054016433,9.292832685542301,0.8777021886392424
1731474143.6397502,-0.3195480704307556,0.4174511432647705,-9.99730110168457,-0.053163620664710816,-0.030550642985129942,0.001984430102620023,2.2910079864385047,9.310049976605411,0.8779186369522641
1731474143.6896462,-0.29733991622924805,0.400546669960022,-9.969202995300293,-0.05064034055639452,-0.033479075256113766,0.0019719985487988484,2.2852540336021323,9.327029104077807,0.8781380145754691
1731474143.7396011,-0.2849956750869751,0.3818894624710083,-10.001726150512695,-0.04803150708198589,-0.03646530591002503,0.001961988662836268,2.279773150022028,9.343936440052959,0.8787976424526865
1731474143.789569,-0.2620607912540436,0.3989132344722748,-10.011852264404297,-0.045349009026357794,-0.039491844110237685,0.001954446302050359,2.2737735323669788,9.360777972419738,0.8790637963373916
1731474143.8395295,-0.3114404082298279,0.37750130891799927,-9.98075008392334,-0.04260557038616192,-0.042540563277487994,0.0019492887560061322,2.2681329334740714,9.377467828767323,0.8798100288402316
1731474143.8895874,-0.29066282510757446,0.38888999819755554,-10.001361846923828,-0.039814573649621196,-0.04559290334072284,0.0019462709343414377,2.2619146076859242,9.394139881446325,0.8801290658315312
1731474143.939539,-0.31284046173095703,0.36997202038764954,-10.00731372833252,-0.036989747632374684,-0.048630068502326554,0.0019450343568885677,2.255605959134077,9.410678998545405,0.8804526753329732
1731474143.9893997,-0.27976566553115845,0.3753986358642578,-10.026233673095703,-0.03414491396277649,-0.05163319279611761,0.0019450808290082749,2.249234309933872,9.427027223804844,0.880779815621267
1731474144.0392823,-0.2954639196395874,0.3394887149333954,-9.958551406860352,-0.031293873411571804,-0.05458346323962779,0.0019457134915085925,2.243366329834817,9.443195728358859,0.8810178049027685
1731474144.089266,-0.5322554707527161,-0.19363191723823547,-10.011695861816406,-0.028450134309460248,-0.057461691918318056,0.0019461286018078144,2.236828640414045,9.4593288929811,0.8813395644154988
1731474144.139285,-0.4975226819515228,-0.47324222326278687,-10.109478950500488,-0.025626024069718114,-0.06024624790103335,0.0019454542629235815,2.230845587838283,9.47533985876466,0.8812495406670264
1731474144.1902807,-0.6517626047134399,-0.1517183631658554,-10.05496883392334,-0.02283143063476941,-0.06290999006229893,0.001942409268004813,2.2240464513398894,9.491516780329256,0.8815407893923635
1731474144.2401178,-0.7958483099937439,-0.4603233337402344,-10.047149658203125,-0.020072713240823502,-0.06541888567848286,0.0019349276636516182,2.2181405548399415,9.506961465685327,0.8814376693416568
1731474144.2899477,-0.3774668574333191,0.1904527246952057,-9.920002937316895,-0.01735211704919753,-0.06773324629291061,0.001920342380475362,2.2114532670102376,9.522347141997582,0.881689984721694
1731474144.3399312,-0.7103548049926758,-0.2533815801143646,-10.023809432983398,-0.014668290500332318,-0.06981032669968162,0.0018960268724382639,2.20547453988744,9.537640156313346,0.8815819369485942
1731474144.389945,-0.5084047317504883,0.20593859255313873,-9.930323600769043,-0.01201744765762761,-0.07160692066719958,0.0018599003089787933,2.1986477024801094,9.552865067015333,0.8818111110469283
1731474144.4399543,-0.6116470098495483,0.06604569405317307,-9.929553985595703,-0.009394014326661449,-0.0730812867323179,0.0018106186306116197,2.192764114373458,9.56768082463293,0.8816914100405637
1731474144.489831,-0.5259138345718384,0.24936124682426453,-9.96333122253418,-0.00679096244058338,-0.07419472726509962,0.001747705215144112,2.1868849765116503,9.582395830653706,0.8816246392351705
1731474144.5398407,-0.5633005499839783,0.1612505167722702,-9.892698287963867,-0.004200285703115899,-0.07491286903217298,0.0016716230804657913,2.1800844741862724,9.596959758177201,0.8818077970477924
1731474144.5897121,-0.5227437615394592,0.1753193736076355,-9.91405963897705,-0.0016134495553326285,-0.07520623973132586,0.001583775068492263,2.1732853553084723,9.611319190497516,0.8819947590374868
1731474144.6397834,-0.530639111995697,0.1455938071012497,-9.948212623596191,0.0009782378518346446,-0.07505020890040584,0.001486505236812043,2.1664418278256403,9.625582814503582,0.8821867605495857
1731474144.6897333,-0.4877649247646332,0.19532594084739685,-9.93302059173584,0.0035832848444109482,-0.07442467960366539,0.0013829340225093795,2.160792822412754,9.639476752447353,0.8819774959939639
1731474144.7396362,-0.4850020408630371,0.15887004137039185,-9.961091995239258,0.006209669372831534,-0.07331388566886808,0.0012766399219711997,2.154006992043804,9.653332438211047,0.8821467805160991
1731474144.7895703,-0.042006008327007294,0.42955347895622253,-9.968608856201172,0.008864125185946375,-0.07170651222745555,0.0011713821410873292,2.147260362262566,9.666966077945842,0.8823185972048658
1731474144.8395107,0.20982344448566437,0.5299987196922302,-9.996824264526367,0.011550213768293903,-0.06959649020214081,0.0010708487433401387,2.1418442028629556,9.680341910885536,0.8820709442535072
1731474144.8894217,-0.2961362600326538,0.27400559186935425,-10.028383255004883,0.01426581741402939,-0.0669841029118658,0.0009783638469896862,2.135128325003015,9.693732206463382,0.8822218594143607
1731474144.9395008,-0.07620701938867569,0.45252323150634766,-9.962984085083008,0.01700263735521916,-0.06387607311768716,0.0008966400415347906,2.129949363141839,9.706731006465304,0.8820106154592353
1731474144.989377,-0.3626199960708618,0.24273060262203217,-10.05359172821045,0.01974807023864874,-0.060284517281990725,0.000827708327655292,2.123369909464286,9.719753163457648,0.8821421954690641
1731474145.0394049,-0.3626199960708618,0.24273060262203217,-10.05359172821045,0.022487404309404872,-0.056225694006975205,0.0007728783775550885,2.118455800975736,9.732426648124273,0.881956212412081
1731474145.0394049,-0.1496284306049347,0.48473837971687317,-10.041500091552734,0.025205298230391575,-0.05171900842059314,0.000732553540042991,2.1184138847148457,9.732509615749857,0.8819569545625052
1731474145.0892012,-0.3409866988658905,0.2217046469449997,-10.007319450378418,0.02788627419797282,-0.04678666608612155,0.0007061626117397574,2.1120591734998158,9.74509816816803,0.8820709424477461
1731474145.1393504,-0.3409866988658905,0.2217046469449997,-10.007319450378418,0.030514706240342884,-0.04145346949099398,0.0006924132277488092,2.1073852805426982,9.757663965743046,0.8818974701387332
1731474145.1393504,-0.19522902369499207,0.4383619427680969,-10.02239990234375,0.03307516026189357,-0.03574608075721174,0.0006896237530971145,2.1073430762786054,9.757748372433744,0.881898139844256
1731474145.1891997,-0.3174585700035095,0.26658883690834045,-9.997493743896484,0.035552637424130146,-0.02969261327187877,0.0006958981724216263,2.101177987484736,9.770129010005652,0.881997514637593
1731474145.2401588,-0.2567730247974396,0.41878947615623474,-9.975645065307617,0.03793247391762504,-0.02332281075736582,0.000709234738775368,2.0949154410342423,9.782826253301614,0.8821017663214253
1731474145.290124,-0.31867489218711853,0.322895348072052,-10.004502296447754,0.04020046348066532,-0.01666802906423851,0.0007276946255267806,2.0888733914003352,9.795225282566268,0.8822057907293703
1731474145.3400424,-0.2900391221046448,0.4151308536529541,-9.99188232421875,0.042343171021796425,-0.00976100954352602,0.000749514040744983,2.084962275075212,9.80745231759225,0.8819589003404871
1731474145.390102,-0.2900391221046448,0.4151308536529541,-9.99188232421875,0.044348143623696934,-0.002635725599605716,0.0007730875349666864,2.079149238086127,9.819839785059733,0.8820476802209771
1731474145.390102,-0.331870973110199,0.35072141885757446,-9.961592674255371,0.046204015564694466,0.004672754867603477,0.0007969733051899566,2.079109876004064,9.819924458229163,0.8820482938979174
1731474145.4399805,-0.31109046936035156,0.4003080129623413,-9.982954025268555,0.047900626231731316,0.012128590365349998,0.0008199944732510831,2.0756913838609172,9.832009727716068,0.8818464056302648
1731474145.4899025,-0.3297779858112335,0.40445318818092346,-9.977746963500977,0.04942917128776472,0.01969560710236972,0.0008413159515446902,2.0701647397191465,9.84442196494508,0.8819229311641809
1731474145.5398126,-0.3312694728374481,0.4171616733074188,-9.975252151489258,0.05078228696973885,0.02733755241862462,0.0008604181552520694,2.0647692781579505,9.856878671507667,0.8820014902784763
1731474145.589731,-0.3365127444267273,0.42672958970069885,-9.98169231414795,0.051954077857390826,0.03501819605289079,0.0008770382392235911,2.061992598117504,9.869204570782802,0.8818048010341022
1731474145.6397784,-0.6444383859634399,0.252627432346344,-9.986760139465332,0.052940406993871224,0.04270162741721757,0.000891120885622106,2.05687076630529,9.881900905374637,0.8818735625607026
1731474145.6896195,-0.5891392230987549,0.3251998722553253,-9.954066276550293,0.05373988117021386,0.050352990328488084,0.000902778911772249,2.0518945816902763,9.894684630099118,0.8819444154923773
1731474145.739691,-0.7718563675880432,0.09749940782785416,-9.974160194396973,0.05435519541729364,0.05793949146853693,0.00091231890657606,2.047060414039416,9.90758612478609,0.8820174402216109
1731474145.7895942,-0.46285444498062134,0.407083123922348,-9.982929229736328,0.054793772050765896,0.0654311806930391,0.0009202814182403601,2.045250463855343,9.920396721678859,0.8817958682653418
1731474145.839546,0.17480438947677612,0.5993920564651489,-9.956948280334473,0.055066430960120406,0.07280066914139871,0.0009273962198936936,2.040731515152548,9.933637717448793,0.8818590820391373
1731474145.8895202,-0.4296962022781372,0.3416212499141693,-10.036373138427734,0.055184029263030066,0.08002166364009006,0.0009344770879965837,2.0368809868583395,9.946794306835299,0.8816912197300938
1731474145.9394314,-0.10667605698108673,0.5735830664634705,-9.944799423217773,0.05515491107711303,0.0870678758234818,0.0009422864459525975,2.0326174870795137,9.96046267187516,0.8817475940487882
1731474145.9893925,-0.4261827766895294,0.25164923071861267,-9.998679161071777,0.05498508848421078,0.09391321692499223,0.0009514713767971048,2.027438287051722,9.974031525443474,0.8816131013210865
1731474146.0393891,-0.4261827766895294,0.25164923071861267,-9.998679161071777,0.05467961280349777,0.10053276299270986,0.0009626102259498702,2.0234014444884876,9.98817941057548,0.88166445036208
1731474146.0393891,-0.1757666915655136,0.5858380794525146,-10.030649185180664,0.05424362198288523,0.10690375062819873,0.000976153257230128,2.0233753865820763,9.988273168915693,0.8816647956306652
1731474146.0892906,-0.36952340602874756,0.26452311873435974,-9.984543800354004,0.053682479706322096,0.11300561560297531,0.0009922501535104453,2.019542086769718,10.002440612630801,0.8817176734088726
1731474146.1392066,-0.2180897742509842,0.5275964140892029,-9.984308242797852,0.053001254589239016,0.11881938465927858,0.0010107371546451054,2.0157956163836555,10.017062464834114,0.8817736559897191
1731474146.1892066,-0.35027265548706055,0.3020928204059601,-9.998504638671875,0.052204502271736404,0.12432753750267211,0.001031306596594371,2.012164383455714,10.032054277968028,0.881832448209236
1731474146.2392662,-0.24522694945335388,0.4789474606513977,-9.97572135925293,0.051296402339749025,0.129514186276463,0.001053638622073115,2.008785848609781,10.047077275433296,0.8816400841537257
1731474146.2900531,-0.32880857586860657,0.3587845265865326,-9.992473602294922,0.05028088256946729,0.13436516533158083,0.0010774381289646944,2.0053495687109897,10.062972248262906,0.8816928078238464
1731474146.3401139,-0.28920209407806396,0.4533703923225403,-9.996732711791992,0.04916172417105609,0.138868035884184,0.0011024413835494322,1.9995394772773005,10.078652987487729,0.8815511004281582
1731474146.3900425,-0.32036682963371277,0.38436904549598694,-9.975886344909668,0.047942692125490995,0.14301205058513825,0.0011283956479764014,1.9963434609181088,10.09497473286412,0.8815986358950247
1731474146.4399643,-0.3222068250179291,0.4288286566734314,-9.992498397827148,0.046627673891888675,0.14678814859999423,0.0011550569518867654,1.9932740694515318,10.111615064556647,0.8816488971624051
1731474146.4898868,-0.3282969295978546,0.4256960153579712,-9.982223510742188,0.04522080143148152,0.1501889534908173,0.001182222480387006,1.9903140836664277,10.12865651684188,0.8817021714473959
1731474146.5398424,-0.3282969295978546,0.4256960153579712,-9.982223510742188,0.04372654607615818,0.15320871222547694,0.0012097445844815148,1.9854896409565046,10.145724818324195,0.8815445981129677
1731474146.5398424,-0.3342430889606476,0.41899538040161133,-9.977553367614746,0.04214975812276894,0.15584322309700974,0.0012375422287723462,1.985475378078549,10.145813404903015,0.8815448355500309
1731474146.5898244,-0.3272224962711334,0.4375999867916107,-9.990431785583496,0.04049566000574029,0.15808981728470242,0.0012656185409082655,1.982732798913581,10.163182214381564,0.8814432884305975
1731474146.6398294,-0.3272224962711334,0.4375999867916107,-9.990431785583496,0.03876980774625123,0.15994732513816118,0.0012940355853587047,1.980039820521,10.18145689769717,0.881487238141936
1731474146.6398294,-0.348007470369339,0.42216381430625916,-9.980985641479492,0.03697804188527844,0.16141600123577104,0.0013228599224880016,1.9800228684803303,10.18157537965352,0.8814875304921693
1731474146.6897447,-0.3311549723148346,0.43346843123435974,-9.981561660766602,0.03512647740775009,0.16249749577521122,0.0013521518112804844,1.9774678090924818,10.199933936615382,0.8815339962972205
1731474146.7396312,-0.3635404109954834,0.40990909934043884,-9.988479614257812,0.03322152375946838,0.16319488052993236,0.0013819958051498626,1.9749662700532509,10.218921724566522,0.8815844255785937
1731474146.789546,-0.32311975955963135,0.4552238881587982,-9.978585243225098,0.031269884939432314,0.16351264880912866,0.0014125101666099666,1.9725612196716364,10.238186325702031,0.8816379721397917
1731474146.8395026,-0.3543110489845276,0.4205108880996704,-9.987153053283691,0.029278504292022542,0.1634566310999169,0.0014438364823833036,1.9700826518296346,10.257689157951663,0.8814851543531618
1731474146.8894835,-0.33690303564071655,0.44204410910606384,-9.983466148376465,0.02725447563102548,0.1630338762910329,0.0014761339691358511,1.967789206703417,10.278056356900088,0.881535495016225
1731474146.939377,-0.3456494212150574,0.4204249382019043,-9.974058151245117,0.025204979798001247,0.1622525891065566,0.00150957870026844,1.9652774807419886,10.298188036445167,0.8812590616183335
1731474146.9893372,-0.32335811853408813,0.44455331563949585,-9.994388580322266,0.023137222019920398,0.1611220998578194,0.00154437128554909,1.9631123845380307,10.319309902275041,0.8812902833482134
1731474147.0392928,-0.3419918715953827,0.4153200089931488,-9.980100631713867,0.021058330415626523,0.15965281061693762,0.0015807254761858536,1.9610201426586227,10.340658147536061,0.8813251429352386
1731474147.0892532,-0.33232659101486206,0.44813141226768494,-9.970808982849121,0.018975271476771128,0.15785612930379142,0.0016188493710407137,1.9589761421059608,10.362416073245068,0.8813640023352135
1731474147.1392598,-0.3414287269115448,0.42118310928344727,-9.989472389221191,0.016894824038275587,0.15574439233772688,0.001658971204010967,1.9566116934844873,8.010456787417736,0.8811316460615374
1731474147.1892078,-0.32821929454803467,0.43675288558006287,-9.983247756958008,0.014823569516072072,0.1533307778398877,0.001701353474889691,1.9546455299528767,8.012956471204529,0.8811620901187711
1731474147.239118,-0.32821929454803467,0.43675288558006287,-9.983247756958008,0.012767849968367143,0.15062922672191992,0.0017462506366538628,1.9527243230476292,8.01581769991529,0.8811966230943191
1731474147.239118,-0.3308393657207489,0.41653814911842346,-9.989508628845215,0.010733703060691952,0.14765436641297053,0.0017938743188439668,1.9527107838101665,8.015839358398562,0.8811968838696542
1731474147.2890556,-0.3233639597892761,0.44228991866111755,-9.99915599822998,0.008726814973733222,0.14442144937658763,0.0018443694031600806,1.9504363735734596,6.662207714706268,0.8834507971138976
1731474147.34003,-0.3317860960960388,0.42187803983688354,-9.981391906738281,0.006752500551891864,0.14094629117569457,0.0018977731029814495,1.9485030095103475,6.654411306569795,0.8837055635533156
1731474147.389953,-0.3199501931667328,0.43816444277763367,-9.984302520751953,0.004815693189442601,0.13724517711736225,0.0019540150718787837,1.9466246380323886,6.647128749411955,0.8839598693728322
1731474147.4399762,-0.3348630368709564,0.410004585981369,-9.995926856994629,0.002920940460508588,0.13333478095410178,0.00201296664473488,1.9447522546240108,6.640170651150364,0.8842196428515617
1731474147.4898822,-0.31965500116348267,0.4335654675960541,-9.987404823303223,0.001072409759886137,0.12923212450612034,0.0020744541667898375,1.9424767387245752,5.757411274028679,0.8864138989904342
1731474147.5398347,-0.33629316091537476,0.42236918210983276,-9.98745346069336,-0.0007260993547912116,0.12495452654976777,0.0021382389691966723,1.9406100968599918,5.744025494552612,0.8868218570775834
1731474147.5897639,-0.32917505502700806,0.4344494938850403,-9.999245643615723,-0.0024711345009723836,0.1205195002003453,0.00220401863305635,1.9382839327211354,5.140041333713961,0.8904592297142013
1731474147.6397233,-0.3516184091567993,0.42074695229530334,-9.990751266479492,-0.004159542865919022,0.1159446364620935,0.0022714233767564943,1.9363958353931054,5.122555339188955,0.8911710660902364
1731474147.6896822,-0.3454195261001587,0.43337929248809814,-9.982441902160645,-0.005788389999646704,0.11124751818156993,0.0023400107328371096,1.9345102061656154,5.105486864654235,0.8918830388112919
1731474147.739603,-0.3505779504776001,0.42843934893608093,-9.977140426635742,-0.007354880960951034,0.10644564634219728,0.0024093182433922986,1.9321308847875638,4.663813791428275,0.8918097440793749
1731474147.7895708,-0.3442579209804535,0.44717955589294434,-10.014467239379883,-0.008856333245530732,0.10155634146861273,0.002478920925869074,1.9301838704767522,4.643786522611693,0.8924329846651028
1731474147.839557,-0.2940550446510315,0.5944892764091492,-9.976007461547852,-0.010290250782318188,0.09659647593305805,0.002548396061471233,1.9277115352280976,4.313990883612975,0.8923381827984732
1731474147.889536,-0.20518560707569122,0.54371577501297,-9.946371078491211,-0.011654626138790534,0.09158187115021615,0.002617317200222999,1.9257143549420175,4.292199022070137,0.8928820131259009
1731474147.939503,-0.43645983934402466,0.24578015506267548,-9.995434761047363,-0.012948312139373237,0.08652696192013186,0.0026853996071612204,1.9231556444067184,4.036729012759412,0.8894901185894538
1731474147.9893682,-0.2412494719028473,0.5809628963470459,-10.00178050994873,-0.014170937538391102,0.08144542452846648,0.0027525641838115865,1.9210948109549943,4.013759006470178,0.8896193792667015
1731474148.0393229,-0.4226839542388916,0.305077463388443,-9.972904205322266,-0.015322474165293637,0.07635091378960104,0.0028187865628431447,1.91899168665996,3.990922593221915,0.8897559197900081
1731474148.0892675,-0.17636924982070923,0.6643232107162476,-9.994385719299316,-0.016403080490860814,0.07125695961319509,0.002883989277912712,1.9168497827775284,3.9682774955586724,0.8898995116908811
1731474148.1391916,-0.017241640016436577,0.4965020716190338,-10.021503448486328,-0.017413641173897147,0.06617630468369924,0.0029480376146826695,1.9140989984373493,3.762536390123272,0.887465628592321
1731474148.1891968,0.08745230734348297,0.6030604839324951,-10.011589050292969,-0.018357189833691015,0.06112019545214557,0.003010643389303202,1.9112744452730253,3.6003981936242915,0.8839783170705785
1731474148.2391913,-0.9778934717178345,0.07814757525920868,-9.990920066833496,-0.019239571455348367,0.05609848079060441,0.003071248383124088,1.9089762989238404,3.5758773782909343,0.8836307105536036
1731474148.289004,-0.13256236910820007,0.6477596163749695,-9.916261672973633,-0.02006725703060291,0.051120836915883025,0.0031291503563605065,1.906641981190518,3.5516258474197273,0.8832927446060626
1731474148.3390393,-0.5607509613037109,0.18505153059959412,-10.030675888061523,-0.02084461964686309,0.04619768815304481,0.0031838223338563204,1.9042443688856538,3.5273699484064425,0.8829609165055691
1731474148.3899746,-0.24053697288036346,0.6703055500984192,-9.993346214294434,-0.021573788526787784,0.04133995313841557,0.003235001564271208,1.9011322792929524,3.3926577956107793,0.8824587409916489
1731474148.4399455,-0.4149532914161682,0.18424800038337708,-9.922703742980957,-0.022255747310298703,0.03655848079691552,0.0032825217179296854,1.8986145383218977,3.3678130025342727,0.882182925232608
1731474148.4898977,-0.32263457775115967,0.564312756061554,-10.011099815368652,-0.022890916329810523,0.0318638941004471,0.0033263333384292606,1.895386723717145,3.2601318474781267,0.8818184370896631
1731474148.539939,-0.4096713662147522,0.33358514308929443,-9.978320121765137,-0.023479330414533255,0.0272666456390008,0.003366612226703398,1.8927525511012984,3.2350183760148643,0.8815925511333252
1731474148.5898108,-0.33266475796699524,0.4822407364845276,-9.983787536621094,-0.024020630595234925,0.022776883545853006,0.0034036484612631015,1.889371086431991,3.1456287908247815,0.8813276270654191
1731474148.6398258,-0.36633315682411194,0.4079146981239319,-10.017582893371582,-0.02451410017458435,0.01840422346583697,0.0034376994101686415,1.8866084662734206,3.120284870221689,0.8811451596741671
1731474148.6896837,-0.37975364923477173,0.41329842805862427,-9.984230041503906,-0.02495880062167991,0.01415765572314251,0.0034689102338759446,1.8830878602215342,3.045222807807419,0.8809544555475475
1731474148.7397082,-0.3236582279205322,0.45023560523986816,-9.957239151000977,-0.02535365782978714,0.010045539636978226,0.0034973020589814394,1.880192426582457,3.019713502012514,0.8808104584921144
1731474148.7895982,-0.4094269871711731,0.40006208419799805,-10.010847091674805,-0.025697519457835882,0.006075595215812784,0.0035228940114505605,1.8764860579831442,2.9582868491404937,0.8806752576988688
1731474148.8395123,-0.3341081142425537,0.49790847301483154,-9.974881172180176,-0.025989188909766422,0.0022548211677342923,0.0035457792130252834,1.872694788100845,2.903862286475472,0.8805592863956649
1731474148.8895173,-0.40162166953086853,0.3858509361743927,-9.979796409606934,-0.026227410010991666,-0.0014106309403060465,0.00356607651318647,1.8695918496856259,2.878259757476555,0.8804710715071857
1731474148.9394271,-0.33520281314849854,0.49349677562713623,-9.995915412902832,-0.026410884251165678,-0.004915515268063773,0.0035839196970762453,1.8664258736337695,2.8526721483657433,0.8803918736160488
1731474148.989394,-0.39363962411880493,0.3769837021827698,-9.9759521484375,-0.026538338117597208,-0.00825544612542981,0.0035994693771887786,1.8631789550797502,2.8269521529320825,0.8803213544544968
1731474149.0393794,-0.32641667127609253,0.49767252802848816,-9.984671592712402,-0.02660859907719266,-0.0114268243129837,0.0036128997622741936,1.8590989073501019,2.7846864595935577,0.8802731267550437
1731474149.0893095,-0.39658495783805847,0.40310895442962646,-9.991823196411133,-0.026620668428648714,-0.014426821271122178,0.0036244030381587305,1.855733090687562,2.759123474213624,0.880229296123386
1731474149.139286,-0.31508591771125793,0.49019932746887207,-9.974615097045898,-0.026573773959550892,-0.017253420523165218,0.0036341852893365806,1.8522977722040956,2.7334965493533536,0.880194467816018
1731474149.1892076,-0.3865351676940918,0.38851404190063477,-9.984769821166992,-0.0264674196094534,-0.019905420579191598,0.0036424635238690444,1.8479694824076838,2.7078732827736434,0.8801671575376082
1731474149.2392628,-0.3284973204135895,0.4553205966949463,-9.989445686340332,-0.026301428813120538,-0.022382322459966145,0.003649480678408916,1.844382737491453,2.682066688821067,0.8801542425926787
1731474149.2891707,-0.36882221698760986,0.4021817743778229,-9.976908683776855,-0.026075952463854284,-0.024684168099629037,0.0036554945142787156,1.8407260510692043,2.6561712867974214,0.8801504924900934
1731474149.3390863,-0.339903861284256,0.46282950043678284,-9.997218132019043,-0.025791465806319455,-0.026811463399058714,0.0036607533118463553,1.8370387059898197,2.6304504159382747,0.8801558493743962
1731474149.3890233,-0.36403632164001465,0.4146801829338074,-9.983406066894531,-0.025448761308899972,-0.028765210029716957,0.0036654757350231834,1.8323716466085052,2.6044851449196753,0.8801282770504704
1731474149.4399798,-0.36403632164001465,0.4146801829338074,-9.983406066894531,-0.02504890627908328,-0.030546914291854563,0.003669833917820727,1.8284547726072253,2.5779846394977683,0.8801505652540126
1731474149.4399798,-0.3282560706138611,0.4430561661720276,-9.990992546081543,-0.02459319712729102,-0.03215850330213494,0.003673964489011983,1.8284304809121166,2.5778214023425696,0.8801507317675799
1731474149.489963,-0.34830936789512634,0.4099680185317993,-9.985173225402832,-0.024083197899334913,-0.03360226764101183,0.003677981720118867,1.8245236414266128,2.5517290609025176,0.8801819251999072
1731474149.5398574,-0.3367198407649994,0.4484230577945709,-9.979958534240723,-0.02352082931597147,-0.03488088100028772,0.0036819766447279585,1.8196752584670508,2.5258295486685807,0.8801423661201091
1731474149.5898209,-0.3511849343776703,0.42940324544906616,-9.9827299118042,-0.02290837922672194,-0.03599743239863651,0.003686039786182389,1.8156252685651568,2.4994512209195343,0.8801860310086255
1731474149.639785,-0.3449540138244629,0.44740235805511475,-9.993281364440918,-0.02224843343711599,-0.036955465986818786,0.0036902828077782696,1.8115540956695577,2.4732098525804336,0.8802384876949791
1731474149.689714,-0.348348468542099,0.4309273660182953,-9.968509674072266,-0.021543801401830626,-0.03775900363900803,0.0036948271558465244,1.8064394171194509,2.4467514227299874,0.8801844302935798
1731474149.7397473,-0.3465837836265564,0.4344233572483063,-9.99363899230957,-0.020797465865922314,-0.03841250953241372,0.0036998051564803543,1.8022424391806338,2.420261550297064,0.8802460488722376
1731474149.7896135,-0.35121646523475647,0.43669408559799194,-9.989757537841797,-0.020012548764501314,-0.038920820507891765,0.0037053627426623667,1.495001890321759,2.3937647692105384,0.8801985210504067
1731474149.839714,-0.3436480164527893,0.4485608637332916,-9.986307144165039,-0.019192279116810346,-0.039289102964787395,0.0037116163325866085,1.4797533704782708,2.3670622788778344,0.8801750935878313
1731474149.8895714,-0.3596985638141632,0.44395580887794495,-9.989258766174316,-0.018339961142613426,-0.039522865167539126,0.003718618007911731,1.4735184681184044,2.3401795359267266,0.8802455196227357
1731474149.9394937,-0.3596985638141632,0.44395580887794495,-9.989258766174316,-0.017458921782874032,-0.03962797247194055,0.003726363452439505,1.4672786211319797,2.3133688227212743,0.8803247396625364
1731474149.9394937,-0.3440133035182953,0.440993994474411,-9.989282608032227,-0.016552446916676275,-0.03961061281886144,0.0037347999549949057,1.467238821195646,2.3131980944274693,0.8803252726920715
1731474149.9894161,-0.3629949986934662,0.4327376186847687,-9.978323936462402,-0.015623764013419649,-0.03947722053783248,0.0037438361064027178,1.4609824642116997,2.2863944900677944,0.8804134285781477
1731474150.0394707,-0.35161831974983215,0.4358040392398834,-9.977865219116211,-0.01467605026439998,-0.039234383544345205,0.0037533853059237565,1.4638466798408554,2.2592733499237783,0.8803295899535675
1731474150.0892787,-0.3588835597038269,0.44195646047592163,-9.983288764953613,-0.013712414776521369,-0.038888768875404205,0.0037634214144383333,1.458582920279992,2.2321611920396967,0.8804216841679476
1731474150.1392915,-0.3525645434856415,0.4376795291900635,-9.988021850585938,-0.012735881072633907,-0.03844709720193697,0.0037739875785525673,1.4532500167030307,2.204766534310665,0.8805238371495232
1731474150.1892414,-0.3610277473926544,0.4366692900657654,-9.989734649658203,-0.011749384703193734,-0.03791613603646273,0.003785148460682808,1.4479059950815774,2.1774620221516727,0.8804136812962465
1731474150.239233,-0.35390523076057434,0.44004589319229126,-9.980785369873047,-0.010755765105098682,-0.037302671459532075,0.0037969429783881454,1.44251716219297,2.149893029687719,0.8805173700605803
1731474150.2891834,-0.34808841347694397,0.4356316924095154,-9.990507125854492,-0.009757765528625752,-0.036613472797263506,0.0038093795033054675,1.4370981727672718,2.122208706590705,0.880630691586681
1731474150.3391497,-0.3495331108570099,0.4318283796310425,-9.987534523010254,-0.008758064488388282,-0.03585525855963175,0.00382244540020131,1.4317030635506514,2.094762187130415,0.8804954335992347
1731474150.3889644,-0.34229859709739685,0.43807172775268555,-9.979005813598633,-0.007759319093076958,-0.03503465315080695,0.003836106368097014,1.426251102212486,2.0669543525063663,0.8806083677009718
1731474150.4399717,-0.35194361209869385,0.43843650817871094,-9.987793922424316,-0.006764186700545262,-0.03415815837047187,0.0038503214762088526,1.420699967529753,2.0387430984238235,0.8804969348015463
1731474150.4899325,-0.3497510850429535,0.43838438391685486,-9.9824857711792,-0.005775311178398863,-0.033232155584003324,0.003865065248405202,1.4152244191628525,2.0109150858221265,0.8804306753580523
1731474150.5399475,-0.3440338671207428,0.4448617100715637,-9.980924606323242,-0.004795289159336394,-0.03226291534806787,0.0038803315379368213,1.4097222726203689,1.9828403727755866,0.8805393376569449
1731474150.5898569,-0.3435697555541992,0.4436219334602356,-9.993441581726074,-0.003826659235069146,-0.031256606071637986,0.0038961292096077417,1.40422579057145,1.9547702290359708,0.8806573698864535
1731474150.6397717,-0.3434273302555084,0.4445556402206421,-9.981748580932617,-0.0028719190567721457,-0.030219302177105636,0.003912464339750068,1.3987304306480868,1.9267659384770572,0.8805502726058452
1731474150.6896904,-0.34205594658851624,0.4357181191444397,-9.985618591308594,-0.0019335336183607917,-0.02915696958980265,0.0039293214653789285,1.3932290823680404,1.8985941846542456,0.8806694362055593
1731474150.7397027,-0.3368449807167053,0.4365089237689972,-9.985532760620117,-0.0010139314285325972,-0.02807541500378787,0.00394667210886436,1.387680904845959,1.8702297688888425,0.8805691187182869
1731474150.7896504,-0.3368449807167053,0.4365089237689972,-9.985532760620117,-0.00011550988512496065,-0.02698022374713841,0.003964486780368191,1.3821573834697387,1.841830726816513,0.8806904767994745
1731474150.7896504,-0.3370206654071808,0.44003918766975403,-9.988101959228516,0.0007593555490080821,-0.02587672575192702,0.003982729713874301,1.3821120546920282,1.8415973972741282,0.8806915136471041
1731474150.839731,-0.34878137707710266,0.4350849390029907,-9.995030403137207,0.0016083292466973027,-0.02476999341249772,0.004001341112207475,1.3766284209574116,1.813431478501203,0.8805877457464635
1731474150.8894904,-0.34958556294441223,0.43955448269844055,-9.992443084716797,0.0024291798743551257,-0.023664842794934103,0.004020204680441453,1.371144296571342,1.785076104323969,0.8807094972205346
1731474150.9395454,-0.33814793825149536,0.4347154200077057,-9.992836952209473,0.0032198529196331323,-0.022565826684040818,0.004039119535426524,1.3656130029508573,1.7563823716235076,0.8808425439250616
1731474150.9894862,-0.3534073531627655,0.43426117300987244,-9.98823356628418,0.003978494440707409,-0.02147722310079034,0.004057804611333933,1.3601194879701552,1.7277830238004794,0.8809850063070179
1731474151.0393903,-0.35689619183540344,0.43784937262535095,-9.982269287109375,0.004703460736527848,-0.020403021701619298,0.004075936931767018,1.354645354192036,1.6992703225708163,0.8807890306249023
1731474151.089344,-0.34376397728919983,0.4424741268157959,-9.984296798706055,0.005393358288908476,-0.01934692731227287,0.004093207276425318,1.3491777024128007,1.6705823763130219,0.8809274584372865
1731474151.1394033,-0.34501925110816956,0.4349685609340668,-9.980411529541016,0.006047050623400898,-0.018312385974933044,0.0041093666515063,1.3437051031835334,1.6418495485008657,0.88076270285926
1731474151.1892505,-0.35001081228256226,0.4367660880088806,-9.98748779296875,0.006663609342107267,-0.017302596689502108,0.004124242852218401,1.3382836496414385,1.613155916073096,0.8808987994107587
1731474151.2393665,-0.35077399015426636,0.4410512447357178,-9.983784675598145,0.007242288002872466,-0.016320499785983503,0.004137728370215013,1.3328002485229342,1.5839988478358145,0.881047337637082
1731474151.2891529,-0.3346041738986969,0.4414082169532776,-9.978825569152832,0.00778252523207411,-0.015368780981789433,0.004149764276097754,1.327426023404409,1.555381990592815,0.8808475656292909
1731474151.339152,-0.3532467186450958,0.44168803095817566,-9.982125282287598,0.008283919982968265,-0.014449897669929542,0.004160347130310326,1.3220328057918307,1.5264211352716905,0.8809910631303584
1731474151.38902,-0.3444956839084625,0.44681721925735474,-9.989038467407227,0.008746206765130996,-0.01356610229315665,0.0041695369313184145,1.316717600728683,1.4978389141281736,0.8808192192513087
1731474151.4390323,-0.3412024676799774,0.45108357071876526,-9.988518714904785,0.009169263165572636,-0.012719467201183388,0.004177426443677799,1.3113266364263838,1.468586513571755,0.8809618389639253
1731474151.4888942,-0.35135704278945923,0.44728460907936096,-9.988907814025879,0.009553109051146149,-0.011911918173724638,0.0041840926020185925,1.306050983574781,1.4399293201035677,0.880807371649704
1731474151.5399947,-0.3428148031234741,0.43845781683921814,-9.985496520996094,0.009897898499440538,-0.011145242163619777,0.004189575250909019,1.3006225789474803,1.410147423772912,0.8809514803693763
1731474151.589838,-0.3428148031234741,0.43845781683921814,-9.985496520996094,0.010203919772974156,-0.010421041559423423,0.004193888708984236,1.2953738062807911,1.3811855830496296,0.8811020114419817
1731474151.589838,-0.35130253434181213,0.43799132108688354,-9.989453315734863,0.010471584826299896,-0.00974067050634258,0.0041970399844175384,1.2953380549045124,1.3809877455705661,0.8811030749170429
1731474151.6397727,-0.34227749705314636,0.4340595602989197,-9.994230270385742,0.010701424919871626,-0.009105199941038504,0.004199023827491023,1.2901437492622398,1.352244735703202,0.8809005507293578
1731474151.6898038,-0.345090389251709,0.4354267120361328,-9.992863655090332,0.01089409303898534,-0.008515407085398148,0.004199791097145182,1.2848921739869292,1.3229254515456266,0.8810483070497986
1731474151.7628806,-0.3515869379043579,0.4293767511844635,-9.992466926574707,0.011050354247229636,-0.00797176893803744,0.0041992219982077555,1.2773497637549573,1.280622228629004,0.8809376112916071
1731474151.7896523,-0.3438718020915985,0.40278133749961853,-9.977875709533691,0.01117108519147862,-0.007474430028664572,0.004197140202575136,1.2745848441106067,1.2649785213308953,0.8810162190563284
1731474151.839626,-0.3230764865875244,0.15276339650154114,-9.979936599731445,0.011257256167260291,-0.007022879703934007,0.004193377809012393,1.2694394245846425,1.235819042834947,0.8808588002614088
1731474151.8895721,-0.22208143770694733,0.187400683760643,-10.070066452026367,0.01130974288812043,-0.006615006011308633,0.0041877700650453185,1.2643235223023308,1.206559546975661,0.8810018253234106
1731474151.939552,-0.3626958727836609,-0.3957504630088806,-10.0033597946167,0.011328978451282036,-0.0062454959038705845,0.004179935745727344,1.2592801811362695,1.177539104448348,0.881153947554095
1731474151.989412,-0.49128592014312744,-0.6028002500534058,-10.101073265075684,0.011315029005379172,-0.005903349859453499,0.004168987740380364,1.25428373848858,1.148678570430305,0.8809522751408575
1731474152.039409,-0.33004650473594666,0.15001556277275085,-9.991525650024414,0.011268361737494917,-0.005569553871595375,0.0041534034895700156,1.2492764745469507,1.1195864203478916,0.880824058582883
1731474152.0893848,-0.42409035563468933,-0.23452405631542206,-9.928579330444336,0.011190411073013343,-0.005217703010599889,0.004131224880125812,1.244270512948096,1.0902496938071056,0.8809635903949852
1731474152.139399,-0.3635537326335907,0.16380023956298828,-9.96257495880127,0.011083437012375952,-0.004817222852861532,0.0041006471311281385,1.2392948848878773,1.0609145414405217,0.8811133729334375
1731474152.1892323,-0.3265819549560547,0.03705446049571037,-9.926668167114258,0.010950183399457521,-0.0043361702032565395,0.004060578144086,1.2343732161725127,1.0317246526576598,0.881272501037506
1731474152.2392316,-0.34383344650268555,0.2610261142253876,-9.951214790344238,0.010793537995347931,-0.0037430692926751965,0.004010798311163352,1.2294522016825409,1.0023673760027265,0.8814425741677735
1731474152.2891235,-0.35642221570014954,0.23940710723400116,-9.95168685913086,0.010616232474612703,-0.0030084850555286797,0.0039518767313309845,1.2246274134657595,0.9734217143395244,0.8811422947376983
1731474152.3392637,-0.3735845685005188,0.305618554353714,-9.976515769958496,0.01042081391989743,-0.0021062558713299062,0.0038849932087578424,1.2197413579174383,0.9439375023745817,0.881303028296893
1731474152.389072,-0.3662432134151459,0.2762035131454468,-9.98367977142334,0.010209806980507647,-0.0010142120398937686,0.0038116828837917996,1.214973339581695,0.9150178575779333,0.8834660751874728
1731474152.4390504,-0.3853393793106079,0.2848801612854004,-9.992253303527832,0.009985842802556764,0.0002856508141242611,0.0037335775443768015,1.210158192523244,0.8856464509379416,0.8838651525145913
1731474152.4890246,-0.3745778203010559,0.2969180941581726,-9.987142562866211,0.0097517141314208,0.0018073422421189791,0.0036522206117284954,1.2054245998722761,0.8566199245308634,0.8861105523947684
1731474152.539969,-0.36941108107566833,0.32635197043418884,-10.017279624938965,0.009510374912381029,0.003561090461047356,0.0035689618785261657,1.2005613656416676,0.8266568390277265,0.8867337985806937
1731474152.5898287,-0.3613957464694977,0.32036691904067993,-9.987659454345703,0.00926486596283081,0.005553460289772112,0.003484881366700091,1.195848238989519,0.7974848337481196,0.8873496784440256
1731474152.6398501,-0.3558109700679779,0.3377763330936432,-10.017905235290527,0.009018187687276254,0.007787456601039919,0.0034007462429552246,1.191176771494003,0.7683956043764805,0.8872333968065957
1731474152.6896672,0.11172740161418915,0.9410831928253174,-9.988750457763672,0.008772762426432542,0.010262164973210718,0.00331702358669712,1.186527788799347,0.7393797999720921,0.887783164276099
1731474152.7397246,0.6022413969039917,1.6053311824798584,-9.950591087341309,0.00852831082607796,0.012970316496336839,0.0032339765218149124,1.1818964454000984,0.7103060691044154,0.8877261832028369
1731474152.7897217,0.45707929134368896,1.1785728931427002,-9.883322715759277,0.00827808714060831,0.015893849810968915,0.003151965376884782,1.1772549625726347,0.6811327741792877,0.8882336410781745
1731474152.8396256,0.18722468614578247,0.8254978060722351,-10.014012336730957,0.00800638185806544,0.019001683212600234,0.003071836822253436,1.1726277190059227,0.6519646625302176,0.8887495469544452
1731474152.889567,-0.2138817459344864,0.33085402846336365,-10.020838737487793,0.007690016076136423,0.022252996079671895,0.002994890149161934,1.1680333724482532,0.6229320661847003,0.8892715200107321
1731474152.939633,-0.84199458360672,-0.42900434136390686,-10.077438354492188,0.007303326172923216,0.025604369380333256,0.002922288329080665,1.163509015769584,0.5941380182320971,0.8888168296758475
1731474152.9894435,-1.1347620487213135,-0.6553553342819214,-10.159132957458496,0.006824681103514602,0.029017852649582995,0.0028543401883102085,1.15898157418325,0.5654221768833108,0.8892750179489334
1731474153.0395005,-0.5375619530677795,0.026560742408037186,-10.053828239440918,0.006241780386870969,0.032466903041192804,0.0027899782071210254,1.154466154392864,0.5366369510691529,0.88649849227771
1731474153.0893981,-0.6419805884361267,-0.14039817452430725,-10.018117904663086,0.0055526030703732104,0.03593700422203069,0.002726739330948083,1.14995122876639,0.5079616485403616,0.8866626862563248
1731474153.13939,-0.6419805884361267,-0.14039817452430725,-10.018117904663086,0.004762719735205863,0.03942237909118139,0.002661358023558708,1.1454155278605123,0.4791667632436573,0.8868348513947979
1731474153.13939,-0.48468977212905884,0.17504572868347168,-9.904268264770508,0.003882683646967162,0.042923046598059206,0.0025905294693339344,1.1453865112768498,0.47898262643500006,0.8868359758217969
1731474153.1893013,-0.5061772465705872,0.20886747539043427,-9.975037574768066,0.002926506065782622,0.04644270776303276,0.002511528353957318,1.1409167480244777,0.45065219039906695,0.8870124235964394
1731474153.2392278,-0.504601240158081,0.35937514901161194,-9.961531639099121,0.0019103424034921173,0.049986274165122635,0.002422563703951986,1.1364144302582722,0.42219713134262987,0.8871965190184848
1731474153.2890863,-0.5235366225242615,0.4285810589790344,-9.942535400390625,0.0008515829848102012,0.053557641018575616,0.00232275947183157,1.1320451379622738,2.9828319602375823,0.885136361895132
1731474153.3391986,-0.5182399153709412,0.41647854447364807,-9.95583724975586,-0.00023151420023747834,0.057158272080052135,0.0022120114431025436,1.1275322053319374,2.97617125482051,0.8851940008227447
1731474153.3890479,-0.5484158992767334,0.4480695128440857,-9.937871932983398,-0.0013200228546499473,0.06078655201083863,0.0020909352838165652,1.1231378094047073,4.4199293988829025,0.8845826317451965
1731474153.4390175,-0.5478430390357971,0.4370619058609009,-9.939542770385742,-0.0023945143907116214,0.06443778164523539,0.0019608295765398062,1.1186303348781235,4.425467154163947,0.884648678069917
1731474153.4889638,-0.5263280868530273,0.4694240391254425,-9.992203712463379,-0.0034352231876386614,0.068104457650387,0.001823576569929501,1.114224244096033,5.354983708500025,0.884354390626712
1731474153.5389593,-0.5467596054077148,0.46723413467407227,-9.985711097717285,-0.004422300552291284,0.07177656885432157,0.0016813972717677488,1.1097068896055677,5.368286631201589,0.8844431867865552
1731474153.5898702,-0.551529049873352,0.4757702946662903,-9.996859550476074,-0.005336098429646521,0.07544187846252298,0.0015365176796923608,1.1052089808402128,6.018027566625933,0.884216905382144
1731474153.6398945,-0.5152885317802429,0.4587487578392029,-9.976001739501953,-0.006157390124673717,0.07908625086034213,0.0013909675887750208,1.10063604306764,6.036869690112312,0.8843185942177493
1731474153.6898081,-0.5710768699645996,0.47691261768341064,-10.003650665283203,-0.006867582226513091,0.08269404813449453,0.0012465541998986137,1.0962238772825212,6.5151402357862205,0.8842491454261451
1731474153.7397523,-0.525538980960846,0.48766395449638367,-9.994609832763672,-0.007448899172480306,0.08624850489902215,0.0011048622806393055,1.0917897769654772,6.881938736758389,0.8841604453586154
1731474153.789613,-0.5084438323974609,0.5185731053352356,-9.965476989746094,-0.00788454610464785,0.08973197164448163,0.0009672436330415667,1.0872010543075044,6.9074507013889335,0.8842819417277958
1731474153.8396065,-0.5292466878890991,0.4623800218105316,-9.98769760131836,-0.008158963123814096,0.09312608555905806,0.0008348884231887141,1.0825922032471276,6.933191228389895,0.8844056865169624
1731474153.88953,-0.48913973569869995,0.46731847524642944,-9.979022026062012,-0.008258084113753941,0.09641208060208276,0.0007089266905474483,1.0779518021188284,6.959230277162931,0.884531656988516
1731474153.9395475,-0.4685397744178772,0.5056860446929932,-9.99309253692627,-0.008169534862498619,0.09957122204760652,0.0005904333975126143,1.0734558668596306,7.2516011667319455,0.8843248443561262
1731474153.9894257,-0.45702219009399414,0.4998912811279297,-9.956080436706543,-0.007882878901217673,0.10258507250159682,0.00048039684661495394,1.06897536767924,7.485093753727747,0.8841277365809611
1731474154.0394197,-0.4022035002708435,0.5028836131095886,-9.970311164855957,-0.0073898974966058436,0.10543555603335313,0.000379772057783021,1.0642869241900685,7.515299945427772,0.8842277772706363
1731474154.089314,-0.42270535230636597,0.48164358735084534,-9.983999252319336,-0.0066848316974672355,0.10810507430068815,0.0002895634907832479,1.0595907743658861,7.5457086086459295,0.8843284415208197
1731474154.1392968,-0.38456615805625916,0.5007065534591675,-9.960416793823242,-0.0057645295435597415,0.11057674434982964,0.00021081624684461805,1.0548630546835838,7.576494160145865,0.8844300740285487
1731474154.1892097,-0.3837924003601074,0.4896668791770935,-10.00211238861084,-0.004628462878189593,0.11283462534805208,0.0001445472905869079,1.0501312380829502,7.607500674310822,0.8845319592711425
1731474154.2391903,-0.3806689977645874,0.47306615114212036,-10.001392364501953,-0.003278665348882431,0.11486388702854851,9.164699256963557e-05,1.0453849129982047,7.638821817267819,0.8846342392038493
1731474154.2891269,-0.3806689977645874,0.47306615114212036,-10.001392364501953,-0.0017195978843942506,0.11665099536537438,5.273072675189244e-05,1.0408635748942219,7.8270459533630286,0.8843655095108315
1731474154.2891269,-0.5227342247962952,0.9770021438598633,-9.972333908081055,4.2202302279347034e-05,0.11818345529074856,2.8066780450278567e-05,1.0408175822156294,7.827363942558864,0.8843663652007854
1731474154.3391964,-0.6536251306533813,1.1910713911056519,-9.957026481628418,0.001998988144764946,0.11944799758302682,1.7701017384542867e-05,1.036114023798811,7.860048597833348,0.8844539421045663
1731474154.389024,-0.5680765509605408,0.5152410864830017,-9.884139060974121,0.004143094681400346,0.12042813130859678,2.1759615798818092e-05,1.0313801964060507,7.893294011458225,0.8845422735377109
1731474154.438984,-0.8518714904785156,1.0223649740219116,-10.114818572998047,0.006468043255558335,0.12110399172360854,4.066854882628346e-05,1.0269211515722843,8.043458541380621,0.8843571591670774
1731474154.4890203,-0.5428992509841919,0.5303182005882263,-9.948053359985352,0.008969180761078534,0.12145430073433702,7.488891955598862e-05,1.0221954576173022,8.07824684735294,0.8844379950790545
1731474154.4890203,-0.5428992509841919,0.5303182005882263,-9.948053359985352,0.011643550533744143,0.12145829504709552,0.00012452810089610432,1.020721575280063,8.089196323419095,0.8844633366718988
1731474154.8706543,-0.253031849861145,0.3442539572715759,-9.981415748596191,0.014488548808137314,0.12109770647921692,0.00018948777640449095,0.9882352603993199,8.557373375717635,0.8849007266627597
1731474154.9205117,-0.23775433003902435,1.9156547784805298,-9.855184555053711,0.017499851499401274,0.12035739314760885,0.00026987201019055483,0.9841859358139333,8.623847780241924,0.8847463218211588
1731474154.9705315,-0.4001409411430359,0.5899046659469604,-9.77047061920166,0.020669837639745066,0.11922227065501059,0.0003664449467898921,0.9798875486754144,8.66183731668453,0.8848263593915637
1731474155.020408,-0.1947299689054489,1.112312912940979,-10.022409439086914,0.02398731792566186,0.11767422572122473,0.00048114943644068155,0.9759644943960979,8.715956699483186,0.8846928578661135
1731474155.0704117,-0.1947299689054489,1.112312912940979,-10.022409439086914,0.02743789898161147,0.1156928469185902,0.0006168676537218123,0.9717970851985253,8.754343338589962,0.8847642180579836
1731474155.0704117,-0.21322882175445557,0.8714746236801147,-10.088143348693848,0.031003995135403153,0.11325705453041682,0.0007762302972006103,0.9717579797665575,8.754707850686971,0.8847649003908895
1731474155.1203022,-0.2239534556865692,0.9041865468025208,-9.905142784118652,0.03466489037580574,0.11034590742285702,0.000960705513004863,0.9676174633216572,8.793850600063351,0.8848391236433185
1731474155.1704328,-1.3943976163864136,-0.5810168385505676,-10.084527969360352,0.038398361179903855,0.10694120109050856,0.0011706556326746438,0.9635942712332093,8.833010950106491,0.8849155131768028
1731474155.2202253,-0.5982986688613892,0.3721615672111511,-10.063822746276855,0.04218469397161468,0.10303278145558546,0.0014056065679813933,0.9595775111456248,8.873384046761865,0.8849970499984544
1731474155.2702136,-0.46314603090286255,0.03619835898280144,-10.011496543884277,0.04600984128323967,0.09862278050188299,0.0016641152830509914,0.9563315049922683,8.910254343952172,0.8847784317904757
1731474155.320184,-0.5183843374252319,0.10595713555812836,-10.015792846679688,0.04986414480589759,0.09372540032716906,0.0019437321265797021,0.9525197112621324,8.951246789054569,0.8848543623089359
1731474155.3702235,-0.11161405593156815,0.15249505639076233,-10.028287887573242,0.05373901038598611,0.08836469497124869,0.0022413353238350643,0.9495411445527044,8.97946435541135,0.8846868061648898
1731474155.4200754,-0.11161405593156815,0.15249505639076233,-10.028287887573242,0.05762441829836147,0.0825729415771769,0.002553394465051079,0.9461130048263674,9.019337943736359,0.8847590407810432
1731474155.4200754,0.01588253118097782,0.03391246125102043,-10.020575523376465,0.061506968374493834,0.07638924494527423,0.0028760334495406947,0.9460014393572537,9.020667840675014,0.8847615532743511
1731474155.469965,-0.25383296608924866,0.3448643088340759,-9.974748611450195,0.06536887222489304,0.06985826345457448,0.0032051391829275295,0.9428362789769713,9.059418216454588,0.8848384481279594
1731474155.5198517,-0.10165785253047943,0.2227284014225006,-9.922452926635742,0.06918856997094998,0.06302871228614518,0.0035366809048693365,0.9397343101531253,9.09956800142543,0.8849260312502643
1731474155.5699394,-0.1839110553264618,0.4192267656326294,-9.99095344543457,0.07294205549604363,0.05595144259375297,0.0038671416051994914,0.9373441147168863,9.114600932584557,0.8847191979630928
1731474155.6198208,-0.19280876219272614,0.3612631559371948,-9.950533866882324,0.0766038608702797,0.04867774059532984,0.004193722450471817,0.9344820603867487,9.156481947056252,0.8848140672744853
1731474155.6698928,-0.00384950777515769,0.6912849545478821,-9.922014236450195,0.08014758861371646,0.04125787064117289,0.0045142962785678425,0.9326342116520508,9.194859189419509,0.88478418698527
1731474155.7207956,0.744889497756958,1.6483407020568848,-9.939879417419434,0.0835452456895914,0.03373848207908336,0.0048274357267337874,0.9308217260530113,9.236132117687799,0.8849124206521497
1731474155.770732,0.3141680657863617,1.1341841220855713,-10.00156307220459,0.08676464442319226,0.02615803188942753,0.005132442241460657,0.9287279766051886,9.276109076639516,0.8850443100075197
1731474155.8206358,-0.22723086178302765,1.8611536026000977,-9.893811225891113,0.08976781290209264,0.01854260464212322,0.00542916216996313,0.9268156405672014,9.316933635029917,0.8851921443476095
1731474155.8706558,-0.4820658564567566,1.1263463497161865,-9.909140586853027,0.0925140506273732,0.010904682801799154,0.0057179090380052155,0.9251540358249752,9.357314635125125,0.8853521944097128
1731474155.9206085,-0.49431735277175903,1.4234706163406372,-9.892594337463379,0.09496566670596936,0.003244620971725046,0.005999692410028444,0.9243870258417985,9.39732615514185,0.8852594442068707
1731474155.970523,-0.07631285488605499,0.5004467964172363,-10.070384979248047,0.09709149297862142,-0.004445826647636576,0.006276249157251012,0.9238603663046195,9.437556633126865,0.8853124693088993
1731474156.0204434,-0.24069371819496155,-0.35270124673843384,-10.206377029418945,0.09886654757960314,-0.01217750570395073,0.006549281074776499,0.9229246681846068,9.477999939465146,0.8854936662171999
1731474156.0704284,-0.6625279188156128,-0.9579870700836182,-10.202309608459473,0.1002705696053304,-0.019955022855987006,0.006819039822303258,0.9222377920710239,9.518396075514707,0.8856915243130185
1731474156.1203353,-0.7205891013145447,-0.26662561297416687,-10.021163940429688,0.10128870931735998,-0.027768292424433925,0.007083361666344894,0.9218022813928589,9.558771310586152,0.8859069556665091
1731474156.170457,-0.7205891013145447,-0.26662561297416687,-10.021163940429688,0.10191379721906534,-0.03559007682759127,0.0073380833649744365,0.9223307813299546,9.598970734266665,0.885778370897226
1731474156.170457,-0.539745032787323,-0.3440362215042114,-10.02015209197998,0.10214730245755729,-0.04337951280503269,0.007578267312542419,0.9223304486156131,9.59926263916378,0.8857799335204631
1731474156.220292,-0.539745032787323,-0.3440362215042114,-10.02015209197998,0.10199816952048782,-0.05108624028396408,0.007799042064937827,0.9224112090382504,9.639086256180718,0.8860031043653745
1731474156.220292,-0.7099660634994507,-0.18074804544448853,-9.97559928894043,0.10148103315062378,-0.05865273965281615,0.007995867813374073,0.9224130345851976,9.63943662638253,0.8860051561570396
1731474156.270222,-0.4648881256580353,-0.01231425255537033,-9.95477294921875,0.10061514274531365,-0.06601654689915588,0.008164734849751165,0.9234731617089655,9.679076803234807,0.8858157521488019
1731474156.320121,-0.6345815658569336,0.11943099647760391,-9.89240837097168,0.09942367265592765,-0.07311330707594288,0.00830251778784427,0.9240765431406978,9.719607729202236,0.8860473547462969
1731474156.370157,-0.4727819561958313,0.4156271815299988,-9.890789985656738,0.09793280871252874,-0.07988012969937258,0.008407393690743524,0.925647442234946,9.758270628216996,0.8858689144472551
1731474156.419992,-0.4727819561958313,0.4156271815299988,-9.890789985656738,0.09617077596584278,-0.08625875197096751,0.008479141524589425,0.9267305068591122,9.797616679654885,0.8861008995512365
1731474156.419992,-0.4746846556663513,0.4383656084537506,-9.960733413696289,0.09416689004680667,-0.09219792159309914,0.008519109262437478,0.926741444037922,9.797973205995929,0.8861031041035942
1731474156.4700122,-0.4082532823085785,0.4868992269039154,-9.922954559326172,0.09195072432505277,-0.09765443606936919,0.008529822296890838,0.9280577928940741,9.837014021554808,0.8863559250556731
1731474156.5199811,-0.4082532823085785,0.4868992269039154,-9.922954559326172,0.08955149388357572,-0.10259321400637024,0.008514551567336002,0.9303730883453665,9.87571204085869,0.886095161820662
1731474156.5199811,-0.42095184326171875,0.46034306287765503,-9.94420051574707,0.08699755671391465,-0.1069870413564106,0.008477109542409548,0.9303882862459452,9.876065955664625,0.8860973684600301
1731474156.5699735,-0.3570947051048279,0.568742036819458,-9.979055404663086,0.0843160776342977,-0.11081616165554753,0.008421700682162938,0.9321540323857371,9.914591610667076,0.8863489644964497
1731474156.6198468,-0.35170891880989075,0.5658196806907654,-10.006991386413574,0.08153276677913085,-0.11406794806656786,0.008352591380174346,0.934925568057054,9.952859888408739,0.8861091375761833
1731474156.6698449,-0.35522300004959106,0.5524300336837769,-9.985919952392578,0.07867157256850343,-0.11673673324818422,0.008273712081331602,0.9371114055983722,9.99095634908216,0.8863601927220821
1731474156.7197773,-0.3219449818134308,0.549161434173584,-9.999293327331543,0.07575448011569974,-0.11882342475004362,0.008188436062345556,0.9394811391506681,10.028625385874966,0.8866307871038023
1731474156.7707493,-0.28970977663993835,0.5290778875350952,-9.999696731567383,0.07280141000981058,-0.12033479273165468,0.008099561293176662,0.9421013124021316,10.066932250103777,0.8869291143215032
1731474156.8206139,-0.3143123984336853,0.5126650929450989,-10.002466201782227,0.06983008736695581,-0.12128265853224408,0.008009341590030614,1.1839153301097056,10.104331614351835,0.8866086403572563
1731474156.870688,-0.2599155902862549,0.5240530371665955,-9.9974946975708,0.06685596195482146,-0.12168312054018242,0.007919506968621615,1.1915001342297302,10.141291067540804,0.8865237263490534
1731474156.9205627,-0.2969132363796234,0.4891177713871002,-9.995007514953613,0.06389223434422656,-0.12155587063034945,0.007831314753961375,1.1944999769129854,10.177250899665514,0.8868008409515267
1731474156.9705002,-0.2292598932981491,0.49995648860931396,-10.004132270812988,0.06094991130850343,-0.12092358922408875,0.00774562344701315,1.197154446312555,10.213314668148406,0.8867292924195109
1731474157.0204966,-0.2579132318496704,0.4924958348274231,-10.007848739624023,0.058037842990520866,-0.11981139129024718,0.007662935135399953,1.199978467601986,10.249611325998435,0.8870252542067598
1731474157.0704823,-0.24598565697669983,0.4703907370567322,-10.037233352661133,0.05516277799105589,-0.11824634529221836,0.007583367271770116,1.2029030883859746,10.285097158001895,0.8873359598401854
1731474157.1203732,-0.2604096531867981,0.4892358183860779,-9.96359920501709,0.05232953416254375,-0.11625704040699718,0.007506618781356739,1.2060067608925569,10.320815117262073,0.8876703186503272
1731474157.1703653,-0.2412901222705841,0.49372807145118713,-10.008519172668457,0.0495412614437676,-0.11387322094892835,0.007432080868905001,1.2048857077172723,10.35563690825531,0.8873494722693411
1731474157.2202988,-0.25269076228141785,0.49582356214523315,-9.967084884643555,0.04679967225453722,-0.11112554841345396,0.0073590545875342,1.2057262655075747,10.39057183986053,0.8874058642279031
1731474157.2702527,-0.29472479224205017,0.49913355708122253,-9.967273712158203,0.04410526739541134,-0.10804542489296007,0.007286917958339569,1.2083020679097431,10.424798010344137,0.8877339084282391
1731474157.3201697,-0.2970694601535797,0.489962100982666,-10.00029182434082,0.04145768355515179,-0.10466478615159786,0.007215220121706008,1.2109953559702475,10.458921348473956,0.8880813609328574
1731474157.370167,-0.34497785568237305,0.48454904556274414,-9.985206604003906,0.03885614120164564,-0.10101584881149592,0.0071436640904695755,1.2138152766201247,10.493115684118175,0.8884501637789171
1731474157.4200604,-0.34497785568237305,0.48454904556274414,-9.985206604003906,0.036299873748259645,-0.09713083077939419,0.007072000763141078,1.2116073720565548,10.526537304414902,0.88795651880511
1731474157.4200604,-0.33604687452316284,0.4833928644657135,-9.957088470458984,0.03378844167284717,-0.09304169350860042,0.00700001353900143,1.211704522864757,10.527855757785588,0.8879695700209892
1731474157.4700716,-0.3997398614883423,0.48361581563949585,-10.031452178955078,0.03132189768611694,-0.08877993925471836,0.006927576037207872,1.214129797573146,10.560149516435047,0.8882986415940896
1731474157.5199513,-0.34380197525024414,0.5006750226020813,-9.992836952209473,0.02890089436996051,-0.08437646539510292,0.006854573843461117,1.2128226853803603,10.594225873628073,0.8878789587121071
1731474157.570007,-0.40116724371910095,0.47793707251548767,-9.987176895141602,0.026526755423040383,-0.0798614650588318,0.0067807494976686675,1.215081065844773,10.62661273431619,0.888191275580641
1731474157.6199002,-0.3695700168609619,0.49243950843811035,-9.979872703552246,0.024201461864069615,-0.07526432045341336,0.006705721902755654,1.2152142879613848,10.659712545321915,0.8878220096031062
1731474157.6698487,-0.41193339228630066,0.5345649719238281,-9.984530448913574,0.02192762333076321,-0.07061351209069722,0.0066291359980116425,1.2174675006781495,10.692085844613569,0.8881205392744168
1731474157.7197323,-0.39578092098236084,0.5249258279800415,-9.9964017868042,0.01970847720036474,-0.06593666248273582,0.006550732141419562,1.2169998940852071,10.72460109747875,0.8877851801380385
1731474157.7697887,-0.4148857295513153,0.5152393579483032,-10.009360313415527,0.017547879718479403,-0.06126062880660117,0.006470288915619456,1.2191389403008839,10.756968848138387,0.8880726889910403
1731474157.8206913,-0.38384121656417847,0.5252273082733154,-9.947656631469727,0.01545023995066179,-0.05661144632768081,0.006387557064745754,1.219799362794537,10.79046209925272,0.8879049296454026
1731474157.8705866,-0.37471675872802734,0.512197732925415,-9.963825225830078,0.013420339232417953,-0.05201416334324864,0.006302359783033716,1.2218711978334682,10.82173344478474,0.8881884394260735
1731474157.9205194,-0.39332878589630127,0.548274040222168,-9.980907440185547,0.011463077169496126,-0.04749271852116506,0.006214788494501784,1.2240712147306858,10.85433899429959,0.8885010315060872
1731474157.970504,-0.3940364420413971,0.5331264734268188,-9.951216697692871,0.009583303977814539,-0.04306991226458431,0.006125252002804828,1.2262064893945914,10.885494681179123,0.8888157916183649
1731474158.0204077,-0.3720216453075409,0.5273372530937195,-10.012054443359375,0.007785773353573183,-0.038767405497828006,0.006034383186621877,1.2284824065517483,10.91827053711444,0.8891636873522845
1731474158.070431,-0.36154696345329285,0.5203379988670349,-9.981355667114258,0.0060750512594802955,-0.034605630302287096,0.005942892545195628,1.2260093625551631,10.948745850334916,0.8885084991600801
1731474158.1203873,-0.33269548416137695,0.5211107134819031,-9.980409622192383,0.00445529993311064,-0.030603628163477968,0.005851424068025829,1.2279984580825305,10.981082290309212,0.8888223002441791
1731474158.170318,-0.3207956552505493,0.5135068893432617,-9.99845027923584,0.0029300094159477996,-0.026778917674623273,0.005760519510528791,1.2283140186863553,11.011715529553477,0.8883091631825969
1731474158.2202368,-0.30687013268470764,0.5224953889846802,-9.994780540466309,0.0015017555968151984,-0.02314741874601141,0.005670627509630799,1.228324765119745,11.04376413449738,0.887994733546665
1731474158.2701979,-0.3119085729122162,0.5182780623435974,-9.960308074951172,0.00017204855889086328,-0.019723425079380304,0.005582090833077173,1.230107066414701,11.07444899801116,0.8882463385106661
1731474158.3202002,-0.3232634663581848,0.5220323204994202,-9.994431495666504,-0.0010586781503591756,-0.016519615248067457,0.005495207765029597,1.23196658082947,11.106437232443385,0.8885230659718368
1731474158.3702445,-0.28144803643226624,0.5371149778366089,-9.997028350830078,-0.002190980126760276,-0.013547090876369749,0.005410293355108836,1.2311328584021182,11.137050881573925,0.8881226168011617
1731474158.4200966,-0.28144803643226624,0.5371149778366089,-9.997028350830078,-0.003226370175624005,-0.010815455952301933,0.00532760702918491,1.232770258466198,11.168167072893858,0.8883762945563761
1731474158.4200966,-0.31811031699180603,0.5085797905921936,-9.998974800109863,-0.004167343785337737,-0.008332891244315235,0.005247250341794267,1.2328090529325773,11.168905827651178,0.8883824795571792
1731474158.4701083,-0.2963423728942871,0.5248386859893799,-9.973089218139648,-0.005017269451121974,-0.006106130622826939,0.00516916571900033,1.232544992548524,11.199265282360402,0.8878707380624722
1731474158.5199509,-0.2880183458328247,0.5108221173286438,-10.006240844726562,-0.005780182123595117,-0.004140386844043847,0.0050932114718849,1.2340806434265963,11.230581905577575,0.8880946575424394
1731474158.5699735,-0.2980497181415558,0.49068212509155273,-9.973512649536133,-0.006460679600563169,-0.002439311301361962,0.005019218915892426,1.2355976608174541,11.261821631078014,0.888330697655857
1731474158.6198955,-0.31672346591949463,0.5230117440223694,-9.992152214050293,-0.007063857129673869,-0.0010049701536018678,0.004947011865962505,1.2371112216933202,11.293337553926282,0.8885814404815126
1731474158.6698563,-0.3087119460105896,0.5085582733154297,-10.039146423339844,-0.007595142164858449,0.00016211677136280384,0.004876381241089252,1.2354517289031768,11.324181892391037,0.8880609384257173
1731474158.719787,-0.3087119460105896,0.5085582733154297,-10.039146423339844,-0.008060112054330472,0.0010628498482189456,0.004806911136898459,1.2367283673618321,11.355394454781381,0.8882889916662207
1731474158.719787,-0.37044280767440796,0.5171928405761719,-9.983965873718262,-0.008464347268535705,0.001699438129735384,0.004737774168982757,1.2367405085904328,11.355693682752984,0.8882912357400287
1731474158.769825,-0.35450124740600586,0.50801682472229,-9.950888633728027,-0.008813197317141594,0.0020753193883927285,0.004667847020438419,1.2366843818238447,11.386313610950937,0.8878564928351478
1731474158.8206687,-0.3457523584365845,0.5308553576469421,-10.02107048034668,-0.009111517679807486,0.0021950578884139325,0.0045960814246556216,1.2379338284206527,11.418133924884934,0.8880717468855971
1731474158.8708599,-0.3598632216453552,0.5240755081176758,-9.973990440368652,-0.009363593746150423,0.0020642085421943065,0.0045216743254338655,1.239150601557632,11.44972908242723,0.8882970981074816
1731474158.9206185,-0.37419551610946655,0.5006221532821655,-9.971975326538086,-0.00957318391176128,0.0016891950744775815,0.004444004220932355,1.2403253116442892,11.48084879725249,0.8885301873001931
1731474158.970634,-0.3892771303653717,0.5268489718437195,-10.022506713867188,-0.009743480193412335,0.0010772717607830506,0.004362607363601718,1.23912036718385,11.51182777884365,0.888085271049965
1731474159.0204418,-0.42074161767959595,0.5047159194946289,-9.953629493713379,-0.00987697315785259,0.00023651252830350048,0.0042771601269353185,1.2401367101467144,11.542896157356763,0.8883041921017284
1731474159.0705018,-0.4061630666255951,0.5313308238983154,-9.978107452392578,-0.009975302008573031,-0.0008242609401014005,0.004187467982709642,1.2420053041878256,11.574002103067983,0.8880825592802558
1731474159.1203768,-0.40526318550109863,0.5140536427497864,-10.022367477416992,-0.010039199230149775,-0.0020955898927548103,0.00409351585092796,1.2429282255822385,11.605055785987357,0.8878244489287812
1731474159.170345,-0.3965300917625427,0.502784788608551,-9.966509819030762,-0.010068601224061417,-0.003567463936110837,0.0039954062417054586,1.2441249613113723,11.636150189979078,0.8880242202068621
1731474159.2203305,-0.38581791520118713,0.508468508720398,-9.955740928649902,-0.01006285932715035,-0.005229335126812039,0.003893289774409901,1.2453089377913549,11.66755793640444,0.8882359669368609
1731474159.2702694,-0.3934820294380188,0.535594642162323,-9.982986450195312,-0.010020951893372293,-0.007070138509223885,0.0037874941554755432,1.246455588701999,11.69862131059871,0.8884550251248301
1731474159.3201983,-0.35386738181114197,0.5342658758163452,-9.970437049865723,-0.009941672865243709,-0.009078444741021353,0.0036786294436700843,1.2470140073953584,11.729442722606978,0.8880558631091586
1731474159.3701587,-0.3599652647972107,0.5136325359344482,-9.988588333129883,-0.009823839196307976,-0.01124266059342609,0.0035675120480088978,1.2481229692690317,11.760661118207878,0.8882570188527863
1731474159.4200087,-0.32312655448913574,0.5253065824508667,-10.006949424743652,-0.0096665327261704,-0.01355110414101437,0.0034550241610236203,1.2493141740275717,11.791707253486045,0.887929049459381
1731474159.4701254,-0.32851725816726685,0.5242536067962646,-9.958294868469238,-0.009469326657373933,-0.01599199198828112,0.0033419960060768954,1.2504312983196284,11.822701348779091,0.8881137846686639
1731474159.5200732,-0.2989529073238373,0.5134327411651611,-9.978981018066406,-0.009232461889728472,-0.018553459335103557,0.0032292089080713494,1.2515307023588236,11.853807972050264,0.8883076447021845
1731474159.5699933,-0.2976040542125702,0.528435468673706,-10.035711288452148,-0.008956974838143651,-0.021223601431073404,0.0031174493789877973,1.2525987029636916,11.884612790809163,0.8885077714102713
1731474159.6201284,-0.2584826648235321,0.5214108228683472,-9.999695777893066,-0.008644803972808356,-0.02399051826525434,0.0030073751182713108,1.2532281017995777,9.048122083767632,0.8879691698045724
1731474159.6698892,-0.29298895597457886,0.5123870372772217,-9.98195743560791,-0.00829887385223629,-0.026842369691735833,0.002899336058175207,1.2542557963052108,9.05487443140204,0.8881403734863444
1731474159.7198591,-0.2805013358592987,0.5189118385314941,-9.997715950012207,-0.007923064485301971,-0.02976739923573564,0.002793438370378458,1.2552688473555682,9.061592746061105,0.8883195857723991
1731474159.7697053,-0.25231388211250305,0.526025652885437,-9.983038902282715,-0.007522068387314545,-0.032753948754624854,0.0026897110114069197,1.256124404665646,7.408400974153511,0.8877712736424546
1731474159.8196115,-0.2625800669193268,0.5331252813339233,-9.989421844482422,-0.007101301589881457,-0.03579053455062244,0.0025881754610071767,1.2571321845098866,7.401145168545665,0.8879246568094585
1731474159.870672,-0.25197145342826843,0.5226522088050842,-10.016423225402832,-0.006666884406586183,-0.0388659572394294,0.0024888379998760225,1.2581110347172793,7.3938768118241684,0.8880827526460947
1731474159.9206076,-0.2829984724521637,0.5082409381866455,-9.991646766662598,-0.006225542154090545,-0.04196934682161104,0.0023916214807776864,1.2590682285836068,7.386548045148487,0.8882460747764239
1731474159.9705005,-0.28480449318885803,0.5353925824165344,-9.947487831115723,-0.005784374803353485,-0.045090131805612964,0.002296352466017038,1.2598543103121662,6.295397706516347,0.8877429130075913
1731474160.0204332,-0.28480449318885803,0.5353925824165344,-9.947487831115723,-0.0053505754861398564,-0.04821805588238597,0.0022029676440563015,1.2619443416182685,5.5462624325394865,0.887438692179889
1731474160.0204332,-0.2747306227684021,0.5366898775100708,-10.02096939086914,-0.0049312283895282605,-0.05134329183444281,0.0021117349829759715,1.2619529653391197,5.546080660438879,0.8874396971546579
1731474160.0705328,-0.2890772521495819,0.5572153329849243,-9.990310668945312,-0.004533225849053315,-0.0544565601616846,0.0020231447889974695,1.262894300856747,5.52608595941913,0.8875520009394048
1731474160.120394,-0.30816128849983215,0.5108066201210022,-9.969518661499023,-0.004163191028492523,-0.057549184402870254,0.0019376422284082986,1.2639333395511994,5.5036626684372205,0.8876819090489286
1731474160.1703773,-0.3075338900089264,0.5318730473518372,-9.989680290222168,-0.003827318172962932,-0.06061304011246982,0.0018555859911118969,1.2649564191245612,5.481221824204745,0.8878157910693976
1731474160.220353,-0.3376113772392273,0.514896035194397,-9.994827270507812,-0.0035311771546999095,-0.0636404277741965,0.001777335371719712,1.2655888185090167,4.903220144720523,0.8874282924359859
1731474160.2703774,-0.34983736276626587,0.5286862254142761,-9.962014198303223,-0.003279524357392348,-0.06662399621017628,0.0017032492900332053,1.2665648139708985,4.8760706458552345,0.8875449879952058
1731474160.3201654,-0.3544542193412781,0.5517596006393433,-9.99022388458252,-0.0030761207086822716,-0.06955677447084249,0.0016336916859259047,1.2682461819441038,4.848833207654798,0.8872469377696723
1731474160.370143,-0.3516252934932709,0.5374683141708374,-9.990341186523438,-0.0029236240922885003,-0.07243228863292386,0.0015690634921404422,1.269144303311802,4.8211533998041025,0.8870495687965585
1731474160.4202018,-0.35329899191856384,0.519231379032135,-9.9598970413208,-0.0028236094582314315,-0.0752446480856144,0.0015097783811105431,1.2701729782074611,4.793372918448968,0.8871414596955765
1731474160.4702244,-0.3345542550086975,0.5284436941146851,-9.966591835021973,-0.002776683042542711,-0.07798848607563794,0.0014562844173086117,1.2711955499447776,4.765376799903031,0.8872371367508479
1731474160.5200076,-0.3611922562122345,0.5078816413879395,-10.020652770996094,-0.002782631855589359,-0.08065883169891233,0.0014091165240736011,1.2722098817562222,4.737218425480796,0.88733626706988
1731474160.570008,-0.3498118817806244,0.5143244862556458,-10.008946418762207,-0.002840531472662471,-0.08325101791226944,0.0013687632713876407,1.2721351805290275,4.708809917415272,0.8871786619138652
1731474160.6198819,-0.33152875304222107,0.5191381573677063,-9.96742057800293,-0.002948813444974942,-0.08576063382062776,0.0013354558104882281,1.2730431292935767,4.6803324402577635,0.8872748366645199
1731474160.6699362,-0.3189314603805542,0.520063042640686,-9.994635581970215,-0.003105410402076834,-0.08818353872942691,0.0013091880129154747,1.2734953709126795,4.651575145574914,0.8872358591422592
1731474160.7198498,-0.31146132946014404,0.49782794713974,-9.991044998168945,-0.0033079937751122855,-0.0905159011869516,0.0012898715290154033,1.2743733214234036,4.622430698757016,0.8873393018999942
1731474160.7696915,-0.27925825119018555,0.5191643238067627,-9.976333618164062,-0.0035542114952578398,-0.09275418525539776,0.0012773847028021822,1.2747944382510223,4.593634761107186,0.8873195900661817
1731474160.8196826,-0.26903486251831055,0.5131709575653076,-9.989280700683594,-0.0038419179917150255,-0.0948951304353361,0.001271575384590672,1.2756303830901485,4.56409923687352,0.8874276067205747
1731474160.8696597,-0.2614664137363434,0.5186227560043335,-10.001703262329102,-0.00416939592624972,-0.09693579481206607,0.0012722736508609086,1.2760441831499767,4.534234362824496,0.887408084464469
1731474160.9207711,-0.2614664137363434,0.5186227560043335,-10.001703262329102,-0.004535489031326312,-0.09887361564712684,0.0012792344070321703,1.2768485657394104,4.503539914984823,0.8875197926901525
1731474160.9207711,-0.2740640342235565,0.5009732246398926,-9.956851959228516,-0.004939598539180743,-0.10070642634183195,0.0012920880084937667,1.276853656056443,4.503343388851332,0.8875205156412648
1731474160.9705622,-0.274027019739151,0.5083372592926025,-10.000702857971191,-0.005381569176279229,-0.10243241502949674,0.0013104255005727287,1.2775871881866556,4.473623607798744,0.8875499642108418
1731474161.02048,-0.274027019739151,0.5083372592926025,-10.000702857971191,-0.0058615344648874305,-0.10405006655084988,0.001333879101616738,1.2793507258923853,4.443056874159541,0.8874891954844374
1731474161.02048,-0.2422710508108139,0.5382094979286194,-10.02502155303955,-0.006379825761047378,-0.1055581789483784,0.0013620200549244006,1.2793585564067822,4.442793902459898,0.8874900699520031
1731474161.070523,-0.2966766655445099,0.5066756010055542,-9.966814994812012,-0.006936962527737853,-0.1069559624657329,0.0013942175246769474,1.2802545062257993,4.412284177781086,0.8875928117706132
1731474161.1204453,-0.24885393679141998,0.5543649792671204,-9.974495887756348,-0.0075336055410061935,-0.10824312813778597,0.0014297058148315406,1.2811419503428854,4.381180026004119,0.8877001765360364
1731474161.1704516,-0.2737577557563782,0.5325854420661926,-10.017370223999023,-0.008170466180069825,-0.10941995066155832,0.001467771913165303,1.2820046668948084,4.34998700857031,0.8878105181355311
1731474161.2202854,-0.2737577557563782,0.5325854420661926,-10.017370223999023,-0.008848258825217632,-0.11048731946978452,0.0015077459586593427,1.2820532643419584,4.318524662200845,0.8876607262644688
1731474161.2202854,-0.2906055152416229,0.5151991844177246,-9.989680290222168,-0.009567631713927105,-0.11144669336940159,0.001548819586332432,1.2820598568836947,4.318253915067914,0.8876615615579496
1731474161.2703397,-0.3137006163597107,0.5183002948760986,-9.986680030822754,-0.010329006661957688,-0.11229995069088516,0.0015900167013062842,1.2828089923677979,4.286830374642732,0.8877600321024793
1731474161.3202085,-0.3133438229560852,0.5345419645309448,-10.003192901611328,-0.01113237690786963,-0.11304926503825077,0.0016303367572783022,1.2833823965963995,4.254588594943665,0.8876265593550225
1731474161.370244,-0.3098906874656677,0.528404951095581,-10.000290870666504,-0.011977155386591422,-0.11369709114844145,0.0016688294822385266,1.2837841267554728,4.222324797878225,0.8875399747468553
1731474161.4202275,-0.3098906874656677,0.528404951095581,-10.000290870666504,-0.012862149631526008,-0.11424620344350699,0.0017045563787092858,1.2844429686122263,4.18954856411348,0.8876223394872594
1731474161.4202275,-0.33454248309135437,0.49304723739624023,-9.936529159545898,-0.013785608744330935,-0.11469965994648117,0.0017366177098337109,1.2844485668978805,4.18926173764187,0.8876230759013093
1731474161.470167,-0.3619610667228699,0.5299280881881714,-10.047443389892578,-0.014745192995689868,-0.11506067010716158,0.0017642843171640926,1.2850651923290288,4.156593874725285,0.887708764083961
1731474161.5199888,-0.36124423146247864,0.5293492674827576,-9.995766639709473,-0.015737828830931288,-0.11533251756761206,0.001786976952801932,1.285648215288889,4.12342280941152,0.8877994184393352
1731474161.570011,-0.3769206404685974,0.5511707663536072,-9.91990852355957,-0.016759575827920356,-0.11551864646147575,0.001804138286849759,1.2854596039490627,4.090122721768985,0.887644664052268
1731474161.6198852,-0.3769206404685974,0.5511707663536072,-9.91990852355957,-0.01780560095221085,-0.11562281873005803,0.0018154492140941571,1.285911301162052,4.05628269557237,0.8877283646409746
1731474161.6198852,-0.3783719837665558,0.543317973613739,-9.976374626159668,-0.01887023530381288,-0.11564920829651892,0.0018212441771695202,1.285914001022952,4.056068972019233,0.8877289053533017
1731474161.6698837,-0.24439649283885956,0.7247949242591858,-9.980547904968262,-0.01994720278672479,-0.11560254576125777,0.001822523642151637,1.28631539071452,4.022198244485577,0.8878164903091639
1731474161.7198694,0.5133981704711914,1.6614665985107422,-9.919093132019043,-0.021030905994780764,-0.1154894910607779,0.001820647681517322,1.285803587028617,3.987753081243595,0.8876490731592687
1731474161.769799,0.2999531030654907,1.1952157020568848,-10.016883850097656,-0.02211962056145822,-0.11532219836064851,0.001817174447597025,1.2860478505370327,3.953142964614954,0.8877297775555547
1731474161.8197489,0.4892212450504303,1.505788803100586,-9.938413619995117,-0.023218879307927057,-0.11512166861327043,0.00181379686650157,1.286236017213449,3.918202797903603,0.8878151000947354
1731474161.8706505,-0.516516387462616,-0.022402653470635414,-9.965340614318848,-0.024341753864268605,-0.11491693623972798,0.0018122494382149632,1.2857838275496893,3.8823114664945395,0.8876475376989114
1731474161.9206002,-0.9550522565841675,-0.21024510264396667,-10.16689682006836,-0.025504449952860678,-0.11473868480671588,0.0018141287696302219,1.2854151247163352,3.846632930913084,0.8875418919118211
1731474161.9705899,-0.7593311667442322,-0.04050649330019951,-10.03207015991211,-0.0267192625585988,-0.11461054843433108,0.0018203388114089577,1.2853791995307096,3.8107909150068107,0.887613168666118
1731474162.0203743,-0.5015047788619995,0.2697582244873047,-10.028075218200684,-0.027990097593878847,-0.11454452822154224,0.0018305574802648652,1.2849304916023307,3.7750921296993627,0.8875173072395902
1731474162.0706327,-0.6376875638961792,0.10086476802825928,-9.939265251159668,-0.02931302369294078,-0.11454240332553249,0.001843496173139764,1.284742310222015,3.738313391768789,0.8875871357931123
1731474162.1203902,-0.4812456965446472,0.29825708270072937,-9.977543830871582,-0.030678807856414043,-0.11459890441661838,0.0018576697883658602,1.284482068192847,3.701769828265683,0.8876605865790884
1731474162.1703827,-0.5795964598655701,0.24074093997478485,-9.958183288574219,-0.032074627933312186,-0.11470382488284916,0.0018719376672386245,1.284145160373559,3.665036075037429,0.8877384473800547
1731474162.2203078,-0.5795964598655701,0.24074093997478485,-9.958183288574219,-0.03348496627670959,-0.11484339182535186,0.00188565100103405,1.2838529034647221,3.627686514049813,0.8875950750176649
1731474162.2203078,-0.508014976978302,0.46040502190589905,-9.957934379577637,-0.0348921514885563,-0.11500139600779011,0.0018986331596073443,1.2838500896000293,3.627439318688354,0.8875955492862706
1731474162.2702415,-0.508804440498352,0.4490143060684204,-9.982624053955078,-0.03627692424959156,-0.11516049433273799,0.0019111244648407355,1.283382644477519,3.590171789039698,0.8876691404449006
1731474162.320172,-0.48865872621536255,0.4541880786418915,-9.978496551513672,-0.037619217422016474,-0.1153036852770267,0.001923649948941956,1.2828200641209482,3.5523488143270683,0.8877480247883789
1731474162.370213,-0.5410983562469482,0.4174778163433075,-9.919493675231934,-0.03889880563117671,-0.11541518432317557,0.001936905308538636,1.2827358072852542,3.514253499467143,0.8875934295185758
1731474162.4201007,-0.47556886076927185,0.47924375534057617,-9.938119888305664,-0.040095633294356565,-0.11548055592447784,0.001951851060562677,1.2820533430032466,3.475702239867835,0.8876678621384899
1731474162.47022,-0.47460830211639404,0.529241681098938,-10.030539512634277,-0.041190088674014254,-0.1154867876850213,0.001969820333151083,1.2812756326343844,3.4371804112457607,0.887746549933016
1731474162.5199964,-0.4850676357746124,0.5224998593330383,-9.974165916442871,-0.04216339553973579,-0.11542264643680139,0.0019922780885025288,1.2811404299398492,3.398369423658921,0.887590905437331
1731474162.5699408,-0.48955443501472473,0.4771479666233063,-9.996931076049805,-0.04299792306775827,-0.11527898060342015,0.0020204504369149747,1.28022694609493,3.3589663425421397,0.8876658034955485
1731474162.6199024,-0.4665283262729645,0.4885329604148865,-9.979948997497559,-0.043677305747982814,-0.11504861052001446,0.002055230655409865,1.2801012743500622,3.3194672163763843,0.8875414697089141
1731474162.669962,-0.4665283262729645,0.4885329604148865,-9.979948997497559,-0.04418655288833134,-0.11472598791655789,0.0020972722744047037,1.2790580807340444,3.2799928481169114,0.8874612727267489
1731474162.669962,-0.46965348720550537,0.5105751752853394,-9.998185157775879,-0.04451221000660232,-0.11430698674864906,0.0021470566149792225,1.2790513559826824,3.2797469986485135,0.887461669755919
1731474162.7198188,-0.4509274959564209,0.5246589779853821,-10.004263877868652,-0.04464247614488393,-0.1137888921534636,0.002204877374204923,1.277884935112411,3.239061419300025,0.887529979384689
1731474162.7698064,-0.4414564073085785,0.5083518624305725,-9.974061965942383,-0.04456728838236215,-0.11317044994495137,0.002270782195370804,1.2766462412735022,3.199379095617525,0.8876016054557351
1731474162.8197534,-0.41812509298324585,0.5166147947311401,-9.975350379943848,-0.04427844635432279,-0.11245183200403522,0.00234461276715574,1.2767601063833907,3.1586408317630723,0.887497273008451
1731474162.8696876,-0.38708367943763733,0.5227304100990295,-9.974908828735352,-0.04376978574207949,-0.1116345046896214,0.002426152601192146,1.2754387909139178,3.117865117821264,0.8875692998378192
1731474162.9196005,-0.36882284283638,0.5231413841247559,-9.979649543762207,-0.043037384858908796,-0.11072110527445635,0.002515226264253109,1.2741758691402434,3.076740019591175,0.8874775777826556
1731474162.970591,-0.3273898661136627,0.5379171371459961,-10.020581245422363,-0.042079776193553284,-0.1097153645563259,0.002611660685613253,1.2725995770358103,3.034346046926504,0.8875524256299842
1731474163.0204976,-0.3707225024700165,0.505232036113739,-9.976547241210938,-0.0408980786168269,-0.10862201966167623,0.0027151485493704464,1.2709498443205363,2.9925165634460353,0.8876325076635857
1731474163.070438,-0.3476724922657013,0.5362069010734558,-9.949875831604004,-0.03949592166991832,-0.10744666797498025,0.0028252116707671135,1.2692020509474171,2.950471748855045,0.887719390725654
1731474163.1203568,-0.3835640251636505,0.5246970653533936,-9.991329193115234,-0.03787915235875193,-0.10619561192787108,0.002941371885561833,1.2698042783037966,2.90814971810227,0.8875748186626975
1731474163.1703653,-0.3614824414253235,0.5287243723869324,-9.99287223815918,-0.03605547341887359,-0.10487576294463011,0.00306326651709509,1.2680710128423842,2.865562555046719,0.8876611653501536
1731474163.2202575,-0.377625972032547,0.5039097666740417,-9.963214874267578,-0.03403413100253724,-0.1034945365448198,0.0031905632384189165,1.2672308993727535,2.822950655850258,0.8875414259663851
1731474163.2702463,-0.3766827881336212,0.5053097605705261,-10.006082534790039,-0.031825666698755056,-0.10205966193936084,0.003322889262315173,1.2653873534501272,2.7799469822064387,0.8876291466879609
1731474163.3201778,-0.37935033440589905,0.516689121723175,-9.970401763916016,-0.02944169542235127,-0.10057897828244654,0.003459832239977027,1.2643996599004848,2.7364489855113594,0.8875257633352985
1731474163.3702471,-0.40080633759498596,0.4964871406555176,-10.002296447753906,-0.026894676630204062,-0.09906031564618556,0.0036009202758639286,1.2624495359259131,2.6928441466801925,0.8876170116332434
1731474163.4201424,-0.38300633430480957,0.5083088278770447,-10.015450477600098,-0.02419768036017925,-0.0975114274786999,0.0037455707133839528,1.2604336638368212,2.6489497681376264,0.8877175224460906
1731474163.470025,-0.443865567445755,0.4779611825942993,-10.014248847961426,-0.021364147324331523,-0.09593989650167975,0.003892981402724263,1.2610514179023704,2.605327078226061,0.8875875466412227
1731474163.5200374,-0.3783123791217804,0.5307408571243286,-9.943964958190918,-0.018407646699914043,-0.09435304406921166,0.004042083931239904,1.259138042661296,2.560920916772128,0.8876910782411459
1731474163.569949,-0.4149475693702698,0.529784619808197,-9.995633125305176,-0.015341725557372997,-0.09275796223299573,0.004191730499226144,1.2594725823223307,2.5165301453126983,0.8875775893404212
1731474163.6199312,-0.4006003737449646,0.5575022101402283,-9.984058380126953,-0.012179887631219077,-0.09116169770522824,0.004340913501688373,1.2592977812937154,2.471671584969695,0.887507247085944
1731474163.6698508,-0.4396592080593109,0.5405032634735107,-9.956144332885742,-0.008935537333037952,-0.08957143847367127,0.004488796464156458,1.257594678014122,2.426728617862133,0.8876121763111193
1731474163.719805,-0.4295702874660492,0.5543187260627747,-9.9859037399292,-0.005621800198292173,-0.08799456928244882,0.004634710345324253,1.2558701054986177,2.3814764358897715,0.8877286803719111
1731474163.7697442,-0.42668965458869934,0.5741111636161804,-9.961564064025879,-0.0022513409135457513,-0.08643864164691088,0.004778195921950251,1.2541355116376727,2.336001407735118,0.8878569413699521
1731474163.8196783,-0.4360142648220062,0.5671287775039673,-9.956544876098633,0.0011637101305039816,-0.08491137027659271,0.004919019214463033,1.2554100053734893,2.290767293470852,0.8877027590369102
1731474163.8696399,-0.4315682351589203,0.557338535785675,-9.982433319091797,0.0046117608168573035,-0.08342062718732908,0.00505718386062934,1.2538846935869497,2.2446884765390283,0.8878353303264903
1731474163.9195507,-0.42473089694976807,0.5397765636444092,-10.009066581726074,0.008081756339793952,-0.08197431743190464,0.005192865474082936,1.2523869037984947,2.198759299263751,0.8879796206431091
1731474163.9695463,-0.42673540115356445,0.5290296673774719,-9.97465991973877,0.011563153457154172,-0.08058014019806822,0.005326218507305042,1.2535986060602817,2.152539991416556,0.887793431715615
1731474164.0205133,-0.41879597306251526,0.5388911366462708,-9.974834442138672,0.01504586984786968,-0.07924535030861593,0.005457268412800744,1.2522809535900201,2.1050609299268195,0.8879442260726064
1731474164.070491,-0.38974595069885254,0.5596628785133362,-10.005626678466797,0.018520213401996853,-0.07797664630029917,0.005585968540998072,1.2510316849424696,2.0583225705221544,0.8881059738278756
1731474164.1204576,-0.38974595069885254,0.5596628785133362,-10.005626678466797,0.021976749511180775,-0.07678022650047475,0.00571219926572737,1.2521676320965762,3.6464758123661194,0.8878855509581397
1731474164.1204576,-0.38453778624534607,0.5208667516708374,-9.979079246520996,0.025406149217797422,-0.07566186752023442,0.005835668254034832,1.252160607914999,3.6462438578482526,0.8878865859278854
1731474164.1704335,-0.3518224358558655,0.524154782295227,-9.996140480041504,0.02879909327967477,-0.07462683561451702,0.005955909262690624,1.2527341025291248,4.386335518486993,0.8877479510601972
1731474164.2203336,-0.34355854988098145,0.5191760063171387,-10.006608963012695,0.0321461770756077,-0.07367968321257964,0.006072359012706038,1.2518662481087297,4.35672857159559,0.8879028209027116
1731474164.270315,-0.3270731568336487,0.5440074801445007,-9.949302673339844,0.035437776677815135,-0.07282414685620212,0.0061843965564258125,1.2520628869858448,4.791806377900255,0.8877725695945594
1731474164.3202639,-0.3096349239349365,0.5479848384857178,-10.00139331817627,0.0386639421523195,-0.07206322722085885,0.006291425761512087,1.2513943348261027,4.765269327578073,0.8879341237344162
1731474164.3701947,-0.3083556592464447,0.5252760648727417,-10.021833419799805,0.04181434765328917,-0.07139933271628142,0.006392930573288797,1.2508261000215763,4.7385749761952765,0.8881112820431335
1731474164.4201214,-0.32990550994873047,0.5256478190422058,-9.975671768188477,0.04487832661943052,-0.07083431784078512,0.006488354660348046,1.2503639197471856,4.711610453037072,0.8883051084932466
1731474164.4701505,-0.3092363774776459,0.5399481058120728,-9.969268798828125,0.047845033651919486,-0.07036942338191166,0.006577042181708456,1.2513704045417293,5.019337646871498,0.8880508336033965
1731474164.520042,-0.2887982428073883,0.5596032738685608,-9.972800254821777,0.050703620534266115,-0.07000529560553115,0.006658411897897591,1.2511906852447323,4.994655853307021,0.8882438630873315
1731474164.5699935,-0.3595009446144104,0.7189980745315552,-9.982955932617188,0.05344334519646557,-0.06974228678635017,0.00673211626235874,1.251188658118345,5.201225033526689,0.8880256369607257
1731474164.6199439,-0.6427477598190308,1.415651559829712,-9.925313949584961,0.05605405941127017,-0.06958179673226964,0.006798074399758538,1.2511958004583734,5.177737741045217,0.8882221405742146
1731474164.6699345,-0.6165494918823242,0.5551245808601379,-9.866538047790527,0.05852756327029736,-0.06952871300048791,0.006856634555815682,1.251347216530582,5.153949290116058,0.8884368865813623
1731474164.719879,-1.4786083698272705,0.4926488995552063,-10.089213371276855,0.060859897178456565,-0.0695919588088722,0.006908790595604361,1.2516286082659458,5.315282562276618,0.8881650136373231
1731474164.7698503,-0.5003513693809509,0.51936936378479,-9.853687286376953,0.06305395604832784,-0.06978151222364128,0.006956001383306911,1.2520214404545789,5.292661795004568,0.8883784818797722
1731474164.8198128,0.04512631148099899,0.05102386325597763,-10.057523727416992,0.06511926693829528,-0.07010492062241912,0.0069998307938854195,1.2514677898777709,5.409289022144631,0.888143541806551
1731474164.869673,0.020476045086979866,0.24266284704208374,-10.213884353637695,0.06706677715523665,-0.07056512982861012,0.007041563341348055,1.2520186591521867,5.38748579463022,0.8883572011830311
1731474164.9197352,-0.06659018248319626,0.2546806335449219,-9.995284080505371,0.06890303200301298,-0.07115927346013723,0.0070814135143225584,1.2514222431738964,5.474680992641412,0.888143583981296
1731474164.9696233,-0.22866807878017426,0.2495405673980713,-9.991610527038574,0.07062855258141967,-0.07187891374744479,0.0071181107985747285,1.2521427057639007,5.453250586505816,0.8883603993714317
1731474165.0195842,-0.17199070751667023,0.28089892864227295,-9.977840423583984,0.07223938100895265,-0.0727112465389142,0.007149600233245099,1.2530451495808845,5.43155487175118,0.8885959560394872
1731474165.0705101,-0.17834487557411194,0.4154818058013916,-9.964560508728027,0.0737288613226774,-0.07364026150131339,0.007173915102087011,1.252418853613085,5.506278918301028,0.8883187623539621
1731474165.1204085,-0.16542883217334747,0.4964807629585266,-9.969206809997559,0.07508854462768225,-0.07464807001099694,0.007189518664481578,1.253504558375209,5.485149878502348,0.8885515000743357
1731474165.1703877,-0.23587629199028015,0.5165247917175293,-9.943984985351562,0.07630861235984027,-0.07571648892184747,0.007195392883626156,1.2527287091168346,5.540104730896042,0.8883002775359654
1731474165.220306,-0.22092512249946594,0.4952094256877899,-9.973434448242188,0.07737840877365308,-0.07682825647001364,0.007191077051898394,1.2539893100353698,5.51910387087409,0.8885337075857179
