Timestamp,IMU_Linear_Acc_X,IMU_Linear_Acc_Y,IMU_Linear_Acc_Z,Filtered_X,Filtered_Y,Filtered_Z,Pose_X,Pose_Y,Pose_Z
1731474136.2091148,-0.33983662724494934,0.4336758553981781,-9.985615730285645,-1.3320518837220082e-05,-5.764022826773506e-05,2.7652353703219107e-05,1.9422764772610985,6.457641846130718,0.695647675456117
1731474136.25901,-0.34130141139030457,0.4240894317626953,-9.983531951904297,-2.2323844053383992e-05,-0.000110459437640222,5.264271276746203e-05,2.034631232102934,6.458122424849132,0.7322489547644295
1731474136.3090398,-0.3349152207374573,0.42120271921157837,-9.987563133239746,-2.7918753683276636e-05,-0.00014578174787160437,6.951257567454659e-05,2.034762013760013,6.4587760449809375,0.7323044746319607
1731474136.3588867,-0.27416113018989563,0.43637028336524963,-9.988398551940918,-3.4432668344342446e-05,-0.00018732290066208175,8.969712947732517e-05,2.1083034849638715,6.459698575706825,0.7587941227234704
1731474136.408835,-0.27416113018989563,0.43637028336524963,-9.988398551940918,-4.2362262968717174e-05,-0.00023514057304944687,0.00011344352687149467,2.108376277870488,6.460093431381987,0.7588248874048641
1731474136.408835,-0.46316227316856384,0.3740302622318268,-9.99268913269043,-5.2659750103345016e-05,-0.0002892192225450978,0.00014092660399493172,2.1084215730066,6.460339128968739,0.7588440306485519
1731474136.4588637,-0.7430660724639893,0.23497319221496582,-10.004386901855469,-6.59441446687232e-05,-0.0003491798651682332,0.00017222258157358636,2.1094737667756216,6.466046617817472,0.7592887308974372
1731474136.5088224,-0.1835746020078659,0.5284029841423035,-9.957141876220703,-8.107471496784392e-05,-0.0004137768588073538,0.0002072969279693335,2.1155034984607557,6.4987541508524584,0.7618374879690425
1731474136.5587819,-0.1835746020078659,0.5284029841423035,-9.957141876220703,-9.525261519320693e-05,-0.0004811215121826925,0.0002461101569586017,2.121543158825566,6.531515617837232,0.7643911025927435
1731474136.5587819,-0.32869449257850647,0.37620213627815247,-10.047292709350586,-0.0001060163166631252,-0.0005496891452188748,0.00028874411684472125,2.1215854576374875,6.531745063359032,0.764408989386729
1731474136.6086814,-0.32869449257850647,0.37620213627815247,-10.047292709350586,-0.00011245996393942611,-0.0006186633894024387,0.00033521506910044675,2.1904368573885895,6.564179465895097,0.7894067224953187
1731474136.6086814,-0.3212164640426636,0.5026140809059143,-9.98022747039795,-0.00011473828023828871,-0.0006873943141911072,0.0003850972281532912,2.1904694605654678,6.564378128850761,0.7894205111586998
1731474136.6586556,-0.3097893297672272,0.373074471950531,-9.942727088928223,-0.00011342205873403116,-0.0007551711868803094,0.000437542891080425,2.1958238900437084,6.597004525918789,0.7916856339508176
1731474136.7085814,-0.36415764689445496,0.45885133743286133,-10.01577377319336,-0.00010933248611142834,-0.0008213961231275819,0.0004917040569143237,2.2452060309436246,6.629655503641915,0.8097710849284256
1731474136.7586725,-0.3174515664577484,0.43460458517074585,-9.97563648223877,-0.00010342998159216251,-0.0008856166761497231,0.0005469577083744219,2.2499225052809035,6.662466274702495,0.8118082414461933
1731474136.808501,-0.3174515664577484,0.43460458517074585,-9.97563648223877,-9.670515217216224e-05,-0.0009475328421314762,0.0006028233608794289,2.284962433769432,6.695122300928068,0.8248391962390066
1731474136.808501,-0.37348827719688416,0.42250683903694153,-9.971975326538086,-9.017908918160602e-05,-0.0010070283734725253,0.0006589369804775919,2.284986954336181,6.695318031021833,0.8248501512022449
1731474136.858473,-0.3333224654197693,0.4560640752315521,-10.020543098449707,-8.484004629393809e-05,-0.0010641215170139546,0.0007150849538095721,2.2890620773258123,6.727846334221481,0.8266717145039879
1731474136.9084017,-0.3716474175453186,0.4254069924354553,-9.993083000183105,-8.148560146765155e-05,-0.0011189510594106584,0.0007710889947490827,2.3166589102424324,6.7614312821777585,0.8368090146056001
1731474136.9583972,-0.3716474175453186,0.4254069924354553,-9.993083000183105,-8.061814736589708e-05,-0.0011717841661684184,0.0008266522595070131,2.320206833721859,6.7933326856479095,0.8384134100073595
1731474136.9583972,-0.30855798721313477,0.4505065679550171,-9.975634574890137,-8.242614561851749e-05,-0.0012229611180159467,0.0008813728132520637,2.320228537243465,6.793527831117072,0.8384232308071791
1731474137.0092394,-0.33945232629776,0.44332513213157654,-10.006049156188965,-8.692512908785138e-05,-0.0012728840647445079,0.0009348545612063322,2.3410255646866482,6.826575340656665,0.8462933740622327
1731474137.0592687,-0.30693483352661133,0.45724576711654663,-9.974886894226074,-9.420592750653408e-05,-0.0013220972526773226,0.0009867485497628134,2.344157168727551,6.85948376500145,0.8477725210017586
1731474137.1091747,-0.3404017686843872,0.42924872040748596,-9.97957992553711,-0.00010456742248088276,-0.0013713349753019719,0.00103675676615835,2.3598921739523524,6.892034079871513,0.8536412017981994
1731474137.159192,-0.3404017686843872,0.42924872040748596,-9.97957992553711,-0.00011848014030645044,-0.0014214543276957511,0.001084685916101731,2.362615723882089,6.924734856421832,0.854960481818409
1731474137.159192,-0.33027854561805725,0.4503231644630432,-9.993732452392578,-0.0001364700632093895,-0.001473316558168239,0.001130481086467819,2.362635114561918,6.924967674016427,0.8549698848511095
1731474137.2090607,-0.33027854561805725,0.4503231644630432,-9.993732452392578,-0.00015904653289055957,-0.0015277618558031442,0.001174166309936519,2.3653316210035444,6.957344220540219,0.8562790335315911
1731474137.2090607,-0.3312438130378723,0.4298307001590729,-9.984983444213867,-0.00018671922759266491,-0.0015856700999378414,0.0012157602694166125,2.3653482826552272,6.957544277404539,0.8562871322708078
1731474137.2591295,-0.3312438130378723,0.4298307001590729,-9.984983444213867,-0.00022002147003744526,-0.001647943413106206,0.0012552580835123797,2.3783824841750216,6.990165562406634,0.8609941784654228
1731474137.2591295,-0.32849225401878357,0.44427555799484253,-9.991825103759766,-0.000259502777575515,-0.0017154098462244176,0.0012926638914904864,2.3783963657053526,6.99035821620316,0.8610010283657179
1731474137.308942,-0.3466336131095886,0.43178790807724,-9.988767623901367,-0.0003057056906569432,-0.0017887875959391477,0.0013279997214815534,2.3807329670158426,7.022789598660499,0.8621558642808491
1731474137.3589773,-0.3226473927497864,0.4400995373725891,-9.986501693725586,-0.0003591259803663101,-0.0018687104715116494,0.0013612872158688047,2.39053749649586,7.055609610147987,0.8657061795109883
1731474137.4088914,-0.3401765823364258,0.42628738284111023,-10.006254196166992,-0.00042019128419982176,-0.0019557300738003067,0.0013925304337468799,2.3925465982500382,7.088191180410608,0.8667256587568186
1731474137.4588525,-0.3401765823364258,0.42628738284111023,-10.006254196166992,-0.0004892644808076828,-0.002050279428019445,0.00142166527516632,2.3996616271740256,7.120913667320446,0.8693005032238019
1731474137.4588525,-0.32638588547706604,0.4399968981742859,-9.992179870605469,-0.0005666312283187433,-0.002152636445338802,0.0014484884443303505,2.3996718464842255,7.121106608879856,0.8693058308334836
1731474137.50879,-0.3352645933628082,0.4304140508174896,-9.980989456176758,-0.0006525023811805913,-0.002262936505382136,0.0014726736426047833,2.4013849248616226,7.15346208570394,0.8702011414996426
1731474137.5588923,-0.3352645933628082,0.4304140508174896,-9.980989456176758,-0.0007470432505377599,-0.002381213236987731,0.001493893690426836,2.4031210063580404,7.186279342469263,0.8711131077752962
1731474137.5588923,-0.33292460441589355,0.43939563632011414,-9.997173309326172,-0.0008503758806967718,-0.00250741284732965,0.0015119224228168236,2.403131452639354,7.186476898979926,0.8711186096417035
1731474137.6086698,-0.3363683819770813,0.4308415949344635,-9.980420112609863,-0.0009625633039021251,-0.0026414040496124023,0.0015266334896263732,2.409037613545159,7.219146370819296,0.8729969369208579
1731474137.6586838,-0.3363683819770813,0.4308415949344635,-9.980420112609863,-0.0010836031953247649,-0.0027829939870173777,0.0015379715145714887,2.4105226808048887,7.251520936346531,0.8737775296347793
1731474137.6586838,-0.3302421271800995,0.4421899914741516,-9.979595184326172,-0.0012134262445052683,-0.0029319297907321054,0.0015459767154585194,2.4105317109422746,7.251717950879464,0.8737822919886342
1731474137.7086177,-0.3302421271800995,0.4421899914741516,-9.979595184326172,-0.001351911894413469,-0.003087922423050657,0.001550820401888552,2.414466078495111,7.28419175850074,0.8751484634887493
1731474137.7086177,-0.3371421694755554,0.43059173226356506,-9.996553421020508,-0.00149891425370439,-0.0032506923746701212,0.0015527890811182254,2.41451545704552,7.2854990082136215,0.8751757445516326
1731474137.758543,-0.3301190137863159,0.4375700056552887,-9.977168083190918,-0.0016542641516660074,-0.0034199706915992983,0.0015522246198812874,2.415697291225047,7.316835212063878,0.8758316503352723
1731474137.8085432,-0.34019094705581665,0.43010377883911133,-9.982741355895996,-0.0018177521119583195,-0.003595460452265109,0.0015494871815052462,2.416927436890646,7.349557143263997,0.8765205582862398
1731474137.8584952,-0.33192288875579834,0.43809831142425537,-9.991263389587402,-0.0019891141945985033,-0.003776814745115958,0.0015449652628998299,2.418145209760327,7.382066885145871,0.8772090465248951
1731474137.9083514,-0.34595686197280884,0.4304082989692688,-9.981121063232422,-0.002168018239901571,-0.003963638651769803,0.001539070669022685,2.4203763754223737,7.415289716811031,0.8778652597867413
1731474137.9583144,-0.3420066237449646,0.443705290555954,-9.989968299865723,-0.0023540390553844874,-0.004155502276849661,0.0015322108197924214,2.4213335885769918,7.447219384262261,0.8784430956776468
1731474138.0092392,-0.34163692593574524,0.42966023087501526,-9.989768028259277,-0.0025466303769267574,-0.004351961299732726,0.0015247725573706156,2.4223108446533304,7.480483027871321,0.8777138474090891
1731474138.0592258,-0.33824580907821655,0.44014066457748413,-9.97556209564209,-0.0027451258931538063,-0.004552569213076159,0.0015171155963023886,2.4230327835782766,7.513050266903219,0.8780907736504386
1731474138.1091983,-0.341629296541214,0.4363786280155182,-9.98953914642334,-0.002948771940697128,-0.00475687721688814,0.0015095893981942408,2.4237488451413864,7.545662405316851,0.8784721450576936
1731474138.1591976,-0.3402191698551178,0.43175989389419556,-9.978646278381348,-0.003156756211311455,-0.0049644352142845195,0.0015025594244326979,2.424455946550797,7.5782018821425545,0.878856573973884
1731474138.209059,-0.3476492762565613,0.432100772857666,-9.985774040222168,-0.0033682136400288326,-0.0051747810620580035,0.00149640872098883,2.4251530021091585,7.610639885053282,0.8792436828742982
1731474138.2590916,-0.3476492762565613,0.432100772857666,-9.985774040222168,-0.0035822116100055245,-0.005387415573913581,0.0014915258203181518,2.4253868598122015,7.643288477917935,0.8785237712067469
1731474138.2590916,-0.33999305963516235,0.4344528317451477,-9.983550071716309,-0.0037977357916043524,-0.005601793766494182,0.0014882886903786457,2.4253901288795134,7.643488297457262,0.8785255003159077
1731474138.3088815,-0.34422069787979126,0.4327370822429657,-9.9750337600708,-0.004013709116502219,-0.005817338295106667,0.0014870606502274187,2.4259112712142805,7.6756371685506855,0.878805586149751
1731474138.3589008,-0.3437175154685974,0.44072937965393066,-9.988846778869629,-0.00422903083653155,-0.006033461581186648,0.0014882108075623657,2.4264280108779,7.708131634467755,0.8790925081207032
1731474138.4087975,-0.34332624077796936,0.4315757751464844,-9.98684024810791,-0.0044425976347874305,-0.006249590749778589,0.0014921133631813877,2.4257071130856613,7.740775785255293,0.8779845593214513
1731474138.458818,-0.33988749980926514,0.436118483543396,-9.992659568786621,-0.004653314248013952,-0.006465179459678902,0.0014991007612812153,2.426020544066418,7.773169213823263,0.8781553891924331
1731474138.5087607,-0.33988749980926514,0.436118483543396,-9.992659568786621,-0.004860116646733256,-0.006679701891909656,0.0015094119912090135,2.426322101235861,7.805542063795572,0.8783299387827131
1731474138.5087607,-0.3460216820240021,0.428290456533432,-9.99396800994873,-0.005061994409755502,-0.006892645298844041,0.0015231640074598917,2.4263239722339836,7.805747002899319,0.8783310560328115
1731474138.5588555,-0.32766076922416687,0.4385663866996765,-9.993430137634277,-0.005258001996468002,-0.0071035013066483325,0.0015403432567479057,2.425497959101684,7.838199876054522,0.8769930553130828
1731474138.6086557,-0.3306537866592407,0.4353063106536865,-9.987985610961914,-0.005447294319147489,-0.007311765490562333,0.0015608179036185363,2.425635588320336,7.870915478827731,0.8770493523161592
1731474138.6586676,-0.3333236277103424,0.4373985528945923,-9.995209693908691,-0.00562918675974373,-0.007516958841280589,0.0015843664002932387,2.4248582830151357,7.903066571029338,0.8755711845791267
1731474138.7086084,-0.3319365978240967,0.4339129328727722,-9.97912311553955,-0.0058031768680519725,-0.007718645279636829,0.0016107102286061733,2.4240224625369198,7.935513145475283,0.8752996909115001
1731474138.758562,-0.333381712436676,0.4398839473724365,-9.9823637008667,-0.005968920011714255,-0.007916431225242887,0.0016395599066016744,2.4239059127879408,7.967742668544682,0.8752384399007576
1731474138.8085184,-0.3302189111709595,0.438150554895401,-9.991358757019043,-0.006126204925794855,-0.008109969069023221,0.0016706642066122756,2.4237738094574777,8.000082049094427,0.8751810703319866
1731474138.8586066,-0.3308621346950531,0.44120118021965027,-9.983616828918457,-0.006274944335550946,-0.00829897217747545,0.0017038141297745953,2.4236257880758947,8.032488560463472,0.8751277790976822
1731474138.8586066,-0.3308621346950531,0.44120118021965027,-9.983616828918457,-0.0064151708753875354,-0.008483229010928631,0.001738819516234299,2.4235047499077216,8.042666797680383,0.8749548553553917
1731474139.2399957,-0.3376094102859497,0.43933042883872986,-9.987139701843262,-0.006547022021738943,-0.0086626083372658,0.001775510245212757,2.4215795672152276,8.278498877280937,0.8745887584841103
1731474139.2900891,-0.3423849642276764,0.43753117322921753,-9.985186576843262,-0.006670697527263002,-0.008837049994757507,0.0018137425896941973,2.4212822247027153,8.310716740549246,0.8745866148823179
1731474139.3398674,-0.34360605478286743,0.4366273581981659,-9.992426872253418,-0.0067863953447439024,-0.009006540608625973,0.0018533839928236416,2.4210096993226586,8.342615397602405,0.8744902933461809
1731474139.389985,-0.3389294445514679,0.4368346929550171,-9.979833602905273,-0.0068942623075189755,-0.009171087634133747,0.0018942947545317365,2.420677824631901,8.374801009733433,0.8744957285082825
1731474139.4397805,-0.3389294445514679,0.4368346929550171,-9.979833602905273,-0.006994390106087656,-0.009330704355160577,0.0019363395615870325,2.4203246882413607,8.407304303844304,0.874506114910571
1731474139.4397805,-0.3331068754196167,0.42958614230155945,-9.990646362304688,-0.0070868473649911366,-0.009485399161712862,0.0019794211068295832,2.4203230807393585,8.407448521744298,0.8745061720994536
1731474139.4898527,-0.335146963596344,0.4248596131801605,-9.98840618133545,-0.007171720251867214,-0.00963514647186799,0.002023476196441361,2.4199643734933702,8.438843041300116,0.8745210647404154
1731474139.539713,-0.3328384459018707,0.4296468496322632,-9.984148025512695,-0.007249142312148288,-0.009779841344497008,0.0020684350503740274,2.419863989519749,8.470583865068535,0.8744167432518223
1731474139.5897124,-0.3308675289154053,0.4361976087093353,-9.986226081848145,-0.007319308902371101,-0.009919285197589738,0.002114208625574074,2.4194799939397535,8.502627091986447,0.8744382554233663
1731474139.639718,-0.3300713300704956,0.44613346457481384,-9.986385345458984,-0.00738248682578818,-0.010053238235567072,0.0021607051601480413,2.418824749323484,8.534591199630599,0.8743569125623855
1731474139.6895943,-0.3355879783630371,0.4400116503238678,-9.9830961227417,-0.0074390184370214585,-0.010181508358842711,0.0022078391049670026,2.4183737237145024,8.566484303257823,0.8743848038462979
1731474139.7396622,-0.3371192514896393,0.4425605237483978,-9.980547904968262,-0.007489301358109256,-0.01030400943850989,0.0022555397810582163,2.4179021489583903,8.598481177220963,0.8744184049895254
1731474139.789675,-0.33719924092292786,0.4419511556625366,-9.980554580688477,-0.007533747523724134,-0.010420765122252347,0.002303773413422508,2.4174145166359255,8.63027187186362,0.8744574966092838
1731474139.8395355,-0.3354564905166626,0.445912629365921,-9.973817825317383,-0.007572752693594505,-0.010531895631114223,0.002352568391969083,2.41690583257711,8.662177187343058,0.8745025845548142
1731474139.8896139,-0.3405797779560089,0.44538143277168274,-9.989174842834473,-0.007606687482451859,-0.010637617494167015,0.0024020269746073313,2.417088072052493,8.693721959438513,0.8743835315811286
1731474139.9394777,-0.33414551615715027,0.4462050497531891,-9.99086856842041,-0.007635894241241627,-0.010738248258175884,0.002452293630395431,2.416590772045948,8.725521893307144,0.8744317901530743
1731474139.9894018,-0.3440423011779785,0.44702938199043274,-9.984944343566895,-0.007660682326365605,-0.010834203386223304,0.0025034863529296066,2.416499559445137,8.756877323684341,0.8743416862155915
1731474140.0392613,-0.32870543003082275,0.43953606486320496,-9.982325553894043,-0.007681327615305022,-0.010925980056290164,0.0025556633363493677,2.4159949492918678,8.788563078036267,0.8743938786440971
1731474140.089296,-0.34796392917633057,0.4402678906917572,-9.993621826171875,-0.007698079334163952,-0.011014120525463127,0.0026088413153625093,2.4154678240646787,8.82042108829811,0.8744528924393046
1731474140.1402464,-0.33399584889411926,0.432169646024704,-9.98773193359375,-0.007711159328916955,-0.011099158238557857,0.0026629988736633445,2.414906800257759,8.853078298718911,0.8745203504868876
1731474140.1902158,-0.339699923992157,0.42898687720298767,-9.98838996887207,-0.007720752956302243,-0.011181559068865705,0.0027180555456300434,2.4151722351082032,8.883792374865386,0.8743967180660324
1731474140.2401154,-0.34191736578941345,0.42445263266563416,-9.988052368164062,-0.0077270116309800544,-0.01126166298053315,0.002773871864399496,2.4146448488247905,8.915450419127716,0.8744639776010715
1731474140.2900033,-0.32970547676086426,0.4250764548778534,-9.985917091369629,-0.007730063133763107,-0.01133963781980634,0.002830269346688205,2.414629103159132,8.946452402795531,0.8743690307088328
1731474140.3400288,-0.32910072803497314,0.4251329004764557,-9.99003791809082,-0.007730039995538035,-0.01141546259986898,0.002887046135922866,2.41422599319609,8.977649692873676,0.8743134175087472
1731474140.3900661,-0.3384392559528351,0.42610400915145874,-9.983735084533691,-0.007727125485490637,-0.011488941800070566,0.002943984939772075,2.4136724285753663,9.009144809880373,0.8743813167565899
1731474140.439955,-0.3377346694469452,0.435489296913147,-9.978569030761719,-0.007721557659550203,-0.011559744877085738,0.0030008701471394947,2.413095036305517,9.04085722527534,0.8744572502088266
1731474140.4899478,-0.33423569798469543,0.4322376847267151,-9.991771697998047,-0.007713588281160019,-0.011627468074042344,0.0030575171936493813,2.4134466407004447,9.071791933655064,0.8744716304338718
1731474140.5398195,-0.3368098735809326,0.4413033127784729,-9.979137420654297,-0.007703460247991146,-0.011691701825260511,0.0031137801250246096,2.412918057445958,9.10282633072101,0.8745575053024006
1731474140.5896668,-0.32903242111206055,0.43979355692863464,-9.979314804077148,-0.007691418133198321,-0.011752086015561531,0.003169545238436494,2.412367537418619,9.134009028517166,0.8746515926141664
1731474140.6397073,-0.33598414063453674,0.4474576413631439,-9.982017517089844,-0.007677727290646918,-0.011808355316459365,0.0032247493029160775,2.411792594191232,9.16545744632914,0.874754564025241
1731474140.6897366,-0.341476172208786,0.44930747151374817,-9.990230560302734,-0.007662674548169921,-0.011860380368984517,0.00327938771203549,2.4123679008515495,9.196075838376021,0.8747368511952781
1731474140.7397206,-0.3397352695465088,0.44789478182792664,-9.97748851776123,-0.007646532475092837,-0.011908199903898154,0.003333483281383619,2.411832469061742,9.22743614654896,0.8748476957442403
1731474140.7895658,-0.3330007493495941,0.44037196040153503,-9.997563362121582,-0.007629523806375862,-0.011952020905054764,0.0033870549664392993,2.411281034631875,9.258591034696106,0.8749662791441781
1731474140.8395772,-0.03880907967686653,0.5903394818305969,-9.978856086730957,-0.007612098968950339,-0.01199230594529823,0.0034400991586979917,2.410705803390223,9.289978565428191,0.8750944391965243
1731474140.8895676,-0.0758434385061264,0.5316457748413086,-10.008713722229004,-0.00759595828858628,-0.012030172619654441,0.0034925632910814634,2.410609181430383,9.320075721585027,0.8750325308000267
1731474140.9393978,0.48951706290245056,0.8079436421394348,-9.981762886047363,-0.007585828153167993,-0.012068099117332191,0.0035443105326462294,2.4100110825623986,9.351116271362143,0.8751639590227905
1731474140.9892786,0.7771492004394531,0.6103816628456116,-10.015816688537598,-0.007592096047260258,-0.012110718815896164,0.0035950883830910964,2.409526356268621,9.381115509806012,0.8750415701749744
1731474141.0394018,0.1431780755519867,0.499295175075531,-10.044015884399414,-0.007633460687646488,-0.012165037789090612,0.0036444561563888254,2.4088735188382695,9.41249060024038,0.8751715546745918
1731474141.0892773,0.413790225982666,0.48516714572906494,-9.909783363342285,-0.007736939287521612,-0.012239446158993524,0.003691724651570009,2.408211192334681,9.443372200799905,0.875308748975511
1731474141.1401522,0.038903508335351944,0.3011943995952606,-9.996171951293945,-0.007935002008773274,-0.012342117199454617,0.0037361573089854344,2.4074589480109387,9.473709376643212,0.8751584090533134
1731474141.1902132,0.22217567265033722,0.33590275049209595,-10.001534461975098,-0.008262550343109392,-0.012479640138922528,0.0037772637336187464,2.406732318921872,9.50473859036799,0.8752928860168901
1731474141.2402446,0.017560504376888275,0.20069876313209534,-9.97430419921875,-0.008754902005151827,-0.01265601869687357,0.003814766281459528,2.4052725711608036,9.534382742109544,0.8751640044960625
1731474141.2901216,-0.7728275656700134,-0.02461777999997139,-9.977519989013672,-0.009445634483384176,-0.012871813735867455,0.0038484489673884024,2.4044200017388087,9.565200213243129,0.8752960391324847
1731474141.3400016,-1.2074174880981445,-0.021463442593812943,-10.009428024291992,-0.01036230324466142,-0.013123055391145807,0.003878162170004714,2.4032990205195706,9.594535674981369,0.875180056087532
1731474141.3900766,-0.23980385065078735,0.27316224575042725,-9.937684059143066,-0.011521350312294901,-0.013400559759819252,0.003903841779936335,2.402361373051843,9.625316018701767,0.8753116144529594
1731474141.4400213,-0.7082184553146362,0.12128511071205139,-10.163931846618652,-0.012927119193211973,-0.013690818813006229,0.003925394469439145,2.401389006685091,9.656195037152145,0.8754535626973857
1731474141.4898539,-0.29287877678871155,0.4290388226509094,-9.929959297180176,-0.014575104304581473,-0.013977935405885284,0.0039423716468665465,2.401786343542507,9.684840994367196,0.8752964023026093
1731474141.5398967,-0.5628702044487,0.09986446797847748,-10.001678466796875,-0.016454992820522093,-0.014245228913696707,0.003953817064363985,2.400867643937458,9.715659261018883,0.875435817554618
1731474141.5897396,-0.3513105511665344,0.46714502573013306,-10.08678913116455,-0.01855215171447978,-0.014476088903619769,0.003958536803502683,2.399915928648903,9.746095186021481,0.8755834660546747
1731474141.6397777,-0.5107159614562988,0.16161222755908966,-9.946783065795898,-0.020848536136416615,-0.014654424476053087,0.0039552244921697705,2.398255466184972,9.774637316824446,0.8755181246529898
1731474141.6896517,-0.4068586826324463,0.43703973293304443,-9.962201118469238,-0.023323339589051598,-0.014765031742627215,0.003942481880665401,2.3971138700266734,9.80503235935567,0.8756733026772872
1731474141.7396317,-0.49801453948020935,0.2526971399784088,-10.004266738891602,-0.02595347471736364,-0.014793883242624387,0.003919146636952347,2.395900729541415,9.835651522889233,0.875839660951577
1731474141.789641,-0.37864023447036743,0.4197238087654114,-9.953781127929688,-0.028714027150892836,-0.014728371535302924,0.003884514999811283,2.394629142077585,9.865994188120572,0.8760144178647926
1731474141.8394883,-0.42949461936950684,0.29616859555244446,-9.941106796264648,-0.03157884066949231,-0.014557513944494529,0.003838324396533969,2.3941460504032848,9.893644333791203,0.8758448388174
1731474141.8893626,-0.41107162833213806,0.3372349739074707,-10.000696182250977,-0.03452116364889436,-0.0142719818776762,0.0037807963596540413,2.3909465185620062,9.920883353266007,0.8756995562871505
1731474141.9393225,-0.3805420398712158,0.7001015543937683,-9.957939147949219,-0.03751414290504123,-0.01386427670188016,0.0037126041935250124,2.389269158332443,9.951264491655254,0.8758575666839027
1731474141.9893405,-0.4000968039035797,0.667378306388855,-9.877378463745117,-0.040531208261091016,-0.013329822838741144,0.00363479930699771,2.3862521543000743,9.978257472848927,0.8757228092496077
1731474142.0393183,-0.4872780740261078,1.1421082019805908,-9.997286796569824,-0.043546331127365806,-0.0126689639100702,0.003548957441937997,2.3842152880545044,10.008593538455763,0.8758759662348196
1731474142.0892508,-0.4453103244304657,0.9864438772201538,-9.849359512329102,-0.04653396130779063,-0.011889027720760757,0.0034573224588982845,2.3820875603060196,10.038587402115908,0.876036246455681
1731474142.139246,-0.5104879140853882,0.7967690229415894,-10.028023719787598,-0.04946881706531441,-0.01100529809529694,0.0033627352732934915,2.3813118904565913,10.065217000276252,0.8758535031249605
1731474142.1901712,-0.3782177269458771,0.7711344957351685,-9.996058464050293,-0.052325919744432375,-0.010039830663476346,0.0032683375621514613,2.379034716097151,10.095847581623445,0.8760093350634492
1731474142.2401364,-0.4499201774597168,0.7072227597236633,-10.010408401489258,-0.05508098729213979,-0.009018916287454517,0.003177052075551926,2.3789118169846444,10.122028695537418,0.8758449593633526
1731474142.2900872,-0.3696022629737854,0.713841438293457,-10.044113159179688,-0.057710974272020744,-0.007970984213694084,0.0030911610948992706,2.376626741131866,10.151950139505185,0.8759904255032319
1731474142.3400176,-0.42195576429367065,0.5679761171340942,-9.984193801879883,-0.06019447123105405,-0.006925249763166759,0.0030121835241603777,2.37418145190734,10.182014666634164,0.8761443312824225
1731474142.3899982,-0.30900314450263977,0.6061761379241943,-10.027217864990234,-0.06251197390825708,-0.005910547616983687,0.0029409413112510387,2.371605136941273,10.211802070073611,0.8763042883627574
1731474142.4399173,-0.36433690786361694,0.5541598200798035,-9.993165969848633,-0.06464619308490199,-0.004954306671424401,0.0028777165005105802,2.3735231244232637,10.237284679530557,0.8760400840649034
1731474142.4898849,-0.3449501693248749,0.5600143671035767,-10.049895286560059,-0.06658231660431503,-0.004081915757435679,0.0028223503427600174,2.370991508882662,10.267075502109602,0.876187725372056
1731474142.5398262,-0.3187732696533203,0.5636372566223145,-10.002037048339844,-0.06830805546639672,-0.0033164383016018855,0.0027742300883419075,2.3717625615173743,10.291974816619366,0.8759709186343568
1731474142.5898345,-0.30297085642814636,0.5662887096405029,-10.012564659118652,-0.06981362412864597,-0.00267852765503496,0.0027323020843352075,2.3713031899096393,10.316493074365388,0.8758312465586577
1731474142.6396751,-0.3056734502315521,0.5174658894538879,-10.006267547607422,-0.07109180232138057,-0.0021864357607032023,0.0026952008563642126,2.3686660328321394,10.346311039043249,0.8759572990374708
1731474142.689624,-0.32618317008018494,0.5069574117660522,-9.982719421386719,-0.07213791696343616,-0.0018559250692032,0.00266141868197525,2.3658710319516985,10.375899308274086,0.8760890483726375
1731474142.7396877,-0.273434042930603,0.514680802822113,-9.964303016662598,-0.0729496728548908,-0.0017000835724295229,0.0026294842648074187,2.3628578850943835,10.405857596181699,0.8762291298228424
1731474142.7895157,-0.2996521592140198,0.5227103233337402,-9.985552787780762,-0.07352700538116791,-0.0017292766329168006,0.002598161663730539,2.364436711421827,10.429461980150805,0.8759974364768476
1731474142.8395174,-0.3358599841594696,0.5379204750061035,-9.958097457885742,-0.07387195339725644,-0.0019513277243202944,0.002566567606087825,2.3613944146042676,10.459419177941347,0.8761277178104379
1731474142.8894358,-0.336078017950058,0.4931144118309021,-9.98670482635498,-0.07398834601016248,-0.0023717687866608283,0.0025341751663171186,2.358354917529077,10.470649009090819,0.8759320285751223
1731474142.939421,-0.33337661623954773,0.5128029584884644,-10.005820274353027,-0.07388137626053567,-0.002993972834666246,0.002500735321282462,2.3549677820414816,10.500246360421576,0.8760537701941363
1731474142.989331,-0.3498041331768036,0.4721747934818268,-9.94282341003418,-0.07355730347099496,-0.0038191679448844286,0.002466152238954132,2.3514338796486562,10.529518529476281,0.876180374508408
1731474143.0392566,-0.32534632086753845,0.5132566094398499,-9.986802101135254,-0.07302329129974854,-0.004846466596288882,0.0024304681033976224,2.347698153244972,10.55894033590375,0.8763137676943037
1731474143.0892653,-0.3674081265926361,0.5218324065208435,-10.014200210571289,-0.07228728506622657,-0.006073031006674654,0.002393905390364155,2.34392731129228,10.569364187435854,0.8760440207140154
1731474143.1392438,-0.40713658928871155,0.5078936219215393,-9.99518871307373,-0.07135781375343522,-0.007494380493065703,0.002356728663129315,2.3398235489273005,10.598667441296241,0.8761664170112278
1731474143.1901145,-0.3748840391635895,0.5032426118850708,-9.95654582977295,-0.07024365693127853,-0.009104663689544759,0.0023190897715683343,2.335797479648889,10.599449089214577,0.8761030462779301
1731474143.2401328,-0.41319382190704346,0.513997495174408,-10.000679969787598,-0.0689535621582968,-0.010896789304523034,0.00228110762457321,2.33184184156556,10.590332119511139,0.8761499951302267
1731474143.2901106,-0.4174082279205322,0.5009680390357971,-9.988465309143066,-0.06749611669607462,-0.012862527586886757,0.0022429768713855057,2.327266066664153,10.618800039643336,0.8762875290169262
1731474143.3401623,-0.4119400978088379,0.5024043917655945,-9.968817710876465,-0.06587964962648318,-0.014992636263343942,0.002204934294756966,2.3224896436906466,10.647431076009687,0.8764316493709892
1731474143.3899338,-0.3861069083213806,0.4877097010612488,-9.973749160766602,-0.06411219733117723,-0.01727695570539319,0.00216725818690939,2.317645828214695,10.675465467102303,0.8765783577112026
1731474143.4400024,-0.3813762664794922,0.4656544327735901,-10.00214672088623,-0.062201640799066156,-0.0197044462820545,0.0021303259398742836,2.3130192668090523,0.8202552595256496,0.8769669616005987
1731474143.489819,-0.3586125075817108,0.4547431170940399,-9.964475631713867,-0.06015593706513962,-0.022263162331378806,0.0020945813453804208,2.307863453666368,0.6542347012457645,0.87715417375325
1731474143.5397732,-0.3363964855670929,0.4302753210067749,-9.970362663269043,-0.05798334442442195,-0.02494018936140835,0.0020604959149263915,2.3025046909828553,0.48637931404541024,0.8773485869873516
1731474143.5897393,-0.3230259418487549,0.4246014356613159,-10.018203735351562,-0.05569263664582516,-0.027721595642467702,0.0020285909326579264,2.297408164603719,1.1195055222392272,0.8777796899666307
1731474143.6397502,-0.3230259418487549,0.4246014356613159,-10.018203735351562,-0.0532932741641525,-0.03059244309603263,0.0019993289781006537,2.29176980996563,0.9974508825373462,0.8780047927721215
1731474143.6397502,-0.3195480704307556,0.4174511432647705,-9.99730110168457,-0.05079545867917431,-0.033536892747063764,0.0019728896459915457,2.291734206411464,0.996689056801456,0.8780062131775931
1731474143.6896462,-0.29733991622924805,0.400546669960022,-9.969202995300293,-0.04821009092343315,-0.03653836480710844,0.0019491320983700577,2.2860585894177556,0.8764694325092809,0.8782326732853402
1731474143.7396011,-0.2849956750869751,0.3818894624710083,-10.001726150512695,-0.04554874244622938,-0.039579654453498786,0.001927785539432883,2.280628891328059,0.7546845328632209,0.8788773551655202
1731474143.789569,-0.2620607912540436,0.3989132344722748,-10.011852264404297,-0.04282369339904232,-0.04264299969693869,0.0019085716957803027,2.274682879324871,0.6331555224414239,0.8791520100994217
1731474143.8395295,-0.3114404082298279,0.37750130891799927,-9.98075008392334,-0.04004794010742854,-0.045710198546765696,0.0018911443435980996,2.2691055699835907,0.5112915296592355,0.8798868838559566
1731474143.8895874,-0.29066282510757446,0.38888999819755554,-10.001361846923828,-0.037235027567898815,-0.048762792957680004,0.0018750500388932888,2.2629530628330166,0.38920616418321985,0.8802145035342942
1731474143.939539,-0.31284046173095703,0.36997202038764954,-10.00731372833252,-0.034398746193121055,-0.05178224911258675,0.0018597719404340584,2.2567021488667076,0.2668248726238741,0.8805472635521133
1731474143.9893997,-0.27976566553115845,0.3753986358642578,-10.026233673095703,-0.03155288689533581,-0.0547501063105375,0.0018446986001379455,2.2504059057142043,0.14503025303544723,0.8808826769994913
1731474144.0392823,-0.2954639196395874,0.3394887149333954,-9.958551406860352,-0.028711135700011645,-0.0576480842511105,0.001829060402122318,2.2446460481428145,0.023276184283847257,0.8810978167254169
1731474144.089266,-0.5322554707527161,-0.19363191723823547,-10.011695861816406,-0.02588681013098186,-0.060457640041943504,0.0018120169989357569,2.2381980009081652,-0.09921385691528671,0.8814252893740145
1731474144.139285,-0.4975226819515228,-0.47324222326278687,-10.109478950500488,-0.02309197838259269,-0.06315788581701719,0.0017926919534325615,2.232350192012702,-0.22201769435676885,0.8813158559163613
1731474144.1902807,-0.6517626047134399,-0.1517183631658554,-10.05496883392334,-0.020336208096741155,-0.06572250802883287,0.001769827745912109,2.2256319224909773,-0.34797068021470146,0.881611262559114
1731474144.2401178,-0.7958483099937439,-0.4603233337402344,-10.047149658203125,-0.01762548413853454,-0.0681183732683078,0.0017414067417019013,2.2198516698240143,-0.46956877551042964,0.8814936741879216
1731474144.2899477,-0.3774668574333191,0.1904527246952057,-9.920002937316895,-0.014961629919426143,-0.07030675209354643,0.0017048314596031066,2.2132844218197514,-0.5916708931157686,0.8817466925074312
1731474144.3399312,-0.7103548049926758,-0.2533815801143646,-10.023809432983398,-0.012342831124687072,-0.07224590670260532,0.0016575630747421135,2.207433060344875,-0.7153030876332749,0.8816277263987904
1731474144.389945,-0.5084047317504883,0.20593859255313873,-9.930323600769043,-0.00976480411379667,-0.07389367605594827,0.0015976236918807903,2.2007572656470225,-0.8389465672278916,0.8818552341823742
1731474144.4399543,-0.6116470098495483,0.06604569405317307,-9.929553985595703,-0.007221447781366783,-0.07520939176352522,0.0015237846919680237,2.1949830484197426,-0.9625061100003836,0.8817279379402385
1731474144.489831,-0.5259138345718384,0.24936124682426453,-9.96333122253418,-0.004705183372020352,-0.0761554479198811,0.0014356948912210734,2.189293656622701,-1.085574838239216,0.8816531931635732
1731474144.5398407,-0.5633005499839783,0.1612505167722702,-9.892698287963867,-0.0022074352438538887,-0.07669857309809314,0.0013339504308979646,2.182608784102216,-1.2098157257708881,0.8818338166502082
1731474144.5897121,-0.5227437615394592,0.1753193736076355,-9.91405963897705,0.00028091434960568896,-0.07681039895744193,0.0012200928346113304,2.1759526635250057,-1.333668586427005,0.8820167769407222
1731474144.6397834,-0.530639111995697,0.1455938071012497,-9.948212623596191,0.0027691497727281777,-0.07646739384962974,0.0010966084520710041,2.1692669897283885,-1.4583342208577568,0.8822035521724271
1731474144.6897333,-0.4877649247646332,0.19532594084739685,-9.93302059173584,0.005266376976666043,-0.07565054780795527,0.0009667618461434576,2.1637909987840263,-1.5821768998163,0.8819901366680478
1731474144.7396362,-0.4850020408630371,0.15887004137039185,-9.961091995239258,0.007781172719855638,-0.07434516367359914,0.000834275859533535,2.157166819525973,-1.7069795299127666,0.8821528594492204
1731474144.7895703,-0.042006008327007294,0.42955347895622253,-9.968608856201172,0.010320867100326167,-0.07254097209176642,0.000703052808083568,2.1505857577369847,-1.8315765246005593,0.8823169880403524
1731474144.8395107,0.20982344448566437,0.5299987196922302,-9.996824264526367,0.01288961213037929,-0.07023292100215692,0.0005769213208669439,2.145355200667282,-1.956144987218645,0.8820689778397425
1731474144.8894217,-0.2961362600326538,0.27400559186935425,-10.028383255004883,0.015485871720460504,-0.06742227777350605,0.0004593423710644468,2.13886654964152,-2.081026648977199,0.8822095955220344
1731474144.9395008,-0.07620701938867569,0.45252323150634766,-9.962984085083008,0.018101916982987243,-0.06411671228531646,0.0003531606606937387,2.133833163875122,-2.2063973730513,0.8820005595174206
1731474144.989377,-0.3626199960708618,0.24273060262203217,-10.05359172821045,0.020725700142981508,-0.06032924770853286,0.00026053365640114066,2.1274653924588094,-2.331521712846223,0.882121004217824
1731474145.0394049,-0.1496284306049347,0.48473837971687317,-10.041500091552734,0.02334285703616988,-0.056077223370933474,0.0001829019305274033,2.1227248422231946,-2.456479975882598,0.8819377523831138
1731474145.0892012,-0.3409866988658905,0.2217046469449997,-10.007319450378418,0.025937813096631936,-0.05138167686478805,0.00012086501641651947,2.1165253136934914,-2.5814045492413222,0.8820403371296868
1731474145.1393504,-0.19522902369499207,0.4383619427680969,-10.02239990234375,0.028494371571882664,-0.046266815324330975,7.420090018696163e-05,2.1120375020163604,-2.7074222884737726,0.8818777210685617
1731474145.1891997,-0.3174585700035095,0.26658883690834045,-9.997493743896484,0.030996099337142088,-0.04075944742865508,4.209932807130643e-05,2.1060016332375184,-2.832747523842908,0.8819652994428242
1731474145.2401588,-0.2567730247974396,0.41878947615623474,-9.975645065307617,0.03342665344530242,-0.03488853177360468,2.341424165841027e-05,2.0998815854246424,-2.961638986338981,0.8820553859409508
1731474145.290124,-0.31867489218711853,0.322895348072052,-10.004502296447754,0.03577011686477634,-0.028684873538317272,1.688435575244353e-05,2.0940002440934182,-3.087411990998418,0.882143287689049
1731474145.3400424,-0.2900391221046448,0.4151308536529541,-9.99188232421875,0.03801132212351573,-0.02218089040720506,2.1260289127746928e-05,2.0902250289436046,-3.212707060625665,0.8819248144257346
1731474145.390102,-0.331870973110199,0.35072141885757446,-9.961592674255371,0.04013610934372526,-0.015410393055754937,3.53294000442329e-05,2.0845412317365297,-3.339180936695482,0.8819978358659994
1731474145.4399805,-0.31109046936035156,0.4003080129623413,-9.982954025268555,0.042131528052175175,-0.008408319177926105,5.7992697769841876e-05,2.0811996447263326,-3.46367939290914,0.8818208395586585
1731474145.4899025,-0.31109046936035156,0.4003080129623413,-9.982954025268555,0.04398596145454722,-0.0012104509698727824,8.836157092959637e-05,2.075792706427032,-3.5895099424076893,0.8818815212868711
1731474145.4899025,-0.3297779858112335,0.40445318818092346,-9.977746963500977,0.04568915035721353,0.006146806789654373,0.00012574149626472442,2.0757668355866623,-3.5901181786329306,0.8818818151379753
1731474145.5398126,-0.3312694728374481,0.4171616733074188,-9.975252151489258,0.04723220717954926,0.013626617321453946,0.00016957784346929288,2.070472866039332,-3.7159477489954944,0.8819428250178013
1731474145.589731,-0.3365127444267273,0.42672958970069885,-9.98169231414795,0.048607679428720366,0.021191924019150137,0.00021944907998515455,2.067786114795005,-3.8400270157802403,0.8817622044582725
1731474145.6397784,-0.6444383859634399,0.252627432346344,-9.986760139465332,0.049809871476374626,0.028805813346717866,0.000275051955648735,2.0627423904986766,-3.9665444485016486,0.8818133666641802
1731474145.6896195,-0.6444383859634399,0.252627432346344,-9.986760139465332,0.05083588847305759,0.03643232797672449,0.00033614383899749627,2.057860954425079,-4.092045105246702,0.8818649091754742
1731474145.6896195,-0.5891392230987549,0.3251998722553253,-9.954066276550293,0.0516869658236402,0.04403746879904638,0.00040251355144297805,2.057838137486312,-4.092639203530566,0.881865155237556
1731474145.739691,-0.7718563675880432,0.09749940782785416,-9.974160194396973,0.052368995309765645,0.05158977488314241,0.00047405057935146,2.053052610656209,-4.218896235489867,0.8819180719766675
1731474145.7895942,-0.46285444498062134,0.407083123922348,-9.982929229736328,0.05289219482259541,0.059060548425498904,0.0005508187285016117,2.0513264641752493,-4.341766835791314,0.8817182229094429
1731474145.839546,0.17480438947677612,0.5993920564651489,-9.956948280334473,0.05326951716030205,0.06642340591413873,0.0006330257987621885,2.046840177867034,-4.468038130386856,0.8817629119074046
1731474145.8895202,-0.4296962022781372,0.3416212499141693,-10.036373138427734,0.05351335096686368,0.0736528295027584,0.0007209267988961888,2.0430517553901746,-4.590208021114744,0.8816137252297002
1731474145.9394314,-0.10667605698108673,0.5735830664634705,-9.944799423217773,0.053633028600087916,0.08072309265427,0.0008146964389325473,2.0387972677339308,-4.7168403396794645,0.8816535769078092
1731474145.9893925,-0.4261827766895294,0.25164923071861267,-9.998679161071777,0.05363506208462428,0.08760847099044604,0.0009143724230815036,2.033683564519752,-4.837547358708762,0.8815355440383067
1731474146.0393891,-0.4261827766895294,0.25164923071861267,-9.998679161071777,0.0535245663473702,0.09428422308720144,0.0010199087833493146,2.029687780511204,-4.962612888999354,0.8815723422448027
1731474146.0393891,-0.1757666915655136,0.5858380794525146,-10.030649185180664,0.05330635562622366,0.10072760130117893,0.0011311227362712675,2.029663495883927,-4.963385328942749,0.8815725777080542
1731474146.0892906,-0.36952340602874756,0.26452311873435974,-9.984543800354004,0.052985128731641414,0.10691790497061386,0.0012475278733895731,2.0258559944986994,-5.086431649698425,0.8816116568576969
1731474146.1392066,-0.2180897742509842,0.5275964140892029,-9.984308242797852,0.05256499161542741,0.11283588628711946,0.0013683264973702262,2.022136512268611,-5.210593460929682,0.8816544238025986
1731474146.1892066,-0.35027265548706055,0.3020928204059601,-9.998504638671875,0.052049280138807476,0.11846362583746999,0.0014925838869237979,2.018549283662988,-5.334406678284843,0.8817007374549926
1731474146.2392662,-0.24522694945335388,0.4789474606513977,-9.97572135925293,0.051440735052700075,0.12378472509840432,0.0016193642800638743,2.0151836148360007,-5.4549182091796355,0.8815400497824578
1731474146.2900531,-0.32880857586860657,0.3587845265865326,-9.992473602294922,0.050741661768305836,0.12878440869261099,0.0017477716610865709,2.01179143163172,-5.580057412504633,0.8815852722700934
1731474146.3401139,-0.28920209407806396,0.4533703923225403,-9.996732711791992,0.049954068677000356,0.13344954099413175,0.0018769597973756294,2.0059838147733644,-5.699074207388723,0.8814662018618645
1731474146.3900425,-0.32036682963371277,0.38436904549598694,-9.975886344909668,0.04907982819632731,0.13776860210472444,0.0020061148944043893,2.0028347939270352,-5.821324757804432,0.8815114214642121
1731474146.4399643,-0.3222068250179291,0.4288286566734314,-9.992498397827148,0.0481208439024063,0.1417316937985988,0.002134456017647681,1.999790305945147,-5.9438988624575595,0.8815620835634723
1731474146.4898868,-0.3282969295978546,0.4256960153579712,-9.982223510742188,0.04707919877772762,0.1453305477270211,0.0022612697722435926,1.9968834259712567,-6.065350263612311,0.8816179051529668
1731474146.5398424,-0.3282969295978546,0.4256960153579712,-9.982223510742188,0.04595727418488115,0.14855847420985505,0.002385926264967824,1.9920842672398078,-6.1819421722942085,0.8814777553020762
1731474146.5398424,-0.3342430889606476,0.41899538040161133,-9.977553367614746,0.044757811529764574,0.15141029939938605,0.002507892181568264,1.992067017539537,-6.182693346593693,0.8814780886084391
1731474146.5898244,-0.3272224962711334,0.4375999867916107,-9.990431785583496,0.04348392554879526,0.15388235555203805,0.0026267496619437206,1.989374293142369,-6.297430130832014,0.8813900422257664
1731474146.6398294,-0.3272224962711334,0.4375999867916107,-9.990431785583496,0.04213908399990432,0.15597245549439215,0.0027421721134820295,1.9867449450125565,-6.41845756354606,0.8814449528761291
1731474146.6398294,-0.348007470369339,0.42216381430625916,-9.980985641479492,0.040727075045601205,0.1576798253411846,0.0028538705409867898,1.9867282597703726,-6.419240222787796,0.8814453310822155
1731474146.6897447,-0.3311549723148346,0.43346843123435974,-9.981561660766602,0.03925201191569417,0.15900508303030114,0.0029615832686886003,1.9842427898258446,-6.53789128108113,0.8815063940149931
1731474146.7396312,-0.3635404109954834,0.40990909934043884,-9.988479614257812,0.03771836603094406,0.15995027091704775,0.0030651068205889732,1.9818236981582042,-6.657534925485388,0.8815756472400139
1731474146.789546,-0.32311975955963135,0.4552238881587982,-9.978585243225098,0.036130978649080096,0.1605188618745712,0.0031643054013770194,1.9795096830613668,-6.776103464017401,0.8816522127565142
1731474146.8395026,-0.3543110489845276,0.4205108880996704,-9.987153053283691,0.03449501573552457,0.1607156805893919,0.0032591003755866083,1.9771262523050286,-6.888735356285243,0.8814904604746354
1731474146.8894835,-0.33690303564071655,0.44204410910606384,-9.983466148376465,0.032815887767684855,0.16054678996245708,0.003349464250882864,1.9749663906956672,-7.007304605276464,0.881568376693408
1731474146.939377,-0.3456494212150574,0.4204249382019043,-9.974058151245117,0.031099193651105382,0.16001943325611567,0.003435419411200062,1.9725670906554333,-7.117886449130646,0.8812827059828454
1731474146.9893372,-0.32335811853408813,0.44455331563949585,-9.994388580322266,0.029350664187010538,0.15914200810778378,0.0035170451463816515,1.970557861677551,-7.235565331635578,0.8813465189737505
1731474147.0392928,-0.3419918715953827,0.4153200089931488,-9.980100631713867,0.02757606551413405,0.15792401652703114,0.003594465465347505,1.9686254037804016,-7.35251103181564,0.881419018506237
1731474147.0892532,-0.33232659101486206,0.44813141226768494,-9.970808982849121,0.025781118422467764,0.15637600238179608,0.003667829382459621,1.9667539643136434,-7.46941018409599,0.8815008181874463
1731474147.1392598,-0.3414287269115448,0.42118310928344727,-9.989472389221191,0.023971475124539295,0.15450947703944212,0.0037373356706157145,1.6430681221314662,-7.577344969924734,0.8812292360333628
1731474147.1892078,-0.32821929454803467,0.43675288558006287,-9.983247756958008,0.02215271133101522,0.15233683516347926,0.003803245856406283,1.638467004405274,-7.692973412159615,0.8813050312191284
1731474147.239118,-0.3308393657207489,0.41653814911842346,-9.989508628845215,0.020330287608432623,0.14987129617969247,0.003865835057511998,1.633914518993278,-7.808333740903352,0.8813904569407833
1731474147.2890556,-0.3233639597892761,0.44228991866111755,-9.99915599822998,0.018509484416197326,0.1471268582225055,0.003925331284239919,1.614643799529874,-7.914044447520388,0.8835851047812319
1731474147.34003,-0.3317860960960388,0.42187803983688354,-9.981391906738281,0.01669534607602446,0.14411821552551166,0.003981873895105981,1.6106944736467377,-8.030914020951903,0.8838842960181776
1731474147.389953,-0.3199501931667328,0.43816444277763367,-9.984302520751953,0.014892654406853278,0.14086065064476616,0.0040355185531911805,1.606862269768939,-8.1451380516587,0.8841877488096518
1731474147.4399762,-0.3348630368709564,0.410004585981369,-9.995926856994629,0.013105921453113553,0.13736995438825705,0.004086284707602941,1.6030571681721377,-8.259251250473582,0.8845020100511215
1731474147.4898822,-0.31965500116348267,0.4335654675960541,-9.987404823303223,0.011339391651206123,0.133662385884631,0.0041341671550970075,1.5983053246772738,-8.361608874946427,0.8866047793441797
1731474147.5398347,-0.33629316091537476,0.42236918210983276,-9.98745346069336,0.009597050186791632,0.1297546211901896,0.004179114248780815,1.5951358128731956,-8.47448489106627,0.8870634811514575
1731474147.5897639,-0.32917505502700806,0.4344494938850403,-9.999245643615723,0.007882639221121358,0.12566364971524135,0.004221027403696851,1.588833614960741,-8.575373010665194,0.890636101911875
1731474147.6397233,-0.3516184091567993,0.42074695229530334,-9.990751266479492,0.0061997006668661515,0.12140665619456271,0.004259755741436219,1.5857275827953867,-8.687563244300087,0.8913932266500947
1731474147.6896822,-0.3454195261001587,0.43337929248809814,-9.982441902160645,0.00455165222673164,0.11700093248904352,0.004295089046831245,1.5826388483409832,-8.799315381407093,0.8921600480244761
1731474147.739603,-0.3454195261001587,0.43337929248809814,-9.982441902160645,0.0029418561573936056,0.11246379676752714,0.004326804008763526,1.5812562856879038,-8.897611587983867,0.8920252935084324
1731474147.739603,-0.3505779504776001,0.42843934893608093,-9.977140426635742,0.001373633184003957,0.10781249601396062,0.0043547400591225855,1.5812369731149793,-8.898403198828502,0.8920300558271956
1731474147.7895708,-0.3442579209804535,0.44717955589294434,-10.014467239379883,-0.0001497624578466059,0.10306410884081312,0.004378816632604891,1.5785291694210606,-9.009258548773069,0.8927032046435676
1731474147.839557,-0.2940550446510315,0.5944892764091492,-9.976007461547852,-0.0016252222649870366,0.0982353042434482,0.00439896038412407,1.57440771842367,-9.106074938744399,0.8925548809008348
1731474147.889536,-0.20518560707569122,0.54371577501297,-9.946371078491211,-0.003050081667426764,0.09334175064192202,0.004415089667336999,1.5716235247533346,-9.216630528754475,0.8931499672649911
1731474147.939503,-0.43645983934402466,0.24578015506267548,-9.995434761047363,-0.00442249447169347,0.08839777854859544,0.004427259266953327,1.5690037712228524,-9.311951918333884,0.8896999612355667
1731474147.9893682,-0.2412494719028473,0.5809628963470459,-10.00178050994873,-0.005741351584511355,0.08341700686207407,0.0044357236253741395,1.566292949434823,-9.421272649135322,0.8898683303300666
1731474148.0393229,-0.4226839542388916,0.305077463388443,-9.972904205322266,-0.007005851396594719,0.07841307798821322,0.004440785265792634,1.563550088674886,-9.531042927326281,0.890048764784711
1731474148.0892675,-0.17636924982070923,0.6643232107162476,-9.994385719299316,-0.008215346739401936,0.07339955238359328,0.004442686317569898,1.5607945931790081,-9.640371022474584,0.8902398488203526
1731474148.1391916,-0.017241640016436577,0.4965020716190338,-10.021503448486328,-0.009369887940568962,0.06838924412530681,0.004441603753247271,1.559957137123321,-9.732207561727746,0.8877142432169007
1731474148.1891968,-0.017241640016436577,0.4965020716190338,-10.021503448486328,-0.01047155512549808,0.06339360546150564,0.004437543678505532,1.5574986113233398,-9.823113441125136,0.8841808667017912
1731474148.1891968,0.08745230734348297,0.6030604839324951,-10.011589050292969,-0.011525814718099901,0.0584226231024743,0.00443018039012322,1.557477800416395,-9.82398308745878,0.8841783414260488
1731474148.2391913,-0.9778934717178345,0.07814757525920868,-9.990920066833496,-0.01254116505253282,0.05348534510510712,0.004418850052895968,1.5548740879467116,-9.932067335511274,0.8838698024305399
1731474148.289004,-0.13256236910820007,0.6477596163749695,-9.916261672973633,-0.01352622029458603,0.048590915622375844,0.0044027828842483855,1.552234176275827,-10.040186336609288,0.8835717382953062
1731474148.3390393,-0.5607509613037109,0.18505153059959412,-10.030675888061523,-0.014486878321562625,0.04374931015319973,0.0043814441080349716,1.549547061929884,-10.14868997616238,0.8832832684981431
1731474148.3899746,-0.24053697288036346,0.6703055500984192,-9.993346214294434,-0.015426232154871407,0.03897107438762189,0.0043546162444326655,1.548645492723936,-10.238286278288712,0.8826944954915535
1731474148.4399455,-0.4149532914161682,0.18424800038337708,-9.922703742980957,-0.016345722800862352,0.03426675326690288,0.004322225006894831,1.5460395385168495,-10.346569559974663,0.8824627668802845
1731474148.4898977,-0.32263457775115967,0.564312756061554,-10.011099815368652,-0.017245773306787487,0.029646728246606018,0.004284353813314122,1.5439786319711846,-10.432840023960349,0.8820358341528828
1731474148.539939,-0.4096713662147522,0.33358514308929443,-9.978320121765137,-0.018126015625384222,0.025121266776277316,0.004241346581848877,1.5413110667934715,-10.540356352275822,0.8818534009798655
1731474148.5898108,-0.33266475796699524,0.4822407364845276,-9.983787536621094,-0.018985328718602475,0.020700382519612745,0.004193691506623614,1.537884127879138,-10.6243140384676,0.8815391641918101
1731474148.6398258,-0.36633315682411194,0.4079146981239319,-10.017582893371582,-0.01982191842616115,0.01639360198717089,0.0041418691600891185,1.5349963974730352,-10.73175065691128,0.8813979581553616
1731474148.6896837,-0.37975364923477173,0.41329842805862427,-9.984230041503906,-0.02063349461947429,0.012209866721704668,0.004086268412187696,1.533527338481828,-10.813902027152803,0.8811647677188007
1731474148.7397082,-0.3236582279205322,0.45023560523986816,-9.957239151000977,-0.021417396243201298,0.008157522968586767,0.004027170337135714,1.5306908716807128,-10.920951403627281,0.8810595632976441
1731474148.7895982,-0.3236582279205322,0.45023560523986816,-9.957239151000977,-0.02217076209146589,0.004244263966479447,0.003964914452996891,1.5266983549356832,-11.00127983182942,0.8808855747208963
1731474148.7895982,-0.4094269871711731,0.40006208419799805,-10.010847091674805,-0.022890749675881197,0.00047700401535654335,0.0039000753316525464,1.5266763089472435,-11.002046756400608,0.8808850064190022
1731474148.8395123,-0.3341081142425537,0.49790847301483154,-9.974881172180176,-0.02357452496799467,-0.0031381636323294564,0.003833389090836955,1.5229779213784822,-11.080887335409463,0.8807370665760561
1731474148.8895173,-0.40162166953086853,0.3858509361743927,-9.979796409606934,-0.024219104856280475,-0.006595966780899657,0.0037655821321713914,1.519757938534548,-11.187190443752408,0.8806811491600719
1731474148.9394271,-0.33520281314849854,0.49349677562713623,-9.995915412902832,-0.024821344339886697,-0.009891977147129532,0.0036973345053611093,1.5164759469441083,-11.293535229087638,0.8806345600729484
1731474148.989394,-0.33520281314849854,0.49349677562713623,-9.995915412902832,-0.02537808361862633,-0.01302267262849451,0.0036292765802676593,1.5131410415965145,-11.399596309617394,0.8805972372946167
1731474148.989394,-0.39363962411880493,0.3769837021827698,-9.9759521484375,-0.025886337795173235,-0.01598555503259873,0.0035619354805162544,1.5131134324675342,-11.400466201878052,0.8805969685564544
1731474149.0393794,-0.32641667127609253,0.49767252802848816,-9.984671592712402,-0.026343356003126532,-0.018779056501272512,0.0034957464394870285,1.512935064086503,-11.475915359303208,0.880493044079382
1731474149.0893095,-0.39658495783805847,0.40310895442962646,-9.991823196411133,-0.02674656585502781,-0.021402293672308066,0.0034311170902510046,1.5097644094549427,-11.58169444406983,0.8804768599477654
1731474149.139286,-0.31508591771125793,0.49019932746887207,-9.974615097045898,-0.02709357663271947,-0.0238550066142952,0.003368441218910005,1.5065189227351599,-11.687785416112623,0.8804691203616749
1731474149.1892076,-0.31508591771125793,0.49019932746887207,-9.974615097045898,-0.02738231229583157,-0.026137664050530127,0.0033081057362310284,1.5067340761768817,-11.754211149390466,0.8803865719095275
1731474149.1892076,-0.3865351676940918,0.38851404190063477,-9.984769821166992,-0.027611202231541218,-0.028251560416017164,0.0032505366335692613,1.5067119964459943,-11.754975388362361,0.8803866019932636
1731474149.2392628,-0.3284973204135895,0.4553205966949463,-9.989445686340332,-0.02777918060366865,-0.03019866576087467,0.003196201832470341,1.503635827048847,-11.86028858023641,0.8803947322622764
1731474149.2891707,-0.36882221698760986,0.4021817743778229,-9.976908683776855,-0.027885516356243437,-0.03198129125622819,0.00314555322941658,1.500482692194343,-11.965945718901978,0.880410764094322
1731474149.3390863,-0.339903861284256,0.46282950043678284,-9.997218132019043,-0.027929742960412368,-0.03360193801822278,0.0030989873247223238,1.4972576957999286,-12.071762752595204,0.8804345864558315
1731474149.3890233,-0.36403632164001465,0.4146801829338074,-9.983406066894531,-0.02791166885520659,-0.03506334615370107,0.0030568281654426875,1.49715283834131,-12.130481455714175,0.8803424421318448
1731474149.4399798,-0.3282560706138611,0.4430561661720276,-9.990992546081543,-0.027831383264130146,-0.03636854564019576,0.0030193066149854925,1.493900433158554,-12.23859310904859,0.8803767200931878
1731474149.489963,-0.34830936789512634,0.4099680185317993,-9.985173225402832,-0.027689298210063648,-0.03752083092222863,0.002986560194644232,1.4906518223769487,-12.344338213665322,0.8804178132866699
1731474149.5398574,-0.3367198407649994,0.4484230577945709,-9.979958534240723,-0.027486203203707628,-0.03852370357123361,0.0029586593301902044,1.4907423909406596,-12.393817744382545,0.8803267189890288
1731474149.5898209,-0.3511849343776703,0.42940324544906616,-9.9827299118042,-0.027223264462718767,-0.03938087263063072,0.0029356470005927806,1.4875538006546292,-12.499135448979551,0.8803743419516891
1731474149.639785,-0.3449540138244629,0.44740235805511475,-9.993281364440918,-0.02690196856675902,-0.04009631256370524,0.0029175626219591203,1.4843007345442925,-12.604451531984678,0.880429221831598
1731474149.689714,-0.348348468542099,0.4309273660182953,-9.968509674072266,-0.026524059561224153,-0.040674303049382944,0.002904432859670958,1.4832808349938584,-12.647240131712586,0.8803344244348195
1731474149.7397473,-0.3465837836265564,0.4344233572483063,-9.99363899230957,-0.02609149866362694,-0.04111940985835502,0.0028962748274652624,1.4799892586025405,-12.752472261666943,0.8803937979659484
1731474149.7896135,-0.35121646523475647,0.43669408559799194,-9.989757537841797,-0.025606438953713236,-0.0414364306316826,0.0028931008483810148,1.4764596701391186,-12.785279674024771,0.880317014497634
1731474149.839714,-0.3436480164527893,0.4485608637332916,-9.986307144165039,-0.02507120085287185,-0.041630366343796577,0.0028948772967225737,1.4706106069619647,-12.82470717340432,0.880271936139106
1731474149.8895714,-0.3596985638141632,0.44395580887794495,-9.989258766174316,-0.024488246689132877,-0.04170644735537764,0.002901491668322538,1.4667259417756908,-12.9282372890157,0.8803338927507339
1731474149.9394937,-0.3440133035182953,0.440993994474411,-9.989282608032227,-0.02386014768982583,-0.041670158930157006,0.0029127623169179916,1.4627635970946344,-13.032332857149527,0.8804033855018031
1731474149.9894161,-0.3629949986934662,0.4327376186847687,-9.978323936462402,-0.023189547484085533,-0.04152720394761957,0.002928457987664326,1.4587615969080685,-13.136037704341774,0.8804798062986627
1731474150.0394707,-0.35161831974983215,0.4358040392398834,-9.977865219116211,-0.02247912917094269,-0.041283416255911254,0.0029483374896932925,1.4594572793689233,-13.169139961832345,0.8803860064445488
1731474150.0892787,-0.3588835597038269,0.44195646047592163,-9.983288764953613,-0.021731584208753985,-0.04094468963424624,0.0029722045161822202,1.4557209523678372,-13.272468448656719,0.8804644438349329
1731474150.1392915,-0.3525645434856415,0.4376795291900635,-9.988021850585938,-0.020949597668284713,-0.040516959921963296,0.002999918651442481,1.4519188382779462,-13.376244696217205,0.8805505983817629
1731474150.1892414,-0.3610277473926544,0.4366692900657654,-9.989734649658203,-0.02013584772647719,-0.04000620518615839,0.003031349675287626,1.4513320163969878,-13.403699342902714,0.8804386820477828
1731474150.239233,-0.35390523076057434,0.44004589319229126,-9.980785369873047,-0.019292998602182032,-0.03941842378045228,0.0030663322686508314,1.447645676606182,-13.507121700901475,0.8805256638660066
1731474150.2891834,-0.34808841347694397,0.4356316924095154,-9.990507125854492,-0.018423700818254778,-0.038759604755764274,0.0031046630716977065,1.4439333435182868,-13.610054563709642,0.8806198260857188
1731474150.3391497,-0.3495331108570099,0.4318283796310425,-9.987534523010254,-0.017530622307416664,-0.038035698960785666,0.00314611197602802,1.443843850042601,-13.63240882308997,0.8804914129178749
1731474150.3889644,-0.34229859709739685,0.43807172775268555,-9.979005813598633,-0.016616490776087563,-0.03725258037098106,0.0031904231141850884,1.440280112628687,-13.734598441135192,0.8805851453626333
1731474150.4399717,-0.35194361209869385,0.43843650817871094,-9.987793922424316,-0.015684113830121738,-0.03641602169205667,0.0032373314406539495,1.4358989851299528,-13.755406396797643,0.880479998396887
1731474150.4899325,-0.3497510850429535,0.43838438391685486,-9.9824857711792,-0.014736363197870687,-0.03553170014227071,0.0032865862596609405,1.4320431465547045,8.655968805755153,0.8804146828211356
1731474150.5399475,-0.3440338671207428,0.4448617100715637,-9.980924606323242,-0.01377613849295423,-0.03460521022609246,0.0033379564433053963,1.4280592903801972,8.72330688904272,0.8805059226372003
1731474150.5898569,-0.3435697555541992,0.4436219334602356,-9.993441581726074,-0.012806353511549151,-0.03364207510463259,0.003391227359122422,1.4240570933523118,8.79030964903483,0.8806052131550421
1731474150.6397717,-0.3434273302555084,0.4445556402206421,-9.981748580932617,-0.011829950080962564,-0.03264775705238708,0.003446184219520319,1.4237689362934625,9.088829647799823,0.8805072793410688
1731474150.6896904,-0.34205594658851624,0.4357181191444397,-9.985618591308594,-0.010849902782421584,-0.031627644852909816,0.003502594386689691,1.4200298079913327,9.13951980606924,0.8806082187313673
1731474150.7397027,-0.3368449807167053,0.4365089237689972,-9.985532760620117,-0.009869211298474156,-0.030587004605008475,0.0035602168616735604,1.4175991376402886,9.23843730475192,0.8805171968659276
1731474150.7896504,-0.3370206654071808,0.44003918766975403,-9.988101959228516,-0.008890901582974915,-0.02953092195774841,0.003618812853932414,1.4138502519206204,9.278185663546019,0.8806209869789655
1731474150.839731,-0.34878137707710266,0.4350849390029907,-9.995030403137207,-0.007918019794183773,-0.02846427350183448,0.0036781285352995036,1.4112136162027942,9.322565598735876,0.8805328229533738
1731474150.8894904,-0.34958556294441223,0.43955448269844055,-9.992443084716797,-0.006953579119460214,-0.02739172090424196,0.0037378595296833433,1.4074723710403734,9.35443187603882,0.8806391690515215
1731474150.9395454,-0.33814793825149536,0.4347154200077057,-9.992836952209473,-0.006000485186927997,-0.026317704166463403,0.0037976235979314127,1.4036784401268902,9.386541687117198,0.8807559818853339
1731474150.9894862,-0.3534073531627655,0.43426117300987244,-9.98823356628418,-0.005061504819516442,-0.02524642928080716,0.0038569656486256553,1.3998881202383466,9.41843960834169,0.8808818166363849
1731474151.0393903,-0.35689619183540344,0.43784937262535095,-9.982269287109375,-0.0041392489790758645,-0.024181853556780625,0.003915396539118285,1.4007484360025138,9.415482086771663,0.8807120520980251
1731474151.089344,-0.34376397728919983,0.4424741268157959,-9.984296798706055,-0.003236125576857249,-0.023127687892663232,0.003972449197740352,1.3972512830281245,9.44111421957262,0.8808367042082703
1731474151.1394033,-0.34501925110816956,0.4349685609340668,-9.980411529541016,-0.0023543255283400245,-0.02208742139249934,0.004027725479372815,1.3948598924323656,9.43307206044259,0.8806919445530098
1731474151.1892505,-0.35001081228256226,0.4367660880088806,-9.98748779296875,-0.0014958648219799467,-0.02106433152996093,0.004080913045807931,1.391315886578985,9.453563971913242,0.8808167215613247
1731474151.2393665,-0.35077399015426636,0.4410512447357178,-9.983784675598145,-0.00066260394801609,-0.020061470815682075,0.004131773526803906,1.3877441807337905,9.474148854158692,0.8809526772178532
1731474151.2891529,-0.3346041738986969,0.4414082169532776,-9.978825569152832,0.00014376168140107327,-0.019081669040635737,0.0041801265951040435,1.3861976423920128,9.494509557290671,0.8807746111531047
1731474151.339152,-0.3532467186450958,0.44168803095817566,-9.982125282287598,0.0009216832162805197,-0.018127557659330527,0.004225857011884666,1.3827421807509073,9.51492987388169,0.8809089446591094
1731474151.38902,-0.3444956839084625,0.44681721925735474,-9.989038467407227,0.0016697395681468693,-0.01720159118481264,0.004268922654681028,1.3790415727000096,9.535220772072234,0.8807546966687507
1731474151.4390323,-0.3412024676799774,0.45108357071876526,-9.988518714904785,0.002386650632727483,-0.016306070008586554,0.004309323873548829,1.3754573826244194,9.555615468380772,0.8808897528035238
1731474151.4888942,-0.35135704278945923,0.44728460907936096,-9.988907814025879,0.00307128191491837,-0.015443171843306736,0.004347054874637631,1.3687132394866366,9.57583549440933,0.8807498191627865
1731474151.5399947,-0.3428148031234741,0.43845781683921814,-9.985496520996094,0.0037226415943372414,-0.014614957356697558,0.004382082394272246,1.364617684823908,9.596543372601538,0.8808888700471181
1731474151.589838,-0.35130253434181213,0.43799132108688354,-9.989453315734863,0.0043398929652262415,-0.013823321890269717,0.004414353599911226,1.3606376860961253,9.616682402683727,0.8810353924692222
1731474151.6397727,-0.34227749705314636,0.4340595602989197,-9.994230270385742,0.004922362000031026,-0.013069924931198126,0.004443799784644749,1.3600530455746325,9.636799487119829,0.8808537572220455
1731474151.6898038,-0.345090389251709,0.4354267120361328,-9.992863655090332,0.00546952707776059,-0.012356143669510261,0.004470315468834791,1.356350918297249,9.657021752616734,0.8810002106633598
1731474151.7628806,-0.3515869379043579,0.4293767511844635,-9.992466926574707,0.005981005081236209,-0.011683054868856263,0.004493734937403598,1.3489486750068593,9.686364673150413,0.8809043950424993
1731474151.7896523,-0.3438718020915985,0.40278133749961853,-9.977875709533691,0.006456555304318808,-0.011051400421922547,0.004513846021977972,1.3468323951882293,9.697134848070558,0.8809840426783593
1731474151.839626,-0.3230764865875244,0.15276339650154114,-9.979936599731445,0.006896065536265156,-0.010461262520989504,0.004530454697423522,1.3443706994309585,9.717167293658537,0.8808353469149947
1731474151.8895721,-0.22208143770694733,0.187400683760643,-10.070066452026367,0.007299367471347436,-0.009911115517258639,0.00454337941902693,1.3405579147679885,9.73717059236908,0.8809817114443589
1731474151.939552,-0.3626958727836609,-0.3957504630088806,-10.0033597946167,0.007665891941785491,-0.009396224198095035,0.004552231097822454,1.3367578733084997,9.757180942392207,0.8811396576134674
1731474151.989412,-0.49128592014312744,-0.6028002500534058,-10.101073265075684,0.007994747486668402,-0.0089061565808931,0.004556123267798381,1.3360376531985982,9.77703290515184,0.8809444171304884
1731474152.039409,-0.33004650473594666,0.15001556277275085,-9.991525650024414,0.008285490882055654,-0.008422454185563437,0.004553542089799013,1.3333942484508905,9.79698879171442,0.8808205495089773
1731474152.0893848,-0.42409035563468933,-0.23452405631542206,-9.928579330444336,0.00853869553470599,-0.0079192539876254,0.004542545802401426,1.3299099544930353,9.816954860013968,0.8809671630261583
1731474152.139399,-0.3635537326335907,0.16380023956298828,-9.96257495880127,0.008755811673355717,-0.0073665083529906505,0.004521353155067709,1.32644722990858,9.836902282823774,0.8811251297618998
1731474152.1892323,-0.3265819549560547,0.03705446049571037,-9.926668167114258,0.008938826142902733,-0.006732784381438806,0.004488902299081325,1.323022045804936,9.856742688981832,0.8812935947454885
1731474152.2392316,-0.34383344650268555,0.2610261142253876,-9.951214790344238,0.009089923686652165,-0.005987098842365431,0.004445010132313274,1.3195996469538214,9.876681767936496,0.881474215629816
1731474152.2891235,-0.35642221570014954,0.23940710723400116,-9.95168685913086,0.009211187845713167,-0.005100490308482453,0.004390288049783041,1.321551886637679,9.896410981403521,0.881169481129641
1731474152.3392637,-0.3735845685005188,0.305618554353714,-9.976515769958496,0.009304573063997686,-0.004047250871796642,0.004325963476314292,1.318526660783237,9.916359613940184,0.881341303363374
1731474152.389072,-0.3662432134151459,0.2762035131454468,-9.98367977142334,0.009372067177530294,-0.0028056437110539805,0.004253624033517428,1.3174345771937397,9.936033889635208,0.8834879964293856
1731474152.4390504,-0.3853393793106079,0.2848801612854004,-9.992253303527832,0.009415820409156382,-0.0013580757054647051,0.004174958390722711,1.3144958309304082,9.955911283275,0.8838966471245329
1731474152.4890246,-0.3745778203010559,0.2969180941581726,-9.987142562866211,0.009438200283226748,0.0003090737414727482,0.00409157079535653,1.3128880995048275,9.97565722659258,0.8861308624537277
1731474152.539969,-0.36941108107566833,0.32635197043418884,-10.017279624938965,0.009441790800253277,0.0022056667531275467,0.004004875362581985,1.3099340100904078,9.995926057339467,0.8867627495658426
1731474152.5898287,-0.3613957464694977,0.32036691904067993,-9.987659454345703,0.009429317459232252,0.004337925366406374,0.003916019492739091,1.3070778795871434,10.015693323781488,0.8873886807598333
1731474152.6398501,-0.3558109700679779,0.3377763330936432,-10.017905235290527,0.009403519113326788,0.006708535325465067,0.003825840356074482,1.3062253450408925,10.035521742558464,0.8872677686820097
1731474152.6896672,0.11172740161418915,0.9410831928253174,-9.988750457763672,0.009366609264751169,0.009316286969668639,0.003734877240668918,1.3035210606266894,10.055251994658095,0.8878287858230988
1731474152.7397246,0.6022413969039917,1.6053311824798584,-9.950591087341309,0.009318151199079763,0.012153640173819369,0.003643467276153875,1.301525876948872,10.075136607513315,0.8877661516294003
1731474152.7897217,0.45707929134368896,1.1785728931427002,-9.883322715759277,0.00925129188844665,0.015202286422747804,0.003552046198812488,1.2988217749375015,10.095053693758052,0.8882849324233371
1731474152.8396256,0.18722468614578247,0.8254978060722351,-10.014012336730957,0.009150263064842356,0.01843092085715978,0.0034615371074529513,1.296132138252036,10.115075995723618,0.8888141359722934
1731474152.889567,-0.2138817459344864,0.33085402846336365,-10.020838737487793,0.008991873907295285,0.021798523552874594,0.003373316376041775,1.2934791464212345,10.135043530389355,0.8893490717184059
1731474152.939633,-0.84199458360672,-0.42900434136390686,-10.077438354492188,0.008750493900839457,0.025261499793061474,0.0032886243619953195,1.2931133770914018,10.15502247847295,0.8888795062003366
1731474152.9894435,-1.1347620487213135,-0.6553553342819214,-10.159132957458496,0.008404568212168204,0.02878174672968185,0.0032078472458147507,1.2906302434635055,10.175016916074526,0.8893512139989515
1731474153.0395005,-1.1347620487213135,-0.6553553342819214,-10.159132957458496,0.007942450236089275,0.03233320473540953,0.003129899897042766,1.2866918349949779,10.195211399806505,0.8865647398604987
1731474153.0395005,-0.5375619530677795,0.026560742408037186,-10.053828239440918,0.00736477627864948,0.03590406331195177,0.0030519059877692034,1.2866709807176384,10.195366573222334,0.8865660765354936
1731474153.0893981,-0.6419805884361267,-0.14039817452430725,-10.018117904663086,0.006682237427969111,0.039493879245613824,0.002969571389684929,1.2839866305527015,10.215450118673704,0.8867423118584079
1731474153.13939,-0.48468977212905884,0.17504572868347168,-9.904268264770508,0.005911275628013585,0.043108641652807866,0.002878179627521964,1.2812778842245027,10.2359367843286,0.8869284750873588
1731474153.1893013,-0.5061772465705872,0.20886747539043427,-9.975037574768066,0.0050709465400496385,0.04675694387798501,0.0027736362166477842,1.2786011334198255,10.256396624800555,0.8871204109884716
1731474153.2392278,-0.504601240158081,0.35937514901161194,-9.961531639099121,0.004181411621195173,0.05044744286121038,0.0026530278217558666,1.275926771314932,10.277047487785932,0.8873197653896749
1731474153.2890863,-0.5235366225242615,0.4285810589790344,-9.942535400390625,0.003263223244028368,0.05418689770225023,0.002514615180866764,1.2768885243140664,10.29743860820142,0.8852198815784871
1731474153.3391986,-0.5182399153709412,0.41647854447364807,-9.95583724975586,0.00233703674951992,0.05797883855861177,0.002357665856756861,1.274431292861605,10.318433279252817,0.8852908332640481
1731474153.3890479,-0.5484158992767334,0.4480695128440857,-9.937871932983398,0.001423486024226173,0.06182299841522947,0.002182379411649658,1.2704553605550328,10.339166686383772,0.8846585956078541
1731474153.4390175,-0.5478430390357971,0.4370619058609009,-9.939542770385742,0.0005430881842552848,0.0657153833071147,0.0019898288185407295,1.267733951191207,10.36039499852987,0.8847359378813282
1731474153.4889638,-0.5263280868530273,0.4694240391254425,-9.992203712463379,-0.00028385508838065974,0.06964862261024346,0.0017818407998058128,1.2639932689598126,10.381451463335152,0.8844252942908756
1731474153.5389593,-0.5467596054077148,0.46723413467407227,-9.985711097717285,-0.001037448890264172,0.07361233180725017,0.0015607316883677839,1.2610793687890303,10.403010326757956,0.8845233194868242
1731474153.5898702,-0.551529049873352,0.4757702946662903,-9.996859550476074,-0.0016984300408450618,0.07759345707779465,0.0013289555710677193,1.2581890585951145,10.424755762247218,0.8842827952681529
1731474153.6398945,-0.5152885317802429,0.4587487578392029,-9.976001739501953,-0.002248332761078887,0.08157666054013443,0.0010888861187906833,1.2552291626297376,10.446814982747327,0.884391098587404
1731474153.6898081,-0.5710768699645996,0.47691261768341064,-10.003650665283203,-0.0026696491510529424,0.08554477140599367,0.0008427742927106148,1.2527251261339603,10.46845281407261,0.884309128553962
1731474153.7397523,-0.525538980960846,0.48766395449638367,-9.994609832763672,-0.002945965778673349,0.08947921176249689,0.0005927336438037174,1.2492133501065994,10.49042558513618,0.884211866338179
1731474153.789613,-0.5084438323974609,0.5185731053352356,-9.965476989746094,-0.003062081907604998,0.09336028732779142,0.0003407159255147832,1.2462113288898835,10.512856650369566,0.8843342354295772
1731474153.8396065,-0.5292466878890991,0.4623800218105316,-9.98769760131836,-0.0030042223456725127,0.09716740225630699,8.856954005056076e-05,1.2431769769989731,10.535710400944492,0.8844581481080347
1731474153.88953,-0.48913973569869995,0.46731847524642944,-9.979022026062012,-0.002760257964039668,0.10087940990068124,-0.00016187089804985978,1.240144290388736,10.558744395001053,0.8845816083239141
1731474153.9395475,-0.4685397744178772,0.5056860446929932,-9.99309253692627,-0.002319868492438661,0.10447508487376223,-0.00040879055484372806,1.2399863230647505,10.58153142164168,0.8843648046135411
1731474153.9894257,-0.45702219009399414,0.4998912811279297,-9.956080436706543,-0.001674755890723514,0.10793342353912821,-0.000650436132998026,1.2377146515805764,10.604395475660638,0.8841594828598975
1731474154.0394197,-0.4022035002708435,0.5028836131095886,-9.970311164855957,-0.0008188946136098144,0.11123373969460337,-0.0008850718323619132,1.234908769513197,10.62830282881058,0.8842506095692899
1731474154.089314,-0.42270535230636597,0.48164358735084534,-9.983999252319336,0.00025125344840641286,0.11435580945111129,-0.0011109051636267076,1.2321207393153115,10.65233246040862,0.8843386530230183
1731474154.1392968,-0.38456615805625916,0.5007065534591675,-9.960416793823242,0.0015366163601609082,0.11728013510941865,-0.0013261035144752887,1.2293197061958214,10.676782826047875,0.8844241326527505
1731474154.1892097,-0.3837924003601074,0.4896668791770935,-10.00211238861084,0.0030355175382348245,0.1199881954130721,-0.001528869960234306,1.2265364276327317,10.701423131483875,0.8845056913795062
1731474154.2391903,-0.3806689977645874,0.47306615114212036,-10.001392364501953,0.004743757681502688,0.12246263507591987,-0.00171754805153596,1.2237507267856678,10.72647408219788,0.884583547611648
1731474154.2891269,-0.5227342247962952,0.9770021438598633,-9.972333908081055,0.006654894702659802,0.12468701643990034,-0.0018907497685612725,1.226499383274135,10.750929445044715,0.8843301646391512
1731474154.3391964,-0.6536251306533813,1.1910713911056519,-9.957026481628418,0.008761090012241683,0.12664410240817925,-0.0020473448406234493,1.224094992750013,10.776608144638933,0.8843887491760363
1731474154.389024,-0.5680765509605408,0.5152410864830017,-9.884139060974121,0.011054418549523978,0.12831350520440132,-0.0021862005815708177,1.2217235705257694,10.802517020039934,0.8844418494330624
1731474154.438984,-0.8518714904785156,1.0223649740219116,-10.114818572998047,0.013527996826223649,0.12967157771334883,-0.002305962056014442,1.2224443687092874,10.827647322458654,0.8842910583489888
1731474154.4890203,-0.8518714904785156,1.0223649740219116,-10.114818572998047,0.016176924818645886,0.13069295470780157,-0.002405466589573826,1.2202640965026252,10.854367353065332,0.8843310363295975
1731474154.4890203,-0.5428992509841919,0.5303182005882263,-9.948053359985352,0.018998967126555646,0.13135124730278808,-0.0024845571750607438,1.2202461704044938,10.854590524340914,0.8843313427314932
1731474154.4890203,-0.5428992509841919,0.5303182005882263,-9.948053359985352,0.021993867656106694,0.13162027351605338,-0.002544107061819949,1.2195925347007555,10.86277643212166,0.8843422552422804
1731474154.8706543,-0.5428992509841919,0.5303182005882263,-9.948053359985352,0.02516149843204852,0.13147676472691208,-0.0025851719216631783,1.2039254837633628,11.064359345006856,0.8845037892863414
1731474154.8706543,-0.253031849861145,0.3442539572715759,-9.981415748596191,0.02850032458518892,0.13090238503969145,-0.002608390236618584,1.2039099382826788,11.06459877060873,0.8845038891221374
1731474154.9205117,-0.23775433003902435,1.9156547784805298,-9.855184555053711,0.032006155081715906,0.1298831652234903,-0.002613905458812054,1.2050017077803559,11.092144088581438,0.8844165862677995
1731474154.9705315,-0.23775433003902435,1.9156547784805298,-9.855184555053711,0.03567083046122589,0.12840464055130407,-0.002601175672260688,1.2033991175439613,11.121484976950336,0.8844162885178762
1731474154.9705315,-0.4001409411430359,0.5899046659469604,-9.77047061920166,0.039481799265455184,0.12644577908827737,-0.0025684580745103302,1.20338965858572,11.121663995742889,0.8844162672831788
1731474155.020408,-0.1947299689054489,1.112312912940979,-10.022409439086914,0.043422879045976734,0.12397935471904814,-0.002512522332122043,1.2037237206264548,11.149945894389694,0.8843434681329374
1731474155.0704117,-0.21322882175445557,0.8714746236801147,-10.088143348693848,0.047475010114923076,0.12097762107851237,-0.002429323811002906,1.2023914015416917,11.17999578207583,0.8843301593160923
1731474155.1203022,-0.2239534556865692,0.9041865468025208,-9.905142784118652,0.05161635187814311,0.11741586696284928,-0.0023153186131507145,1.2011663131834855,11.210738083067554,0.8843107111785585
1731474155.1704328,-1.3943976163864136,-0.5810168385505676,-10.084527969360352,0.05582345496570243,0.11327446322441007,-0.0021681375362109898,1.2000892868684634,11.241402864835518,0.8842859184278542
1731474155.2202253,-0.5982986688613892,0.3721615672111511,-10.063822746276855,0.060075121506201444,0.10854343008574203,-0.0019865605491524306,1.199134157367551,11.273114754735635,0.8842551841948818
1731474155.2702136,-0.46314603090286255,0.03619835898280144,-10.011496543884277,0.06435561658843518,0.10322649044950113,-0.0017706272230795235,1.2010958106569947,11.301368521791874,0.8842129879909162
1731474155.320184,-0.5183843374252319,0.10595713555812836,-10.015792846679688,0.0686534418296664,0.0973406823354063,-0.0015216530958586149,1.2005606083584124,11.333900276947091,0.8841770557570081
1731474155.3702235,-0.11161405593156815,0.15249505639076233,-10.028287887573242,0.07295805633446564,0.09091397949491412,-0.0012418746682894383,1.2013163521776955,11.3624386416896,0.8841493523002785
1731474155.4200754,-0.11161405593156815,0.15249505639076233,-10.028287887573242,0.07725742859725969,0.08398351145319954,-0.0009341661918132574,1.2011391683917125,11.394339581126951,0.8841131205182963
1731474155.4200754,0.01588253118097782,0.03391246125102043,-10.020575523376465,0.08153611914483261,0.07659402672910579,-0.0006019577842014971,1.2011364874394548,11.395441938527021,0.884111831907017
1731474155.469965,-0.25383296608924866,0.3448643088340759,-9.974748611450195,0.08577430637148803,0.06879648689784018,-0.00024910857074892566,1.2011639336229636,11.426437706962231,0.8840753827446474
1731474155.5198517,-0.10165785253047943,0.2227284014225006,-9.922452926635742,0.08994843319075493,0.060646447120400335,0.00012043003232019005,1.201406882248923,11.458703136793883,0.8840374769994035
1731474155.5699394,-0.1839110553264618,0.4192267656326294,-9.99095344543457,0.09403255871744695,0.052202021474419706,0.0005030623569243198,1.201487514994036,11.488483864383783,0.8840401135177893
1731474155.6198208,-0.19280876219272614,0.3612631559371948,-9.950533866882324,0.0979993658335275,0.04352207674906979,0.0008957687742692859,1.2020734517633664,11.522189111865393,0.8840094186742609
1731474155.6698928,-0.00384950777515769,0.6912849545478821,-9.922014236450195,0.10182071349675864,0.03466467844940519,0.001296074304170891,1.2013254749839046,11.545331316238896,0.8841499670084059
1731474155.7207956,-0.00384950777515769,0.6912849545478821,-9.922014236450195,0.1054676606043435,0.025685268421732244,0.0017021071688155256,1.1998233493332688,11.564034745851353,0.884370989489299
1731474155.7207956,0.744889497756958,1.6483407020568848,-9.939879417419434,0.10890940208018046,0.016633982528881756,0.0021127423877243894,1.1998271325468484,11.564228447741552,0.8843711249485834
1731474155.770732,0.3141680657863617,1.1341841220855713,-10.00156307220459,0.11211102008937615,0.007551906323745928,0.0025275129271643444,1.2005879548984817,11.596189639738084,0.8843965503389755
1731474155.8206358,-0.22723086178302765,1.8611536026000977,-9.893811225891113,0.11503245284197021,-0.0015321655451877034,0.002946311790368059,1.2016567733120833,11.629039440172644,0.8844295994558208
1731474155.8706558,-0.4820658564567566,1.1263463497161865,-9.909140586853027,0.1176316868907393,-0.010602705858332806,0.0033693071629845995,1.2029850098319348,11.661038326900787,0.8844695820922569
1731474155.9206085,-0.49431735277175903,1.4234706163406372,-9.892594337463379,0.11987043377636633,-0.01965606862635156,0.003797193084757857,1.201693245036242,11.681497151841093,0.8845553483157134
1731474155.970523,-0.49431735277175903,1.4234706163406372,-9.892594337463379,0.12171795911627283,-0.02869787114448723,0.004231401046823755,1.2005570597321948,11.696377510286501,0.8847182650817266
1731474155.970523,-0.07631285488605499,0.5004467964172363,-10.070384979248047,0.12315160589797519,-0.03774018449405432,0.004673932189098296,1.2005669441325324,11.69659436216825,0.8847187800665725
1731474156.0204434,-0.24069371819496155,-0.35270124673843384,-10.206377029418945,0.12415498531562888,-0.04679660320709422,0.005126520070719591,1.2021638266017884,11.728195040397136,0.8848003124593619
1731474156.0704284,-0.6625279188156128,-0.9579870700836182,-10.202309608459473,0.12471619025021333,-0.055873392198298386,0.005589209106851426,1.2040929047464703,11.760064451634543,0.8848963124671432
1731474156.1203353,-0.7205891013145447,-0.26662561297416687,-10.021163940429688,0.12482846296047306,-0.06496090768111898,0.006059402580366999,1.2063163461957516,11.7915106651074,0.8850059997782526
1731474156.170457,-0.539745032787323,-0.3440362215042114,-10.02015209197998,0.12449229294126268,-0.07403124318007587,0.006532308367545432,1.2041305099389352,11.805598236494093,0.8850534941158101
1731474156.220292,-0.539745032787323,-0.3440362215042114,-10.02015209197998,0.12371590664767088,-0.08304172047384879,0.007002193789389848,1.2065359566081304,11.836337761109048,0.8851847019026824
1731474156.220292,-0.7099660634994507,-0.18074804544448853,-9.97559928894043,0.12251402961710031,-0.09193922014774718,0.007463292780110261,1.2065572434680087,11.836592609806969,0.8851858656852
1731474156.270222,-0.7099660634994507,-0.18074804544448853,-9.97559928894043,0.12090700301769981,-0.10066327514567211,0.007910205911964882,1.2043358946124114,11.851327173775081,0.8851518904407184
1731474156.270222,-0.4648881256580353,-0.01231425255537033,-9.95477294921875,0.11892048079012532,-0.10914885497174978,0.008338172031905889,1.2043515159597327,11.85152461662421,0.8851527898336565
1731474156.320121,-0.4648881256580353,-0.01231425255537033,-9.95477294921875,0.11658429469417735,-0.11732905510370109,0.008743269233268212,1.2069425396496922,11.88221819386632,0.8853045860264398
1731474156.320121,-0.6345815658569336,0.11943099647760391,-9.89240837097168,0.11393068141968075,-0.12513742616926593,0.009122551193371808,1.2069602155911072,11.882415107012033,0.8853056375408096
1731474156.370157,-0.4727819561958313,0.4156271815299988,-9.890789985656738,0.11099333425569281,-0.1325101608251364,0.009474245217579016,1.2052610529295227,11.895033344229006,0.8852553941345233
1731474156.419992,-0.4727819561958313,0.4156271815299988,-9.890789985656738,0.10780709453925583,-0.1393885419935475,0.009797967775193818,1.2079257175534566,11.924349152744115,0.8854244575276353
1731474156.419992,-0.4746846556663513,0.4383656084537506,-9.960733413696289,0.10440728538314391,-0.14572116453421982,0.010094700450546402,1.2079436132317312,11.924535476334446,0.8854256165381744
1731474156.4700122,-0.4082532823085785,0.4868992269039154,-9.922954559326172,0.10082890171614214,-0.15146498710094064,0.010366427193793257,1.2108685245463056,11.953491161303086,0.8856198253700461
1731474156.5199811,-0.4082532823085785,0.4868992269039154,-9.922954559326172,0.09710601713610836,-0.15658541172027265,0.010615729297587317,1.2081376610158976,11.964322327764407,0.8854961464700573
1731474156.5199811,-0.42095184326171875,0.46034306287765503,-9.94420051574707,0.09327130796166737,-0.16105603438468882,0.010845606312031979,1.2081564617847684,11.964513604717954,0.8854974915391138
1731474156.5699735,-0.3570947051048279,0.568742036819458,-9.979055404663086,0.08935573996400116,-0.1648582360541817,0.011059349593787196,1.2110343884147814,11.992456758449617,0.8857091900472815
1731474156.6198468,-0.3570947051048279,0.568742036819458,-9.979055404663086,0.08538833444301468,-0.167980854828307,0.011260258660622137,1.2092119309178582,12.001376646549396,0.8855847265815915
1731474156.6198468,-0.35170891880989075,0.5658196806907654,-10.006991386413574,0.08139589441879595,-0.1704200298484666,0.011451315164486026,1.2092282260362088,12.001535422728114,0.8855859898832202
1731474156.6698449,-0.35522300004959106,0.5524300336837769,-9.985919952392578,0.07740285309045704,-0.1721788492190057,0.011634972031400235,1.2121103577232195,12.028464122416082,0.8858164456402565
1731474156.7197773,-0.3219449818134308,0.549161434173584,-9.999293327331543,0.07343129036302996,-0.17326666231365237,0.011813087245635286,1.2151836148896402,12.055001101667035,0.8860763150767608
1731474156.7707493,-0.28970977663993835,0.5290778875350952,-9.999696731567383,0.06950091694054808,-0.17369828139556298,0.011986956847842017,1.2185108978030974,12.081700565338993,0.8863727219097236
1731474156.8206139,-0.28970977663993835,0.5290778875350952,-9.999696731567383,0.06562893899777852,-0.17349321059040138,0.012157361375349831,1.214242185975846,12.087160564205941,0.8861493201386133
1731474156.8206139,-0.3143123984336853,0.5126650929450989,-10.002466201782227,0.06182998220360317,-0.17267492623183087,0.012324600239635428,1.2142622966373493,12.087333422086694,0.8861513079540183
1731474156.870688,-0.2599155902862549,0.5240530371665955,-9.9974946975708,0.05811621088685248,-0.17127023604428396,0.012488541447511079,1.2121166929333016,12.091238226988406,0.886137567727725
1731474156.9205627,-0.2969132363796234,0.4891177713871002,-9.995007514953613,0.054497498314227594,-0.1693087146323023,0.012648692912545337,1.2148073590403123,12.115310597704847,0.8864406968730798
1731474156.9705002,-0.2969132363796234,0.4891177713871002,-9.995007514953613,0.05098157858065294,-0.16682215548095797,0.012804288654112176,1.2129303779233573,12.117296243298165,0.8864279599089575
1731474156.9705002,-0.2292598932981491,0.49995648860931396,-10.004132270812988,0.04757423259414979,-0.16384403876579842,0.01295436057976892,1.2129503800965655,12.117481358431572,0.8864304893838847
1731474157.0204966,-0.2579132318496704,0.4924958348274231,-10.007848739624023,0.04427936608246736,-0.16040911617358716,0.01309775917675683,1.2155495749989473,12.140820165578381,0.8867685903892865
1731474157.0704823,-0.24598565697669983,0.4703907370567322,-10.037233352661133,0.041098988737116135,-0.15655309290912836,0.013233110050367373,1.2182613703012795,12.163815885398963,0.8871403661584365
1731474157.1203732,-0.2604096531867981,0.4892358183860779,-9.96359920501709,0.038033337330011074,-0.152312287372132,0.01335877512823915,1.221082755791457,12.186508173953358,0.887546974098424
1731474157.1703653,-0.2412901222705841,0.49372807145118713,-10.008519172668457,0.035081131042539765,-0.14772331858246557,0.01347296062218192,1.2173457364921005,12.184483524464786,0.887209341172892
1731474157.2202988,-0.25269076228141785,0.49582356214523315,-9.967084884643555,0.03223979526757724,-0.14282291888992976,0.013573931226588806,1.2160035259231115,12.181736345012778,0.8872873880619551
1731474157.2702527,-0.29472479224205017,0.49913355708122253,-9.967273712158203,0.029505681749018388,-0.13764780584124928,0.013660173390894637,1.2183839331606532,12.202776571626993,0.8877097563908104
1731474157.3201697,-0.2970694601535797,0.489962100982666,-10.00029182434082,0.026874411084497125,-0.13223452160295168,0.013730485194283692,1.2208222934573696,12.223373554100357,0.8881640289916893
1731474157.370167,-0.34497785568237305,0.48454904556274414,-9.985206604003906,0.024341316293515852,-0.12661922449609384,0.013783954438545905,1.223332705973665,12.243717141182179,0.8886541333909288
1731474157.4200604,-0.34497785568237305,0.48454904556274414,-9.985206604003906,0.021901868272968104,-0.1208374518676728,0.01381984766154951,1.2196232388565458,12.237104141749498,0.8880871826542199
1731474157.4200604,-0.33604687452316284,0.4833928644657135,-9.957088470458984,0.019551986750835262,-0.1149239029822065,0.013837589455845026,1.2197132844235508,12.237907409955254,0.8881059446764028
1731474157.4700716,-0.3997398614883423,0.48361581563949585,-10.031452178955078,0.0172882027718662,-0.10891227517378507,0.013836814635662437,1.2218462649887063,12.256617509215836,0.8885626533935067
1731474157.5199513,-0.34380197525024414,0.5006750226020813,-9.992836952209473,0.015107764076459806,-0.10283515540414843,0.013817284215361226,1.2192240839815773,12.248618552738536,0.888078853464047
1731474157.570007,-0.40116724371910095,0.47793707251548767,-9.987176895141602,0.013008704454170853,-0.09672395654338833,0.013778724450639194,1.2211775557947246,12.266901925838726,0.8885320909889791
1731474157.6199002,-0.3695700168609619,0.49243950843811035,-9.979872703552246,0.01098982836984565,-0.09060884482395612,0.0137208401588611,1.2203136595859465,12.25688201766481,0.8881015262195239
1731474157.6698487,-0.41193339228630066,0.5345649719238281,-9.984530448913574,0.009050680951352478,-0.08451868172998209,0.013643458196427007,1.2222304156801516,12.274587020842928,0.8885517950207588
1731474157.7197323,-0.41193339228630066,0.5345649719238281,-9.984530448913574,0.007191560531916958,-0.07848110760831736,0.013546601236699242,1.2209579604386125,12.26249597752612,0.8881472490804817
1731474157.7197323,-0.39578092098236084,0.5249258279800415,-9.9964017868042,0.005413532856153042,-0.07252269749314309,0.013430466152447116,1.2209667102345287,12.262581026648022,0.8881493845100533
1731474157.7697887,-0.4148857295513153,0.5152393579483032,-10.009360313415527,0.0037183631648102684,-0.0666689605733565,0.013295343675376294,1.2227518286372001,12.279804296794724,0.8886004927866451
1731474157.8206913,-0.4148857295513153,0.5152393579483032,-10.009360313415527,0.002108384528853037,-0.06094416627947364,0.013141498917753134,1.2227284782414614,2.01846307237745,0.8883495795930009
1731474157.8206913,-0.38384121656417847,0.5252273082733154,-9.947656631469727,0.00058637404900129,-0.05537116678006805,0.012969128084828467,1.2227369365974656,2.018204120879179,0.8883517357472865
1731474157.8705866,-0.38384121656417847,0.5252273082733154,-9.947656631469727,-0.0008446349394037107,-0.049971318353777966,0.01277854433533941,1.2244323627465117,1.9662099669578554,0.8887991941648434
1731474157.8705866,-0.37471675872802734,0.512197732925415,-9.963825225830078,-0.0021816193752748968,-0.04476445888324906,0.012570476102691736,1.2244407295725768,1.9659529376128844,0.8888014777977482
1731474157.9205194,-0.37471675872802734,0.512197732925415,-9.963825225830078,-0.003421781583743614,-0.03976884846836403,0.012346172206683674,1.2262225602366972,1.9110260165054647,0.8893051490070946
1731474157.9205194,-0.39332878589630127,0.548274040222168,-9.980907440185547,-0.0045626480944924155,-0.03500110656623427,0.012107273515555801,1.226238037564494,1.9105472493506916,0.8893096759939589
1731474157.970504,-0.3940364420413971,0.5331264734268188,-9.951216697692871,-0.005602057338153846,-0.030476263658585193,0.011855652787037017,1.227923318844589,1.8581737919254389,0.8898186445774202
1731474158.0204077,-0.3940364420413971,0.5331264734268188,-9.951216697692871,-0.006538088193819319,-0.026207871233069016,0.011593367957211338,1.2296554254347312,1.8038049472612625,0.8903754737707292
1731474158.0204077,-0.3720216453075409,0.5273372530937195,-10.012054443359375,-0.007369042802484109,-0.022208015919032043,0.011322663124772907,1.2296635409203882,1.8035488249933314,0.8903781647059272
1731474158.070431,-0.36154696345329285,0.5203379988670349,-9.981355667114258,-0.008093551966337795,-0.018487246428925557,0.01104582222737042,1.2266944689435475,1.7504069074716706,0.8892954016795779
1731474158.1203873,-0.36154696345329285,0.5203379988670349,-9.981355667114258,-0.00871074935144211,-0.015054499204326253,0.010764951891916463,1.228153967210611,1.6952354322134116,0.8897973951195528
1731474158.1203873,-0.33269548416137695,0.5211107134819031,-9.980409622192383,-0.009220421076556235,-0.011917057660289871,0.010481936813189083,1.2281623743694834,1.6949150149462795,0.8898003911331608
1731474158.170318,-0.3207956552505493,0.5135068893432617,-9.99845027923584,-0.009623136699202992,-0.00908055259696779,0.01019849867572021,1.2282997301679472,1.6422774626546652,0.8889841180592568
1731474158.2202368,-0.30687013268470764,0.5224953889846802,-9.994780540466309,-0.009920400483376779,-0.006548988025560156,0.009916175415881062,1.228141042844532,1.5869488145401491,0.8885290625442664
1731474158.2701979,-0.3119085729122162,0.5182780623435974,-9.960308074951172,-0.010114762192282512,-0.004324787776480974,0.009636284104522046,1.2294786976807124,1.5341907282883664,0.8889178134091728
1731474158.3202002,-0.3232634663581848,0.5220323204994202,-9.994431495666504,-0.010209800498409147,-0.002408868127193085,0.00935999004994437,1.2308637698349332,1.478523785596321,0.8893523332277475
1731474158.3702445,-0.28144803643226624,0.5371149778366089,-9.997028350830078,-0.010210010650991933,-0.0008007324975768242,0.009088375363478368,1.2301279057991146,1.4257168958197604,0.8887609811334253
1731474158.4200966,-0.28144803643226624,0.5371149778366089,-9.997028350830078,-0.010120749909833804,0.0005013976056398958,0.008822373505186736,1.2313168539960344,1.371747717654562,0.889154107893263
1731474158.4200966,-0.31811031699180603,0.5085797905921936,-9.998974800109863,-0.009948242619627852,0.001500461273760929,0.00856267360780053,1.231349962905082,1.3702283643842956,0.889165491810372
1731474158.4701083,-0.2963423728942871,0.5248386859893799,-9.973089218139648,-0.009699452290686729,0.002200539554974102,0.00830972544499066,1.2312797073778132,1.317498621624017,0.8884892635744621
1731474158.5199509,-0.2880183458328247,0.5108221173286438,-10.006240844726562,-0.009381858881896939,0.002606891772119283,0.008063820340552141,1.2323964137702386,1.26363145843167,0.8888382223276029
1731474158.5699735,-0.2980497181415558,0.49068212509155273,-9.973512649536133,-0.009003341023811808,0.0027259621337728563,0.007825153869260786,1.2335050450668208,1.2090423507068597,0.889211935865307
1731474158.6198955,-0.2980497181415558,0.49068212509155273,-9.973512649536133,-0.008572115145711151,0.0025654031144023313,0.007593867381457344,1.2345814973261187,1.1549606742177123,0.8896015281012385
1731474158.6198955,-0.31672346591949463,0.5230117440223694,-9.992152214050293,-0.008096600191818872,0.0021340803328959144,0.0073701173205034855,1.2345884256148714,1.1546091023929703,0.8896041228132219
1731474158.6698563,-0.3087119460105896,0.5085582733154297,-10.039146423339844,-0.007585228989012236,0.0014419271739450593,0.00715404848332596,1.2333738429578818,1.1012320375315372,0.8888190331689416
1731474158.719787,-0.37044280767440796,0.5171928405761719,-9.983965873718262,-0.007046235744192086,0.0004997126516885952,0.006945602258937948,1.2342901783217626,1.0470758660427988,0.8891701329401883
1731474158.769825,-0.35450124740600586,0.50801682472229,-9.950888633728027,-0.006487378623786716,-0.0006811174534615149,0.006744454398575148,1.2347319194405735,0.9930638405274773,0.8885598407243789
1731474158.8206687,-0.35450124740600586,0.50801682472229,-9.950888633728027,-0.005915673861801248,-0.0020885164681164227,0.0065502885230197426,1.235683347219598,0.9381230049732385,0.888886885490653
1731474158.8206687,-0.3457523584365845,0.5308553576469421,-10.02107048034668,-0.005337317848733723,-0.0037099106949227576,0.006363068839452084,1.2356882117966712,0.9378398064350146,0.8888886148589333
1731474158.8708599,-0.3598632216453552,0.5240755081176758,-9.973990440368652,-0.004757768899913195,-0.005532334416655424,0.006182955250096928,1.2366171307109375,0.8834025744372354,0.8892288462905059
1731474158.9206185,-0.3598632216453552,0.5240755081176758,-9.973990440368652,-0.00418181260948205,-0.007542593624985021,0.006010090797576189,1.237520971880731,0.8297718486879642,0.8895789890088999
1731474158.9206185,-0.37419551610946655,0.5006221532821655,-9.971975326538086,-0.0036135543468005793,-0.009727346667750329,0.005844604124763451,1.237525634733688,0.8294935391114897,0.889580844105363
1731474158.970634,-0.3892771303653717,0.5268489718437195,-10.022506713867188,-0.0030563682287350503,-0.012073090717551546,0.005686676156345405,1.236860185543678,0.7755947467354465,0.8888530370641584
1731474159.0204418,-0.3892771303653717,0.5268489718437195,-10.022506713867188,-0.0025128243324920923,-0.014566184109954174,0.005536399404315898,1.2376844586902678,0.7218605633317651,0.8891700360183675
1731474159.0204418,-0.42074161767959595,0.5047159194946289,-9.953629493713379,-0.0019846180531146894,-0.01719294830142279,0.005393584649403341,1.2376905480652098,0.7214619648874309,0.8891724374727581
1731474159.0705018,-0.42074161767959595,0.5047159194946289,-9.953629493713379,-0.001472500484393812,-0.019939717320871853,0.005257871348251293,1.2399972850456218,0.667806130348942,0.8887354167600336
1731474159.0705018,-0.4061630666255951,0.5313308238983154,-9.978107452392578,-0.0009762402178136502,-0.022792820345652796,0.005129059679000719,1.240002730386921,0.6675387863777761,0.8887369018286723
1731474159.1203768,-0.4061630666255951,0.5313308238983154,-9.978107452392578,-0.0004947121416325437,-0.025738661368201975,0.005007246019878143,1.2412208812314711,0.613913112427988,0.8883390551816146
1731474159.1203768,-0.40526318550109863,0.5140536427497864,-10.022367477416992,-2.609589647591378e-05,-0.02876388444903008,0.004892664750897549,1.241228217551067,0.6135726964667516,0.8883407021181644
1731474159.170345,-0.3965300917625427,0.502784788608551,-9.966509819030762,0.000431934067178589,-0.0318554330450078,0.004785465085973873,1.2423981218780549,0.5592724679939766,0.8886092162303022
1731474159.2203305,-0.3965300917625427,0.502784788608551,-9.966509819030762,0.0008820540200301073,-0.03500047022197591,0.004685659549900355,1.2435652664461512,0.5050930183040979,0.888888460673088
1731474159.2203305,-0.38581791520118713,0.508468508720398,-9.955740928649902,0.0013271435736099532,-0.03818630699552948,0.004593293380503952,1.2435726261667313,0.5047514237730928,0.8888902565959895
1731474159.2702694,-0.3934820294380188,0.535594642162323,-9.982986450195312,0.0017701526759356892,-0.04140045305656355,0.004508611219392805,1.2447455676415118,0.4503612584911343,0.8891815756915318
1731474159.3201983,-0.35386738181114197,0.5342658758163452,-9.970437049865723,0.0022139763695153913,-0.0446307923179519,0.004432042278615638,1.2455781799650554,0.3964938990293957,0.8885650535143159
1731474159.3701587,-0.3599652647972107,0.5136325359344482,-9.988588333129883,0.0026612870497317326,-0.047865760705888064,0.0043640841669274535,1.246772746158828,0.34162277839047367,0.8888213100995432
1731474159.4200087,-0.32312655448913574,0.5253065824508667,-10.006949424743652,0.003114320472188185,-0.05109438542692918,0.004305180126042911,1.2482018325138662,0.28675820443432193,0.8883498459368048
1731474159.4701254,-0.32851725816726685,0.5242536067962646,-9.958294868469238,0.00357467473606907,-0.054306235213013435,0.004255617948721471,1.2494510438149138,0.23249647529058837,0.888576839482613
1731474159.5200732,-0.2989529073238373,0.5134327411651611,-9.978981018066406,0.004043157114311886,-0.05749140256112955,0.004215548625394805,1.2507335039018908,0.1770647760211188,0.8888187375976223
1731474159.5699933,-0.2976040542125702,0.528435468673706,-10.035711288452148,0.004519677227920758,-0.06064050672325991,0.004185054947937327,1.2520136585009018,0.12204595571856704,0.8890686394393389
1731474159.6201284,-0.2976040542125702,0.528435468673706,-10.035711288452148,0.005003194595878187,-0.06374470580124568,0.0041639986481176,1.2526901134297188,0.0672213178930208,0.8883710793668074
1731474159.6201284,-0.2584826648235321,0.5214108228683472,-9.999695777893066,0.0054917202831059045,-0.06679573871729333,0.004151746253073371,1.252696694158144,0.06693376643526157,0.8883721603663667
1731474159.6698892,-0.29298895597457886,0.5123870372772217,-9.98195743560791,0.005982333717594586,-0.06978593547576864,0.004147169711385318,1.2539613303206778,0.011909842758529528,0.8885837923760354
1731474159.7198591,-0.2805013358592987,0.5189118385314941,-9.997715950012207,0.006471251626798737,-0.07270816224722493,0.004148923345935806,1.255263578727092,-0.04424884477774852,0.8888095191908242
1731474159.7697053,-0.25231388211250305,0.526025652885437,-9.983038902282715,0.006953973765086963,-0.0755557803091091,0.004155671036761833,1.2560467539564748,-0.09865832165771996,0.8881104385774953
1731474159.8196115,-0.2625800669193268,0.5331252813339233,-9.989421844482422,0.007425372233839694,-0.07832268257151374,0.00416615614519612,1.2573664652740806,-0.15582953385458742,0.8883036998160518
1731474159.870672,-0.25197145342826843,0.5226522088050842,-10.016423225402832,0.007879710111610368,-0.08100336426385646,0.004179193617500342,1.2586860797799495,-0.2123583236641131,0.8885046835533287
1731474159.9206076,-0.2829984724521637,0.5082409381866455,-9.991646766662598,0.008310739282460324,-0.08359292937598968,0.004193601245138938,1.2600234709506788,-0.26898514263315026,0.8887157840981559
1731474159.9705005,-0.28480449318885803,0.5353925824165344,-9.947487831115723,0.008711928571978174,-0.08608702183892784,0.004208185977420616,1.260476141947067,-0.3242107166895835,0.8880710528670074
1731474160.0204332,-0.2747306227684021,0.5366898775100708,-10.02096939086914,0.009076733295249448,-0.08848180623674301,0.004221883199506124,1.2624923542651552,-0.38499840596388396,0.887696060909107
1731474160.0705328,-0.2890772521495819,0.5572153329849243,-9.990310668945312,0.009398781086200257,-0.09077406726426863,0.004233816818872426,1.2637831597633933,-0.43702142327298293,0.8878483200007639
1731474160.120394,-0.30816128849983215,0.5108066201210022,-9.969518661499023,0.009671992194491675,-0.092961305371489,0.004243195901507459,1.265229210833183,-0.4945991955245004,0.8880263599000457
1731474160.1703773,-0.3075338900089264,0.5318730473518372,-9.989680290222168,0.0098907442764193,-0.095041680356652,0.004249310203170744,1.2666943604403451,-0.5521981809357013,0.8882143622466523
1731474160.220353,-0.3376113772392273,0.514896035194397,-9.994827270507812,0.01005007011911822,-0.09701385147082073,0.004251607550412312,1.2668983820995028,-0.6088569144831216,0.8877408244651659
1731474160.2703774,-0.34983736276626587,0.5286862254142761,-9.962014198303223,0.01014584824084508,-0.09887686940476807,0.004249683360742194,1.2683062618087197,-0.6667251448430149,0.8879138223703442
1731474160.3201654,-0.3544542193412781,0.5517596006393433,-9.99022388458252,0.010174985630721351,-0.10063017819736107,0.004243276746640094,1.2696424974839606,-0.7197378382758032,0.8875454986944225
1731474160.370143,-0.3516252934932709,0.5374683141708374,-9.990341186523438,0.01013552546613395,-0.10227370353849308,0.004232293416018504,1.2703422978137,-0.7723060427986487,0.887305329331386
1731474160.4202018,-0.35329899191856384,0.519231379032135,-9.9598970413208,0.010026626555669084,-0.10380791208423112,0.004216772573746965,1.2717843216035227,-0.8312793595522396,0.8874568084359268
1731474160.4702244,-0.3345542550086975,0.5284436941146851,-9.966591835021973,0.009848448159283055,-0.10523372658462951,0.004196899963617933,1.273236280820155,-0.8899068476998242,0.8876172110819125
1731474160.5200076,-0.3611922562122345,0.5078816413879395,-10.020652770996094,0.00960199908644517,-0.10655237403409674,0.004173051966955423,1.2747231222601925,-0.949224324726706,0.8877892606960055
1731474160.570008,-0.3498118817806244,0.5143244862556458,-10.008946418762207,0.009289028095290891,-0.10776527143269866,0.004145654270935202,1.2741362899804163,-1.0024798018784422,0.8875426364877775
1731474160.6198819,-0.33152875304222107,0.5191381573677063,-9.96742057800293,0.008911954328203305,-0.10887395742177423,0.004114962938446817,1.2755009623387483,-1.0620838799696852,0.8877134385825717
1731474160.6699362,-0.3189314603805542,0.520063042640686,-9.994635581970215,0.00847371976330588,-0.10988008728502506,0.004081076942375463,1.275516061151594,-1.1129113206470234,0.8875980725724278
1731474160.7198498,-0.31146132946014404,0.49782794713974,-9.991044998168945,0.007977548799921354,-0.11078545453475928,0.004044085883932539,1.2768351082835627,-1.1730596997880782,0.8877779537535325
1731474160.7696915,-0.27925825119018555,0.5191643238067627,-9.976333618164062,0.007426707668184971,-0.11159196131123005,0.004004111835871886,1.2768534800678994,-1.2222661282401668,0.8876875748089625
1731474160.8196826,-0.26903486251831055,0.5131709575653076,-9.989280700683594,0.00682427138008173,-0.11230158400318598,0.003961305355262698,1.2781234265985781,-1.2829216043814646,0.8878745835221286
1731474160.8696597,-0.2614664137363434,0.5186227560043335,-10.001703262329102,0.006172898823740501,-0.11291640363630764,0.0039158516778677235,1.2781513070929742,-1.3355756235254268,0.8877873151236632
1731474160.9207711,-0.2614664137363434,0.5186227560043335,-10.001703262329102,0.005474696670016483,-0.11343865522604145,0.0038679070717229994,1.27938810371261,-1.3980747958572812,0.8879815141611179
1731474160.9207711,-0.2740640342235565,0.5009732246398926,-9.956851959228516,0.004731219637425527,-0.11387073499035559,0.0038175434865230654,1.2793943853559875,-1.3983911340869999,0.8879825206567217
1731474160.9705622,-0.274027019739151,0.5083372592926025,-10.000702857971191,0.003943581171795623,-0.1142151506435031,0.0037648281000958214,1.27974102031856,-1.4502682255232615,0.8879426865316615
1731474161.02048,-0.274027019739151,0.5083372592926025,-10.000702857971191,0.0031126048272060673,-0.11447445648580641,0.0037098983861076186,1.2812532091061322,-1.5030553661021544,0.8878391716461083
1731474161.02048,-0.2422710508108139,0.5382094979286194,-10.02502155303955,0.002238911944776114,-0.11465126438218334,0.003652854828064516,1.2812609787600346,-1.503430302413147,0.887840238145639
1731474161.070523,-0.2966766655445099,0.5066756010055542,-9.966814994812012,0.001322928154032728,-0.11474833856930247,0.00359361495348444,1.2825201381482245,-1.5642553959498247,0.8880172850506562
1731474161.1204453,-0.2966766655445099,0.5066756010055542,-9.966814994812012,0.00036496998836427663,-0.11476863847960014,0.003531982866501028,1.2837954842822876,-1.6260472209354269,0.8882051961990817
1731474161.1204453,-0.24885393679141998,0.5543649792671204,-9.974495887756348,-0.0006345679793221143,-0.11471527797566798,0.0034678905688121384,1.283802043143019,-1.6263656349874258,0.8882061851252883
1731474161.1704516,-0.24885393679141998,0.5543649792671204,-9.974495887756348,-0.0016751959934317585,-0.11459159281817524,0.003401541508228585,1.285063521408635,-1.6878486663937047,0.8884009033697587
1731474161.1704516,-0.2737577557563782,0.5325854420661926,-10.017370223999023,-0.002756497094706801,-0.11440131857554116,0.0033333416403345953,1.28507133211647,-1.6882308598746434,0.8884021371001719
1731474161.2202854,-0.2737577557563782,0.5325854420661926,-10.017370223999023,-0.0038781642544838176,-0.11414861944821283,0.0032636842018495217,1.2844848262441237,-1.7401739627086041,0.8881258581239356
1731474161.2202854,-0.2906055152416229,0.5151991844177246,-9.989680290222168,-0.005039841357096076,-0.1138379226923176,0.003192735563220154,1.284491539316105,-1.7405473188906844,0.8881268958714347
1731474161.2703397,-0.2906055152416229,0.5151991844177246,-9.989680290222168,-0.006240944863626426,-0.11347372260363035,0.0031204147688246473,1.2855937599333633,-1.8024172814511785,0.8883023301805542
1731474161.2703397,-0.3137006163597107,0.5183002948760986,-9.986680030822754,-0.007480531118110056,-0.1130604417707442,0.003046547263116521,1.2856005285758496,-1.8028007669391817,0.8883034389489647
1731474161.3202085,-0.3137006163597107,0.5183002948760986,-9.986680030822754,-0.00875717851466452,-0.11260237150663112,0.0029709934465756297,1.2856055975055374,-1.8544933941108162,0.888055009442839
1731474161.3202085,-0.3133438229560852,0.5345419645309448,-10.003192901611328,-0.010068897836760373,-0.11210368806442408,0.0028936733619206287,1.2856117329813226,-1.8548671411983808,0.8880559369170551
1731474161.370244,-0.3133438229560852,0.5345419645309448,-10.003192901611328,-0.011413121318355368,-0.111568519768678,0.0028145122099856963,1.2856446401192239,-1.9061015773772658,0.8878944265323825
1731474161.370244,-0.3098906874656677,0.528404951095581,-10.000290870666504,-0.012786767407211616,-0.11100101799083315,0.002733358971594853,1.2856500110424234,-1.9064678347462471,0.8878952228401036
1731474161.4202275,-0.3098906874656677,0.528404951095581,-10.000290870666504,-0.0141863327456251,-0.11040536662535325,0.002649953194937231,1.2865540536272557,-1.9694730326091001,0.8880352416135974
1731474161.4202275,-0.33454248309135437,0.49304723739624023,-9.936529159545898,-0.015607960103982825,-0.10978570112514768,0.002564005338461947,1.2865613139503613,-1.969990395928189,0.8880364162227466
1731474161.470167,-0.3619610667228699,0.5299280881881714,-10.047443389892578,-0.01704740464354959,-0.10914597258613128,0.0024753473385575597,1.287412755281226,-2.032281211390362,0.8881805646621772
1731474161.5199888,-0.36124423146247864,0.5293492674827576,-9.995766639709473,-0.018499885343263578,-0.1084898845318253,0.00238391325965787,1.288235136235818,-2.0959573178268123,0.8883333428179707
1731474161.570011,-0.3769206404685974,0.5511707663536072,-9.91990852355957,-0.019959947806547456,-0.10782099372103887,0.002289612668782202,1.2874408982378964,-2.1469287884989874,0.8880467275626691
1731474161.6198852,-0.3783719837665558,0.543317973613739,-9.976374626159668,-0.021421432535039035,-0.10714287533344546,0.0021924976207550653,1.288061480068107,-2.2110260492092357,0.8881807572432168
1731474161.6698837,-0.24439649283885956,0.7247949242591858,-9.980547904968262,-0.022877643194166502,-0.10645937546055241,0.002093031813102101,1.2886215228778632,-2.2748152745412202,0.8883189093204515
1731474161.7198694,0.5133981704711914,1.6614665985107422,-9.919093132019043,-0.024322590149488746,-0.10577606575491011,0.0019920802947740596,1.2875970458909116,-2.3255929171184664,0.8880362743903704
1731474161.769799,0.2999531030654907,1.1952157020568848,-10.016883850097656,-0.025754176554282,-0.10510384135389197,0.0018908162313791294,1.28794967168886,-2.389950494006204,0.8881580039035009
1731474161.8197489,0.4892212450504303,1.505788803100586,-9.938413619995117,-0.027177589813449247,-0.10446228372656993,0.0017906462620859767,1.2882386520601434,-2.455137284965302,0.8882854429318449
1731474161.8706505,-0.516516387462616,-0.022402653470635414,-9.965340614318848,-0.02860558955485451,-0.10387885794254266,0.0016931066347536134,1.2873587430453335,-2.5061207374574224,0.8880123055690677
1731474161.9206002,-0.9550522565841675,-0.21024510264396667,-10.16689682006836,-0.030054108351284775,-0.10338253917012515,0.0015996737251800406,1.2867061397398507,-2.5561555955624087,0.8878405239592859
1731474161.9705899,-0.7593311667442322,-0.04050649330019951,-10.03207015991211,-0.03153521147103552,-0.10299512507858254,0.0015111998904471862,1.2867028369362916,-2.6212147275027537,0.8879374877120018
1731474162.0203743,-0.5015047788619995,0.2697582244873047,-10.028075218200684,-0.03305262231741121,-0.10272666337269482,0.0014273713170645287,1.2860222840170705,-2.670461694828267,0.8877863006405389
1731474162.0706327,-0.5015047788619995,0.2697582244873047,-10.028075218200684,-0.03460239960141906,-0.10257702578842638,0.001346879554986083,1.2858356463927376,-2.7362300542580744,0.8878752659287708
1731474162.0706327,-0.6376875638961792,0.10086476802825928,-9.939265251159668,-0.03617568172810538,-0.10253934569925606,0.001267992030249098,1.2858340974870006,-2.73667276202068,0.8878758750770352
1731474162.1203902,-0.4812456965446472,0.29825708270072937,-9.977543830871582,-0.03776025672941289,-0.10260189509090555,0.00118905777805543,1.285557204445901,-2.802382843371163,0.8879676071775245
1731474162.1703827,-0.5795964598655701,0.24074093997478485,-9.958183288574219,-0.039341159836472385,-0.10274892973679293,0.001108878456975558,1.2851881144884147,-2.867713959413571,0.8880612854356386
1731474162.2203078,-0.5795964598655701,0.24074093997478485,-9.958183288574219,-0.04090125181864125,-0.10296168747814388,0.0010268386221350943,1.284690621527959,-2.915920965764568,0.8878453504780748
1731474162.2203078,-0.508014976978302,0.46040502190589905,-9.957934379577637,-0.042421719950103576,-0.10321947648269408,0.0009428739988635178,1.2846878464409313,-2.916303142405899,0.8878458182887445
1731474162.2702415,-0.508804440498352,0.4490143060684204,-9.982624053955078,-0.043882604600382444,-0.10350093842928859,0.0008574050200756629,1.284158283052913,-2.981920431111618,0.887927038763689
1731474162.320172,-0.48865872621536255,0.4541880786418915,-9.978496551513672,-0.045263541632284486,-0.10378548694894482,0.0007711941375858544,1.2835112682937406,-3.048581724240347,0.8880112607692613
1731474162.370213,-0.5410983562469482,0.4174778163433075,-9.919493675231934,-0.04654437580758952,-0.10405414826088567,0.0006852220887077011,1.283306105587419,-3.095535853733052,0.8877969437867705
1731474162.4201007,-0.5410983562469482,0.4174778163433075,-9.919493675231934,-0.0477053952834802,-0.10428960494953342,0.0006007898301688071,1.282520285250815,-3.162443394725576,0.8878683038377436
1731474162.4201007,-0.47556886076927185,0.47924375534057617,-9.938119888305664,-0.04872740469319895,-0.1044760371635544,0.000519748569086673,1.2825147558968575,-3.1628815788074918,0.8878687752101702
1731474162.47022,-0.47460830211639404,0.529241681098938,-10.030539512634277,-0.04959201222293909,-0.10459925329329695,0.00044445893985151747,1.2816139415280947,-3.229523062653368,0.8879408765764678
1731474162.5199964,-0.4850676357746124,0.5224998593330383,-9.974165916442871,-0.05028211064860092,-0.1046471242936321,0.000377354041549722,1.2814381624496956,-3.2752554265222664,0.8877372091918072
1731474162.5699408,-0.48955443501472473,0.4771479666233063,-9.996931076049805,-0.05078218128786438,-0.10460988828115966,0.0003205121151731306,1.280386775820077,-3.3427536037494465,0.8877974198001143
1731474162.6199024,-0.4665283262729645,0.4885329604148865,-9.979948997497559,-0.05107835587243034,-0.10448000673721801,0.0002755683610290236,1.2802459109735016,-3.3880228661873595,0.8876427824367185
1731474162.669962,-0.46965348720550537,0.5105751752853394,-9.998185157775879,-0.051158468570556934,-0.10425181208960033,0.0002437973893724173,1.2791525124732652,-3.432572874496432,0.8875395495513914
1731474162.7198188,-0.4509274959564209,0.5246589779853821,-10.004263877868652,-0.05101217484913776,-0.10392133795782041,0.0002261345197833033,1.2778567680413404,-3.5001670628126034,0.8875823326521466
1731474162.7698064,-0.4414564073085785,0.5083518624305725,-9.974061965942383,-0.05063107300941359,-0.1034863290133812,0.00022315539953755414,1.2764330770328132,-3.5680717669955486,0.8876257095135975
1731474162.8197534,-0.41812509298324585,0.5166147947311401,-9.975350379943848,-0.05000881974426057,-0.10294619063346414,0.0002351393022626388,1.2765758790678752,-3.6113259336807055,0.8875168036233702
1731474162.8696876,-0.38708367943763733,0.5227304100990295,-9.974908828735352,-0.04914127227099646,-0.10230183140087022,0.0002622220740223484,1.2750797633260376,-3.679399819412254,0.8875537943172551
1731474162.9196005,-0.36882284283638,0.5231413841247559,-9.979649543762207,-0.04802666550052258,-0.10155551542502189,0.0003045004738594958,1.27386865818156,-3.721664056224931,0.8874621070061931
1731474162.970591,-0.3273898661136627,0.5379171371459961,-10.020581245422363,-0.04666579605763394,-0.10071076255275606,0.0003619985193143272,1.272120789871635,-3.7913733846994004,0.8874950387867576
1731474163.0204976,-0.3707225024700165,0.505232036113739,-9.976547241210938,-0.04506212880991395,-0.09977224040653679,0.00043453583718518245,1.2702879140169938,-3.860099982879979,0.8875283929138643
1731474163.070438,-0.3476724922657013,0.5362069010734558,-9.949875831604004,-0.04322169727438875,-0.09874559910623487,0.000521695909574744,1.2683516964315602,-3.9288231291538476,0.8875628168420869
1731474163.1203568,-0.3835640251636505,0.5246970653533936,-9.991329193115234,-0.041152788275670496,-0.09763729833355457,0.0006230017358136603,1.26914021486837,-3.968796796228626,0.8874537619470061
1731474163.1703653,-0.3614824414253235,0.5287243723869324,-9.99287223815918,-0.03886555976831367,-0.0964544949629466,0.0007380359669924591,1.2672285358747337,-4.037840387093346,0.8874847879216412
1731474163.2202575,-0.377625972032547,0.5039097666740417,-9.963214874267578,-0.03637170972230774,-0.09520492318920681,0.000866360323112019,1.2665277438554405,-4.077480944177915,0.8873983259979413
1731474163.2702463,-0.3766827881336212,0.5053097605705261,-10.006082534790039,-0.033684210928811555,-0.0938966904195896,0.0010074492188769432,1.2645116039108657,-4.146823885252761,0.8874281445752614
1731474163.3201778,-0.37935033440589905,0.516689121723175,-9.970401763916016,-0.03081707320771819,-0.09253806102644488,0.0011606949726686783,1.2636926780814477,-4.185149460293139,0.8873564796301738
1731474163.3702471,-0.40080633759498596,0.4964871406555176,-10.002296447753906,-0.027785100420100857,-0.09113732596293637,0.0013253920005353403,1.2615896166124354,-4.254727439545131,0.8873869930957414
1731474163.4201424,-0.38300633430480957,0.5083088278770447,-10.015450477600098,-0.024603643725342097,-0.0897027249402568,0.001500689644742953,1.2594290962636059,-4.324265790428736,0.8874209219854327
1731474163.470025,-0.443865567445755,0.4779611825942993,-10.014248847961426,-0.0212883502583689,-0.08824234306201806,0.0016854873436617907,1.2602286663508422,-4.359829546423882,0.8873461877721468
1731474163.5200374,-0.3783123791217804,0.5307408571243286,-9.943964958190918,-0.017854910814047012,-0.08676401187926917,0.0018783916194091105,1.2581922508269576,-4.429538267905967,0.8873825645669688
